time,acc_x,acc_y,acc_z
0.000000000000000000e+00,-1.957024947434602702e-01,-1.982212775280331740e-01,-6.423000941728523872e-02
1.000000000000000021e-03,-2.431075917844737755e-01,-2.167822640200735562e-01,-1.400111132358205501e-01
2.000000000000000042e-03,-2.534155813338876406e-01,-1.336043333096081920e-01,-1.319701514325056502e-01
3.000000000000000062e-03,-1.898843454237169048e-01,-8.731052939547480352e-02,-1.533742191037593960e-01
4.000000000000000083e-03,-1.058886927995286720e-01,-1.842645476021653045e-02,-1.250977187003837476e-01
5.000000000000000104e-03,9.471168687410919931e-04,8.041259295854064071e-02,-7.081293047336034707e-02
6.000000000000000125e-03,6.695574829996364663e-02,1.385388246268328127e-01,-3.918004476547280041e-02
7.000000000000000146e-03,1.493842038339744105e-01,1.617694076238879730e-01,3.484930077765208134e-02
8.000000000000000167e-03,2.367081769890584664e-01,2.000776067785552670e-01,1.085380885629719516e-01
8.999999999999999320e-03,2.291810935031863838e-01,1.764926828655796198e-01,1.397474745329357892e-01
1.000000000000000021e-02,1.917015266884145031e-01,1.129288039460776133e-01,1.405640849984986507e-01
1.099999999999999936e-02,1.358802406038328581e-01,3.604922707582348257e-02,1.280270227039854714e-01
1.200000000000000025e-02,8.372358216998150582e-02,-4.437273995646628943e-02,8.726376229800077156e-02
1.299999999999999940e-02,-1.371776835131438381e-02,-9.312635119367065895e-02,5.420410989490619807e-02
1.400000000000000029e-02,-1.343667269343229720e-01,-1.690103232051608506e-01,1.008728031626982902e-03
1.499999999999999944e-02,-2.105378344587393036e-01,-2.001922762493951458e-01,-8.710280965770651751e-02
1.600000000000000033e-02,-2.643201969049704392e-01,-1.622311338740033138e-01,-1.023476707119995582e-01
1.700000000000000122e-02,-2.132325185321435335e-01,-1.728181596816231735e-01,-1.671900863604589282e-01
1.799999999999999864e-02,-1.909867307581508133e-01,-8.865001076704372152e-02,-1.511062041364435726e-01
1.899999999999999953e-02,-9.816313250670823110e-02,-2.462381838806007323e-03,-1.187798880155626624e-01
2.000000000000000042e-02,-4.213020070088852043e-02,7.685014231944227447e-02,-7.342974550191515293e-02
2.100000000000000130e-02,8.991560435723311429e-02,1.515929008045076576e-01,-1.947294594496425807e-02
2.199999999999999872e-02,1.817911197718661553e-01,1.857603628318615918e-01,4.360454248528910365e-02
2.299999999999999961e-02,2.563340525226609490e-01,1.852946432655746545e-01,1.164752136586121450e-01
2.400000000000000050e-02,2.608665145321415468e-01,1.642302434566605684e-01,1.513746995438032261e-01
2.500000000000000139e-02,2.295988281097151029e-01,9.198783827584096351e-02,1.496808993092737239e-01
2.599999999999999881e-02,1.673066668203007368e-01,3.453482811411918030e-03,1.339316211881916852e-01
2.699999999999999969e-02,4.757615077915389873e-02,-4.963171013307231261e-02,1.338650695884732456e-01
2.800000000000000058e-02,-3.820108015537957563e-02,-1.177700708854018813e-01,4.771686771300949481e-02
2.900000000000000147e-02,-1.346152009452109555e-01,-1.732851599874054016e-01,-2.102617163333511847e-03
2.999999999999999889e-02,-2.080122161934041258e-01,-1.798114726417940346e-01,-7.536994876499480966e-02
3.099999999999999978e-02,-2.475596143397262028e-01,-1.636270315040488088e-01,-1.379272027560191072e-01
3.200000000000000067e-02,-2.304597231245564815e-01,-1.344343436332327002e-01,-1.475108381821574610e-01
3.300000000000000155e-02,-1.794607776143846145e-01,-7.741827370985604473e-02,-1.509974264570262681e-01
3.400000000000000244e-02,-1.597384664257061049e-01,1.192976786275390909e-02,-1.048313691514335677e-01
3.500000000000000333e-02,-3.372762994278603876e-02,1.082808812281211980e-01,-1.062569510878136475e-01
3.599999999999999728e-02,5.341708433537104700e-02,1.547244488330326573e-01,-4.716692390908524407e-02
3.699999999999999817e-02,1.895686162023316468e-01,1.783978175521055698e-01,3.259508157800587030e-02
3.799999999999999906e-02,2.264882764991708597e-01,1.799702305063875518e-01,9.885426830322358027e-02
3.899999999999999994e-02,2.135568335960600916e-01,1.608604878547724160e-01,1.732419613291594496e-01
4.000000000000000083e-02,1.976613344049085175e-01,1.119218022681127273e-01,1.406104558063849264e-01
4.100000000000000172e-02,1.564896314367553998e-01,5.976208580947355020e-02,1.617644997936361906e-01
4.200000000000000261e-02,6.333434291438688746e-02,-4.423147019728020796e-02,9.022664930528524752e-02
4.299999999999999656e-02,-1.802289542461270669e-02,-1.256576050300198533e-01,1.096192283625537639e-01
4.399999999999999745e-02,-1.125082605209898473e-01,-1.680290801331935091e-01,3.585595695224748358e-02
4.499999999999999833e-02,-1.891039215842847954e-01,-1.695349751132267935e-01,-4.196672414602006101e-02
4.599999999999999922e-02,-2.313588268665892067e-01,-1.667032039208956595e-01,-1.048798181948818048e-01
4.700000000000000011e-02,-2.282099354533673741e-01,-1.221219569915261427e-01,-1.402242810459919942e-01
4.800000000000000100e-02,-2.074845636843542229e-01,-7.260365589046195722e-02,-1.227929334732614369e-01
4.900000000000000189e-02,-1.091031187410449743e-01,6.499646798299443806e-02,-1.500102668387502669e-01
5.000000000000000278e-02,-1.055762789869996512e-02,9.928024064658558245e-02,-9.357510214548743488e-02
5.099999999999999672e-02,6.815776968465847574e-02,1.500016788244581123e-01,-9.167596546584821926e-02
5.199999999999999761e-02,1.621530272735646483e-01,1.904930085270321594e-01,1.554681903958246743e-02
5.299999999999999850e-02,2.178633374120040322e-01,2.174237113394797138e-01,6.603751298086545096e-02
5.399999999999999939e-02,2.139877219678688880e-01,1.895681664075382078e-01,1.356027424497139588e-01
5.500000000000000028e-02,2.306368059972615792e-01,1.273687099027605296e-01,1.406827211896908569e-01
5.600000000000000117e-02,1.651646086268020175e-01,2.792827579893107648e-02,1.599278341407928128e-01
5.700000000000000205e-02,7.884318058711599353e-02,-5.319513685334681385e-02,1.113366593061512339e-01
5.800000000000000294e-02,1.081965352564113678e-02,-1.275636982908656403e-01,1.052401890536517060e-01
5.899999999999999689e-02,-1.171705171960299718e-01,-1.864598709630045925e-01,6.151746306038364392e-02
5.999999999999999778e-02,-1.827531506272324358e-01,-2.004523125795701077e-01,-4.453593440406565518e-02
6.099999999999999867e-02,-2.471691345645803950e-01,-1.703499176945143245e-01,-6.503741061882864494e-02
6.199999999999999956e-02,-2.347847584749210015e-01,-1.398632700105718607e-01,-1.466709166526939667e-01
6.300000000000000044e-02,-2.195136156903818581e-01,-4.729281622530615015e-02,-1.168281245943103702e-01
6.400000000000000133e-02,-1.411899266996122781e-01,3.253353168240132043e-02,-1.378584037013714791e-01
6.500000000000000222e-02,-5.311730872455149022e-02,1.007719631740996019e-01,-1.039947424267115839e-01
6.600000000000000311e-02,6.519378179975099386e-02,1.830715958141662658e-01,-5.895063719677340330e-02
6.700000000000000400e-02,1.582052850605324135e-01,2.148604150823422987e-01,-1.121755259107357853e-03
6.800000000000000488e-02,2.277244877345693252e-01,1.960843291678723843e-01,5.343306804508873853e-02
6.900000000000000577e-02,2.582734985668954097e-01,1.401332602430550855e-01,9.269415200115041498e-02
7.000000000000000666e-02,2.171091141000764946e-01,8.162533367556375208e-02,1.308638995671672356e-01
7.099999999999999367e-02,1.487594214704588136e-01,4.451442493123129035e-02,1.470222550750939494e-01
7.199999999999999456e-02,8.373960066276742165e-02,-7.117745587569157539e-02,1.239210044100749475e-01
7.299999999999999545e-02,1.761879468938863311e-02,-1.509945531430372800e-01,1.087359388822101702e-01
7.399999999999999634e-02,-1.207207947536169390e-01,-1.678066702356769690e-01,5.082616560291480790e-02
7.499999999999999722e-02,-1.768161440636733250e-01,-1.854560411768068073e-01,-6.681062775614510750e-03
7.599999999999999811e-02,-2.057120972067304210e-01,-1.703478820933311821e-01,-7.159603133872553815e-02
7.699999999999999900e-02,-2.462751014988988907e-01,-1.015730221500867059e-01,-1.172813531907975493e-01
7.799999999999999989e-02,-2.265429887567741163e-01,-6.611495505634507053e-02,-1.285645341243218942e-01
7.900000000000000078e-02,-1.308474828231068754e-01,2.826593581064789848e-02,-1.379850350731107733e-01
8.000000000000000167e-02,-4.488010070382301986e-02,1.311440746818906544e-01,-1.052136080145675417e-01
8.100000000000000255e-02,5.916483635655010037e-02,1.619830649357346108e-01,-7.449775723442871034e-02
8.200000000000000344e-02,1.413544505248408301e-01,1.894536342572586685e-01,-1.332990313275927638e-02
8.300000000000000433e-02,2.019265774608239583e-01,1.803163852181453308e-01,2.372842397350994822e-02
8.400000000000000522e-02,2.177267709035962673e-01,1.557310765821093568e-01,6.120435963835041404e-02
8.500000000000000611e-02,2.294401753380645725e-01,1.098306155511822313e-01,9.343125148389200274e-02
8.599999999999999312e-02,1.954975434090560626e-01,1.665695805921819234e-02,1.470978650285962031e-01
8.699999999999999400e-02,1.144600139968615371e-01,-6.714987315365930631e-02,1.427609791828597097e-01
8.799999999999999489e-02,-9.221723771340001666e-03,-1.448257668297781298e-01,1.015109955569420686e-01
8.899999999999999578e-02,-1.069598523396955991e-01,-1.850963184516931648e-01,6.976207254424887649e-02
8.999999999999999667e-02,-1.842566325044816822e-01,-1.966038248965531754e-01,-3.783987711752814093e-02
9.099999999999999756e-02,-2.287132741667570746e-01,-1.298854818730191263e-01,-3.416682242776744594e-02
9.199999999999999845e-02,-2.243330630925274571e-01,-1.136244287051658280e-01,-9.888722753408578370e-02
9.299999999999999933e-02,-2.153063266442599433e-01,-5.407970974634034728e-02,-1.484254760781338889e-01
9.400000000000000022e-02,-1.370647484096224333e-01,1.980668099594052808e-02,-1.492328394999720698e-01
9.500000000000000111e-02,-2.384204133671269030e-02,1.049503960916752382e-01,-1.070853146419576268e-01
9.600000000000000200e-02,4.534657452171982073e-02,1.698006117258525627e-01,-9.568424918096753162e-02
9.700000000000000289e-02,1.696959688981520553e-01,1.815081505997382938e-01,-2.414831184978985176e-02
9.800000000000000377e-02,1.979268604659635000e-01,1.751069807460837180e-01,1.327239824083481859e-02
9.900000000000000466e-02,2.127840383168239091e-01,1.456161911412922894e-01,1.041312521643633221e-01
1.000000000000000056e-01,2.372331882756665289e-01,9.855187981597295088e-02,1.380817074292337576e-01
1.010000000000000064e-01,2.016364453647270238e-01,-1.143769079708238483e-02,1.339569594863363189e-01
1.019999999999999934e-01,9.024313427665442422e-02,-1.007536292712149645e-01,1.494515260953662439e-01
1.029999999999999943e-01,-2.396603371333523580e-02,-1.435094962524723072e-01,9.883017208951147548e-02
1.039999999999999952e-01,-1.017797458772011915e-01,-1.878878083992491788e-01,2.331012261363462484e-02
1.049999999999999961e-01,-1.824965508094963662e-01,-1.920072752812728989e-01,8.230770417561584368e-03
1.059999999999999970e-01,-2.452484224973928983e-01,-1.539437830526980688e-01,-4.669887985929164348e-02
1.069999999999999979e-01,-2.474224338830319780e-01,-1.161277204840902161e-01,-1.074618670706051354e-01
1.079999999999999988e-01,-2.292764646363061876e-01,-5.088796890524245088e-03,-1.206509612513032847e-01
1.089999999999999997e-01,-1.514277218951925463e-01,6.375599473025871100e-02,-1.373391663188073542e-01
1.100000000000000006e-01,-4.264715276828607432e-02,1.139940414594482615e-01,-9.866652528948255396e-02
1.110000000000000014e-01,4.261412383485374544e-02,1.421125030605456252e-01,-1.301660188096431525e-01
1.120000000000000023e-01,1.318734704371764266e-01,1.916845760118502939e-01,-4.806522983765169899e-02
1.130000000000000032e-01,2.158404415426752598e-01,1.929887411577682343e-01,-1.178266235415772242e-03
1.140000000000000041e-01,2.578393272107700751e-01,1.068221877487194743e-01,1.108052044641609085e-01
1.150000000000000050e-01,2.321798766637861722e-01,7.650645773784953141e-02,1.108549219929402668e-01
1.160000000000000059e-01,2.002375522590895962e-01,-4.046681668646653213e-02,1.765761372050684286e-01
1.170000000000000068e-01,8.508478312867513715e-02,-8.152481371229845786e-02,1.466200014818139774e-01
1.179999999999999938e-01,-2.622013243055721851e-02,-1.706440871220194777e-01,1.239396033191148827e-01
1.189999999999999947e-01,-8.318904569041904451e-02,-1.689051925515847319e-01,1.043172979394562799e-01
1.199999999999999956e-01,-1.975820155250217480e-01,-1.887701223299357023e-01,1.846804150628469574e-02
1.209999999999999964e-01,-2.366772329648533235e-01,-1.678814065270695655e-01,-5.211417216691135307e-02
1.219999999999999973e-01,-2.715581655068518008e-01,-9.366366647087133457e-02,-8.027808829081982400e-02
1.229999999999999982e-01,-2.181186608958370632e-01,-2.417351483404826112e-02,-1.146986630869478579e-01
1.239999999999999991e-01,-1.432921842450718686e-01,6.564590444596914154e-02,-1.302490530144073955e-01
1.250000000000000000e-01,-7.365154209893277903e-02,1.373537064797921980e-01,-1.035092387637946282e-01
1.260000000000000009e-01,3.480075555292695688e-02,1.658969744185221917e-01,-7.528908146506990695e-02
1.270000000000000018e-01,1.381588126259410965e-01,1.882571881583689211e-01,-5.722013283488119190e-02
1.280000000000000027e-01,2.356820116748702953e-01,1.913366288916450997e-01,6.569007907614686503e-03
1.290000000000000036e-01,2.516147681337382869e-01,1.237335238122870967e-01,8.831763000905827610e-02
1.300000000000000044e-01,2.325475556968344404e-01,6.491420810405626463e-02,1.112203428319872844e-01
1.310000000000000053e-01,1.841266868285032776e-01,-2.070702168954828212e-02,1.481593539070744925e-01
1.320000000000000062e-01,1.144868785057895633e-01,-1.073212406892164461e-01,1.478412010382417208e-01
1.330000000000000071e-01,3.780196313701281868e-02,-1.365959318245418552e-01,1.329629366626331743e-01
1.340000000000000080e-01,-9.662240646415687362e-02,-1.928174770142332684e-01,9.756213538909201677e-02
1.350000000000000089e-01,-1.730181224118754746e-01,-1.957485457755128166e-01,4.852728697026333408e-04
1.360000000000000098e-01,-2.252359764623712568e-01,-1.400426257277119502e-01,-2.600623677802476295e-03
1.370000000000000107e-01,-2.240506863740374666e-01,-1.123621107828839255e-01,-1.131447383265478945e-01
1.380000000000000115e-01,-2.489799399431152360e-01,-1.462036517399877694e-02,-1.491970976643794966e-01
1.390000000000000124e-01,-1.385167605347142894e-01,8.691214128342612810e-02,-1.671076824450999643e-01
1.400000000000000133e-01,-4.669072456894260426e-02,1.114625838609110964e-01,-1.225554212091226336e-01
1.409999999999999865e-01,4.690714674682611857e-02,1.949966711239833894e-01,-1.049652623995981915e-01
1.419999999999999873e-01,1.334725391814453599e-01,2.158849538705591986e-01,-5.191524320134355969e-02
1.429999999999999882e-01,2.073235374635150896e-01,1.846241964971165050e-01,3.180305745894943664e-02
1.439999999999999891e-01,2.439677000956763653e-01,1.338673527374599215e-01,5.709957212483177114e-02
1.449999999999999900e-01,2.594586223509995349e-01,4.143748839864071914e-02,6.972828078183497535e-02
1.459999999999999909e-01,2.304528730260559932e-01,-8.073212740047772595e-04,1.572706604306573219e-01
1.469999999999999918e-01,1.430050909611831900e-01,-9.238545370361132825e-02,1.724884773405186700e-01
1.479999999999999927e-01,-8.419588072546495272e-03,-1.695227189101950194e-01,1.312846404134488110e-01
1.489999999999999936e-01,-9.922303390959398561e-02,-1.944042510260293732e-01,1.108221858817986516e-01
1.499999999999999944e-01,-1.683481807614887193e-01,-2.146639766969090646e-01,6.043345818428666472e-02
1.509999999999999953e-01,-2.379971861507383379e-01,-1.554310467350017988e-01,-2.232842649361657314e-02
1.519999999999999962e-01,-2.322978198902965474e-01,-5.783925011891883489e-02,-7.368781435557723858e-02
1.529999999999999971e-01,-2.242743946567915814e-01,1.673541252037016435e-03,-1.109723452383300363e-01
1.539999999999999980e-01,-1.630659087217829484e-01,1.188078047523905140e-01,-1.344318880709111375e-01
1.549999999999999989e-01,-5.567087161206931561e-02,1.279915833571846073e-01,-1.460188298680076546e-01
1.559999999999999998e-01,4.091649172355003167e-02,2.010043975136740213e-01,-1.318396604163197539e-01
1.570000000000000007e-01,1.404379306676191153e-01,2.134550427533137007e-01,-8.341108248778120182e-02
1.580000000000000016e-01,2.130976348933085462e-01,1.693812031735679735e-01,-9.562002955065036390e-04
1.590000000000000024e-01,2.221425860188301904e-01,9.858434751954912867e-02,4.342274811802043777e-02
1.600000000000000033e-01,2.286910634914528784e-01,2.048216276065696270e-02,9.935159793103644221e-02
1.610000000000000042e-01,1.752360210727667289e-01,-3.240596821091611818e-02,1.627396502102148312e-01
1.620000000000000051e-01,1.056337854493070438e-01,-1.124016903509103549e-01,1.006583719904479007e-01
1.630000000000000060e-01,-5.208289463991521047e-03,-1.841651785053790846e-01,1.458195473942631160e-01
1.640000000000000069e-01,-7.928506184461624196e-02,-1.888200361584424780e-01,1.243879273200742402e-01
1.650000000000000078e-01,-1.612386642785146595e-01,-1.776129950151900949e-01,4.379614728331306800e-02
1.660000000000000087e-01,-2.283808937249905691e-01,-1.544787193241890511e-01,3.958298704613495873e-03
1.670000000000000095e-01,-2.457378766968659756e-01,-8.923567966876581881e-02,-7.251566289215490013e-02
1.680000000000000104e-01,-2.094677104157907088e-01,1.390830054785220996e-02,-1.083545498590069434e-01
1.690000000000000113e-01,-1.666729580631086949e-01,9.250058559814676451e-02,-1.574902165803295506e-01
1.700000000000000122e-01,-8.669969557765350165e-02,1.647285220329586519e-01,-1.440227077423744950e-01
1.710000000000000131e-01,5.223312838219834608e-02,2.090416384826972174e-01,-1.318924645724351696e-01
1.719999999999999862e-01,1.533501418053005161e-01,1.855028880061674601e-01,-9.582917960194381468e-02
1.729999999999999871e-01,2.173403121381233538e-01,1.691433794792083778e-01,-2.018650891065713708e-03
1.739999999999999880e-01,2.496473700852069877e-01,1.040645182674966168e-01,4.047188271554829492e-02
1.749999999999999889e-01,2.085816702605345907e-01,4.928575389076598340e-02,1.220718587086932067e-01
1.759999999999999898e-01,1.808118514590238424e-01,-5.964158805608454211e-02,1.604365958915462964e-01
1.769999999999999907e-01,1.128887591070955043e-01,-1.053643288570862285e-01,1.493752991100875949e-01
1.779999999999999916e-01,2.986238150635369196e-02,-1.807964350021256938e-01,1.475356773723190962e-01
1.789999999999999925e-01,-7.689001342342172141e-02,-2.001639499997960592e-01,1.223363648292630779e-01
1.799999999999999933e-01,-1.726238800166069454e-01,-1.729584560255640335e-01,6.675272256628991818e-02
1.809999999999999942e-01,-2.432721126579843740e-01,-1.420017396574652924e-01,-1.780098865109539050e-03
1.819999999999999951e-01,-2.408449768275267855e-01,-7.786646556681635356e-02,-1.318240499753749358e-02
1.829999999999999960e-01,-2.163129890646494635e-01,-4.818947413045397005e-03,-1.250928221563046006e-01
1.839999999999999969e-01,-1.382721813821649048e-01,8.974232072088995926e-02,-1.346313065553249311e-01
1.849999999999999978e-01,-7.375451537880917119e-02,1.744242730694026133e-01,-1.534289227912762621e-01
1.859999999999999987e-01,2.879044278971144150e-02,1.829139351227555277e-01,-1.386073093391730349e-01
1.869999999999999996e-01,1.148351343769133809e-01,2.083166994621368784e-01,-1.116215597792148129e-01
1.880000000000000004e-01,2.230688728556697031e-01,1.709992870233309203e-01,-4.736130991691692160e-02
1.890000000000000013e-01,2.666996914867372226e-01,9.452744479001386202e-02,1.770332801328930103e-02
1.900000000000000022e-01,2.533477436293655183e-01,3.216909781170651517e-02,9.698217601107156360e-02
1.910000000000000031e-01,1.944425270880175138e-01,-5.896156322318907295e-02,1.430932232792473113e-01
1.920000000000000040e-01,1.131114954945872803e-01,-1.292731590648939222e-01,1.421240996998126560e-01
1.930000000000000049e-01,5.990810552383375037e-02,-1.627048777091840981e-01,1.324451271497511518e-01
1.940000000000000058e-01,-7.106986951942582953e-02,-2.093038050936886774e-01,1.038739068074687327e-01
1.950000000000000067e-01,-1.512775747410108618e-01,-1.748183721838904026e-01,9.182034367821811927e-02
1.960000000000000075e-01,-2.121217759595223906e-01,-1.179119078303389190e-01,4.203286342873824993e-02
1.970000000000000084e-01,-2.487747358998501357e-01,-8.048224693032210442e-02,-1.183117725137219564e-02
1.980000000000000093e-01,-2.555082512125644856e-01,3.954925462930689202e-03,-1.048818010812300056e-01
1.990000000000000102e-01,-1.744749312493734661e-01,7.316776597915226887e-02,-1.340649593286699637e-01
2.000000000000000111e-01,-7.812120090168114817e-02,1.515800483966586454e-01,-1.522883247340815205e-01
2.010000000000000120e-01,-1.710721488587819278e-02,1.854594777467913069e-01,-1.473070567578598500e-01
2.020000000000000129e-01,1.400866844142857059e-01,2.021426080200984243e-01,-1.122468561225622163e-01
2.030000000000000138e-01,1.761984219932847817e-01,1.423645597575368127e-01,-7.183427560595313788e-02
2.039999999999999869e-01,2.609849146278381271e-01,9.235116032469835312e-02,-9.023788517738218218e-03
2.049999999999999878e-01,2.536527858097722965e-01,4.713348045087671634e-02,7.739268634925569601e-02
2.059999999999999887e-01,2.251241905562432200e-01,-6.986074873533142104e-02,1.052792820055668543e-01
2.069999999999999896e-01,1.388986320726440793e-01,-1.373732295321501706e-01,1.449341409879843501e-01
2.079999999999999905e-01,1.040599193214390705e-02,-2.007934038284189260e-01,1.294081564309569610e-01
2.089999999999999913e-01,-8.888737253749769140e-02,-2.124572802390457815e-01,9.157475643875334637e-02
2.099999999999999922e-01,-1.770967415733370187e-01,-1.819535116342411440e-01,6.441071210280731318e-02
2.109999999999999931e-01,-2.026181480615459052e-01,-1.409671500942018818e-01,2.419339182254352447e-02
2.119999999999999940e-01,-2.545638478038890207e-01,-4.261769530668484823e-02,-4.212502712602936294e-02
2.129999999999999949e-01,-2.371508438612818237e-01,3.284323294360790100e-03,-7.877587689631304624e-02
2.139999999999999958e-01,-1.781810513551580211e-01,7.719280185419717666e-02,-1.304443036704495962e-01
2.149999999999999967e-01,-1.165364480555348553e-01,1.640549725507997880e-01,-1.433749338067017154e-01
2.159999999999999976e-01,3.205448336230727353e-03,1.915681849454657082e-01,-1.371629795811693253e-01
2.169999999999999984e-01,9.903813231471009226e-02,2.016892546020114252e-01,-1.136535943462472498e-01
2.179999999999999993e-01,1.654117731317067130e-01,1.346075316772073205e-01,-3.564336676911585705e-02
2.190000000000000002e-01,2.447974528649535797e-01,9.048156284471720046e-02,-1.917889403390118583e-02
2.200000000000000011e-01,2.363923492099588297e-01,-2.757787531593574324e-04,5.623754716501339068e-02
2.210000000000000020e-01,2.036589897592523124e-01,-7.142612230550976493e-02,9.987153824962063942e-02
2.220000000000000029e-01,1.284113340224131983e-01,-1.456148714177469550e-01,1.181597088962596520e-01
2.230000000000000038e-01,5.389784456598303158e-02,-2.088671823027260788e-01,1.541762392839629014e-01
2.240000000000000047e-01,-5.188523072969235955e-02,-1.819632434873146576e-01,1.516296390226345436e-01
2.250000000000000056e-01,-1.922075578148579877e-01,-1.628373796991750277e-01,8.221143659803925585e-02
2.260000000000000064e-01,-2.268136420112175089e-01,-1.032515076354595523e-01,4.907248626268585073e-02
2.270000000000000073e-01,-2.799395892790678131e-01,-3.672389981362161882e-02,-2.281404881606743235e-02
2.280000000000000082e-01,-2.525099197029691545e-01,2.151335951355811543e-02,-7.201039902349841426e-02
2.290000000000000091e-01,-2.093841336885836901e-01,9.671245625907193277e-02,-1.031149987972842519e-01
2.300000000000000100e-01,-6.594405328484025108e-02,1.656644505184631799e-01,-1.570941346625748525e-01
2.310000000000000109e-01,2.597526114819449783e-02,1.854321581689118981e-01,-1.577169597244418298e-01
2.320000000000000118e-01,1.036739145924832628e-01,1.989770640219019338e-01,-1.204006418511441162e-01
2.330000000000000127e-01,2.060569477897581381e-01,1.785015528491989967e-01,-8.775736970652003865e-02
2.340000000000000135e-01,2.413982548422684837e-01,9.893385417809159865e-02,-2.156170681390117555e-02
2.349999999999999867e-01,2.446828165507594910e-01,-3.044616054076708378e-03,2.700731669739618590e-02
2.359999999999999876e-01,2.142291482623351895e-01,-7.192495202121428066e-02,1.216551915021977931e-01
2.369999999999999885e-01,1.383378506537505381e-01,-1.398156083682484674e-01,1.307922390586347128e-01
2.379999999999999893e-01,4.001220340067574571e-02,-1.907121669990609891e-01,1.511685034823009310e-01
2.389999999999999902e-01,-6.807394336177827188e-02,-2.078896044679391930e-01,1.114538875425951370e-01
2.399999999999999911e-01,-1.516657848022123500e-01,-1.648214887655229111e-01,1.149430538328920504e-01
2.409999999999999920e-01,-2.214166162099943658e-01,-1.234678224426715570e-01,4.246289177486126803e-02
2.419999999999999929e-01,-2.377930170546158073e-01,-5.004455949312384966e-02,-2.320401305897677041e-02
2.429999999999999938e-01,-2.257540803607587798e-01,3.672993638628795077e-02,-6.742218280818994269e-02
2.439999999999999947e-01,-1.851087821650747867e-01,9.703584332753566188e-02,-1.045051691853227244e-01
2.449999999999999956e-01,-9.885532013579982624e-02,1.376976937506145526e-01,-1.570604931367727553e-01
2.459999999999999964e-01,-3.381925399181865549e-02,2.035865576141457078e-01,-1.741335703896798315e-01
2.469999999999999973e-01,9.252495641147115424e-02,1.769702338560967259e-01,-1.212005056429378974e-01
2.479999999999999982e-01,1.822792115966547499e-01,1.475336819827318680e-01,-6.591571800229194256e-02
2.489999999999999991e-01,2.286667879371397927e-01,8.363010405676800374e-02,-1.689787229745521105e-02
2.500000000000000000e-01,2.288060226521821394e-01,-3.149881895324588288e-02,1.404018960816113062e-02
2.510000000000000009e-01,2.328431064685570484e-01,-6.755030638334789950e-02,9.669920214784087642e-02
2.520000000000000018e-01,1.123030400130651807e-01,-1.570785112577327280e-01,1.029343183748887419e-01
2.530000000000000027e-01,2.127289458951466330e-02,-1.912870856047524382e-01,1.476925218010889385e-01
2.540000000000000036e-01,-4.704887743818013390e-02,-1.965176909128203975e-01,1.356616531327475006e-01
2.550000000000000044e-01,-1.390643967914737267e-01,-1.868423352712234031e-01,1.233000823242151045e-01
2.560000000000000053e-01,-2.112540275187725636e-01,-1.271014032819258732e-01,8.017938085034237439e-02
2.570000000000000062e-01,-2.373829253798943884e-01,-2.431005806850964138e-02,-1.261786620813155901e-02
2.580000000000000071e-01,-2.471992780701749992e-01,1.673442656252692451e-02,-6.573922861809139429e-02
2.590000000000000080e-01,-1.791742494548257403e-01,1.267390585267771652e-01,-9.579075580463193573e-02
2.600000000000000089e-01,-5.546946357069530015e-02,1.893168962440473502e-01,-1.419622197488522308e-01
2.610000000000000098e-01,-4.277849847241432628e-03,1.792679656095759189e-01,-1.702422405550586826e-01
2.620000000000000107e-01,6.471491627529808721e-02,1.801851251554812683e-01,-1.085317473882430467e-01
2.630000000000000115e-01,1.964378938643888961e-01,1.736243326658507002e-01,-1.063891906439938112e-01
2.640000000000000124e-01,2.317003100294700302e-01,8.780808073632111188e-02,-9.608017530685850072e-02
2.650000000000000133e-01,2.525509131509531269e-01,-2.767454057248792607e-02,5.399016903432132114e-02
2.660000000000000142e-01,2.118281994639623633e-01,-8.700563953258846905e-02,7.609374991747255845e-02
2.670000000000000151e-01,1.463234758529714241e-01,-1.448518908436721153e-01,1.272032399160090421e-01
2.680000000000000160e-01,4.208716673157529564e-02,-2.076561397469580961e-01,1.487412260942674036e-01
2.690000000000000169e-01,-9.611391857195575317e-03,-1.994709993285321281e-01,1.647912225906303096e-01
2.700000000000000178e-01,-1.459513074834527246e-01,-1.472230459693249505e-01,1.256732923390784240e-01
2.710000000000000187e-01,-1.993121116045616925e-01,-5.677464881751451142e-02,6.208143451067080210e-02
2.720000000000000195e-01,-2.442310983059965412e-01,-2.959853318111036607e-02,1.634416533452804493e-02
2.730000000000000204e-01,-2.521227601606972346e-01,5.459342510190021147e-02,-2.634643788606046665e-03
2.740000000000000213e-01,-1.836353505733657465e-01,1.323709106537154512e-01,-8.266818181893836881e-02
2.750000000000000222e-01,-1.228302077177866325e-01,1.529653959407718811e-01,-1.432629381729652318e-01
2.760000000000000231e-01,-9.421118782403923794e-03,2.195771073519580674e-01,-1.439828752919542210e-01
2.770000000000000240e-01,7.929389305891505757e-02,1.603253946551863873e-01,-1.269886603987146201e-01
2.780000000000000249e-01,1.740260379818209524e-01,1.312315102507406184e-01,-1.107444712768770601e-01
2.790000000000000258e-01,2.518868964383746412e-01,6.563287224697261779e-02,2.672329126313290320e-03
2.800000000000000266e-01,2.604486791782302246e-01,-2.033342764904612701e-02,2.421469704834705236e-02
2.810000000000000275e-01,2.168649446911352363e-01,-1.203897448562208788e-01,8.409421620010837373e-02
2.819999999999999729e-01,1.302529281857179866e-01,-1.617634358298526420e-01,1.390871221987440287e-01
2.829999999999999738e-01,6.421387386561155930e-02,-1.994391762949114244e-01,1.478694392926247769e-01
2.839999999999999747e-01,-5.013589920648823389e-03,-2.126544158563287434e-01,1.309805149421475468e-01
2.849999999999999756e-01,-1.276695231469860137e-01,-1.763127306141690220e-01,1.385944754774821319e-01
2.859999999999999765e-01,-2.189748335548302727e-01,-1.123322846126893759e-01,1.020309390277376188e-01
2.869999999999999774e-01,-2.385082118786633620e-01,-3.259863264189132026e-02,3.454529237478596443e-02
2.879999999999999782e-01,-2.165834481366687159e-01,9.157591341726842651e-03,-2.565160444303358697e-02
2.889999999999999791e-01,-2.030473662443545990e-01,1.485941495393036382e-01,-1.118133185822335202e-01
2.899999999999999800e-01,-1.250969247048677457e-01,1.821637176658755242e-01,-1.140796061410350726e-01
2.909999999999999809e-01,8.396052698843350579e-03,1.656573452265013568e-01,-1.510972797978515358e-01
2.919999999999999818e-01,8.705622716923334947e-02,1.899443270783768845e-01,-1.198121326576139373e-01
2.929999999999999827e-01,1.462992657848546929e-01,8.987789498945100708e-02,-1.118050881542890784e-01
2.939999999999999836e-01,2.445368138432011673e-01,6.164645668748879037e-02,-6.436607724143648956e-02
2.949999999999999845e-01,2.273670557836212081e-01,-8.224776797619908972e-03,-2.876783196481341384e-02
2.959999999999999853e-01,1.837108896952110715e-01,-1.019868230884125732e-01,7.519272307043686765e-02
2.969999999999999862e-01,1.565720408978909517e-01,-1.589443628923466190e-01,1.308961068680631057e-01
2.979999999999999871e-01,8.124051593223940992e-02,-1.642927805707162514e-01,1.651371736473307983e-01
2.989999999999999880e-01,-5.363885351167609061e-02,-2.126329425311065113e-01,1.762788743656534263e-01
2.999999999999999889e-01,-1.161346290380207286e-01,-1.599242859221315372e-01,1.211324675293855291e-01
3.009999999999999898e-01,-1.987568111203752985e-01,-7.162201681193790248e-02,9.975241687330625717e-02
3.019999999999999907e-01,-2.442594683177973514e-01,-2.896609813209163886e-02,3.563811165593381430e-02
3.029999999999999916e-01,-2.291537795503765795e-01,5.727613210158599005e-02,-2.041476231448926398e-02
3.039999999999999925e-01,-1.880804020598960125e-01,1.195376807943642761e-01,-8.353968343589143752e-02
3.049999999999999933e-01,-1.174084047850916662e-01,1.677743111261438824e-01,-1.067503027107572083e-01
3.059999999999999942e-01,-8.543172697142789596e-03,2.062539491765578992e-01,-1.544447488475954311e-01
3.069999999999999951e-01,1.121045080507566960e-01,1.914850857159563768e-01,-1.574321542577271360e-01
3.079999999999999960e-01,1.839973183317166194e-01,1.474461915300693260e-01,-1.082751199082276627e-01
3.089999999999999969e-01,2.085804951379245653e-01,5.068832592230097106e-02,-5.934497644241974734e-02
3.099999999999999978e-01,2.441361095173768536e-01,-7.597130883742929212e-03,-1.953944944732216235e-02
3.109999999999999987e-01,2.093757329825076674e-01,-1.392655483339916567e-01,8.571122784280184315e-02
3.119999999999999996e-01,1.496669395849718753e-01,-1.476827238055147262e-01,1.086032547221722905e-01
3.130000000000000004e-01,1.078983845156648025e-01,-1.941588117286480175e-01,1.236332655570977351e-01
3.140000000000000013e-01,6.388662134895995229e-03,-1.764296354015061907e-01,1.304289298560554478e-01
3.150000000000000022e-01,-1.199146976772857420e-01,-1.634239392708954075e-01,1.503977786646019110e-01
3.160000000000000031e-01,-2.278600768896655027e-01,-6.796732529746238316e-02,9.843567244629572444e-02
3.170000000000000040e-01,-2.666634117124809800e-01,1.604113532345616960e-02,5.281713990645781065e-02
3.180000000000000049e-01,-2.417924093730792479e-01,3.476300035644503544e-02,1.688262657472688888e-02
3.190000000000000058e-01,-2.157689772076775980e-01,1.595191548464804376e-01,-7.633954303105069950e-02
3.200000000000000067e-01,-9.871528135428565831e-02,1.771017679144564483e-01,-1.150755361392857140e-01
3.210000000000000075e-01,7.550109574792907875e-03,1.955720486260323909e-01,-1.585135161778010449e-01
3.220000000000000084e-01,7.009924925860294698e-02,1.988685354930621041e-01,-1.274658092559603495e-01
3.230000000000000093e-01,1.730113367105030331e-01,7.329326691084302181e-02,-1.385860541919969324e-01
3.240000000000000102e-01,2.314082201985469822e-01,7.225344795285262856e-02,-8.779413061903217075e-02
3.250000000000000111e-01,2.674840383816376455e-01,-5.382342428534751116e-02,-1.602649609188231197e-02
3.260000000000000120e-01,2.162370471751154932e-01,-1.200750537309050459e-01,1.080901610861268076e-02
3.270000000000000129e-01,1.447587926607584730e-01,-1.873979132968036365e-01,7.444410603005791049e-02
3.280000000000000138e-01,6.206710213407079513e-02,-2.013477067147070587e-01,1.437859059433921061e-01
3.290000000000000147e-01,-9.577495287710468402e-03,-1.918894017169904265e-01,1.550132849927531031e-01
3.300000000000000155e-01,-1.179063988788524170e-01,-1.274948556438289526e-01,1.537366279681574854e-01
3.310000000000000164e-01,-1.840709949243396482e-01,-1.023897161539646106e-01,1.303424881430673699e-01
3.320000000000000173e-01,-2.441992048576660523e-01,1.014001514641364038e-02,2.361607990379315306e-02
3.330000000000000182e-01,-2.509395780351597049e-01,7.252203856570525742e-02,3.613232042465802218e-03
3.340000000000000191e-01,-2.262428454143365908e-01,1.236822235488333199e-01,-6.019122032510640374e-02
3.350000000000000200e-01,-1.264094769496550419e-01,1.972277553001917649e-01,-7.925800780044861549e-02
3.360000000000000209e-01,-1.749478346385650515e-02,1.963948079376013345e-01,-1.606187862858328708e-01
3.370000000000000218e-01,4.976373351527685340e-02,1.544268321419816625e-01,-1.560417608718628335e-01
3.380000000000000226e-01,1.665951675494577733e-01,1.340008463498759683e-01,-1.267714624252734845e-01
3.390000000000000235e-01,1.942640561990560955e-01,1.727035404947196984e-02,-9.197061615450927152e-02
3.400000000000000244e-01,2.291572094242788349e-01,-5.509440971430256545e-02,-4.092321087296708210e-02
3.410000000000000253e-01,2.059032689842936470e-01,-1.154264387660108165e-01,5.694270392498115146e-02
3.420000000000000262e-01,1.638421517702148000e-01,-1.789473698468855289e-01,9.246540486485629873e-02
3.430000000000000271e-01,7.232997488763419358e-02,-1.859681051539410490e-01,1.389248242082966878e-01
3.439999999999999725e-01,-2.326459584193985713e-02,-1.742252698100493769e-01,1.462924256613572227e-01
3.449999999999999734e-01,-1.326908305506768748e-01,-1.381697550156690546e-01,1.637994965689357763e-01
3.459999999999999742e-01,-1.956296321666400884e-01,-5.115532750589389666e-02,1.237503625128376361e-01
3.469999999999999751e-01,-2.293173099366375978e-01,1.468442707956859293e-02,7.741822894082779627e-02
3.479999999999999760e-01,-2.317084802662703336e-01,8.964327600891926207e-02,6.468535783119536316e-03
3.489999999999999769e-01,-2.220550775670539490e-01,1.520669222245113195e-01,-3.593663632158795168e-02
3.499999999999999778e-01,-1.400433243446100595e-01,2.104976151969210896e-01,-9.224066461473973133e-02
3.509999999999999787e-01,-3.224702266351701929e-02,1.917727380841186546e-01,-1.479320383767111224e-01
3.519999999999999796e-01,7.001899972810564365e-02,1.775414587165425606e-01,-1.287565493907345537e-01
3.529999999999999805e-01,1.657523198698967470e-01,1.197720280302691787e-01,-1.143805764097589744e-01
3.539999999999999813e-01,2.211566193313524997e-01,1.834443864601325441e-02,-8.803782150694139386e-02
3.549999999999999822e-01,2.595070516200378985e-01,-4.265225544455293616e-02,-4.504090677158340689e-02
3.559999999999999831e-01,2.233506606955614204e-01,-1.128988519888258629e-01,3.057182927924870577e-02
3.569999999999999840e-01,1.673788210937990073e-01,-1.710502585141530640e-01,9.493613838901424073e-02
3.579999999999999849e-01,7.694819444776072881e-02,-1.906124684668958624e-01,1.118258765249671438e-01
3.589999999999999858e-01,-1.040745613917723467e-02,-2.016322467793206508e-01,1.348073568060084992e-01
3.599999999999999867e-01,-1.155468662922240486e-01,-1.051030327927636177e-01,1.442280836181787096e-01
3.609999999999999876e-01,-1.796548607141139065e-01,-6.907497519158159460e-02,1.349178562978640972e-01
3.619999999999999885e-01,-2.168403423797248819e-01,2.142580928941363247e-02,8.782736122535521328e-02
3.629999999999999893e-01,-2.400949133645049471e-01,9.789758859239174049e-02,2.874482319434419272e-02
3.639999999999999902e-01,-2.095887773144781141e-01,1.520182096073945666e-01,-3.847715965340717248e-02
3.649999999999999911e-01,-1.272620654012113772e-01,1.989295441754998783e-01,-9.198192706231234084e-02
3.659999999999999920e-01,-5.199298330352083997e-02,1.827760309214743195e-01,-1.216433662184262243e-01
3.669999999999999929e-01,6.521409233203950828e-02,1.660285323339714125e-01,-1.409063711603892044e-01
3.679999999999999938e-01,1.305544324956851854e-01,7.928160580962512194e-02,-1.439413621466508753e-01
3.689999999999999947e-01,1.967856371471313481e-01,2.735655032373214557e-02,-1.125299993848284663e-01
3.699999999999999956e-01,2.541322954182242966e-01,-7.856603782405198466e-02,-5.235035727556335006e-02
3.709999999999999964e-01,2.273221718308623407e-01,-1.376702196977127590e-01,-1.701073091653771546e-02
3.719999999999999973e-01,1.848534320545100751e-01,-2.191624534706905492e-01,5.377790874578137342e-02
3.729999999999999982e-01,9.166574442290555125e-02,-2.134441072683468943e-01,1.097855211097401168e-01
3.739999999999999991e-01,-4.191674388355495773e-02,-1.958218399482926919e-01,1.486002717431222642e-01
3.750000000000000000e-01,-1.116308792800152355e-01,-1.663000302287228893e-01,1.606922707566409148e-01
3.760000000000000009e-01,-1.946476173292766843e-01,-5.892402438208511201e-02,1.591602578154535930e-01
3.770000000000000018e-01,-2.138152766460167664e-01,1.446669679215931148e-02,5.541503173373227981e-02
3.780000000000000027e-01,-2.281837264221371064e-01,1.078067886591411034e-01,3.636993136641021584e-02
3.790000000000000036e-01,-2.141346908491203183e-01,1.683957936807437827e-01,-1.562262623926345510e-02
3.800000000000000044e-01,-1.389802189580479352e-01,2.065251343034290865e-01,-6.038979821292857902e-02
3.810000000000000053e-01,-8.020175808180807220e-02,1.798808725020573096e-01,-1.279806824085032435e-01
3.820000000000000062e-01,6.223552366727606172e-02,1.618929970901664683e-01,-1.606733600322415023e-01
3.830000000000000071e-01,1.718848445214814780e-01,7.364129323342712141e-02,-1.227422408376212803e-01
3.840000000000000080e-01,2.226951544234182789e-01,6.992837935542133357e-03,-1.174562553692429373e-01
3.850000000000000089e-01,2.214186684579584341e-01,-7.957034171076976525e-02,-7.644913920016450926e-02
3.860000000000000098e-01,2.406333607673050989e-01,-1.285858208552467241e-01,4.058635420270109012e-02
3.870000000000000107e-01,1.498624786625051830e-01,-1.881076870775537369e-01,1.257370874673773876e-02
3.880000000000000115e-01,9.636112857162021372e-02,-1.815231221980861120e-01,8.575542285601020498e-02
3.890000000000000124e-01,1.662998396691906704e-03,-1.900822679570656204e-01,1.049664963525178685e-01
3.900000000000000133e-01,-1.143408812831196997e-01,-1.447013668028868105e-01,1.704929644370583031e-01
3.910000000000000142e-01,-1.821497816647466572e-01,-3.932282109813284993e-02,1.188163472192713399e-01
3.920000000000000151e-01,-2.404438320107604998e-01,4.539554735698820426e-02,8.803330565565468946e-02
3.930000000000000160e-01,-2.704691715936189955e-01,1.061543380647164692e-01,4.622886419544845749e-02
3.940000000000000169e-01,-2.101071634529544374e-01,1.671934146397377474e-01,-1.475859753027144701e-03
3.950000000000000178e-01,-1.322588790642087730e-01,1.988161153440870244e-01,-7.853036746122168954e-02
3.960000000000000187e-01,-4.343863658895755903e-02,1.676893023686134576e-01,-1.212967975080126021e-01
3.970000000000000195e-01,4.400953710721848544e-02,1.424994305671876127e-01,-1.009262433211378235e-01
3.980000000000000204e-01,1.469641050619604206e-01,5.118960086972941526e-02,-1.369695305872822844e-01
3.990000000000000213e-01,2.134311287816894054e-01,3.461951542756973310e-02,-1.155321432503571277e-01
4.000000000000000222e-01,2.546935322577847938e-01,-6.938119098861236789e-02,-8.184838384963663560e-02
4.010000000000000231e-01,2.716622352607782065e-01,-1.282275934862766031e-01,-2.796140244303436939e-02
4.020000000000000240e-01,1.650753393326442331e-01,-1.736368688041219632e-01,3.391422629334556182e-02
4.030000000000000249e-01,1.018626296651282959e-01,-1.791911712825949021e-01,8.095507199174677149e-02
4.040000000000000258e-01,2.044471056632087350e-02,-1.765012461883201655e-01,1.419798228386490446e-01
4.050000000000000266e-01,-1.158802368106754271e-01,-1.214749265665500400e-01,1.564181451663682054e-01
4.060000000000000275e-01,-1.778656202225080973e-01,-3.976511329630905839e-02,1.397738549416335241e-01
4.069999999999999729e-01,-2.464940070499418157e-01,4.357579192627680092e-02,1.022970780832162530e-01
4.079999999999999738e-01,-2.684590329068441417e-01,1.104807398893601078e-01,7.453112681835051545e-02
4.089999999999999747e-01,-2.112099939086330702e-01,1.672019986838467198e-01,-2.464813341452864667e-02
4.099999999999999756e-01,-1.461425837956333296e-01,2.089966342973374747e-01,-4.475530434306925626e-02
4.109999999999999765e-01,-4.124423345876329638e-02,1.742773393412444249e-01,-9.322860424072336449e-02
4.119999999999999774e-01,6.397680401529866334e-02,1.347357534131646550e-01,-1.185236234574129771e-01
4.129999999999999782e-01,1.536124985550227362e-01,8.531047913204933830e-02,-1.549135401154327074e-01
4.139999999999999791e-01,2.220229658662970507e-01,-2.310287935180836694e-02,-1.485444091960264890e-01
4.149999999999999800e-01,2.425477513271384888e-01,-8.356259304051288916e-02,-1.279749408428051682e-01
4.159999999999999809e-01,2.401815565717208834e-01,-1.742593927893189010e-01,-5.841353167559432819e-02
4.169999999999999818e-01,1.901698756851825933e-01,-1.932094303839287375e-01,1.253304139357973735e-03
4.179999999999999827e-01,1.131261691334927294e-01,-2.157665009853604599e-01,1.038688555725728185e-01
4.189999999999999836e-01,2.470752677013052061e-03,-1.410424386945028641e-01,1.678659291125915998e-01
4.199999999999999845e-01,-1.026021506325280330e-01,-9.672516882074548572e-02,1.717154006547273459e-01
4.209999999999999853e-01,-1.405454535043295927e-01,-2.523131015315611611e-02,1.497730148105985148e-01
4.219999999999999862e-01,-2.268341831346053772e-01,5.762861698747048095e-02,1.313395759166925691e-01
4.229999999999999871e-01,-2.631560163075865044e-01,1.188266993749828998e-01,7.374645922103778561e-02
4.239999999999999880e-01,-2.114433976942544091e-01,1.653581954415918043e-01,9.777712336588044364e-04
4.249999999999999889e-01,-1.500061595855241570e-01,1.948221550145774750e-01,-2.896560569568725624e-02
4.259999999999999898e-01,-5.403943061046886931e-02,2.157913101733912320e-01,-8.450990876390498951e-02
4.269999999999999907e-01,3.788534141039068270e-02,1.195852493574179193e-01,-1.261305430856295429e-01
4.279999999999999916e-01,1.432248731245521212e-01,6.755664033326273799e-02,-1.767327218403424438e-01
4.289999999999999925e-01,2.107423515397428837e-01,1.367766687336094758e-02,-1.327685346575801228e-01
4.299999999999999933e-01,2.405379597830212546e-01,-1.119282604651453406e-01,-1.225091929341148994e-01
4.309999999999999942e-01,2.071349162390640763e-01,-1.750456772122064297e-01,-7.999301216959088523e-02
4.319999999999999951e-01,1.865231230189056399e-01,-1.879557414944283134e-01,-5.430057216321459296e-03
4.329999999999999960e-01,1.231946554596736465e-01,-1.929585528864776744e-01,5.462683640133276369e-02
4.339999999999999969e-01,6.835749385441083686e-04,-1.654926504252468011e-01,1.057059687011084187e-01
4.349999999999999978e-01,-1.089412022970587535e-01,-1.001879236697237330e-01,1.528574447419591142e-01
4.359999999999999987e-01,-1.758125584170970590e-01,-3.396633202990209655e-02,1.492126726278933391e-01
4.369999999999999996e-01,-2.245307391315508883e-01,6.233997847593628766e-02,1.189822554735176091e-01
4.380000000000000004e-01,-2.265168213134315933e-01,1.181314918715827417e-01,9.650667134295563832e-02
4.390000000000000013e-01,-2.371412494211939670e-01,1.732856662278430826e-01,3.045995114527189768e-02
4.400000000000000022e-01,-1.944290390183755768e-01,2.031125640372853647e-01,-3.207178806629347456e-02
4.410000000000000031e-01,-4.872436015994748709e-02,1.887398916348568545e-01,-8.189468042184147589e-02
4.420000000000000040e-01,4.810671780878383180e-02,1.430418472366187244e-01,-1.479144042355456656e-01
4.430000000000000049e-01,1.210569692394780766e-01,6.182106216671894722e-02,-1.171579068827303116e-01
4.440000000000000058e-01,2.059077086445134375e-01,-2.679813951313732290e-02,-1.483277768819001308e-01
4.450000000000000067e-01,2.504531997492990825e-01,-9.676922237461113574e-02,-1.237733636921866942e-01
4.460000000000000075e-01,2.599904284145690969e-01,-1.452247560268893067e-01,-5.196627712007285266e-02
4.470000000000000084e-01,1.879820816898105096e-01,-1.999107312159274785e-01,2.723914324153932712e-02
4.480000000000000093e-01,8.633745181407419256e-02,-2.153728237238385357e-01,1.004005208550852596e-01
4.490000000000000102e-01,1.849247617776858185e-02,-1.808552742999622875e-01,9.404821738608046267e-02
4.500000000000000111e-01,-8.828926011741661251e-02,-8.925841518810935515e-02,1.201709200588887277e-01
4.510000000000000120e-01,-1.842070058081007600e-01,-3.671658916025894587e-02,1.444902843278262072e-01
4.520000000000000129e-01,-2.316574882704193483e-01,8.423311699721927615e-02,1.339919262965298397e-01
4.530000000000000138e-01,-2.561238494633596430e-01,1.671907374878774111e-01,8.462581269950972263e-02
4.540000000000000147e-01,-2.292877237989380812e-01,1.586383049623392161e-01,4.720583146372817063e-02
4.550000000000000155e-01,-1.189134698456052186e-01,2.086779375836077810e-01,-1.644567020839673641e-02
4.560000000000000164e-01,-2.966542159592933450e-02,1.988231372677645714e-01,-8.429510175468715727e-02
4.570000000000000173e-01,2.674010549262854919e-02,1.259327986791756726e-01,-1.117924491065527826e-01
4.580000000000000182e-01,1.232759360686902506e-01,5.993043924510563225e-02,-1.282224054579034211e-01
4.590000000000000191e-01,2.068479853378269728e-01,-3.788053545542391376e-02,-1.341418084292872459e-01
4.600000000000000200e-01,2.504969032583891364e-01,-1.073299030939836585e-01,-1.549072462737229594e-01
4.610000000000000209e-01,2.194915140724179314e-01,-1.736650745979051724e-01,-7.327817479715803550e-02
4.620000000000000218e-01,1.943451111775300888e-01,-1.968319875074175940e-01,-2.489251168417477150e-02
4.630000000000000226e-01,1.212153974187762523e-01,-1.771541972866039760e-01,4.844514618491244096e-02
4.640000000000000235e-01,2.514624053286898531e-02,-1.593337501618826146e-01,1.087839621210436591e-01
4.650000000000000244e-01,-6.248417952995998642e-02,-1.278642455551180224e-01,1.375860523650379030e-01
4.660000000000000253e-01,-1.513010150900864770e-01,-4.716017002036553517e-03,1.373806210128683536e-01
4.670000000000000262e-01,-2.433069412250218055e-01,6.645586889754291626e-02,1.382413268233227965e-01
4.680000000000000271e-01,-2.389977508105648185e-01,1.341430751211231398e-01,1.134677928177759282e-01
4.689999999999999725e-01,-2.689408318319829738e-01,1.891241009288603669e-01,7.360831836190760702e-02
4.699999999999999734e-01,-1.794172544945974723e-01,1.895881956895925369e-01,-6.279701156689403152e-03
4.709999999999999742e-01,-7.247391167002571744e-02,1.614463744321497918e-01,-7.874480027296547335e-02
4.719999999999999751e-01,3.344180423648978467e-02,1.257031580501097867e-01,-1.081239305507133430e-01
4.729999999999999760e-01,1.311237202076557806e-01,7.632998566308361876e-02,-1.435818595714764834e-01
4.739999999999999769e-01,1.981088688650852192e-01,-6.628426393956124429e-02,-1.286214506667430479e-01
4.749999999999999778e-01,2.588192481112662757e-01,-1.178670437579076025e-01,-1.441671259006586103e-01
4.759999999999999787e-01,2.221372044807185531e-01,-1.906600536219818232e-01,-1.111008876707873794e-01
4.769999999999999796e-01,2.021009693314018973e-01,-2.008155802898446141e-01,-2.050898921835990832e-02
4.779999999999999805e-01,1.392511170618634941e-01,-1.741131853462343226e-01,3.164298404777149409e-02
4.789999999999999813e-01,2.394959989901053465e-02,-1.479893020992313901e-01,8.169380627298485076e-02
4.799999999999999822e-01,-7.210972228182681298e-02,-7.379193058470018274e-02,1.256643715653359417e-01
4.809999999999999831e-01,-1.621344722898481749e-01,4.314735108492913536e-03,1.744116328893776657e-01
4.819999999999999840e-01,-2.551851300152784829e-01,6.690970438964087552e-02,1.149804097504906197e-01
4.829999999999999849e-01,-2.514160511115157703e-01,1.344802293146680205e-01,1.307836602359023215e-01
4.839999999999999858e-01,-2.215152391984031022e-01,1.956720676276302862e-01,6.694556255818483181e-02
4.849999999999999867e-01,-1.691623987979849475e-01,2.235466972517612949e-01,-5.608519705656515170e-03
4.859999999999999876e-01,-6.965747949814751760e-02,1.477495742030044690e-01,-4.984593137802401791e-02
4.869999999999999885e-01,1.177344013051120387e-02,8.619432857068885789e-02,-1.121054180960826957e-01
4.879999999999999893e-01,1.330188592102619916e-01,5.669822485589079419e-02,-1.373091617663630137e-01
4.889999999999999902e-01,1.874854264158641315e-01,-8.341842309678042244e-02,-1.596635759339409544e-01
4.899999999999999911e-01,2.354347295204165247e-01,-1.264469247548672404e-01,-1.244864575516393679e-01
4.909999999999999920e-01,2.389284783939284174e-01,-1.961059484035682088e-01,-9.436699095204577337e-02
4.919999999999999929e-01,2.080957438570980034e-01,-1.825417330156403617e-01,-3.714480751846474527e-02
4.929999999999999938e-01,1.516104583834466946e-01,-1.680929659203200532e-01,1.481193001184102909e-02
4.939999999999999947e-01,2.996314625849055488e-02,-1.301830777184636023e-01,9.892783211386405040e-02
4.949999999999999956e-01,-6.598137285931292284e-02,-8.870601006169956393e-02,1.185375010820152314e-01
4.959999999999999964e-01,-1.648090945632826876e-01,2.633471718954826998e-02,1.552124420883631839e-01
4.969999999999999973e-01,-1.990985115651404402e-01,9.482515229519397626e-02,1.424601040835849208e-01
4.979999999999999982e-01,-2.503565683124580055e-01,1.392491960151532038e-01,1.277784076938477398e-01
4.989999999999999991e-01,-2.390342272089255315e-01,1.690998332183003550e-01,7.359398411828101116e-02
5.000000000000000000e-01,-1.793140489961480288e-01,2.169066279428163990e-01,1.561780546029686856e-02
5.010000000000000009e-01,-8.836098355625568446e-02,1.757977901410041066e-01,-5.920316299466558269e-02
5.020000000000000018e-01,3.174452492589518310e-02,1.340324924917707938e-01,-1.003186829333528041e-01
5.030000000000000027e-01,1.121224849000183460e-01,2.909110216845870595e-02,-1.230837239049487469e-01
5.040000000000000036e-01,1.737889610854379818e-01,-5.048195353340148572e-02,-1.201544916693469411e-01
5.050000000000000044e-01,2.481412649236899026e-01,-1.294453306206124477e-01,-1.312192389225221578e-01
5.060000000000000053e-01,2.526961124071300802e-01,-2.101933601602508916e-01,-9.621950381564445265e-02
5.070000000000000062e-01,1.926933695239148869e-01,-1.797692128372889719e-01,-4.039771127734685663e-02
5.080000000000000071e-01,1.329526746508027379e-01,-1.690533456746086127e-01,3.139464520290634331e-02
5.090000000000000080e-01,4.867293527960067645e-02,-1.090663182443833562e-01,4.198644813838996181e-02
5.100000000000000089e-01,-5.290277783822712465e-02,-8.561606494941426115e-02,1.091322028364357655e-01
5.110000000000000098e-01,-1.450733266873438787e-01,2.497902163806113573e-02,1.248733835421928506e-01
5.120000000000000107e-01,-2.191611792319514418e-01,7.861404325630852452e-02,1.309430697821023226e-01
5.130000000000000115e-01,-2.542195488684799720e-01,1.556066806817052450e-01,1.089331561745901789e-01
5.140000000000000124e-01,-2.435536724151740329e-01,1.871814945763296545e-01,8.503988739318528445e-02
5.150000000000000133e-01,-1.804169594516317476e-01,1.639490380343214815e-01,1.573970834721575771e-02
5.160000000000000142e-01,-1.068160174820628333e-01,1.746518571756705551e-01,-4.447664592597430633e-02
5.170000000000000151e-01,-2.879431156210490619e-04,1.003375921502022011e-01,-1.105749727676166166e-01
5.180000000000000160e-01,1.201327427692145261e-01,2.166518165173251728e-02,-1.255848588926816722e-01
5.190000000000000169e-01,1.845569325564222762e-01,-7.652462585503813641e-02,-1.762078741261972614e-01
5.200000000000000178e-01,2.157677767248109002e-01,-1.107895054844172250e-01,-1.515234857817935044e-01
5.210000000000000187e-01,2.309192012964973728e-01,-1.408137343676024167e-01,-1.300266378426250535e-01
5.220000000000000195e-01,2.417152302634445471e-01,-1.956227723856998613e-01,-8.515200573180047028e-02
5.230000000000000204e-01,1.340949512148124911e-01,-1.926059574445284361e-01,-7.839712780397850925e-03
5.240000000000000213e-01,3.131310240273987161e-02,-1.199542936980436264e-01,7.075304888023067895e-02
5.250000000000000222e-01,-5.507865896826273644e-02,-5.318456215127214531e-02,7.773682617434532482e-02
5.260000000000000231e-01,-1.654790328002977984e-01,1.758037163428870231e-02,1.438411919208179013e-01
5.270000000000000240e-01,-2.177533888435508325e-01,1.030825880558826069e-01,1.530422998195289097e-01
5.280000000000000249e-01,-2.489765469860411029e-01,1.826846786376409015e-01,1.250827675472597211e-01
5.290000000000000258e-01,-2.184693216137903460e-01,2.151494780471802926e-01,1.032430207308920600e-01
5.300000000000000266e-01,-1.923611618595054140e-01,1.785343560654731321e-01,3.567882125662635157e-02
5.310000000000000275e-01,-9.513384298433595621e-02,1.512120073318400926e-01,-3.865423836845533617e-02
5.320000000000000284e-01,-1.513555706674876190e-02,8.057184865905465954e-02,-7.939257176718401976e-02
5.330000000000000293e-01,1.221508712638065819e-01,1.093018827342848859e-02,-1.301578165688683508e-01
5.340000000000000302e-01,1.952509191854278070e-01,-8.549746126261602297e-02,-1.740148210361592840e-01
5.350000000000000311e-01,2.402379777802516880e-01,-1.190624465825805833e-01,-1.311208727176056965e-01
5.360000000000000320e-01,2.344319183890832825e-01,-1.961280652452435103e-01,-1.292697704213073007e-01
5.370000000000000329e-01,2.014529350076830760e-01,-2.304208800626147413e-01,-1.041766168686491523e-01
5.380000000000000338e-01,1.384918685921191217e-01,-1.864055927821593461e-01,2.286367400663750354e-02
5.390000000000000346e-01,3.972213033649926034e-02,-1.255249708163894973e-01,3.027477423883612184e-02
5.400000000000000355e-01,-3.776205787795325342e-02,-6.083307394282569391e-02,9.473330648120906194e-02
5.410000000000000364e-01,-1.537973380408748647e-01,3.300192914803742883e-02,9.816943935593736015e-02
5.420000000000000373e-01,-2.066382665658035855e-01,1.187248121446553284e-01,1.405243077382244687e-01
5.430000000000000382e-01,-2.179400983305179729e-01,1.490421156144318970e-01,1.401633059605136844e-01
5.440000000000000391e-01,-2.351375682481192109e-01,1.816787846611298551e-01,9.487907740328319073e-02
5.450000000000000400e-01,-1.612697425429295006e-01,1.841811957571939939e-01,5.756438651508074406e-02
5.460000000000000409e-01,-1.037201327824271435e-01,1.750956685150776848e-01,-1.211514064343305330e-02
5.470000000000000417e-01,-2.908788328155884756e-02,4.788337137298120938e-02,-5.522502974355756461e-02
5.480000000000000426e-01,1.107238134336162305e-01,2.696111968747673740e-02,-1.219807667765145792e-01
5.490000000000000435e-01,2.040435276254741470e-01,-8.314193156722862743e-02,-1.403084873545713540e-01
5.500000000000000444e-01,2.324462831855641509e-01,-1.313644002843147029e-01,-1.343735237206077071e-01
5.510000000000000453e-01,2.751438005083485794e-01,-1.826885396439054399e-01,-1.290905992676392444e-01
5.520000000000000462e-01,2.017221267380620020e-01,-2.045381102418785957e-01,-6.406885405319555360e-02
5.530000000000000471e-01,1.589469715877013245e-01,-1.818931268295421178e-01,-2.244207351144464693e-02
5.540000000000000480e-01,7.631476711958073977e-02,-1.247805121344549295e-01,5.897219842151849023e-02
5.550000000000000488e-01,-2.755453958111017676e-02,-2.960515890982267154e-02,7.746728558480184268e-02
5.560000000000000497e-01,-1.578793063007216391e-01,3.834861111802052858e-02,1.092962411332718264e-01
5.570000000000000506e-01,-2.189521940778900722e-01,1.216444718285913662e-01,1.499518938984966132e-01
5.580000000000000515e-01,-2.563820069699172532e-01,1.875341034566110621e-01,1.394932868009793325e-01
5.590000000000000524e-01,-2.272137834469367124e-01,1.764933619934389297e-01,1.375974106814541464e-01
5.600000000000000533e-01,-1.732163781665159163e-01,1.934396996140746727e-01,5.742870033028169008e-02
5.610000000000000542e-01,-9.028457851641394361e-02,1.481984902941479443e-01,2.264459718527567222e-03
5.620000000000000551e-01,-4.783572934850576983e-03,8.448538296078063337e-02,-4.090628326491718009e-02
5.629999999999999449e-01,1.090746776112963279e-01,1.930118458365198426e-03,-9.488430865776484313e-02
5.639999999999999458e-01,1.792214797804550785e-01,-9.915193023802709726e-02,-1.298178392621174015e-01
5.649999999999999467e-01,2.424876718442669221e-01,-1.699695248320918506e-01,-1.338340359822376147e-01
5.659999999999999476e-01,2.607696843812636334e-01,-1.945272742248118358e-01,-1.039347856628451416e-01
5.669999999999999485e-01,2.133719478865653274e-01,-1.822069790666890066e-01,-8.808290813983205014e-02
5.679999999999999494e-01,1.578219774494092342e-01,-1.490883376735888388e-01,-4.228556593912407430e-02
5.689999999999999503e-01,3.750905737018372238e-02,-1.029501682233191634e-01,2.156569485544190465e-02
5.699999999999999512e-01,-3.916169172308652663e-02,-4.958688356024657656e-02,6.076407659893507535e-02
5.709999999999999520e-01,-1.071413747829280116e-01,7.064541250785426330e-02,8.238808476217059085e-02
5.719999999999999529e-01,-2.355168338470158551e-01,1.519068798533564357e-01,1.344622171656557896e-01
5.729999999999999538e-01,-2.573657196513710055e-01,1.842081334871706055e-01,1.529668012206006622e-01
5.739999999999999547e-01,-2.290992224060539872e-01,1.941093662236364203e-01,1.257538566952613179e-01
5.749999999999999556e-01,-1.830757124139628378e-01,1.970207757959570316e-01,8.255515977513083747e-02
5.759999999999999565e-01,-1.088525755280297519e-01,1.530309771764273852e-01,3.281021883140806256e-02
5.769999999999999574e-01,-3.729148045357490171e-02,2.969789193641521677e-02,-5.227712549260562364e-02
5.779999999999999583e-01,8.948107916797849726e-02,-2.371307989355548804e-02,-1.131607694702133765e-01
5.789999999999999591e-01,1.860869907700193893e-01,-8.603204071900151517e-02,-1.145965196408707809e-01
5.799999999999999600e-01,2.366895545775997700e-01,-1.378231260925143198e-01,-1.715786187554138587e-01
5.809999999999999609e-01,2.369250252482849595e-01,-1.793372853526175037e-01,-1.158088962967330909e-01
5.819999999999999618e-01,2.506451260697333261e-01,-1.866478916297766022e-01,-1.013708002698381627e-01
5.829999999999999627e-01,1.547758449715020135e-01,-1.744227966392323526e-01,-7.165292517655887095e-02
5.839999999999999636e-01,7.443291251241279660e-02,-9.674826730499572203e-02,-1.561322249241641098e-02
5.849999999999999645e-01,-2.876639482585849339e-02,-2.642254887428481872e-02,6.848271875729294855e-02
5.859999999999999654e-01,-1.621031197272409796e-01,4.467476629852936559e-02,8.841017539438730810e-02
5.869999999999999662e-01,-2.145386415526936708e-01,1.254433191154284977e-01,1.536041336398656920e-01
5.879999999999999671e-01,-2.673580219376910927e-01,1.905626964549038405e-01,1.497762079333077034e-01
5.889999999999999680e-01,-2.340706303181543935e-01,2.023157093583581312e-01,1.553710562404470308e-01
5.899999999999999689e-01,-1.898808564470158000e-01,2.070147967917191356e-01,7.547083543012068907e-02
5.909999999999999698e-01,-1.180410001396206554e-01,1.622095787766485442e-01,2.014473872568887242e-02
5.919999999999999707e-01,-2.747005220416995352e-02,8.376599396726235047e-02,-5.522311016739383377e-02
5.929999999999999716e-01,7.954027809205886645e-02,-1.350329111785196316e-02,-9.420820182022152101e-02
5.939999999999999725e-01,1.922587501275495603e-01,-1.093914324865988413e-01,-1.311834414384258074e-01
5.949999999999999734e-01,2.228027742460635119e-01,-1.463474903738013755e-01,-1.388691864911456575e-01
5.959999999999999742e-01,2.788287215496962901e-01,-2.201225564361403153e-01,-1.182421628715479289e-01
5.969999999999999751e-01,2.313512689998966365e-01,-1.926261707971072545e-01,-1.328103383950810790e-01
5.979999999999999760e-01,1.620637703478763347e-01,-1.498612410165066078e-01,-5.807835047836697878e-02
5.989999999999999769e-01,4.429184452140294548e-02,-1.033735860632630232e-01,-7.364985059055721359e-03
5.999999999999999778e-01,-4.719336211401048420e-02,-1.161844529254259066e-02,2.914303100820583858e-02
6.009999999999999787e-01,-1.201397015265037310e-01,6.062259699311135785e-02,1.036839730721335895e-01
6.019999999999999796e-01,-2.054999504881173111e-01,1.374411707036220787e-01,1.493591780702380190e-01
6.029999999999999805e-01,-2.399142353134026406e-01,1.882782276487977580e-01,1.207664476913932056e-01
6.039999999999999813e-01,-2.429989200512228942e-01,1.921029160194548113e-01,1.157079005803328953e-01
6.049999999999999822e-01,-2.085153452536262497e-01,1.579214355655416957e-01,1.094207219879881482e-01
6.059999999999999831e-01,-1.190670453706423743e-01,1.398921996266816181e-01,5.182088430060045880e-02
6.069999999999999840e-01,-1.653750952708576277e-02,3.774219718082306302e-02,-1.760323443875101007e-02
6.079999999999999849e-01,7.613898428007875863e-02,-4.071539584833541725e-02,-6.687888007862706485e-02
6.089999999999999858e-01,1.454112494806071576e-01,-1.086142173452057658e-01,-1.246221716725024742e-01
6.099999999999999867e-01,2.299063833294043291e-01,-1.718018670527316216e-01,-1.328191514687659114e-01
6.109999999999999876e-01,2.160045309753167719e-01,-1.992587577188634218e-01,-1.574925343783929177e-01
6.119999999999999885e-01,2.156820823686791677e-01,-2.038000936634304650e-01,-1.330316118642725365e-01
6.129999999999999893e-01,1.972225535795305573e-01,-1.638351651739096693e-01,-8.624937326954787431e-02
6.139999999999999902e-01,5.308736053302016283e-02,-9.796216954857073222e-02,-3.926049264394341348e-02
6.149999999999999911e-01,-2.593600530404123125e-02,-4.776398580451889087e-03,9.358926711804325602e-03
6.159999999999999920e-01,-1.175047158310199708e-01,5.721384555167185332e-02,7.796988734706285229e-02
6.169999999999999929e-01,-2.200004264503982176e-01,1.204163052901904701e-01,1.224300899385158820e-01
6.179999999999999938e-01,-2.345859119626825529e-01,1.819780375864609445e-01,1.696323940760570970e-01
6.189999999999999947e-01,-2.211061149851022145e-01,1.706317689203827592e-01,1.597495208311003334e-01
6.199999999999999956e-01,-2.069036808355434187e-01,1.795766249011193638e-01,1.035611720311343936e-01
6.209999999999999964e-01,-1.267820729176234174e-01,1.066959204836638864e-01,6.323717771091695583e-02
6.219999999999999973e-01,-4.266404746587829783e-02,6.188537729823134076e-02,2.465172289993686899e-02
6.229999999999999982e-01,5.500457537345370546e-02,-1.296783154958975649e-02,-5.157863225214222302e-02
6.239999999999999991e-01,1.627443239215870530e-01,-1.367170840623158079e-01,-1.336925104316455670e-01
6.250000000000000000e-01,2.152912219174343833e-01,-1.599547346147226490e-01,-1.586398076425544756e-01
6.260000000000000009e-01,2.573813015205200228e-01,-2.003677984677459667e-01,-1.660590381200597876e-01
6.270000000000000018e-01,2.596961343880945239e-01,-2.017624963727872867e-01,-1.407334770138865543e-01
6.280000000000000027e-01,1.753286392790623094e-01,-1.321095128562396193e-01,-8.726472282198370622e-02
6.290000000000000036e-01,6.144606874433455879e-02,-8.899894472564655323e-02,-3.485134541195730740e-02
6.300000000000000044e-01,-4.404654880538369510e-02,-5.040828770110295648e-03,4.355843287170073352e-02
6.310000000000000053e-01,-9.661156369831092050e-02,5.671553865768415997e-02,5.212598258046564903e-02
6.320000000000000062e-01,-2.129192074302687920e-01,1.508190624083328990e-01,1.243734857965928670e-01
6.330000000000000071e-01,-2.226377441222418541e-01,1.907454857011555982e-01,1.290408637980669238e-01
6.340000000000000080e-01,-2.638307310644109061e-01,2.008157158144241172e-01,1.262553499332683682e-01
6.350000000000000089e-01,-1.869379164970083607e-01,2.075534255448819310e-01,1.191375933151527788e-01
6.360000000000000098e-01,-1.072796058535098740e-01,1.159954629572245710e-01,5.775934366558971300e-02
6.370000000000000107e-01,-2.905649643237724275e-02,3.691088263719213836e-02,1.278298403359942647e-03
6.380000000000000115e-01,6.969624457696853292e-02,-2.493735552130910832e-02,-5.071545122270629258e-02
6.390000000000000124e-01,1.575148989063264726e-01,-1.058294421823152281e-01,-9.960389825024737465e-02
6.400000000000000133e-01,2.257135072370296536e-01,-1.773087189206045133e-01,-1.299511050049703687e-01
6.410000000000000142e-01,2.602664577846758309e-01,-1.878058382318856800e-01,-1.644808933581204669e-01
6.420000000000000151e-01,2.188939812871824875e-01,-2.213186226354657837e-01,-1.395672505361016114e-01
6.430000000000000160e-01,1.917019455332637512e-01,-1.366840898356648515e-01,-9.922125124291909792e-02
6.440000000000000169e-01,7.502123911225049013e-02,-8.614330981790126185e-02,-3.626934104564179945e-02
6.450000000000000178e-01,-3.443022041891180551e-02,3.909579420272294575e-02,-1.783157332340938193e-04
6.460000000000000187e-01,-1.382360851397100299e-01,9.096449208686907539e-02,5.112543381646236784e-02
6.470000000000000195e-01,-2.207906852813021625e-01,1.807061141488050526e-01,1.142957054759607544e-01
6.480000000000000204e-01,-2.265181066568937585e-01,1.710090217869254248e-01,1.551934164446416853e-01
6.490000000000000213e-01,-2.459118365797280659e-01,2.011525988833254286e-01,1.303830291106506944e-01
6.500000000000000222e-01,-2.151547879106013583e-01,1.467257976104783534e-01,1.473675631953343390e-01
6.510000000000000231e-01,-1.538103213809291492e-01,1.095773839671252414e-01,6.647067034099440885e-02
6.520000000000000240e-01,-4.409490170155179467e-02,4.059575317097788294e-02,-7.663468164339437561e-03
6.530000000000000249e-01,5.841112347663902915e-02,-6.562949624094226164e-02,-2.846606737526166664e-02
6.540000000000000258e-01,1.511009337131276054e-01,-1.348447317819622959e-01,-8.553520372137604633e-02
6.550000000000000266e-01,2.151952369896921180e-01,-1.737022110403398656e-01,-1.115433784335504719e-01
6.560000000000000275e-01,2.526041711803893586e-01,-2.039589739053736250e-01,-1.942199432504003453e-01
6.570000000000000284e-01,2.519934974071735834e-01,-1.454874557010491232e-01,-1.022341087121737407e-01
6.580000000000000293e-01,2.059594814001392549e-01,-1.492220788361060257e-01,-1.067491041236277027e-01
6.590000000000000302e-01,1.097865547222548338e-01,-7.950675399739692839e-02,-7.915191413957405053e-02
6.600000000000000311e-01,-3.249018764452405242e-03,1.225991900782985068e-02,-1.232589635172017927e-03
6.610000000000000320e-01,-1.208190559716451340e-01,1.013503826932431878e-01,6.158220102051104733e-02
6.620000000000000329e-01,-2.249977214147766968e-01,1.355700282575089954e-01,1.007488029085138320e-01
6.630000000000000338e-01,-2.480025457774193420e-01,1.875875018499053581e-01,1.476732811813108448e-01
6.640000000000000346e-01,-2.527921869023877499e-01,2.091278203386873480e-01,1.593451154471671738e-01
6.650000000000000355e-01,-2.023460042992979990e-01,1.564010928302103920e-01,1.309156480968637903e-01
6.660000000000000364e-01,-1.090330565973560151e-01,9.462519922087544999e-02,9.420674845749603399e-02
6.670000000000000373e-01,-6.400383689823964384e-02,4.368601644260793060e-02,1.637142617186438526e-02
6.680000000000000382e-01,7.467642340991391403e-02,-6.836187013527486589e-02,6.089416523715845920e-04
6.690000000000000391e-01,1.729278038110464988e-01,-1.260878538111490366e-01,-5.731111166805404750e-02
6.700000000000000400e-01,2.384764070679009085e-01,-2.106948606307721961e-01,-1.640898638524026509e-01
6.710000000000000409e-01,2.682896663068999876e-01,-1.881975706012289917e-01,-1.482334529100480525e-01
6.720000000000000417e-01,2.161876085187263152e-01,-1.819395305903001581e-01,-1.542044870262667122e-01
6.730000000000000426e-01,1.921581112288974491e-01,-1.159863893424220027e-01,-1.109277389371221695e-01
6.740000000000000435e-01,8.314562614757269043e-02,-7.233977386294290768e-02,-7.022980865294439767e-02
6.750000000000000444e-01,-1.115285348262588967e-02,7.514501648349337579e-03,-2.970311532596200954e-02
6.760000000000000453e-01,-1.309618634681677107e-01,8.269526904569605985e-02,3.041159212398340111e-02
6.770000000000000462e-01,-2.214087175339669311e-01,1.670321145629465875e-01,1.131512402782118704e-01
6.780000000000000471e-01,-2.375545953289419088e-01,1.964210791400325951e-01,1.229525007441016338e-01
6.790000000000000480e-01,-2.333034110137428285e-01,1.808196400056320541e-01,1.801766211473102286e-01
6.800000000000000488e-01,-2.067265503716686492e-01,1.400095693685895204e-01,1.303669945762490900e-01
6.810000000000000497e-01,-1.300840907019685799e-01,7.261619142690632633e-02,9.102663318349274446e-02
6.820000000000000506e-01,-1.483447798129407073e-02,1.531478145807379544e-02,3.965039153112130677e-02
6.830000000000000515e-01,5.963808520953242653e-02,-6.543082903826445695e-02,-9.011985698448133448e-04
6.840000000000000524e-01,1.594946590770742190e-01,-1.307595093023538324e-01,-8.722231533598853725e-02
6.850000000000000533e-01,2.133686894413163726e-01,-1.689663449269790396e-01,-1.023391850680170911e-01
6.860000000000000542e-01,2.779498999517502900e-01,-1.739547959350720707e-01,-1.190155066826718705e-01
6.870000000000000551e-01,2.197764749120781902e-01,-1.710890714924669931e-01,-1.682705107741434003e-01
6.879999999999999449e-01,1.565229077405677627e-01,-1.260969227104871970e-01,-1.182813546519940751e-01
6.889999999999999458e-01,1.033231904008404534e-01,-4.246219112323542516e-02,-8.322807145168352461e-02
6.899999999999999467e-01,1.602956058209002938e-03,2.392595549144894626e-02,-4.195336614907923395e-02
6.909999999999999476e-01,-1.108825897717823084e-01,1.064906412616666298e-01,1.028178770195732963e-02
6.919999999999999485e-01,-1.839142273071687206e-01,1.422645702733446593e-01,1.099369314634171119e-01
6.929999999999999494e-01,-2.415781590856300731e-01,2.010232972068964619e-01,1.346090931896998244e-01
6.939999999999999503e-01,-2.604049513016740702e-01,1.496003565909982680e-01,1.753852754436273642e-01
6.949999999999999512e-01,-2.087766219354919850e-01,1.363263253646515016e-01,1.240891879343091753e-01
6.959999999999999520e-01,-1.408518255775739747e-01,7.670664209007967138e-02,1.276872602585057415e-01
6.969999999999999529e-01,-6.198025286539893958e-02,7.081333502545982678e-03,5.489006804221732011e-02
6.979999999999999538e-01,6.429370506726510281e-02,-1.026059387465564493e-01,1.773565115255350266e-02
6.989999999999999547e-01,1.448428880282126574e-01,-1.516996942863895470e-01,-7.630087188491692374e-02
6.999999999999999556e-01,2.028931040621881621e-01,-1.671442430840979487e-01,-8.013339773732308657e-02
7.009999999999999565e-01,2.557621761325964416e-01,-1.985376250296080891e-01,-1.806319683346849225e-01
7.019999999999999574e-01,2.758618845810399400e-01,-1.522539820283469458e-01,-1.425380036335462397e-01
7.029999999999999583e-01,2.157176554345154873e-01,-1.098537315553389931e-01,-1.346337558433693404e-01
7.039999999999999591e-01,1.106612042699509912e-01,-3.690170954515003404e-02,-8.053384395092715031e-02
7.049999999999999600e-01,-1.538150149573209785e-03,4.819228436644699270e-02,-1.374151661435304463e-02
7.059999999999999609e-01,-5.883609220370107640e-02,7.026891415852642986e-02,3.854925135396216479e-02
7.069999999999999618e-01,-1.819015456864848945e-01,1.590774141769937811e-01,7.610900571599266140e-02
7.079999999999999627e-01,-2.519893059507447575e-01,1.865498213327036470e-01,1.112806747778091881e-01
7.089999999999999636e-01,-2.713700790116511663e-01,1.821874567830004676e-01,1.552843291775214685e-01
7.099999999999999645e-01,-2.006086239295178375e-01,1.345769209342773942e-01,1.354748224652479183e-01
7.109999999999999654e-01,-1.864669494338298261e-01,7.834315606853571590e-02,1.382434664932899182e-01
7.119999999999999662e-01,-7.196002671147151697e-02,-7.300239439710837219e-03,6.598376824386865958e-02
7.129999999999999671e-01,4.252647451589239291e-02,-9.010176264750720254e-02,2.513643032570890209e-02
7.139999999999999680e-01,1.409351546007437672e-01,-1.338771523844853317e-01,-6.945263145065008747e-02
7.149999999999999689e-01,2.211365572063358764e-01,-1.798190202936731652e-01,-9.541989601171003976e-02
7.159999999999999698e-01,2.523784855611624356e-01,-1.886493166255016063e-01,-1.535234110883090808e-01
7.169999999999999707e-01,2.475067791578086929e-01,-1.722057178821112255e-01,-1.522018171662632979e-01
7.179999999999999716e-01,2.120299530164031221e-01,-9.271235697214881555e-02,-1.493451035530540816e-01
7.189999999999999725e-01,1.173104293964184197e-01,-5.502472433749087261e-02,-1.173889905204162643e-01
7.199999999999999734e-01,-2.865241336311803201e-03,5.881062274420144342e-02,-4.842462762826720002e-02
7.209999999999999742e-01,-8.994428238154650312e-02,1.312703292517062303e-01,-4.252439079210075350e-03
7.219999999999999751e-01,-1.610218483006992385e-01,1.562011649971779548e-01,8.667133019625911095e-02
7.229999999999999760e-01,-2.190997076302028945e-01,2.122813298270883886e-01,1.099111248421573567e-01
7.239999999999999769e-01,-2.533273395394157190e-01,1.825790959307827532e-01,1.350479309038748188e-01
7.249999999999999778e-01,-1.994797073934353737e-01,1.482975279320778439e-01,1.362186527720763429e-01
7.259999999999999787e-01,-1.474848769010208283e-01,4.988980698130589253e-02,1.040433279115583337e-01
7.269999999999999796e-01,-1.171111834736675988e-01,-2.711849553469018737e-02,7.616940465303591312e-02
7.279999999999999805e-01,4.865228959734500119e-02,-8.797797507388130378e-02,3.187267417470684983e-02
7.289999999999999813e-01,1.464319055231826094e-01,-1.956098148424846028e-01,-6.936780447527493565e-02
7.299999999999999822e-01,2.168954294971574548e-01,-2.032515275314653591e-01,-9.916181046073693772e-02
7.309999999999999831e-01,2.504402462715502597e-01,-2.015914151166194879e-01,-1.075525695286885658e-01
7.319999999999999840e-01,2.546589790433002598e-01,-1.790275440659587214e-01,-1.414188634398079181e-01
7.329999999999999849e-01,1.915865328436564263e-01,-1.065428362684820163e-01,-1.486195704635054071e-01
7.339999999999999858e-01,1.235087905905994932e-01,-2.045921745065675326e-02,-1.134473798609724471e-01
7.349999999999999867e-01,7.403611402784034470e-03,5.316853175787492058e-02,-6.805038779184527375e-02
7.359999999999999876e-01,-8.639961715096536321e-02,1.437578076981211872e-01,1.476129747956103806e-02
7.369999999999999885e-01,-1.876688857323574877e-01,1.928741977907145744e-01,5.328714804477349687e-02
7.379999999999999893e-01,-2.224809263337435561e-01,1.709207396174090288e-01,8.412873802127836254e-02
7.389999999999999902e-01,-2.557101804298921865e-01,1.701466425403081739e-01,1.401050072595881602e-01
7.399999999999999911e-01,-2.013984820158698508e-01,1.394808615511571037e-01,1.533014564409613534e-01
7.409999999999999920e-01,-1.560503789218001813e-01,5.934078598443091879e-02,1.339633243157216103e-01
7.419999999999999929e-01,-7.427066930631204267e-02,-4.664500168426064658e-02,9.483272184032152941e-02
7.429999999999999938e-01,3.185843461864153181e-02,-1.299687973152262310e-01,4.018057547444939259e-02
7.439999999999999947e-01,1.113676722167672994e-01,-1.639969765644746225e-01,-3.659721490520556619e-02
7.449999999999999956e-01,2.105950019136125506e-01,-1.968649926264429695e-01,-6.892891048717168789e-02
7.459999999999999964e-01,2.375519120229936110e-01,-1.934879936576139048e-01,-1.252678436787318661e-01
7.469999999999999973e-01,2.319060126145134626e-01,-1.451656460354452949e-01,-1.864076820622749264e-01
7.479999999999999982e-01,1.832986979352326795e-01,-1.150583699321374304e-01,-1.271234953154950220e-01
7.489999999999999991e-01,1.321510175853662927e-01,-3.724595637424628347e-02,-1.443303994094485010e-01
7.500000000000000000e-01,6.650351703480465726e-02,8.401308243514231389e-02,-7.630552671474977178e-02
7.510000000000000009e-01,-9.077086624642845269e-02,1.300451142968904183e-01,-3.374024485268983797e-02
7.520000000000000018e-01,-1.757051995978362313e-01,1.520261298652633986e-01,6.667640797891079274e-02
7.530000000000000027e-01,-2.283559615308346225e-01,1.986747645867764089e-01,9.375169486603858460e-02
7.540000000000000036e-01,-2.339383326360568449e-01,1.518011281153110459e-01,1.421689072137726495e-01
7.550000000000000044e-01,-2.200661778512801592e-01,1.309858828320529522e-01,1.309796762417252403e-01
7.560000000000000053e-01,-1.756039711845074069e-01,3.788440642205448405e-02,1.218129243372229331e-01
7.570000000000000062e-01,-8.321634364294296093e-02,-1.363097364544351049e-02,1.014036993441981976e-01
7.580000000000000071e-01,2.337204505370990906e-02,-1.079820656667276196e-01,1.782217250593451721e-02
7.590000000000000080e-01,9.923842333384380598e-02,-1.482348463343920175e-01,-1.689655084669532820e-02
7.600000000000000089e-01,1.929417397951766755e-01,-1.933346233912086598e-01,-8.429153171559299051e-02
7.610000000000000098e-01,2.437929672940415404e-01,-1.964805615068267453e-01,-1.100930999463313048e-01
7.620000000000000107e-01,2.366038370621300069e-01,-1.638629885582678913e-01,-1.509251138752746579e-01
7.630000000000000115e-01,2.032122387707494537e-01,-6.828675883627970122e-02,-1.496583935018721834e-01
7.640000000000000124e-01,1.318112572388709380e-01,3.069055577396142404e-03,-1.402832095899805565e-01
7.650000000000000133e-01,2.641892015823570777e-02,9.416268953878149939e-02,-8.529299420254655983e-02
7.660000000000000142e-01,-4.184391698873505400e-02,1.419796784846272808e-01,-1.446978048481426145e-02
7.670000000000000151e-01,-1.539637951706062102e-01,1.845560623616581408e-01,2.592197033269939138e-02
7.680000000000000160e-01,-1.984128461634054041e-01,1.846767738078418652e-01,7.945894501075548289e-02
7.690000000000000169e-01,-2.460675037319014491e-01,1.790362820269652266e-01,1.327240505526020298e-01
7.700000000000000178e-01,-2.376090160482785540e-01,1.424470942441891652e-01,1.346820573961718948e-01
7.710000000000000187e-01,-1.583713030774366870e-01,7.267039664420474332e-02,1.542030825380845682e-01
7.720000000000000195e-01,-7.056123836948022254e-02,-4.367198117267506730e-02,9.831214459402604078e-02
7.730000000000000204e-01,1.145430600061685469e-02,-9.015479158638609047e-02,5.846732454332959072e-02
7.740000000000000213e-01,1.161476120486990421e-01,-1.606722966355510762e-01,-2.652086963860393262e-02
7.750000000000000222e-01,2.212509391769144629e-01,-2.288582749080744771e-01,-8.002586199409271461e-02
7.760000000000000231e-01,2.455350186211810448e-01,-1.921456747023308487e-01,-9.759346157860773752e-02
7.770000000000000240e-01,2.448470035682484836e-01,-1.686543903432992930e-01,-1.320713559445242657e-01
7.780000000000000249e-01,2.079085402638665980e-01,-9.349288180076804899e-02,-1.415551456900064342e-01
7.790000000000000258e-01,1.366464019241167838e-01,-1.263543111116511783e-02,-1.248110789128306780e-01
7.800000000000000266e-01,3.501147621839423296e-02,1.183759452963931702e-01,-1.035567837580291112e-01
7.810000000000000275e-01,-8.202965093897461590e-02,1.517962116847074716e-01,-4.767160205606030265e-02
7.820000000000000284e-01,-2.042245222171847341e-01,1.885094058223140967e-01,5.899856735750559633e-03
7.830000000000000293e-01,-2.158778214455523148e-01,1.869688474459757499e-01,5.444508224443161265e-02
7.840000000000000302e-01,-2.281827569565399727e-01,1.606938385942137115e-01,1.051784961771293492e-01
7.850000000000000311e-01,-2.162389376167915822e-01,1.162609772912374523e-01,1.269937262723496163e-01
7.860000000000000320e-01,-1.537485974088834695e-01,4.105894084416354672e-02,1.430464707015897952e-01
7.870000000000000329e-01,-7.843415931773406458e-02,-1.858684877779763142e-02,9.932337125477039286e-02
7.880000000000000338e-01,1.788986884463192317e-02,-8.017477521131101403e-02,6.051925175367030285e-02
7.890000000000000346e-01,1.178295827477790492e-01,-1.650068588218274457e-01,1.128799985813394753e-02
7.900000000000000355e-01,1.993274799353457749e-01,-2.044694964598999798e-01,-5.159927265065544777e-02
7.910000000000000364e-01,2.298414660008300248e-01,-2.059380483588957866e-01,-1.128803453256541356e-01
7.920000000000000373e-01,2.293713246349882717e-01,-1.534090212423026289e-01,-1.247787387762706313e-01
7.930000000000000382e-01,2.216657770767437863e-01,-6.968989859576693591e-02,-1.384203598465482132e-01
7.940000000000000391e-01,1.464318731224980852e-01,1.358710828732660920e-02,-1.523148426729634686e-01
7.950000000000000400e-01,4.730788123401338113e-02,5.998035636611458860e-02,-1.179360676895391397e-01
7.960000000000000409e-01,-8.642552876624667868e-02,1.786988767486520358e-01,-4.659613372144285476e-02
7.970000000000000417e-01,-1.364142423852989505e-01,1.836876744719374011e-01,-4.619936129524698093e-03
7.980000000000000426e-01,-2.025532779941587036e-01,1.887331362176552230e-01,6.120533317580707094e-02
7.990000000000000435e-01,-2.527363530592107721e-01,2.035173875982809744e-01,1.061542298920411104e-01
8.000000000000000444e-01,-2.277504122349556237e-01,1.338955107369300124e-01,1.102270590829505514e-01
8.010000000000000453e-01,-1.478138812390870638e-01,1.814211790411015407e-02,1.458291000816113181e-01
8.020000000000000462e-01,-9.804417833998700649e-02,-5.860472344686568774e-02,7.771776009444601729e-02
8.030000000000000471e-01,2.707529372092805711e-02,-1.048967663690777569e-01,5.178809158319336997e-02
8.040000000000000480e-01,9.779130535883241715e-02,-1.747283883023232065e-01,6.132332406640687156e-03
8.050000000000000488e-01,1.852177292143903919e-01,-1.816013056434788442e-01,-3.819524219027079642e-02
8.060000000000000497e-01,2.833818667918889256e-01,-1.620422251399777358e-01,-7.590174338519208030e-02
8.070000000000000506e-01,2.455259607940668554e-01,-1.450535160485148523e-01,-1.342812642694866387e-01
8.080000000000000515e-01,1.932022523277178716e-01,-7.477506090508104220e-02,-1.651298245111348650e-01
8.090000000000000524e-01,1.272739329965300592e-01,4.922800612941907045e-02,-1.479996381768575731e-01
8.100000000000000533e-01,5.925730778091994194e-02,9.913418918287522641e-02,-9.168193384349451747e-02
8.110000000000000542e-01,-5.564412704835303147e-02,1.730624130214145628e-01,-6.724001593221305695e-02
8.120000000000000551e-01,-1.697993599948303955e-01,1.880049797972321302e-01,-2.071108493573890850e-03
8.129999999999999449e-01,-1.899800208203942242e-01,1.998634436132546710e-01,3.985534057758802207e-02
8.139999999999999458e-01,-2.414531117368243496e-01,1.813161832334005130e-01,1.235197717117002270e-01
8.149999999999999467e-01,-2.201186704382416259e-01,8.074355550200464082e-02,1.275105394243814527e-01
8.159999999999999476e-01,-1.870277870643370088e-01,7.120371077781210631e-03,1.701317482898464795e-01
8.169999999999999485e-01,-9.943163395020331030e-02,-5.363034729122558020e-02,1.322878761750028165e-01
8.179999999999999494e-01,7.594027461089736426e-03,-1.222605040606513926e-01,9.335859421466151387e-02
8.189999999999999503e-01,1.018380164802336618e-01,-1.632737843652899978e-01,1.624011728936505805e-02
8.199999999999999512e-01,1.842779678700313117e-01,-1.764825836475734655e-01,-2.434994267716209318e-02
8.209999999999999520e-01,2.293026292226673923e-01,-1.769885366780564184e-01,-8.053218093638947472e-02
8.219999999999999529e-01,2.495924281806608802e-01,-1.495341726668529270e-01,-1.338393578177809740e-01
8.229999999999999538e-01,1.903496585821588538e-01,-9.488959481816962305e-02,-1.575158300785456655e-01
8.239999999999999547e-01,1.521924211067701149e-01,6.111835877693142481e-03,-1.454114193483044548e-01
8.249999999999999556e-01,2.155461689653951143e-02,9.460482860233336566e-02,-1.075140499226048679e-01
8.259999999999999565e-01,-5.281754039229876602e-02,1.536335098509768182e-01,-5.658479991972523854e-02
8.269999999999999574e-01,-9.979119333503023992e-02,2.055491811235511113e-01,6.633503031004066297e-03
8.279999999999999583e-01,-2.447101119292324489e-01,1.694152400806842595e-01,6.037091452207107162e-02
8.289999999999999591e-01,-2.444958848038265298e-01,1.503118467378958267e-01,1.105380686503442123e-01
8.299999999999999600e-01,-2.553433244658602774e-01,1.016986485013062491e-01,1.352690365677249873e-01
8.309999999999999609e-01,-1.841247695364427728e-01,7.356086475477880554e-03,1.689408561377446494e-01
8.319999999999999618e-01,-7.284213623093191425e-02,-5.789942263864047284e-02,1.221696319605054121e-01
8.329999999999999627e-01,5.298382488184010496e-03,-1.477419198658967703e-01,8.663891875901037765e-02
8.339999999999999636e-01,1.017617078036732597e-01,-1.731314161144013597e-01,3.937460986731086687e-02
8.349999999999999645e-01,1.469346938827839899e-01,-2.056406150159515722e-01,1.537664748593431602e-03
8.359999999999999654e-01,2.430245149826574802e-01,-1.723139220282887407e-01,-9.887477622460696947e-02
8.369999999999999662e-01,2.788574380485942528e-01,-1.361381338262536156e-01,-1.411259061178939955e-01
8.379999999999999671e-01,2.608370058061432184e-01,-6.739027078316420227e-02,-1.407557247776387577e-01
8.389999999999999680e-01,1.329714362999359356e-01,1.838724673953085267e-02,-1.471539339383940992e-01
8.399999999999999689e-01,3.744691357585389763e-02,1.172148535096236288e-01,-1.191039143244720933e-01
8.409999999999999698e-01,-1.850315721838560745e-02,1.509220720165946883e-01,-7.802395826922954580e-02
8.419999999999999707e-01,-1.365028482742338123e-01,1.957325470966029823e-01,-3.992945907495798474e-02
8.429999999999999716e-01,-2.135718416954199839e-01,1.499503485747602505e-01,3.794584458905526231e-02
8.439999999999999725e-01,-2.386726128700210059e-01,1.400408550759301152e-01,8.781818606052213538e-02
8.449999999999999734e-01,-2.371069553307264544e-01,9.463948629990692751e-02,1.242918701197122666e-01
8.459999999999999742e-01,-2.115645208535323618e-01,1.509436174855002507e-03,1.543027015186285988e-01
8.469999999999999751e-01,-8.924426153959849617e-02,-6.745775098304128414e-02,1.427629111864160971e-01
8.479999999999999760e-01,-2.261593818942192469e-02,-1.219467711736045706e-01,1.066579180876316146e-01
8.489999999999999769e-01,1.002719721248773593e-01,-1.899312721227708889e-01,4.904335965896730598e-02
8.499999999999999778e-01,1.549127197801878630e-01,-1.899978918765175828e-01,4.550317649631115298e-03
8.509999999999999787e-01,2.382483640046387241e-01,-1.588997178056842374e-01,-6.338831114393353450e-02
8.519999999999999796e-01,2.654412408772716114e-01,-9.936918518155825331e-02,-1.364646298070536778e-01
8.529999999999999805e-01,2.363245273932091106e-01,-7.600069891013386258e-02,-1.395617206617927319e-01
8.539999999999999813e-01,1.641316085058723562e-01,2.328048314740557845e-02,-1.627727589841640177e-01
8.549999999999999822e-01,5.334833462065010495e-02,1.402270313549476288e-01,-8.605073062328141842e-02
8.559999999999999831e-01,-5.000523503390937041e-02,1.630110134689080892e-01,-6.403882112849185182e-02
8.569999999999999840e-01,-1.437722470841549527e-01,1.988275546822224626e-01,-5.554484442454957205e-02
8.579999999999999849e-01,-2.253620733127703057e-01,2.291159654786770472e-01,4.131840352422043450e-02
8.589999999999999858e-01,-2.547268480135225222e-01,1.725211221148024998e-01,8.963550281218279903e-02
8.599999999999999867e-01,-2.469161165048628925e-01,9.930732321656711437e-02,1.117256482574963128e-01
8.609999999999999876e-01,-1.793482628012839364e-01,1.313598789272718732e-02,1.687044435507359941e-01
8.619999999999999885e-01,-1.033392769274289746e-01,-8.449865317332817816e-02,1.333995519089825887e-01
8.629999999999999893e-01,-2.549186318565925882e-02,-1.282273362692221697e-01,1.205499963897883470e-01
8.639999999999999902e-01,9.547787826529662014e-02,-1.933363206755337738e-01,8.165072834562514537e-02
8.649999999999999911e-01,1.691999371198152358e-01,-1.711539315263802818e-01,-4.942916812071766058e-03
8.659999999999999920e-01,2.333414460591830830e-01,-1.696000407156786627e-01,-5.008180711713348943e-02
8.669999999999999929e-01,2.396264244241246288e-01,-1.189948594458758169e-01,-1.164213207044754173e-01
8.679999999999999938e-01,2.058338659453676778e-01,-4.130958857977040655e-02,-1.505669984185311616e-01
8.689999999999999947e-01,1.271899653981917178e-01,5.611911353249048745e-02,-1.475485343201503874e-01
8.699999999999999956e-01,4.695059310419704562e-02,1.200966054478260908e-01,-1.291949525210203120e-01
8.709999999999999964e-01,-3.459699850008711441e-02,1.760166662890211564e-01,-9.718592100032737158e-02
8.719999999999999973e-01,-1.448034413882109128e-01,2.177962130259637752e-01,-4.922158210999687256e-02
8.729999999999999982e-01,-2.103866477041267669e-01,1.884269171530663645e-01,1.325107518320675810e-02
8.739999999999999991e-01,-2.755759902816033446e-01,1.427368904484500878e-01,3.250917970967466541e-02
8.750000000000000000e-01,-2.357373616839249786e-01,8.814083989765765514e-02,9.141658419214790388e-02
8.760000000000000009e-01,-1.901363891055546929e-01,-2.543940714242580101e-02,1.227000835363863951e-01
8.770000000000000018e-01,-1.037095768308559929e-01,-9.383933230711287432e-02,1.400347597930867716e-01
8.780000000000000027e-01,-8.176100087983004944e-03,-1.541245306480825139e-01,1.119598632539650640e-01
8.790000000000000036e-01,8.606446090233545176e-02,-1.725934567239399697e-01,8.531764675856542968e-02
8.800000000000000044e-01,1.943097901031778374e-01,-1.979664649964083811e-01,5.580632767544274966e-03
8.810000000000000053e-01,2.473683531798004376e-01,-1.427630566425676095e-01,-1.584971467969813544e-02
8.820000000000000062e-01,2.827841496929484055e-01,-1.373110382307946020e-01,-8.477637930992680537e-02
8.830000000000000071e-01,2.119648093615020545e-01,-2.706772961519798501e-02,-1.492136964981797542e-01
8.840000000000000080e-01,1.627485699856023871e-01,5.192145111087984044e-02,-1.480911056957177063e-01
8.850000000000000089e-01,8.420295067036291659e-02,1.440553439996028751e-01,-1.424077339922828478e-01
8.860000000000000098e-01,-3.052392109223018429e-02,1.802256467693635344e-01,-1.131337769114115488e-01
8.870000000000000107e-01,-1.449031012726170187e-01,2.276614176382917298e-01,-5.689275402615564386e-02
8.880000000000000115e-01,-1.900752382837919696e-01,1.648027674739087345e-01,7.548943258195025055e-03
8.890000000000000124e-01,-2.424138179840012175e-01,1.104064904704402522e-01,4.870204841852001504e-02
8.900000000000000133e-01,-2.364981063952579232e-01,7.923548821657022678e-02,1.454129719101296403e-01
8.910000000000000142e-01,-2.010730752402799248e-01,-3.169539353211631161e-02,1.483681613327805515e-01
8.920000000000000151e-01,-1.274182142618111024e-01,-1.102162484705062201e-01,1.631123925110503914e-01
8.930000000000000160e-01,-3.910362652787837540e-02,-1.696138933543206440e-01,1.085782886873394998e-01
8.940000000000000169e-01,7.529308160090186774e-02,-1.910337696669059671e-01,7.195226488525839625e-02
8.950000000000000178e-01,1.710575399150619236e-01,-1.992607429076149461e-01,5.020265380989215320e-02
8.960000000000000187e-01,2.195699453463011430e-01,-1.640242092756100667e-01,-5.657757472291422007e-02
8.970000000000000195e-01,2.571136916135616235e-01,-1.335969749057244749e-01,-1.254098183589952564e-01
8.980000000000000204e-01,2.356677323146796343e-01,-3.686094423718231511e-02,-1.280037238757885665e-01
8.990000000000000213e-01,1.583151296586922663e-01,5.070531477953967719e-02,-1.305504368632520729e-01
9.000000000000000222e-01,7.699379120375535179e-02,1.239123810442301910e-01,-1.431332436821515508e-01
9.010000000000000231e-01,-1.598073922958693702e-02,1.751905852238192784e-01,-1.161568887726915078e-01
9.020000000000000240e-01,-1.228250565263821620e-01,2.128796584396848157e-01,-9.493334712538264997e-02
9.030000000000000249e-01,-1.917895791501385283e-01,1.548484507677369282e-01,1.017467387350789489e-02
9.040000000000000258e-01,-2.430975921071879819e-01,1.430441214181585319e-01,4.420417731369253450e-02
9.050000000000000266e-01,-2.728131311094512124e-01,3.892276617712911446e-02,8.642348808374143709e-02
9.060000000000000275e-01,-1.854682468180340604e-01,-4.438866285960990643e-02,1.301409154723463246e-01
9.070000000000000284e-01,-1.263247924274678857e-01,-7.086341003997236043e-02,1.436499475773213574e-01
9.080000000000000293e-01,-9.675613539301967242e-03,-1.581558669952208840e-01,1.004842378591010860e-01
9.090000000000000302e-01,7.660784433112108327e-02,-2.009181443175566961e-01,8.378420001025664587e-02
9.100000000000000311e-01,1.764806720218710934e-01,-2.149953525180857694e-01,3.208655429567329465e-02
9.110000000000000320e-01,2.188481622072338817e-01,-1.750443005269939900e-01,-6.767538535490956507e-04
9.120000000000000329e-01,2.423037385348806860e-01,-1.168404992768773687e-01,-8.244337472476363782e-02
9.130000000000000338e-01,2.286263935431183947e-01,-8.783015289013637594e-03,-1.424560315543442479e-01
9.140000000000000346e-01,1.388584167688954596e-01,6.883655094602110502e-02,-1.420036030096228363e-01
9.150000000000000355e-01,9.798958582180368471e-02,1.266454948555976456e-01,-1.532185382446584476e-01
9.160000000000000364e-01,-7.742667640014053859e-03,2.173484296573258423e-01,-9.670043512071384295e-02
9.170000000000000373e-01,-1.116179180713439550e-01,1.928734579143053518e-01,-5.659290722374380606e-02
9.180000000000000382e-01,-2.127881458138027038e-01,1.762972811383283489e-01,-2.654695832181429987e-02
9.190000000000000391e-01,-2.399113266115635301e-01,1.143561586766040222e-01,4.032980970794536324e-02
9.200000000000000400e-01,-2.393162089617021371e-01,7.386427600916201097e-02,8.813306463655234957e-02
9.210000000000000409e-01,-2.063218019899404898e-01,-6.756108816250455673e-02,1.423454210608388615e-01
9.220000000000000417e-01,-1.242385076755494061e-01,-1.327300825283599106e-01,1.169779417885586231e-01
9.230000000000000426e-01,-5.123522111934122880e-02,-1.792744648367214366e-01,1.430648012031555394e-01
9.240000000000000435e-01,4.688653995070319463e-02,-1.821020028584537098e-01,8.439310554771478623e-02
9.250000000000000444e-01,1.555349311002522383e-01,-1.989099464933732631e-01,8.417321875718278279e-02
9.260000000000000453e-01,2.180109050550686212e-01,-1.482609054295535023e-01,2.549586265731422496e-02
9.270000000000000462e-01,2.474202730634099678e-01,-9.282697545403202632e-02,-3.843681065358959398e-02
9.280000000000000471e-01,2.288617310301862551e-01,-7.204414776268741258e-03,-9.805424994531937444e-02
9.290000000000000480e-01,1.641055561509769667e-01,6.675235861500766754e-02,-1.446016926361196608e-01
9.300000000000000488e-01,7.958371202687933299e-02,1.505076093155696126e-01,-1.632415812251490350e-01
9.310000000000000497e-01,-5.098242375536205656e-02,2.310927900406188340e-01,-1.177276871994317603e-01
9.320000000000000506e-01,-1.504519500359346174e-01,1.895286235891827376e-01,-1.154644679042096667e-01
9.330000000000000515e-01,-1.742980699178775517e-01,1.517427901723109596e-01,-4.681329593692839380e-02
9.340000000000000524e-01,-2.155905491520778428e-01,8.531015241675221628e-02,1.459734553585893650e-02
9.350000000000000533e-01,-2.318438065195140563e-01,5.076152482553328987e-02,9.782332455018891149e-02
9.360000000000000542e-01,-1.761114371966253089e-01,-2.521574060049054308e-02,1.565960673918168067e-01
9.370000000000000551e-01,-1.440837993737845713e-01,-1.294037133760420066e-01,1.608941330854274099e-01
9.379999999999999449e-01,-3.604193996770813785e-02,-1.973181140983334692e-01,1.388223382661109839e-01
9.389999999999999458e-01,4.645247651339512451e-02,-2.108073787703385327e-01,1.068309938537539833e-01
9.399999999999999467e-01,1.636592863365710360e-01,-1.744245156198418190e-01,5.800135697838397497e-02
9.409999999999999476e-01,2.217229037954762116e-01,-1.582353008585665466e-01,1.447800742182564319e-02
9.419999999999999485e-01,2.361421338117153101e-01,-8.773251593095166001e-02,-4.985711855354355015e-02
9.429999999999999494e-01,2.221806159781921086e-01,-1.769252999216178873e-02,-1.147167278414026187e-01
9.439999999999999503e-01,1.777991766042890109e-01,1.217617471976815691e-01,-1.302140307714530210e-01
9.449999999999999512e-01,7.292421600715036367e-02,1.700358542157309472e-01,-1.531113812686457631e-01
9.459999999999999520e-01,2.889296028547292533e-03,2.162621130382847978e-01,-1.173946416055381137e-01
9.469999999999999529e-01,-1.017680998498863565e-01,2.069064262438493895e-01,-1.114936228789890071e-01
9.479999999999999538e-01,-1.859451992968663703e-01,1.688300204444591890e-01,-7.208602872942974915e-02
9.489999999999999547e-01,-2.475601056434132141e-01,1.115795277024837218e-01,1.390421229742447175e-05
9.499999999999999556e-01,-2.220369603282004722e-01,4.147882344428047846e-02,5.464968152849854904e-02
9.509999999999999565e-01,-1.949909876116608654e-01,-5.248647855604948731e-02,1.355346541122326443e-01
9.519999999999999574e-01,-1.295122583818137385e-01,-1.155182241479110611e-01,1.487837665238961604e-01
9.529999999999999583e-01,-6.139418293339260480e-02,-1.658150686978595301e-01,1.482620595935968122e-01
9.539999999999999591e-01,3.611222523757742081e-02,-2.060804693864958792e-01,1.223998656578717953e-01
9.549999999999999600e-01,1.466671464097986655e-01,-1.459126067609507194e-01,9.120488804872108057e-02
9.559999999999999609e-01,2.314375157174214381e-01,-1.291998807737519961e-01,-1.053332057631491125e-02
9.569999999999999618e-01,2.338606050243655921e-01,-8.244095530178069398e-02,-9.060231683476843018e-03
9.579999999999999627e-01,2.249932373421992815e-01,1.907849977781012410e-02,-8.496440871646188109e-02
9.589999999999999636e-01,1.776952748182597797e-01,7.967392542098782060e-02,-1.544395644819914204e-01
9.599999999999999645e-01,7.046572558827647603e-02,1.597784350244657869e-01,-1.655991291554518019e-01
9.609999999999999654e-01,-1.437410450389348809e-02,2.032123728554577902e-01,-1.243090197661114726e-01
9.619999999999999662e-01,-9.501057513368708907e-02,2.212208531259715616e-01,-9.110247247744336641e-02
9.629999999999999671e-01,-2.031057871275770976e-01,1.567600608192886991e-01,-3.853751361017179744e-02
9.639999999999999680e-01,-2.322286821232141807e-01,1.043319854296721610e-01,-1.517427427276278259e-02
9.649999999999999689e-01,-2.759354574924523518e-01,3.310244655014318860e-02,6.225686315327380593e-02
9.659999999999999698e-01,-1.816448708956358848e-01,-4.613547929360070632e-02,1.138899795741976362e-01
9.669999999999999707e-01,-1.380028476891747569e-01,-1.191087394739336475e-01,1.238558691274217888e-01
9.679999999999999716e-01,-5.216661894707085023e-02,-1.881274625265021150e-01,1.505988368561433921e-01
9.689999999999999725e-01,5.514090168592864633e-02,-1.921958324290721221e-01,1.418605705381571769e-01
9.699999999999999734e-01,1.537132631962145335e-01,-1.778021071268465203e-01,6.071037962186588699e-02
9.709999999999999742e-01,2.117355267562992804e-01,-1.224608949454114720e-01,5.748148486112179822e-02
9.719999999999999751e-01,2.371129411593392300e-01,-6.754021644322999451e-02,-1.572667184585601480e-02
9.729999999999999760e-01,2.178239511573392684e-01,2.880601916070146123e-02,-9.615163249057928629e-02
9.739999999999999769e-01,2.011409927240567497e-01,8.320193867455827341e-02,-1.244306966246293139e-01
9.749999999999999778e-01,7.142140023307819163e-02,1.464593628125070712e-01,-1.355011894780844828e-01
9.759999999999999787e-01,-1.891571062331234019e-03,2.058578727243990103e-01,-1.801744389412222869e-01
9.769999999999999796e-01,-1.050842911593509732e-01,1.756042688131025098e-01,-1.447914444558656699e-01
9.779999999999999805e-01,-1.857565074668059424e-01,1.548321918993999791e-01,-8.011359697913575384e-02
9.789999999999999813e-01,-2.119183556342366659e-01,1.071088055709962517e-01,-1.523473598899414971e-02
9.799999999999999822e-01,-2.442309841645174118e-01,1.441232111642284409e-02,5.858546702174805693e-02
9.809999999999999831e-01,-2.083708237181986223e-01,-8.695515608736301139e-02,1.108595378612353410e-01
9.819999999999999840e-01,-1.517772065821272054e-01,-1.344463980864454566e-01,1.275403930048440715e-01
9.829999999999999849e-01,-2.825628426999322179e-02,-1.628248995611046579e-01,1.480133027053469330e-01
9.839999999999999858e-01,3.378140005273391061e-02,-2.023983225008803566e-01,1.381801167122732321e-01
9.849999999999999867e-01,1.516048882932158615e-01,-1.611610620668217642e-01,1.044184381697606800e-01
9.859999999999999876e-01,2.015533514979295504e-01,-1.526940808121320936e-01,4.480732745218121704e-02
9.869999999999999885e-01,2.479235739177736153e-01,-6.225532891996738566e-02,-1.145870933361164273e-02
9.879999999999999893e-01,2.716813002682205158e-01,3.980180776440948864e-02,-6.878539908048331153e-02
9.889999999999999902e-01,1.983150782735577100e-01,9.292421154794376636e-02,-1.176319527733590414e-01
9.899999999999999911e-01,9.010891391133517281e-02,1.970458765345143026e-01,-1.337286771712940248e-01
9.909999999999999920e-01,1.233631109214127289e-02,1.909422940070256702e-01,-1.109129076616093834e-01
9.919999999999999929e-01,-1.206317024981984343e-01,1.772014878892652912e-01,-1.477306769942783871e-01
9.929999999999999938e-01,-1.870014187875113365e-01,1.261432802844200951e-01,-8.674600277187172193e-02
9.939999999999999947e-01,-2.501739662260249464e-01,8.991817357086295814e-02,-3.038280662288853073e-02
9.949999999999999956e-01,-2.270955373800945254e-01,9.583639290665964955e-03,4.342816713064526907e-02
9.959999999999999964e-01,-2.384560910759246366e-01,-8.022130360321184928e-02,1.089944230780493933e-01
9.969999999999999973e-01,-1.172975720254294946e-01,-1.375612360153181668e-01,1.311433592098412426e-01
9.979999999999999982e-01,-7.472646252508202691e-02,-1.920162898574110377e-01,1.702476906542062796e-01
9.989999999999999991e-01,6.290464508578437475e-02,-2.235901317697832902e-01,1.497365081220820571e-01
1.000000000000000000e+00,1.577784825385286360e-01,-1.731749520743605109e-01,1.065748321853320774e-01
1.000999999999999890e+00,2.141541170314157638e-01,-1.141568608473420843e-01,4.886140383990547620e-02
1.002000000000000002e+00,2.319264039647908060e-01,-6.300155372469801174e-02,-1.377793705637475304e-03
1.002999999999999892e+00,2.567374834497051506e-01,6.202125714192519013e-02,-5.033071362260219811e-02
1.004000000000000004e+00,1.670289285367376197e-01,1.090118048946471796e-01,-1.153554057288667806e-01
1.004999999999999893e+00,1.028495222217599564e-01,1.583624981039185031e-01,-1.639575285958520534e-01
1.006000000000000005e+00,3.769415406232731747e-02,1.625376324224439006e-01,-1.492076574232961694e-01
1.006999999999999895e+00,-9.667712149754927042e-02,1.673996864678558849e-01,-1.421730175802913276e-01
1.008000000000000007e+00,-1.875982421364357500e-01,1.584188293570400474e-01,-8.734497180841581387e-02
1.008999999999999897e+00,-2.265214274925503868e-01,7.321262055226565590e-02,-3.558126888048373376e-02
1.010000000000000009e+00,-2.107488274175966791e-01,1.818792484784010136e-02,3.614605410044313075e-03
1.010999999999999899e+00,-2.164166441206786251e-01,-1.084402216213384007e-01,6.283104241565068415e-02
1.012000000000000011e+00,-1.525784706109291344e-01,-1.208585251805334992e-01,1.457623854890996995e-01
1.012999999999999901e+00,-8.567651033457902854e-02,-1.912892980746751792e-01,1.285235698777101865e-01
1.014000000000000012e+00,5.879769189550419772e-02,-1.975908769677782728e-01,1.080752764681494754e-01
1.014999999999999902e+00,1.536651598045444267e-01,-1.451705052032388199e-01,1.175052751057357042e-01
1.016000000000000014e+00,2.024286471160171852e-01,-9.761279069173033063e-02,5.419385730475814039e-02
1.016999999999999904e+00,2.513381896057379494e-01,-2.887904983174332391e-02,2.268301787414762904e-02
1.018000000000000016e+00,2.564385612346360421e-01,4.413368815453766469e-02,-2.697266868466068404e-02
1.018999999999999906e+00,1.879701840682089786e-01,1.192634886085572887e-01,-7.593696430722197965e-02
1.020000000000000018e+00,8.118759532717766125e-02,1.868245863126014039e-01,-1.573228120514425787e-01
1.020999999999999908e+00,3.594380701573807874e-02,1.894549267140168414e-01,-1.598500839663342943e-01
1.022000000000000020e+00,-3.861063326214097396e-02,1.916227407377510961e-01,-1.595378862251884133e-01
1.022999999999999909e+00,-1.997218343521567352e-01,1.424418781535210510e-01,-1.240771817300736352e-01
1.024000000000000021e+00,-2.061947951145483016e-01,8.015291260242646265e-02,-5.272296646361986777e-02
1.024999999999999911e+00,-2.377255316339118574e-01,1.303916742175644308e-02,-9.318651336913289646e-03
1.026000000000000023e+00,-2.214112419976141111e-01,-1.015189513627314383e-01,5.543469663015844484e-02
1.026999999999999913e+00,-1.723975244382694449e-01,-1.490000407863058263e-01,1.064181229306972315e-01
1.028000000000000025e+00,-7.231404244583324037e-02,-2.091222493619446232e-01,1.740784916524159287e-01
1.028999999999999915e+00,1.218108063089442215e-02,-2.094780561761174498e-01,1.359221410146423115e-01
1.030000000000000027e+00,1.272842828704182916e-01,-1.591206409533136301e-01,1.231883988182866790e-01
1.030999999999999917e+00,2.107863450968393004e-01,-1.139474009105891222e-01,7.688620695054884657e-02
1.032000000000000028e+00,2.305204367292857937e-01,-3.855277686143184640e-02,3.150588166165727705e-02
1.032999999999999918e+00,2.420667390273749109e-01,4.394257759492629228e-02,-4.121731725162242760e-02
1.034000000000000030e+00,2.335132889247412136e-01,1.346672031472688491e-01,-5.895309416031197652e-02
1.034999999999999920e+00,1.273481864356880433e-01,2.078897480655230168e-01,-1.386195825171103180e-01
1.036000000000000032e+00,2.967468242401122280e-02,1.905964777326089876e-01,-1.492651422989118848e-01
1.036999999999999922e+00,-1.009803072307134397e-01,1.901924804895342713e-01,-1.601486930483374260e-01
1.038000000000000034e+00,-1.879202808161607174e-01,1.384177924992406050e-01,-8.511088883680970052e-02
1.038999999999999924e+00,-2.314514806954237613e-01,4.043880031759814614e-02,-3.090265030328716647e-02
1.040000000000000036e+00,-2.365908499207710902e-01,-1.052849428739022208e-02,2.516180120324488460e-03
1.040999999999999925e+00,-2.293579293672919905e-01,-7.377718577053953009e-02,5.019137026075606162e-02
1.042000000000000037e+00,-1.601363314065340493e-01,-1.755167114249867322e-01,9.547859170628625325e-02
1.042999999999999927e+00,-4.643181725937009507e-02,-1.960633240621492135e-01,1.588581181225310335e-01
1.044000000000000039e+00,4.812053867993117823e-02,-2.013269125601961085e-01,1.227031888530006054e-01
1.044999999999999929e+00,1.392276090505190356e-01,-1.653592520156885459e-01,1.462332853542789857e-01
1.046000000000000041e+00,2.087869529297681215e-01,-1.113844257922012027e-01,1.212922341688660866e-01
1.046999999999999931e+00,2.358047276512624801e-01,-3.465459217719533275e-02,3.416416408328529219e-02
1.048000000000000043e+00,2.826610499537489107e-01,6.237212169034295206e-02,-3.373505729770698985e-02
1.048999999999999932e+00,1.803990805028097277e-01,1.442708332534271276e-01,-4.135322166297328988e-02
1.050000000000000044e+00,1.095858575637967958e-01,1.831003374970777420e-01,-1.098512300838516420e-01
1.050999999999999934e+00,5.694248040105941155e-02,1.820961487976537896e-01,-1.391658643132342443e-01
1.052000000000000046e+00,-9.009121191648675198e-02,1.875243780708561181e-01,-1.570018758733388031e-01
1.052999999999999936e+00,-1.702607782253448832e-01,1.195279673269188520e-01,-1.237360222249303671e-01
1.054000000000000048e+00,-1.993248811410298360e-01,7.106952539775120148e-02,-9.370042608683963603e-02
1.054999999999999938e+00,-2.111351821441510013e-01,-2.263726742027041827e-02,-1.560412833313216258e-02
1.056000000000000050e+00,-2.203143084423613007e-01,-9.246170995903789380e-02,5.523839664009701916e-02
1.056999999999999940e+00,-1.606812088415115469e-01,-1.775077709284023642e-01,9.134579790443192460e-02
1.058000000000000052e+00,-8.002043235662045784e-02,-1.801185682425473777e-01,1.425813460233906482e-01
1.058999999999999941e+00,2.314000689648753988e-03,-1.977646634357928812e-01,1.443386969027168898e-01
1.060000000000000053e+00,1.063578317670314660e-01,-1.294882898716740449e-01,1.334077202966753029e-01
1.060999999999999943e+00,1.800518250949432741e-01,-7.757245425583222942e-02,9.734231414040868391e-02
1.062000000000000055e+00,2.639513744297268261e-01,-2.202073616660954122e-02,4.786548600986115232e-02
1.062999999999999945e+00,2.433673172046449951e-01,6.107129474924040402e-02,-9.716444260774505584e-03
1.064000000000000057e+00,1.767642972129339629e-01,1.292078655546898547e-01,-8.999509827076360158e-02
1.064999999999999947e+00,1.415546306798340925e-01,1.786869867367407994e-01,-1.232005773586171832e-01
1.066000000000000059e+00,4.815269102926374861e-02,1.775141190030692928e-01,-1.443967473873169760e-01
1.066999999999999948e+00,-6.051128660074027443e-02,1.620408506472064691e-01,-1.627413113823036328e-01
1.068000000000000060e+00,-1.722245583104281552e-01,1.327715777825232701e-01,-1.487260012116749519e-01
1.068999999999999950e+00,-2.238791236247805738e-01,4.794365669061256829e-02,-7.204567736069965311e-02
1.070000000000000062e+00,-2.520912588120620690e-01,-3.540972029117553377e-02,-5.456344865306472780e-02
1.070999999999999952e+00,-2.097422211543481241e-01,-1.258142449050919376e-01,4.773847441300190647e-02
1.072000000000000064e+00,-1.821017478719131888e-01,-1.651789332588240733e-01,7.954057387109654542e-02
1.072999999999999954e+00,-8.476012424567370973e-02,-1.815412638958113500e-01,9.303189069426191782e-02
1.074000000000000066e+00,7.551621615669319894e-03,-1.992967084471670425e-01,1.688539372805005767e-01
1.074999999999999956e+00,1.139976984924497144e-01,-1.334869098651594310e-01,1.254735230702982707e-01
1.076000000000000068e+00,2.034697369023243108e-01,-1.192566437123365186e-01,1.152396751715359519e-01
1.076999999999999957e+00,2.396228035453495664e-01,8.379686133554328092e-03,5.304064432433527876e-02
1.078000000000000069e+00,2.289416110358519774e-01,8.098609784289385882e-02,2.105398954806758042e-03
1.078999999999999959e+00,1.937371392080743104e-01,1.358768493849647208e-01,-5.113090705091765525e-02
1.080000000000000071e+00,1.233329980596313824e-01,1.662546772255794059e-01,-1.042096804625269463e-01
1.080999999999999961e+00,2.188325293963587839e-02,1.995283926795066443e-01,-1.279049356087897382e-01
1.082000000000000073e+00,-7.777278406751282624e-02,1.784757256119280655e-01,-1.431910068190630492e-01
1.082999999999999963e+00,-1.666994987929194538e-01,9.174081291667947335e-02,-1.402762849094479347e-01
1.084000000000000075e+00,-2.166523156599386435e-01,4.500589793436659408e-02,-9.687849342402644892e-02
1.084999999999999964e+00,-2.473812884346184848e-01,-6.783925396215340076e-02,-6.688490711798295019e-02
1.086000000000000076e+00,-2.118695811175489441e-01,-8.621461679926836763e-02,2.220409516035400446e-02
1.086999999999999966e+00,-1.601683958422777110e-01,-1.718739674741463497e-01,7.915372059838324259e-02
1.088000000000000078e+00,-7.748078068180308531e-02,-1.786118016803408259e-01,1.137053696589299251e-01
1.088999999999999968e+00,-3.456502918144433497e-03,-1.743770173742291152e-01,1.343743431069089056e-01
1.090000000000000080e+00,1.299286628795232323e-01,-1.467048401524362056e-01,1.376303384002186270e-01
1.090999999999999970e+00,1.837061526334751449e-01,-3.377055793142683809e-02,1.163437651419921282e-01
1.092000000000000082e+00,2.251649007790658963e-01,-6.908513000475017402e-04,7.542894349499427997e-02
1.092999999999999972e+00,2.268856813140943951e-01,7.339994068428674912e-02,-4.679124806481833355e-03
1.094000000000000083e+00,2.324267255135247234e-01,1.454723531286540306e-01,-3.975738949422232688e-02
1.094999999999999973e+00,1.262651158087659820e-01,1.850925840759498064e-01,-9.487993905291346175e-02
1.096000000000000085e+00,2.659968917624740831e-02,1.707044470158557425e-01,-1.320431769771694686e-01
1.096999999999999975e+00,-5.871806460134790934e-02,1.554407381512633024e-01,-1.397379252090069635e-01
1.098000000000000087e+00,-1.330950961186714576e-01,9.335423137914755642e-02,-1.493398091587634091e-01
1.098999999999999977e+00,-2.203000994375333699e-01,4.250216412273544186e-02,-7.732220680576047667e-02
1.100000000000000089e+00,-2.435878826432017474e-01,-1.331359240115547078e-02,-3.865599137629852078e-02
1.100999999999999979e+00,-2.112684474317433059e-01,-1.360989213711647772e-01,1.660677849156083283e-02
1.102000000000000091e+00,-1.869333802754859775e-01,-1.823962056777660434e-01,8.717378632336447719e-02
1.102999999999999980e+00,-9.319451510002461914e-02,-1.801474009128714027e-01,1.032720858911063411e-01
1.104000000000000092e+00,-2.794889999196976255e-02,-1.716530580106068460e-01,1.502657909393719238e-01
1.104999999999999982e+00,1.259571268876890915e-01,-1.464257500556405966e-01,1.586317002776993501e-01
1.106000000000000094e+00,1.527943852038446959e-01,-6.135751720750103749e-02,1.429483884596278731e-01
1.106999999999999984e+00,2.346446198529855698e-01,7.748393606989833517e-03,9.462790317593906819e-02
1.108000000000000096e+00,2.687638770655722542e-01,8.464745728917615064e-02,5.080805815440876151e-03
1.108999999999999986e+00,2.139079465028375648e-01,1.599379295977029214e-01,-5.192789847595797453e-02
1.110000000000000098e+00,1.243170914298490914e-01,2.051491739521711100e-01,-8.665104323053199331e-02
1.110999999999999988e+00,3.531365192757704441e-02,1.846778723693984769e-01,-1.058933457225117308e-01
1.112000000000000099e+00,-8.286192422699294180e-02,1.593825750922822637e-01,-1.294368091760012274e-01
1.112999999999999989e+00,-1.508503392838078661e-01,8.323298008204213505e-02,-1.289973439392232968e-01
1.114000000000000101e+00,-2.049825243714197553e-01,1.641473294735733973e-02,-1.045317600244583395e-01
1.114999999999999991e+00,-2.711736427551671991e-01,-3.658735980515681607e-02,-8.365578980955092059e-02
1.116000000000000103e+00,-2.564650778190967206e-01,-1.141815436128833655e-01,-2.227673625984860281e-02
1.116999999999999993e+00,-2.262857113306088186e-01,-1.844348962353319354e-01,5.904576681010315770e-02
1.118000000000000105e+00,-9.772972169536320308e-02,-2.119564027402766615e-01,1.099369635442797172e-01
1.118999999999999995e+00,4.445244167727942924e-02,-1.627414325784282412e-01,1.333131379150046814e-01
1.120000000000000107e+00,1.093658095214748438e-01,-1.475824857018808445e-01,1.685307263538220190e-01
1.120999999999999996e+00,2.042076958629480687e-01,-9.188146914771280760e-02,1.494460359461027288e-01
1.122000000000000108e+00,2.317289572514826257e-01,2.559323111995097724e-02,9.658882696951560931e-02
1.122999999999999998e+00,2.363919228759987501e-01,8.449840881793325986e-02,6.617781399327453407e-02
1.124000000000000110e+00,2.108804815674968081e-01,2.034539448832053954e-01,-2.559202600511683093e-02
1.125000000000000000e+00,1.435356723201608731e-01,2.135744235644392031e-01,-5.113791392465030783e-02
1.125999999999999890e+00,4.923721411837048145e-02,1.859872193825472253e-01,-1.425696022248699457e-01
1.127000000000000002e+00,-6.003959187044526080e-02,1.558630265812744886e-01,-1.303170798006114683e-01
1.127999999999999892e+00,-1.593443563619995063e-01,1.194948714521179428e-01,-1.560986935396490027e-01
1.129000000000000004e+00,-1.997028323466965849e-01,1.324823520677542374e-02,-1.274748698669489477e-01
1.129999999999999893e+00,-2.638659206261306789e-01,-5.592670556660339631e-02,-6.189509242204292716e-02
1.131000000000000005e+00,-2.492491685553728520e-01,-1.340317130122935241e-01,-9.401485656101394792e-03
1.131999999999999895e+00,-1.706543412820775985e-01,-2.033347579394918503e-01,6.508018084447839136e-02
1.133000000000000007e+00,-1.040431143562297739e-01,-1.824217650889587983e-01,8.157744114114898193e-02
1.133999999999999897e+00,-9.592311755514528610e-03,-1.913164285549067978e-01,1.478093446045705417e-01
1.135000000000000009e+00,9.002099210954173092e-02,-1.350536851624319357e-01,1.543052049229980405e-01
1.135999999999999899e+00,1.766954009171136375e-01,-2.785259434473644213e-02,1.379028132024207320e-01
1.137000000000000011e+00,2.273413044927451998e-01,3.656044049357447256e-02,1.022833381480802162e-01
1.137999999999999901e+00,2.447109904526279522e-01,1.013164978599085386e-01,7.085310526729650393e-02
1.139000000000000012e+00,1.991658886655108540e-01,1.465161698084495867e-01,2.051224842133726398e-03
1.139999999999999902e+00,1.450144951181077391e-01,1.776302489235214721e-01,-9.226444833101223042e-02
1.141000000000000014e+00,2.882889695522904486e-02,2.001575117067648513e-01,-9.701159294736270977e-02
1.141999999999999904e+00,-4.371490169085410354e-02,1.484116037331354443e-01,-1.500907583073459450e-01
1.143000000000000016e+00,-1.461832268474028695e-01,8.162522049730763785e-02,-1.459730596444807904e-01
1.143999999999999906e+00,-1.992570534092611978e-01,5.866383858286305063e-03,-1.308977805078294365e-01
1.145000000000000018e+00,-2.502294805095542363e-01,-6.791770949827066750e-02,-9.032939276281089225e-02
1.145999999999999908e+00,-2.247767629137218948e-01,-1.261499795815911040e-01,-3.603448770923550065e-02
1.147000000000000020e+00,-1.945579358343299814e-01,-1.782539023941821510e-01,2.947831491992826403e-02
1.147999999999999909e+00,-9.529340900350968813e-02,-2.056025642927270525e-01,9.055228641846016502e-02
1.149000000000000021e+00,-2.607254268420054755e-02,-1.644476557722218124e-01,1.462378147272978546e-01
1.149999999999999911e+00,8.699755944329094770e-02,-1.218327159855763092e-01,1.420262589858551638e-01
1.151000000000000023e+00,2.100576228583961869e-01,-6.525279086913510218e-02,1.535647140432443714e-01
1.151999999999999913e+00,2.260273717486330214e-01,-3.681482230106005241e-03,1.002145178217960786e-01
1.153000000000000025e+00,2.702019210548149974e-01,7.575033353290588911e-02,5.523304421265164132e-02
1.153999999999999915e+00,2.424728258890980481e-01,1.736964973569955495e-01,-4.940151462490954652e-03
1.155000000000000027e+00,1.402722267753341856e-01,1.907448472865571065e-01,-7.656006339732884802e-02
1.155999999999999917e+00,5.091175050710978339e-02,1.814350071803107201e-01,-9.519094298795754971e-02
1.157000000000000028e+00,-6.027623085928384555e-02,1.695082978129507645e-01,-1.404818798025725679e-01
1.157999999999999918e+00,-1.346508531415881449e-01,1.044484456371366776e-01,-1.481155974718484925e-01
1.159000000000000030e+00,-2.242782642480104227e-01,-3.151332747495969033e-02,-1.609492565387546648e-01
1.159999999999999920e+00,-2.111624812165100451e-01,-7.913451598469133097e-02,-1.008022898642831344e-01
1.161000000000000032e+00,-2.347224442684045786e-01,-1.394222546902909310e-01,-2.904065958378740028e-02
1.161999999999999922e+00,-1.882995108714386467e-01,-1.774275531763887248e-01,2.111404629419994655e-02
1.163000000000000034e+00,-1.049059227104899988e-01,-2.226451564601231448e-01,8.232447603225478971e-02
1.163999999999999924e+00,-3.452471773680017286e-02,-1.873123221453357468e-01,1.377208331709791067e-01
1.165000000000000036e+00,1.114804572345475253e-01,-1.135943433453088236e-01,1.400137336240766528e-01
1.165999999999999925e+00,1.360154215392804511e-01,-6.206359812650819735e-02,1.588389442607639479e-01
1.167000000000000037e+00,2.229155145072601873e-01,3.106256218624216942e-02,1.323029302923038886e-01
1.167999999999999927e+00,2.443950667191575887e-01,1.080174659330364606e-01,4.893842376677259853e-02
1.169000000000000039e+00,2.135123855510014101e-01,1.797395429489441754e-01,2.046764538678893727e-02
1.169999999999999929e+00,1.546456770465503006e-01,1.743847235848310084e-01,-2.875855704770720334e-02
1.171000000000000041e+00,5.100513880962286029e-02,1.896684106370572220e-01,-1.155953989987543590e-01
1.171999999999999931e+00,-3.455776152036890703e-02,1.580883063881433903e-01,-1.666025978744540004e-01
1.173000000000000043e+00,-1.599055612210943667e-01,8.514436332185484901e-02,-1.708647527934523680e-01
1.173999999999999932e+00,-2.112193875664320208e-01,-1.580462052325634636e-02,-1.077834463948265653e-01
1.175000000000000044e+00,-2.659123646509810590e-01,-9.630037649984742043e-02,-1.187005691748213437e-01
1.175999999999999934e+00,-2.609010103697844696e-01,-1.473091095479646950e-01,-4.951441947433843360e-02
1.177000000000000046e+00,-2.035150707069756093e-01,-2.240336268904153383e-01,2.431829600455353776e-02
1.177999999999999936e+00,-1.135630353524335057e-01,-1.965915276882171103e-01,1.037904616231416638e-01
1.179000000000000048e+00,-2.436302079524756484e-02,-1.605628064362617513e-01,1.444820854490983519e-01
1.179999999999999938e+00,5.204239952529283314e-02,-1.037927865017861662e-01,1.459939253139420912e-01
