time,acc_x,acc_y,acc_z
0.000000000000000000e+00,1.356154866441590390e-01,1.025528196797284852e-01,7.930593051438113161e-02
1.000000000000000021e-03,3.773707139041065917e-02,7.574168351854799683e-03,4.553810159172496513e-02
2.000000000000000042e-03,-1.177666805092950908e-01,-1.028670528019582364e-01,-5.184289942711176047e-02
3.000000000000000062e-03,-1.290378745830042251e-01,-9.730960968257516830e-02,-8.232248712056114415e-02
4.000000000000000083e-03,1.289598671200803057e-02,3.504256628557116809e-02,-1.643849750820501956e-02
5.000000000000000104e-03,1.455163150673130790e-01,1.202808766715077332e-01,6.547613533027232813e-02
6.000000000000000125e-03,9.719020810071905825e-02,4.859529575401826812e-02,6.803213106130007182e-02
7.000000000000000146e-03,-4.428539275936210773e-02,-7.609442849851738577e-02,-2.029583964532840484e-03
8.000000000000000167e-03,-1.323953722824319501e-01,-9.913125102559429414e-02,-8.800578817607200566e-02
8.999999999999999320e-03,-5.518086978516618252e-02,-1.302454999417023036e-02,-4.431300235543132737e-02
1.000000000000000021e-02,9.923748232571505401e-02,1.173901198912915556e-01,5.457005165647188516e-02
1.099999999999999936e-02,1.299976789049052672e-01,9.229240267000629605e-02,8.735557830066567608e-02
1.200000000000000025e-02,1.688211228584685910e-03,-2.703521845431703513e-02,3.075440479466283461e-02
1.299999999999999940e-02,-1.284224400629022655e-01,-1.198908100578145314e-01,-6.282060046885805382e-02
1.400000000000000029e-02,-1.165472649691616097e-01,-4.734675110536409881e-02,-7.767300521702742711e-02
1.499999999999999944e-02,3.583862872368475533e-02,6.733067961051415751e-02,-6.895060816256383396e-03
1.600000000000000033e-02,1.496185344388976657e-01,1.129114414668407201e-01,6.516133453943538656e-02
1.700000000000000122e-02,6.462161055558240941e-02,1.769866261860827267e-02,7.566578495013394356e-02
1.799999999999999864e-02,-9.781940753420269308e-02,-7.825055258944199621e-02,-2.852948123864090801e-02
1.899999999999999953e-02,-1.439749794147864026e-01,-8.403340431813140221e-02,-9.391968509674120114e-02
2.000000000000000042e-02,-3.021562355141546585e-02,2.941786500226928336e-02,-5.613381501896064912e-02
2.100000000000000130e-02,1.195708219053424060e-01,1.090529282191889798e-01,5.452884508927577367e-02
2.199999999999999872e-02,1.192443633153319887e-01,5.611200301848962707e-02,7.979381655065005685e-02
2.299999999999999961e-02,-1.566385133220249762e-02,-5.793662434164906228e-02,2.389221410978979374e-02
2.400000000000000050e-02,-1.424470913079866063e-01,-1.157296689724607863e-01,-7.201791169384919034e-02
2.500000000000000139e-02,-7.654836443881721242e-02,-2.869128026044836036e-02,-7.925483132549476784e-02
2.599999999999999881e-02,6.357337718202697718e-02,1.008279266818084829e-01,1.269315444678747497e-02
2.699999999999999969e-02,1.432165277627996391e-01,1.072185477817590854e-01,8.301922101567259238e-02
2.800000000000000058e-02,4.730108766406371235e-02,-2.422874506451266896e-02,5.866355154220009860e-02
2.900000000000000147e-02,-1.087145640626108745e-01,-1.183782979661481549e-01,-3.596926494285432319e-02
2.999999999999999889e-02,-1.341626879252753868e-01,-5.586480828732538068e-02,-9.062612357363526716e-02
3.099999999999999978e-02,1.563133240689107764e-02,5.695914950020158213e-02,-4.263990162882266843e-02
3.200000000000000067e-02,1.330701812456993871e-01,1.193396031266906882e-01,4.791069642501002285e-02
3.300000000000000155e-02,1.108450919230939274e-01,2.040593143668442341e-02,8.551517103058382807e-02
3.400000000000000244e-02,-5.578639935297758506e-02,-9.394562979166452832e-02,2.115561196648123657e-02
3.500000000000000333e-02,-1.499421521880239805e-01,-8.246104168699662507e-02,-7.244914696531361276e-02
3.599999999999999728e-02,-5.715853702294939470e-02,2.494899589744102239e-02,-7.577298807664778479e-02
3.699999999999999817e-02,9.960655799154848056e-02,1.164671679865353360e-01,9.005369525242475429e-03
3.799999999999999906e-02,1.270295001302524096e-01,6.766714254138161966e-02,8.020842304833160352e-02
3.899999999999999994e-02,7.414870728872732623e-03,-7.056464365952855311e-02,6.086822042526968124e-02
4.000000000000000083e-02,-1.305301299352391864e-01,-1.226944748017536890e-01,-4.934550921220758057e-02
4.100000000000000172e-02,-1.108260487900869506e-01,-2.682532578446998606e-02,-9.342616377497757474e-02
4.200000000000000261e-02,3.449716512855675182e-02,8.487700881814455589e-02,-2.989848335189976974e-02
4.299999999999999656e-02,1.425339175717990903e-01,9.177640839915136850e-02,6.394356292825913168e-02
4.399999999999999745e-02,6.339543056843890967e-02,-1.411766477684366430e-02,7.702499331192939891e-02
4.499999999999999833e-02,-7.771434806976711129e-02,-1.196111486166522853e-01,2.082031459155289990e-02
4.599999999999999922e-02,-1.416700297326560498e-01,-6.514271010195443745e-02,-7.476336472368812214e-02
4.700000000000000011e-02,-3.305343124121892795e-02,5.875152600887020155e-02,-6.077112414891634035e-02
4.800000000000000100e-02,1.237253655008994091e-01,1.149632486975136342e-01,1.903271520591230670e-02
4.900000000000000189e-02,1.331839576134910830e-01,2.945439482609999923e-02,8.452673773504641719e-02
5.000000000000000278e-02,-1.725920248579854502e-02,-8.401966290519095881e-02,6.152862985080594788e-02
5.099999999999999672e-02,-1.478375846705927699e-01,-1.058858935490193803e-01,-4.425639980205513940e-02
5.199999999999999761e-02,-9.041762060960098490e-02,9.082465830434082246e-03,-8.143355456533327152e-02
5.299999999999999850e-02,8.206687569770015900e-02,1.074794345018983271e-01,-2.300503867117525969e-02
5.399999999999999939e-02,1.472320672377408768e-01,7.487020223132229146e-02,6.916513745772157051e-02
5.500000000000000028e-02,3.908700399981768908e-02,-6.361855919787282043e-02,7.326901393938708984e-02
5.600000000000000117e-02,-1.118370555361747065e-01,-1.124091792364469850e-01,1.406396380381728364e-03
5.700000000000000205e-02,-1.257795268206360062e-01,-2.993673199149573388e-02,-8.024887256310080097e-02
5.800000000000000294e-02,9.500691130288740210e-03,9.377520683176050753e-02,-5.576048781277175709e-02
5.899999999999999689e-02,1.464045036072998129e-01,1.060154484777725975e-01,3.704610020371784662e-02
5.999999999999999778e-02,9.358568508894049565e-02,-2.076742364386329268e-02,7.529912044692735340e-02
6.099999999999999867e-02,-4.449228804768209922e-02,-1.081111732346265591e-01,4.309447258222521421e-02
6.199999999999999956e-02,-1.348821313601173133e-01,-8.009392917633320619e-02,-5.081259750843410139e-02
6.300000000000000044e-02,-6.321421860521291014e-02,6.226471216441719497e-02,-8.252280201409654958e-02
6.400000000000000133e-02,9.517777267228590132e-02,1.103410058829165236e-01,-1.694340027064467416e-02
6.500000000000000222e-02,1.243812891263474107e-01,4.286156507266010440e-02,7.222055462159428230e-02
6.600000000000000311e-02,1.478156409055926719e-02,-7.786227161703708488e-02,7.006181079398582368e-02
6.700000000000000400e-02,-1.323603667509798687e-01,-1.179890589871466500e-01,-9.672672620033477900e-03
6.800000000000000488e-02,-1.076229569728816282e-01,1.340541019525298000e-02,-9.044238862067441320e-02
6.900000000000000577e-02,3.976341271637921782e-02,1.005481066661690487e-01,-6.246412630802620353e-02
7.000000000000000666e-02,1.475570779665296983e-01,7.500197618051641923e-02,4.157877951599176641e-02
7.099999999999999367e-02,6.151390386518296866e-02,-4.129235625000141074e-02,9.540850286044386119e-02
7.199999999999999456e-02,-9.357077078925904456e-02,-1.152788142644801117e-01,2.540512075084419563e-02
7.299999999999999545e-02,-1.386797266398867579e-01,-3.481351608516233126e-02,-5.898228098106966105e-02
7.399999999999999634e-02,-2.453672507593447280e-02,1.067541206799318965e-01,-8.290913189335633038e-02
7.499999999999999722e-02,1.186477077751361409e-01,9.744226219892190843e-02,2.091718194593428400e-03
7.599999999999999811e-02,1.186046832547636015e-01,-1.141252537532925007e-02,7.922616526995895914e-02
7.699999999999999900e-02,-1.515283983445637160e-02,-1.027824003020623433e-01,7.927839540249249917e-02
7.799999999999999989e-02,-1.307541218552644435e-01,-9.135066295453928009e-02,-9.530695262463114228e-03
7.900000000000000078e-02,-9.365406522830578562e-02,4.804991193118130638e-02,-6.793709495498295725e-02
8.000000000000000167e-02,6.535944628497826481e-02,1.148226393380996496e-01,-5.365708489477602483e-02
8.100000000000000255e-02,1.512886531333831330e-01,4.636620326820627830e-02,3.518136693161168921e-02
8.200000000000000344e-02,3.989502998147172186e-02,-8.907176961469441545e-02,7.883160623517872223e-02
8.300000000000000433e-02,-9.577293304257993023e-02,-1.040563225300678574e-01,2.493778951510954370e-02
8.400000000000000522e-02,-1.264529325725200215e-01,4.360681323264154960e-03,-5.640483631454493163e-02
8.500000000000000611e-02,9.722741116797242039e-03,1.027458543827221987e-01,-7.609947814249472253e-02
8.599999999999999312e-02,1.345124027807117206e-01,7.078476354091715883e-02,4.245804962085736323e-03
8.699999999999999400e-02,1.106445202771110525e-01,-4.924423996724300312e-02,7.943318665504336962e-02
8.799999999999999489e-02,-6.284375270213178599e-02,-1.105894927192246080e-01,5.221474527338379468e-02
8.899999999999999578e-02,-1.485157447780449114e-01,-4.511395911212592175e-02,-3.357529307671128921e-02
8.999999999999999667e-02,-7.843092812021448812e-02,8.492465575724213178e-02,-7.353559531230700885e-02
9.099999999999999756e-02,1.025628989877563346e-01,1.056615801144200756e-01,-3.999259836524774597e-02
9.199999999999999845e-02,1.302391489197227969e-01,-4.884987766228449102e-03,4.852869808155238496e-02
9.299999999999999933e-02,1.089873616705474592e-02,-1.175824506479048737e-01,8.953821463009913051e-02
9.400000000000000022e-02,-1.279559957264537473e-01,-8.348051227893950321e-02,2.892099229370568431e-02
9.500000000000000111e-02,-1.260042990993570644e-01,3.991881015712293868e-02,-6.514482940400873057e-02
9.600000000000000200e-02,3.417884507520611848e-02,1.227948993304446706e-01,-7.264767479089380420e-02
9.700000000000000289e-02,1.397697046325553083e-01,4.096202698773870887e-02,1.834802469518872353e-02
9.800000000000000377e-02,6.974512146340773600e-02,-7.182122876373005227e-02,7.786712757395160278e-02
9.900000000000000466e-02,-8.622390757908092451e-02,-1.009041111359933462e-01,6.245578876331629725e-02
1.000000000000000056e-01,-1.417613451803116653e-01,3.110383834514245018e-03,-2.955441153337299426e-02
1.010000000000000064e-01,-3.417763043843564247e-02,1.055911714961980802e-01,-8.441078336604894428e-02
1.019999999999999934e-01,1.187740285600346751e-01,8.703698942386067783e-02,-2.592554122022732582e-02
1.029999999999999943e-01,1.176235849195756689e-01,-4.010125961748400858e-02,5.452174343135451906e-02
1.039999999999999952e-01,-1.885466467149396128e-02,-1.222668897678591549e-01,8.421219437134962182e-02
1.049999999999999961e-01,-1.437517764517069752e-01,-6.095393268359096395e-02,7.907340634673361290e-03
1.059999999999999970e-01,-8.426240901041641418e-02,6.822331408419288201e-02,-8.004736263655719275e-02
1.069999999999999979e-01,6.795087866890944794e-02,1.064216892306841106e-01,-7.902636913397309559e-02
1.079999999999999988e-01,1.415616820554458644e-01,5.640730236041194452e-03,1.239340675075099006e-02
1.089999999999999997e-01,4.133530720754405308e-02,-1.032139274587091093e-01,7.866319449660583163e-02
1.100000000000000006e-01,-9.732991906417171046e-02,-9.230684885927438466e-02,5.654036078742782218e-02
1.110000000000000014e-01,-1.397520083993855355e-01,4.227711425749698659e-02,-6.195237597700681970e-02
1.120000000000000023e-01,5.475784777104861396e-04,1.247278072265649851e-01,-8.517606255849508035e-02
1.130000000000000032e-01,1.419681711587753026e-01,4.939719684929669979e-02,-4.202758232400375868e-03
1.140000000000000041e-01,1.154335207468002028e-01,-7.004800071677093343e-02,5.522090512568769705e-02
1.150000000000000050e-01,-4.134308049011336389e-02,-1.094216438317370116e-01,8.006960345797289880e-02
1.160000000000000059e-01,-1.497020547062378470e-01,-5.055045615046491365e-03,-8.880690409176434166e-03
1.170000000000000068e-01,-4.978217947404425803e-02,1.191791460196406360e-01,-8.306900776807464581e-02
1.179999999999999938e-01,9.738243673216673280e-02,8.655299956412303153e-02,-7.210804099912794529e-02
1.189999999999999947e-01,1.365066558441039857e-01,-3.053076933183259539e-02,3.396162126749269206e-02
1.199999999999999956e-01,1.801564996918430389e-02,-1.170979975357016867e-01,7.767428569639917013e-02
1.209999999999999964e-01,-1.303706268310213801e-01,-5.200161990744880253e-02,3.909699078038408881e-02
1.219999999999999973e-01,-1.102611319070506274e-01,6.632622087458257820e-02,-4.538872641852204765e-02
1.229999999999999982e-01,3.741641144582264628e-02,1.050487386341269064e-01,-8.047339935863463689e-02
1.239999999999999991e-01,1.524089685173981024e-01,1.122664814896660174e-02,-1.710208576176746806e-02
1.250000000000000000e-01,7.299695643146969504e-02,-1.057599293048622213e-01,5.963446337866584041e-02
1.260000000000000009e-01,-8.040805776422756124e-02,-8.575819281600230437e-02,7.589257339581008399e-02
1.270000000000000018e-01,-1.416810623908590916e-01,3.055737073988820315e-02,-6.878859213771622121e-03
1.280000000000000027e-01,-3.025762293888874938e-02,1.224520574512014681e-01,-6.834913838774193950e-02
1.290000000000000036e-01,1.283629923955438290e-01,5.570426629452435857e-02,-4.269542413981474577e-02
1.300000000000000044e-01,1.206627009992995575e-01,-8.052012664916639861e-02,2.544752186109696182e-02
1.310000000000000053e-01,-2.105039171130742084e-02,-1.170355020688334940e-01,8.949289194558483762e-02
1.320000000000000062e-01,-1.406699237534697333e-01,-2.239731944834424948e-02,3.377464208063254980e-02
1.330000000000000071e-01,-1.039192605419694548e-01,9.501872408111210200e-02,-5.207124764798286981e-02
1.340000000000000080e-01,6.782507318427974385e-02,8.173521806888775498e-02,-7.819849072142109891e-02
1.350000000000000089e-01,1.468426632907411100e-01,-3.512629627084014328e-02,-1.899625901296013789e-02
1.360000000000000098e-01,4.436820876336759062e-02,-1.245639297717701099e-01,8.534922580909005962e-02
1.370000000000000107e-01,-1.024976531190075757e-01,-6.332763269311889043e-02,7.483882414756619361e-02
1.380000000000000115e-01,-1.298440494299671899e-01,6.545120965527788381e-02,-1.755716622809600641e-02
1.390000000000000124e-01,-3.174908202974034439e-03,1.111309317455422413e-01,-8.641651533314097244e-02
1.400000000000000133e-01,1.390153825207542937e-01,7.342358397432786551e-03,-3.938771673349653751e-02
1.409999999999999865e-01,9.986969768877584919e-02,-1.015637619737707609e-01,5.641680715753866898e-02
1.419999999999999873e-01,-6.602884571297551464e-02,-9.270579330292455511e-02,8.611575728346239356e-02
1.429999999999999882e-01,-1.430087673743179189e-01,3.137635972193702355e-02,1.418853151221773946e-02
1.439999999999999891e-01,-6.069831959896196394e-02,1.190518223162018302e-01,-5.135804232825286891e-02
1.449999999999999900e-01,8.593751674784474992e-02,6.215993103277219628e-02,-7.939153151717738555e-02
1.459999999999999909e-01,1.347466750628530940e-01,-7.289727677711259346e-02,-6.785499139006188896e-03
1.469999999999999918e-01,1.244477534206540545e-02,-1.109854450579211976e-01,8.189186960080427347e-02
1.479999999999999927e-01,-1.320949193367446650e-01,-3.152993040349471449e-02,5.968398510776088545e-02
1.489999999999999936e-01,-1.040707605798000396e-01,9.474991558587379792e-02,-4.007045208238844969e-02
1.499999999999999944e-01,3.461784938176342558e-02,9.966428303589862370e-02,-9.219526606318623196e-02
1.509999999999999953e-01,1.380797652204751313e-01,-2.824757579911034780e-02,-3.987006226980191470e-02
1.519999999999999962e-01,7.762181487812735980e-02,-1.066829509195318798e-01,6.099595510575850366e-02
1.529999999999999971e-01,-8.352971725676269776e-02,-6.621431402378792630e-02,7.386717288680461069e-02
1.539999999999999980e-01,-1.568898944749036461e-01,7.499084806205555398e-02,1.499146083434955284e-02
1.549999999999999989e-01,-2.176456621714359038e-02,1.139059490758349141e-01,-5.920663519817256221e-02
1.559999999999999998e-01,1.140988228473315269e-01,3.250257813660610562e-02,-7.026258094031070933e-02
1.570000000000000007e-01,1.186786686172778965e-01,-8.877374762687550991e-02,2.044019700156439814e-02
1.580000000000000016e-01,-1.671310247463779833e-02,-9.799686113432486134e-02,8.251258599407453043e-02
1.590000000000000024e-01,-1.335902633749533608e-01,3.068464466362648760e-02,5.174773886780067306e-02
1.600000000000000033e-01,-8.708581191217835971e-02,9.279477325381187136e-02,-4.357640543729968813e-02
1.610000000000000042e-01,7.735514670525012182e-02,6.962034114913523419e-02,-8.737655969487821694e-02
1.620000000000000051e-01,1.427273622078557014e-01,-6.718942529680710374e-02,-4.736117705321123833e-02
1.630000000000000060e-01,3.864013841747610672e-02,-1.126258150744659098e-01,6.165007842386834719e-02
1.640000000000000069e-01,-1.073850751841411433e-01,-2.247277423096835647e-02,9.071869512071462083e-02
1.650000000000000078e-01,-1.278541361184689362e-01,9.882760300207270310e-02,6.365517736186238930e-03
1.660000000000000087e-01,7.188845466944954188e-03,8.698091352388279129e-02,-7.764864612303276625e-02
1.670000000000000095e-01,1.171328529509557820e-01,-1.850869201351479365e-02,-7.576207501326728821e-02
1.680000000000000104e-01,1.011428786172527405e-01,-1.031032012339077875e-01,1.199018107733423183e-02
1.690000000000000113e-01,-5.826988292855529716e-02,-5.198364848449506248e-02,7.604044046114745437e-02
1.700000000000000122e-01,-1.299203669880199807e-01,6.455612078076188032e-02,4.650286156203858184e-02
1.710000000000000131e-01,-5.840931022918702253e-02,1.207713260811027756e-01,-4.580489964165751493e-02
1.719999999999999862e-01,8.199054593774322830e-02,2.079244494072784999e-02,-9.273405443812392235e-02
1.729999999999999871e-01,1.287833557845267374e-01,-1.016207781965182966e-01,-3.003978000703718190e-02
1.739999999999999880e-01,2.204709696590631887e-02,-1.002154376562200133e-01,6.216394850719050152e-02
1.749999999999999889e-01,-1.409041778476781415e-01,1.698459332005720218e-02,7.694765697393234072e-02
1.759999999999999898e-01,-1.130289863241400877e-01,1.229746751887143136e-01,-5.497371287774919374e-03
1.769999999999999907e-01,4.092037470900601603e-02,6.994779554481331263e-02,-7.720944708856676553e-02
1.779999999999999916e-01,1.534759534844291895e-01,-4.956219117346930686e-02,-6.270490339515297218e-02
1.789999999999999925e-01,7.456985671675232796e-02,-1.190752457652113211e-01,3.704791577046422091e-02
1.799999999999999933e-01,-7.799212842884287178e-02,-3.312889673256315393e-02,8.676385295877477033e-02
1.809999999999999942e-01,-1.344005558009593038e-01,8.395693583495041079e-02,4.442545971982018310e-02
1.819999999999999951e-01,-2.377468511556702149e-02,9.610272470006656076e-02,-5.714826155123493151e-02
1.829999999999999960e-01,1.078581644520008598e-01,-1.130968058315456534e-02,-8.080047512800292431e-02
1.839999999999999969e-01,1.200342441914389047e-01,-1.068344501622863624e-01,-1.414278874305935005e-02
1.849999999999999978e-01,-1.414470192176289602e-02,-7.604782577602518800e-02,7.948265664773092321e-02
1.859999999999999987e-01,-1.457850040871344899e-01,5.806704928700507501e-02,7.455573796497157180e-02
1.869999999999999996e-01,-9.926756142847724396e-02,1.014008928234886170e-01,-1.201156602662536640e-02
1.880000000000000004e-01,7.023352314711914235e-02,2.949906031853988947e-02,-9.066599235029404458e-02
1.890000000000000013e-01,1.396692364329590874e-01,-8.957165743378429912e-02,-5.603478699687698683e-02
1.900000000000000022e-01,5.277337654746359213e-02,-1.076454988770244731e-01,3.597356875666805898e-02
1.910000000000000031e-01,-1.223880412767887338e-01,1.883121102573941802e-02,8.825619046757628150e-02
1.920000000000000040e-01,-1.297464503719497342e-01,1.005763173731299698e-01,3.273633221368243973e-02
1.930000000000000049e-01,-6.156780397126150259e-03,7.442853329047227628e-02,-6.325150046251969138e-02
1.940000000000000058e-01,1.298709901824047497e-01,-6.045216837827290662e-02,-8.251508987050057420e-02
1.950000000000000067e-01,9.518675589934628978e-02,-9.798496596301296824e-02,-7.400784614856303553e-03
1.960000000000000075e-01,-5.776882667068717475e-02,-3.071620731996548004e-02,6.919698186140942064e-02
1.970000000000000084e-01,-1.450147863921737168e-01,7.810992159928047129e-02,5.578349724411083704e-02
1.980000000000000093e-01,-7.254523292062241280e-02,9.665115611758318126e-02,-1.541596844533638447e-02
1.990000000000000102e-01,1.102970538560109487e-01,-3.773262000710776807e-03,-9.733557613707594092e-02
2.000000000000000111e-01,1.441271723483928680e-01,-1.196201883461812943e-01,-4.394449064837202545e-02
2.010000000000000120e-01,8.308909675866081590e-03,-8.484313159678592842e-02,4.229777386193789290e-02
2.020000000000000129e-01,-1.416657772641550517e-01,4.678620332016410199e-02,7.425263600131544461e-02
2.030000000000000138e-01,-1.151635848488321290e-01,1.206243068086922110e-01,2.652195074558360774e-02
2.039999999999999869e-01,3.175940731403957551e-02,4.736933379379534154e-02,-7.276062585243189829e-02
2.049999999999999878e-01,1.563909376672270868e-01,-7.740110568610933384e-02,-7.793676269670284096e-02
2.059999999999999887e-01,7.191912157014501705e-02,-1.012412478130115118e-01,-1.413563869485334745e-02
2.069999999999999896e-01,-8.411760004860480144e-02,-6.724753278078656436e-03,7.408761631212926191e-02
2.079999999999999905e-01,-1.434159190762398228e-01,9.790897558576491799e-02,6.819245268488326184e-02
2.089999999999999913e-01,-3.247708746633767851e-02,7.262851787937192605e-02,-2.856979955217536782e-02
2.099999999999999922e-01,1.084334116960029432e-01,-3.941445082767769392e-02,-8.423296647358913258e-02
2.109999999999999931e-01,1.400730722795266725e-01,-1.246267021212850157e-01,-3.162114070174691649e-02
2.119999999999999940e-01,-1.844724397365224075e-02,-3.649929647588138343e-02,4.597223820789888421e-02
2.129999999999999949e-01,-1.443577225055678037e-01,7.443200907360766894e-02,8.762562711842959706e-02
2.139999999999999958e-01,-8.636463810223643511e-02,9.976984373090135028e-02,1.914495783672028398e-02
2.149999999999999967e-01,5.927109575387224522e-02,4.612970654448799931e-03,-6.929730003107444081e-02
2.159999999999999976e-01,1.459676002031415065e-01,-1.134446709232864170e-01,-7.572935691634377631e-02
2.169999999999999984e-01,4.647515733972929636e-02,-8.369226857618135285e-02,9.639605698006662110e-04
2.179999999999999993e-01,-1.067418108181036329e-01,5.840319864930185872e-02,7.296118819539976208e-02
2.190000000000000002e-01,-1.320986640210960461e-01,1.192233046950657849e-01,4.754900932084253629e-02
2.200000000000000011e-01,7.092669535223228815e-03,4.852309906778991266e-02,-4.548404134329472187e-02
2.210000000000000020e-01,1.311528241571345288e-01,-8.071637751089695556e-02,-8.409409213164167896e-02
2.220000000000000029e-01,1.057589224994952837e-01,-1.143500216483038234e-01,-3.578450253737773534e-02
2.230000000000000038e-01,-5.015754666980919846e-02,-5.268358937658044854e-03,6.096526031563401921e-02
2.240000000000000047e-01,-1.484986336731693723e-01,1.060934882461219142e-01,8.797815580873132035e-02
2.250000000000000056e-01,-5.493652849982905845e-02,8.401946419803435484e-02,1.930785862081974696e-02
2.260000000000000064e-01,9.444941317457920815e-02,-4.172802059566180222e-02,-7.332640038541259064e-02
2.270000000000000073e-01,1.428195752115670458e-01,-1.024370038326299914e-01,-7.068146871579365775e-02
2.280000000000000082e-01,1.379836389644779372e-02,-4.226623285681036651e-02,2.168900804898543297e-02
2.290000000000000091e-01,-1.299228397073787789e-01,6.969314964529289835e-02,7.976601704902518131e-02
2.300000000000000100e-01,-1.068654709801638014e-01,1.214529492852629844e-01,5.412974480376100267e-02
2.310000000000000109e-01,3.036243993401780208e-02,2.859186232706518657e-03,-5.051984021261667068e-02
2.320000000000000118e-01,1.391751916290077384e-01,-9.568447406354688156e-02,-7.951844985984884984e-02
2.330000000000000127e-01,7.481004553710225713e-02,-8.287741895889175203e-02,-2.745088951886936676e-02
2.340000000000000135e-01,-8.082115110016750703e-02,4.354951291957161186e-02,6.758796681012130270e-02
2.349999999999999867e-01,-1.404314108579669262e-01,1.100399763646794232e-01,8.659567877518282997e-02
2.359999999999999876e-01,-1.887881721221071687e-02,4.747425897241391857e-02,2.334673897519590549e-03
2.369999999999999885e-01,9.686550181633171719e-02,-7.610399356405858629e-02,-6.895360248577482587e-02
2.379999999999999893e-01,1.171093710435340274e-01,-1.043287160917272527e-01,-5.561952633772215826e-02
2.389999999999999902e-01,-1.671199427673693630e-02,-2.420731538805980312e-02,3.381247146212205262e-02
2.399999999999999911e-01,-1.481044062406660089e-01,1.109838850809267835e-01,8.109031131877421361e-02
2.409999999999999920e-01,-8.620257107638852612e-02,8.181913395239583109e-02,4.949615660644884202e-02
2.419999999999999929e-01,6.538970050830932024e-02,-4.583137630407929652e-02,-4.885374266084217126e-02
2.429999999999999938e-01,1.557566434236869468e-01,-1.200368754456464099e-01,-8.305650283519742938e-02
2.439999999999999947e-01,4.978084064955883015e-02,-5.470146240002646265e-02,-1.162435248638303553e-02
2.449999999999999956e-01,-9.308437948429183761e-02,6.019829901683467627e-02,7.706192653932807113e-02
2.459999999999999964e-01,-1.293838539035493396e-01,1.125882893024395398e-01,6.936911649743525421e-02
2.469999999999999973e-01,-8.825061441921105976e-03,7.701906433676921314e-03,6.122838574743758033e-03
2.479999999999999982e-01,1.447935138758773832e-01,-1.207232169749548056e-01,-8.875316730249668828e-02
2.489999999999999991e-01,1.027215192099672075e-01,-9.320736759782410896e-02,-5.446418987746179385e-02
2.500000000000000000e-01,-5.890390821295742735e-02,2.286860909271328651e-02,3.356613965687796353e-02
2.510000000000000009e-01,-1.344014958205688448e-01,1.185700470358691389e-01,7.823202693934036556e-02
2.520000000000000018e-01,-4.776826864003188428e-02,4.503754563459181487e-02,1.889333157466679264e-02
2.530000000000000027e-01,8.286517281503870402e-02,-7.812997049393866078e-02,-5.670900247536441591e-02
2.540000000000000036e-01,1.401048966865535428e-01,-1.083341729711606027e-01,-7.040729522711744459e-02
2.550000000000000044e-01,9.373675577676340506e-03,-2.180202390042951992e-05,-1.345639944259831387e-03
2.560000000000000053e-01,-1.363723941983739640e-01,1.034033937486416171e-01,6.022966986429538483e-02
2.570000000000000062e-01,-1.152289754047379211e-01,8.537577777037942683e-02,6.954618168325188421e-02
2.580000000000000071e-01,3.302081516807555545e-02,-2.179616756195482813e-02,-9.658022834138309254e-03
2.590000000000000080e-01,1.409967712476069834e-01,-1.213297994359464477e-01,-8.823251689506311779e-02
2.600000000000000089e-01,7.232810773413539396e-02,-5.538607165313151615e-02,-4.574583274234256258e-02
2.610000000000000098e-01,-7.751009371739515930e-02,6.850687548806380645e-02,4.336070430583562757e-02
2.620000000000000107e-01,-1.316159004985403835e-01,1.175695033221808017e-01,8.717145360440534119e-02
2.630000000000000115e-01,-2.536017581106686167e-02,8.963030213085598080e-03,2.552547511294816010e-02
2.640000000000000124e-01,1.067630342518436498e-01,-1.104823642424558328e-01,-6.065418943951096653e-02
2.650000000000000133e-01,1.169711746644961775e-01,-8.929077349950827192e-02,-8.586161840412576129e-02
2.660000000000000142e-01,-8.278530235060957768e-03,2.916011238232808431e-02,-6.770471287073992310e-03
2.670000000000000151e-01,-1.294922886736760426e-01,1.128309983422401130e-01,8.384852538866885419e-02
2.680000000000000160e-01,-9.728497316411335860e-02,5.357396636669416873e-02,4.940699586607662924e-02
2.690000000000000169e-01,5.528639549942673814e-02,-6.488611982273839729e-02,-3.731179993245203191e-02
2.700000000000000178e-01,1.375406699884158535e-01,-1.133164186382579486e-01,-8.723077490960449987e-02
2.710000000000000187e-01,5.684115854794347805e-02,-1.630136436286384535e-02,-4.070659261346576407e-02
2.720000000000000195e-01,-1.058780907032252083e-01,9.171878526887015937e-02,5.043704415490108534e-02
2.730000000000000204e-01,-1.282945563188253590e-01,9.070975307545675603e-02,8.946642872848718786e-02
2.740000000000000213e-01,-4.566871254486189191e-03,-2.471537970323683248e-02,8.480966848270809003e-03
2.750000000000000222e-01,1.400586548450963031e-01,-1.145889000507408634e-01,-6.523176181542109098e-02
2.760000000000000231e-01,1.040850045245420991e-01,-5.601597012047625224e-02,-8.276678362655491561e-02
2.770000000000000240e-01,-3.924684502619117665e-02,6.464450686809457280e-02,8.561193094884633065e-03
2.780000000000000249e-01,-1.361639316250659038e-01,1.094094484188759958e-01,7.982491695989871183e-02
2.790000000000000258e-01,-7.481822958721415229e-02,2.926193499883399801e-02,6.538227661445775163e-02
2.800000000000000266e-01,9.820722518541324941e-02,-8.737344680155031962e-02,-3.824300631693897806e-02
2.810000000000000275e-01,1.394543793000031506e-01,-9.477259829766256083e-02,-7.845197242565714324e-02
2.819999999999999729e-01,1.969459250863888830e-02,2.168801935004296272e-02,-3.205301446465766424e-02
2.829999999999999738e-01,-1.289170449282003861e-01,1.247705238356877216e-01,5.594434682382457003e-02
2.839999999999999747e-01,-1.137697289186889726e-01,5.621830989358193170e-02,9.397392948788330092e-02
2.849999999999999756e-01,4.191901348039769881e-02,-6.216713766211890563e-02,1.685202494750882851e-03
2.859999999999999765e-01,1.346264524997184686e-01,-1.134180413226318906e-01,-6.447449412068297081e-02
2.869999999999999774e-01,7.220356592308008192e-02,-3.490107660515662236e-02,-7.546250302613248528e-02
2.879999999999999782e-01,-7.423852904463536240e-02,9.580119642261177015e-02,1.951720743662027982e-02
2.889999999999999791e-01,-1.272549076908404686e-01,8.192904504613515715e-02,8.509347280179122008e-02
2.899999999999999800e-01,-1.441409194675744021e-02,-1.947029755987080349e-02,5.724887602275265802e-02
2.909999999999999809e-01,1.238445098747189832e-01,-1.158582805726721537e-01,-5.464984794289623471e-02
2.919999999999999818e-01,1.199746160778367432e-01,-6.146121179941534812e-02,-8.499564710996569683e-02
2.929999999999999827e-01,-1.050749131850435038e-02,6.121138055237834025e-02,-3.415002979911561237e-02
2.939999999999999836e-01,-1.553727703336914290e-01,1.263431336365160307e-01,6.730904578535086558e-02
2.949999999999999845e-01,-9.164054618706302113e-02,3.155299796685449160e-02,7.761855832966886581e-02
2.959999999999999853e-01,6.682957023428742760e-02,-8.658938898246076876e-02,-3.325627254245353882e-04
2.969999999999999862e-01,1.405292771398990725e-01,-9.191787075478181912e-02,-8.273864866907498783e-02
2.979999999999999871e-01,5.048642594755014396e-02,1.978368787523673844e-02,-7.227174167669282723e-02
2.989999999999999880e-01,-1.079938793941686986e-01,1.019237254814594901e-01,7.066991173005359068e-03
2.999999999999999889e-01,-1.365892079104460977e-01,6.320972056771913261e-02,7.098833247901971399e-02
3.009999999999999898e-01,6.442534232477736475e-03,-5.541747032432040726e-02,3.525252733267203453e-02
3.019999999999999907e-01,1.391913220985037114e-01,-1.073957080172455447e-01,-4.166351528198715404e-02
3.029999999999999916e-01,1.020118954710166892e-01,-1.996862848405760171e-02,-7.824704090806099133e-02
3.039999999999999925e-01,-4.703569837965058953e-02,9.468230362542287559e-02,-1.027436052183276771e-02
3.049999999999999933e-01,-1.447902420739175244e-01,1.079356469758838977e-01,8.409735157148580387e-02
3.059999999999999942e-01,-6.682623704298146228e-02,-8.217421683549228431e-03,7.227430161292830446e-02
3.069999999999999951e-01,1.138503888707706746e-01,-1.078875982355092800e-01,-7.044600021761823067e-03
3.079999999999999960e-01,1.481180086330219359e-01,-7.330720476586552459e-02,-8.752717914184987569e-02
3.089999999999999969e-01,2.335412215212759324e-02,6.028670718700215869e-02,-4.913421609365518916e-02
3.099999999999999978e-01,-1.207220622629075341e-01,1.092797338878444685e-01,3.818866735382127342e-02
3.109999999999999987e-01,-1.129691666752793561e-01,4.734358143708355254e-02,9.483326330971407481e-02
3.119999999999999996e-01,2.300103827666118497e-02,-9.235306231123556475e-02,3.485548369004275171e-02
3.130000000000000004e-01,1.439225918232164281e-01,-1.085890853943749235e-01,-5.310039969612245087e-02
3.140000000000000013e-01,8.025397403364918636e-02,1.698575841264189645e-02,-8.217922020182975851e-02
3.150000000000000022e-01,-7.789572194601314392e-02,1.201628892039070251e-01,3.516306890583435416e-03
3.160000000000000031e-01,-1.425491035548027974e-01,7.333333476536758877e-02,7.708688364328056264e-02
3.170000000000000040e-01,-2.942326818380080686e-02,-4.811710527527471998e-02,6.979258057108116142e-02
3.180000000000000049e-01,1.103302344333607632e-01,-1.152608596106817485e-01,-1.472138620040291598e-02
3.190000000000000058e-01,1.109467091121084242e-01,-3.274083405938012920e-02,-8.837149226684128112e-02
3.200000000000000067e-01,-2.354878774724053492e-02,9.104383329256433843e-02,-6.381777562083648658e-02
3.210000000000000075e-01,-1.441693986117979220e-01,1.071662886003892090e-01,5.101875545917965160e-02
3.220000000000000084e-01,-9.059496475613740274e-02,-9.601018905299714759e-03,7.928854916993706425e-02
3.230000000000000093e-01,6.610630101759606969e-02,-1.094057279180434272e-01,2.630959538103355005e-02
3.240000000000000102e-01,1.406702297677470681e-01,-8.036827757047275422e-02,-5.795984609389597669e-02
3.250000000000000111e-01,5.714658446875669345e-02,5.370452997650659865e-02,-7.711446871730293084e-02
3.260000000000000120e-01,-1.114861319683094487e-01,1.138875693218628082e-01,5.263723314472407416e-04
3.270000000000000129e-01,-1.283955593733549783e-01,4.436891916978898814e-02,7.741284026270246754e-02
3.280000000000000138e-01,-6.533640078412027152e-03,-8.159844121625593749e-02,6.306083946640098081e-02
3.290000000000000147e-01,1.232582094244141363e-01,-1.076117027965521333e-01,-2.311622751445340310e-02
3.300000000000000155e-01,9.510268385763870347e-02,6.258959641168555452e-03,-8.635602281014870263e-02
3.310000000000000164e-01,-5.053206843748520027e-02,1.097645450499589725e-01,-5.071265441494716281e-02
3.320000000000000173e-01,-1.519799281130687352e-01,7.648547256694517016e-02,4.662729604789431909e-02
3.330000000000000182e-01,-6.578512949065430659e-02,-6.124438331891614296e-02,8.375036688207269930e-02
3.340000000000000191e-01,1.007628704565476790e-01,-1.213136922670803031e-01,2.470254213018239359e-02
3.350000000000000200e-01,1.180006766555287689e-01,-3.372218883451831573e-02,-7.218381447820053365e-02
3.360000000000000209e-01,1.582957305365484749e-02,9.279096498877392740e-02,-8.338646894986562197e-02
3.370000000000000218e-01,-1.177341382786653845e-01,9.916662127521914949e-02,2.273627796511415791e-02
3.380000000000000226e-01,-1.234825058924475250e-01,-1.253149779594617610e-02,8.359010674163855348e-02
3.390000000000000235e-01,2.571937588529931568e-02,-1.152736639019610182e-01,5.719075520652980305e-02
3.400000000000000244e-01,1.405158230955238507e-01,-8.108122778590148849e-02,-2.373060157253081837e-02
3.410000000000000253e-01,7.894469171813608965e-02,5.037274443724495954e-02,-8.893361280703403204e-02
3.420000000000000262e-01,-8.336693369440137391e-02,1.168235867767297570e-01,-4.975969813648429413e-02
3.430000000000000271e-01,-1.489558815642409995e-01,4.333905119866390820e-02,6.629243634970710675e-02
3.439999999999999725e-01,-2.054366991529791089e-02,-7.480406085571333907e-02,7.816302255844088942e-02
3.449999999999999734e-01,1.092882477168640454e-01,-1.168163099743806110e-01,3.005560880286119174e-03
3.459999999999999742e-01,1.193344755802635687e-01,6.741386020670535849e-03,-7.716466593104145955e-02
3.469999999999999751e-01,-1.115211538064066893e-02,1.025535159731155166e-01,-6.611212034764701873e-02
3.479999999999999760e-01,-1.319291046489128871e-01,9.426106067430262136e-02,1.104079110331151982e-03
3.489999999999999769e-01,-7.991910021995725366e-02,-4.290950064493216642e-02,7.798191445282044720e-02
3.499999999999999778e-01,6.826075009200394117e-02,-1.190537448910919394e-01,5.156178259076411863e-02
3.509999999999999787e-01,1.458942001305437441e-01,-4.493644889191525382e-02,-3.462967840053553237e-02
3.519999999999999796e-01,3.792321970688516258e-02,7.768442008709823543e-02,-8.402781265344086425e-02
3.529999999999999805e-01,-8.953376222416552233e-02,1.219588003486003075e-01,-3.407341483146735656e-02
3.539999999999999813e-01,-1.388581570396115183e-01,-1.559937447554111565e-03,6.448853030448356560e-02
3.549999999999999822e-01,5.027246333771472238e-03,-1.024070902798466520e-01,7.886796841376632339e-02
3.559999999999999831e-01,1.280914600827013639e-01,-8.779068845931806142e-02,2.885250458761727619e-03
3.569999999999999840e-01,9.911034567949637830e-02,5.337736833129942682e-02,-8.348986514610906573e-02
3.579999999999999849e-01,-4.906909455310052431e-02,1.288996121247202864e-01,-6.583145742070463380e-02
3.589999999999999858e-01,-1.577734456932673446e-01,5.376896967381833425e-02,1.813316491327616672e-02
3.599999999999999867e-01,-6.130569215920474158e-02,-7.949552396776880803e-02,9.399663398001885384e-02
3.609999999999999876e-01,9.460139669060570189e-02,-1.071185462647439579e-01,4.006409876715624069e-02
3.619999999999999885e-01,1.302168334557886331e-01,-1.300086408585695782e-02,-5.177192959929657196e-02
3.629999999999999893e-01,1.217782545568698443e-02,9.688075794937218987e-02,-8.368995359319002236e-02
3.639999999999999902e-01,-1.277291824625357564e-01,8.373750268781940398e-02,-1.206328975808195619e-02
3.649999999999999911e-01,-1.200511161445887293e-01,-3.902857621839881525e-02,7.280865845863490615e-02
3.659999999999999920e-01,2.772866835852169295e-02,-1.114311703977242662e-01,7.696205082136049758e-02
3.669999999999999929e-01,1.420732661549744258e-01,-4.817099050941180127e-02,-2.038387174759960854e-03
3.679999999999999938e-01,7.719600036658604003e-02,8.045439478765761820e-02,-9.296719143049171630e-02
3.689999999999999947e-01,-8.140081438173323025e-02,1.063203539417525018e-01,-6.619939489417270284e-02
3.699999999999999956e-01,-1.368214740935844997e-01,1.253462722573424858e-02,3.462537992378403318e-02
3.709999999999999964e-01,-3.623649455443056500e-02,-1.040724003353877963e-01,7.769223794655846782e-02
3.719999999999999973e-01,1.246221431432389809e-01,-8.638943208699156884e-02,3.675759114024781948e-02
3.729999999999999982e-01,1.302050948919560303e-01,3.384158654863467924e-02,-5.093473417668838155e-02
3.739999999999999991e-01,-1.720297674835152835e-02,1.150149255226473599e-01,-8.764121801847474247e-02
3.750000000000000000e-01,-1.329048219014274113e-01,5.777053949229910695e-02,-7.823398774458679983e-03
3.760000000000000009e-01,-9.442539978970977688e-02,-7.771034184231935538e-02,8.541292658409596616e-02
3.770000000000000018e-01,4.606520044224989702e-02,-1.083566706124517165e-01,6.532701450907124618e-02
3.780000000000000027e-01,1.467483241857967524e-01,-3.070698835126875817e-04,-2.774864436974884205e-02
3.790000000000000036e-01,5.010718862029949622e-02,9.048844823650788183e-02,-8.646674723993873213e-02
3.800000000000000044e-01,-9.652889273909966150e-02,8.978399048483204359e-02,-5.080648726120767789e-02
3.810000000000000053e-01,-1.357391297340021785e-01,-3.698242315652242734e-02,4.379157158934492144e-02
3.820000000000000062e-01,-7.139819959667041520e-03,-1.161433254349488048e-01,6.864969292710018656e-02
3.830000000000000071e-01,1.286142032465647789e-01,-6.354986925200883929e-02,2.439314139769425960e-02
3.840000000000000080e-01,1.147189583641935740e-01,6.915320278519659913e-02,-6.938100343227862621e-02
3.850000000000000089e-01,-5.760003483934337393e-02,1.191612471983422572e-01,-7.642706358507689313e-02
3.860000000000000098e-01,-1.449084492734117879e-01,6.142922368691038949e-03,-1.500692529839113033e-02
3.870000000000000107e-01,-5.798911836573829304e-02,-9.950688273132771156e-02,8.064222143660852715e-02
3.880000000000000115e-01,9.368341008994546248e-02,-9.640996585433743438e-02,7.819504141390500040e-02
3.890000000000000124e-01,1.298611127777015428e-01,2.916558739872497988e-02,-2.183118032492100194e-02
3.900000000000000133e-01,1.260322845993762202e-02,1.190672339990212214e-01,-7.878925801935984796e-02
3.910000000000000142e-01,-1.411511119564529682e-01,5.636733790135786681e-02,-3.967034127317058123e-02
3.920000000000000151e-01,-1.173048764938350169e-01,-5.476519148674383053e-02,4.302943476772741471e-02
3.930000000000000160e-01,3.019680376186589799e-02,-1.201621884041357141e-01,6.638972659521004405e-02
3.940000000000000169e-01,1.513039809670251590e-01,-1.429225653074036803e-02,1.110422053729358260e-02
3.950000000000000178e-01,9.885684939175934383e-02,1.078436804187541814e-01,-6.803789900879325669e-02
3.960000000000000187e-01,-7.697649540039415428e-02,8.922308709105561397e-02,-7.383111552537253985e-02
3.970000000000000195e-01,-1.427808219808719969e-01,-3.601906803201782720e-02,1.446706753720166001e-02
3.980000000000000204e-01,-3.104888889386416342e-02,-1.178148287253430876e-01,7.147197854231090997e-02
3.990000000000000213e-01,1.248812047334417058e-01,-6.566350700658087070e-02,5.071748274013063162e-02
4.000000000000000222e-01,1.345839364224384049e-01,5.990869024213110738e-02,-3.632631952680032139e-02
4.010000000000000231e-01,-2.238374029235387294e-02,1.148537445927113182e-01,-9.801146969184165725e-02
4.020000000000000240e-01,-1.376169078452221251e-01,2.680120746189882525e-02,-4.446338938203795582e-02
4.030000000000000249e-01,-9.786635214408739847e-02,-1.004198415588042764e-01,5.681371504285199353e-02
4.040000000000000258e-01,6.418790998911125256e-02,-8.906164788720725978e-02,8.807610863259239531e-02
4.050000000000000266e-01,1.403992825940925671e-01,3.185458545056335522e-02,2.348265939680928283e-02
4.060000000000000275e-01,4.053358937827660630e-02,1.119492341199791186e-01,-8.315951069880292423e-02
4.069999999999999729e-01,-9.083027281275096732e-02,5.796059118557610884e-02,-8.102275436891510918e-02
4.079999999999999738e-01,-1.421257532596023609e-01,-7.020724232219001382e-02,1.310621737865003134e-02
4.089999999999999747e-01,9.278590876515873526e-03,-1.103754988731794479e-01,7.619003976657788557e-02
4.099999999999999756e-01,1.345920481572062122e-01,-1.639922899342581911e-02,3.411604441130640375e-02
4.109999999999999765e-01,1.070677694077159514e-01,9.221705721155729063e-02,-5.251861040749904175e-02
4.119999999999999774e-01,-4.932583004510669028e-02,9.842730066374735798e-02,-8.763035649461604903e-02
4.129999999999999782e-01,-1.513067863022223847e-01,-3.072259484361741441e-02,-2.421164085664493856e-02
4.139999999999999791e-01,-6.649594553505283612e-02,-1.125208856178375599e-01,6.393524284781854083e-02
4.149999999999999800e-01,9.888717082155391858e-02,-7.039935669098319748e-02,8.461565898791818807e-02
4.159999999999999809e-01,1.409350414073288205e-01,5.650960855870358623e-02,-5.061490175809443479e-03
4.169999999999999818e-01,2.113022658716605384e-02,1.161957958105560296e-01,-7.396418233345768145e-02
4.179999999999999827e-01,-1.264637248975108152e-01,2.711861294289623012e-02,-5.834630423033144997e-02
4.189999999999999836e-01,-1.082604426939383635e-01,-8.350652611790353175e-02,1.433838602037164865e-02
4.199999999999999845e-01,2.656925904947164338e-02,-1.032189538957189179e-01,9.462472829350640491e-02
4.209999999999999853e-01,1.391148892870052445e-01,7.806824164294968657e-03,3.947986964767263157e-02
4.219999999999999862e-01,6.973406282647133525e-02,1.077710169450617345e-01,-4.600525384061104894e-02
4.229999999999999871e-01,-8.221282985852777780e-02,6.586329960142200957e-02,-7.958709216324393043e-02
4.239999999999999880e-01,-1.405964199268854020e-01,-5.327972653600835523e-02,-1.634835677396979242e-02
4.249999999999999889e-01,-3.977568272920779802e-02,-1.216086019977784954e-01,7.151533852150683546e-02
4.259999999999999898e-01,1.181982909597768389e-01,-1.757875649094473025e-02,7.427374756035225178e-02
4.269999999999999907e-01,1.352476472124205520e-01,9.393496686110798521e-02,-4.638086195050660984e-03
4.279999999999999916e-01,-2.329817690867195049e-02,9.107569915937009652e-02,-7.673273751572068369e-02
4.289999999999999925e-01,-1.391269211043921206e-01,-8.766230492658509330e-03,-6.518808818223277568e-02
4.299999999999999933e-01,-1.051707771411165698e-01,-1.068144411616865630e-01,3.592460660207504736e-02
4.309999999999999942e-01,6.804812964057031788e-02,-6.922529221092151019e-02,9.364554776806516267e-02
4.319999999999999951e-01,1.549565839482125451e-01,5.179833223141454973e-02,4.367011498232943600e-02
4.329999999999999960e-01,4.692430344973326506e-02,1.147524781103476527e-01,-5.872407766681979335e-02
4.339999999999999969e-01,-9.116723484971338276e-02,4.256373826522694831e-02,-9.567971710642046712e-02
4.349999999999999978e-01,-1.357572106484754015e-01,-9.653661811335657872e-02,-1.587327023237974227e-02
4.359999999999999987e-01,-2.481591001812142889e-03,-1.020383124074950576e-01,8.147733100005596918e-02
4.369999999999999996e-01,1.262907498553568764e-01,1.321518870615507289e-02,6.934857397767198173e-02
4.380000000000000004e-01,1.118658065245618782e-01,1.182423482358332945e-01,-1.259838941709545170e-02
4.390000000000000013e-01,-5.492455838780795768e-02,7.678295377031303659e-02,-7.651761099402724919e-02
4.400000000000000022e-01,-1.383305191293558445e-01,-5.273698190568733984e-02,-4.847832024670929024e-02
4.410000000000000031e-01,-6.765497564944483733e-02,-1.188097775140507101e-01,3.965676118282737694e-02
4.420000000000000040e-01,9.655153685153837484e-02,-3.278755132041044629e-02,1.048373805269883913e-01
4.430000000000000049e-01,1.224185101019552996e-01,8.831728446329123461e-02,3.472736949825896979e-02
4.440000000000000058e-01,1.717835495138286817e-02,1.086223106796257859e-01,-6.179260301632652497e-02
4.450000000000000067e-01,-1.094291953806732082e-01,-5.428823185725919175e-03,-7.650715740780762719e-02
4.460000000000000075e-01,-1.127381063681674039e-01,-1.207268462048403518e-01,-3.462349935797193190e-03
4.470000000000000084e-01,2.679646345863994847e-02,-7.072252944583813650e-02,7.041952984599390841e-02
4.480000000000000093e-01,1.359146428770857395e-01,5.735975528364148368e-02,5.494933145263813934e-02
4.490000000000000102e-01,6.741850301993246308e-02,1.131493408181441646e-01,-3.174387241297817880e-02
4.500000000000000111e-01,-6.207271424126445392e-02,2.752264251277287618e-02,-7.527756689855014116e-02
4.510000000000000120e-01,-1.579265559610340819e-01,-8.545150671116430452e-02,-3.961250651332653971e-02
4.520000000000000129e-01,-4.348658529629692571e-02,-1.084200416187306865e-01,6.810922369831622081e-02
4.530000000000000138e-01,1.302446639479566126e-01,8.768439281230728426e-04,8.969778428357756683e-02
4.540000000000000147e-01,1.197404712599161730e-01,1.077990127408594012e-01,3.168761945060755147e-02
4.550000000000000155e-01,-1.851965067025075065e-03,6.602102362284137382e-02,-6.987325251112530555e-02
4.560000000000000164e-01,-1.365718305787118614e-01,-4.943629258248823793e-02,-7.177071630992412632e-02
4.570000000000000173e-01,-9.938369252228412831e-02,-1.148301926475119583e-01,-8.505931476742225120e-03
4.580000000000000182e-01,6.078830618227490379e-02,-2.996819468158769262e-02,7.388936285906656798e-02
4.590000000000000191e-01,1.520879754690560304e-01,9.197628135445376496e-02,6.434578734565597757e-02
4.600000000000000200e-01,4.644187527435324203e-02,9.821471077987438403e-02,-4.792368009545274615e-02
4.610000000000000209e-01,-1.117936995975558484e-01,-8.325010578993570845e-03,-8.106538193594353681e-02
4.620000000000000218e-01,-1.316259634245589005e-01,-9.607150515283241488e-02,-2.603580784474197191e-02
4.630000000000000226e-01,-5.787544991908475349e-05,-7.693433126877302630e-02,4.624040210233248960e-02
4.640000000000000235e-01,1.181581756412790757e-01,5.564576114863896417e-02,8.341132925747955784e-02
4.650000000000000244e-01,1.103937618634348722e-01,1.078428119821553122e-01,-3.943972903523229774e-03
4.660000000000000253e-01,-4.499592938010601312e-02,5.225127192293493872e-02,-6.699687587822522605e-02
4.670000000000000262e-01,-1.489311210425702248e-01,-8.508404430765090232e-02,-6.526060524045763922e-02
4.680000000000000271e-01,-6.655762714717289308e-02,-1.052046068038621357e-01,2.465287734460793606e-02
4.689999999999999725e-01,8.699625414690637104e-02,-7.375644832582906041e-04,8.838800319079380408e-02
4.699999999999999734e-01,1.308452476317628899e-01,1.091554389304108669e-01,4.953256441561323942e-02
4.709999999999999742e-01,1.694444587734335664e-02,8.828215790785959305e-02,-3.876858329212916343e-02
4.719999999999999751e-01,-1.153398703739351300e-01,-4.809722135526935810e-02,-8.083672845329169243e-02
4.729999999999999760e-01,-1.182474551358328740e-01,-1.225142746507000419e-01,-3.088266574980949586e-02
4.739999999999999769e-01,1.688846905245049157e-02,-4.283897239182813538e-02,6.675457588708574863e-02
4.749999999999999778e-01,1.440428466747333547e-01,7.407641819356387825e-02,8.211976211932045522e-02
4.759999999999999787e-01,8.674712256321449877e-02,1.119628517476646129e-01,-7.517864037314743062e-04
4.769999999999999796e-01,-6.845025531120141338e-02,-6.745856126602505984e-03,-9.496841098607418374e-02
4.779999999999999805e-01,-1.475259505450653985e-01,-1.103901142912280670e-01,-6.463526657951554344e-02
4.789999999999999813e-01,-4.160298228123740505e-02,-8.937520590997941050e-02,1.647890885175092024e-02
4.799999999999999822e-01,1.120370249675700092e-01,4.617727119661283602e-02,8.176590329294716741e-02
4.809999999999999831e-01,1.244003139534339275e-01,1.208493925226230142e-01,4.409997084182273874e-02
4.819999999999999840e-01,-7.114538773503994475e-03,4.333264740109821905e-02,-4.296103070343854774e-02
4.829999999999999849e-01,-1.278991286008166750e-01,-8.456385890385141602e-02,-9.129567832796166293e-02
4.839999999999999858e-01,-1.015472534262123749e-01,-1.163850683382143814e-01,-7.552361484304441659e-03
4.849999999999999867e-01,4.952884838581386728e-02,-8.764023834479311298e-03,6.577353930603498100e-02
4.859999999999999876e-01,1.348463348224621661e-01,1.077461458744482237e-01,7.923201266892723749e-02
4.869999999999999885e-01,4.869610897668850275e-02,8.761288067510653033e-02,3.993878945874769319e-03
4.879999999999999893e-01,-9.715638491558628576e-02,-3.708811554652571840e-02,-8.259126359276974805e-02
4.889999999999999902e-01,-1.312471912277590191e-01,-1.153320127337872786e-01,-5.592524803489977436e-02
4.899999999999999911e-01,4.470943924164774854e-05,-4.819668121143919071e-02,2.654208948106717356e-02
4.909999999999999920e-01,1.320975328959023420e-01,7.009264686701965896e-02,9.337097539909053334e-02
4.919999999999999929e-01,1.168462743985334007e-01,1.227488376416422666e-01,3.909649636263736600e-02
4.929999999999999938e-01,-3.893019241242680339e-02,-4.777012833178044537e-03,-4.729761221190087461e-02
4.939999999999999947e-01,-1.594587773351543447e-01,-1.106769744997225940e-01,-7.674647209719465124e-02
4.949999999999999956e-01,-7.415002961486238942e-02,-8.426034048568334378e-02,-7.188599579811656530e-03
4.959999999999999964e-01,8.747090109409333403e-02,2.589194307407948273e-02,8.744623101843870816e-02
4.969999999999999973e-01,1.315563945693738190e-01,1.278469405210958254e-01,5.714939652567500861e-02
4.979999999999999982e-01,2.643493436132363442e-02,5.067087082959789018e-02,-1.500471796985336633e-03
4.989999999999999991e-01,-1.249169574348119177e-01,-7.459635904989743438e-02,-8.844319035184024236e-02
5.000000000000000000e-01,-1.115958015603294995e-01,-1.096175124065587175e-01,-5.418371366406357637e-02
5.010000000000000009e-01,2.807181081897013042e-02,-1.986942607998413643e-02,4.164447746685498442e-02
5.020000000000000018e-01,1.475443132344815833e-01,1.035851144964225062e-01,8.824406408536926427e-02
5.030000000000000027e-01,8.164550957427849087e-02,8.636278483971930597e-02,3.026705550883129758e-02
5.040000000000000036e-01,-6.078735530968526479e-02,-4.015939769359793549e-02,-5.849344611201112709e-02
5.050000000000000044e-01,-1.322823662505375752e-01,-1.258905073900407068e-01,-7.506897291160245789e-02
5.060000000000000053e-01,-3.312194966570361498e-02,-4.076147793360850730e-02,-2.362189578259746726e-03
5.070000000000000062e-01,1.086733233048161745e-01,6.555324247283404737e-02,8.320881993363322959e-02
5.080000000000000071e-01,1.297950415626079601e-01,1.094955552935695520e-01,6.660213886995995647e-02
5.090000000000000080e-01,-1.435168001721717768e-02,3.997244957378024354e-04,-1.797842965553904729e-02
5.100000000000000089e-01,-1.351662043390797763e-01,-1.079294575205552581e-01,-8.997874036208490522e-02
5.110000000000000098e-01,-8.485771537351995131e-02,-8.664805629856420222e-02,-4.525856976230348966e-02
5.120000000000000107e-01,6.146443556952284337e-02,4.199181714591038173e-02,3.551233243642945570e-02
5.130000000000000115e-01,1.408491894583834836e-01,1.184714386781407780e-01,8.398552485938477752e-02
5.140000000000000124e-01,5.247881920544360951e-02,6.231815663182176807e-02,2.933519265722858704e-02
5.150000000000000133e-01,-1.066393894196343978e-01,-5.741924273164378256e-02,-6.542206957741335260e-02
5.160000000000000142e-01,-1.361632706882305033e-01,-1.169388387665933199e-01,-7.296380632742098526e-02
5.170000000000000151e-01,5.658704074952588051e-03,-4.386498202641613518e-03,5.202347116929331196e-03
5.180000000000000160e-01,1.363546924951771766e-01,9.367808578391455254e-02,8.180606397694634158e-02
5.190000000000000169e-01,1.082083565808006215e-01,1.011314653257385648e-01,5.335344834052479362e-02
5.200000000000000178e-01,-4.818867867532883320e-02,-2.559142567756223993e-02,-2.906410030399977917e-02
5.210000000000000187e-01,-1.438563138939872588e-01,-1.180599292939056577e-01,-7.578688566414723549e-02
5.220000000000000195e-01,-6.537389097456959564e-02,-6.266123542057530638e-02,-3.105750781166409166e-02
5.230000000000000204e-01,8.478709722659617809e-02,8.301844162368766933e-02,5.607318205994269583e-02
5.240000000000000213e-01,1.492881655168840638e-01,1.180943759089788242e-01,7.740904613472553153e-02
5.250000000000000222e-01,2.080596094584469952e-02,1.332236316111545804e-02,2.032697802534469064e-02
5.260000000000000231e-01,-1.273769510235288616e-01,-1.011187653871581521e-01,-7.926279553966769642e-02
5.270000000000000240e-01,-1.250409398000487671e-01,-9.907051303038762191e-02,-6.142397013661500538e-02
5.280000000000000249e-01,2.713664285290241784e-02,2.406893203377163254e-02,2.126971225896564371e-02
5.290000000000000258e-01,1.510276624567765125e-01,1.058867272260690245e-01,8.242869669897744112e-02
5.300000000000000266e-01,8.141852738225915931e-02,6.170017303087256544e-02,5.169935428977078667e-02
5.310000000000000275e-01,-7.345268092721811415e-02,-7.194630673214982841e-02,-5.112125813185782602e-02
5.320000000000000284e-01,-1.411935959444022282e-01,-9.345981264328974414e-02,-8.415338382375642245e-02
5.330000000000000293e-01,-3.789205522948248250e-02,-2.028346879398665314e-02,-2.588853778098378772e-02
5.340000000000000302e-01,1.180719573916646087e-01,9.863622572789719489e-02,5.499803970642005990e-02
5.350000000000000311e-01,1.257404047388972212e-01,1.102328367346272903e-01,8.475183501039551537e-02
5.360000000000000320e-01,-1.192806092220737024e-02,-2.197739400118516040e-02,4.433442123544699756e-03
5.370000000000000329e-01,-1.429752546631640198e-01,-1.002413855377178864e-01,-8.595222868806365324e-02
5.380000000000000338e-01,-1.084152192745879290e-01,-6.218822243442156256e-02,-6.391551914145410240e-02
5.390000000000000346e-01,6.379816650389101562e-02,6.119929665224577847e-02,1.162371851098375694e-02
5.400000000000000355e-01,1.459272565939239708e-01,1.232290407428993928e-01,8.717703081080392657e-02
5.410000000000000364e-01,6.464160821518798172e-02,2.159234968034521793e-02,3.294650180364263464e-02
5.420000000000000373e-01,-9.951231608178401356e-02,-8.259403406742893416e-02,-5.378081508759782053e-02
5.430000000000000382e-01,-1.366755232964503297e-01,-8.831847992432637073e-02,-8.507673208889078575e-02
5.440000000000000391e-01,-8.034511952564783385e-03,-6.117477095509084490e-05,-2.562187072526906154e-02
5.450000000000000400e-01,1.426327153614170284e-01,1.096248739968250369e-01,5.660361889297638865e-02
5.460000000000000409e-01,1.066445056440611799e-01,6.565902703245377059e-02,6.961892035559144598e-02
5.470000000000000417e-01,-5.135832979072716548e-02,-5.739645512776225811e-02,-8.796289902473447206e-03
5.480000000000000426e-01,-1.358000175173337543e-01,-1.136591022204441054e-01,-6.913636041933100829e-02
5.490000000000000435e-01,-6.085627149479327230e-02,-2.007214298572843753e-02,-5.925732242683607459e-02
5.500000000000000444e-01,6.871899879223680729e-02,8.794334775765100254e-02,3.640185597702695619e-02
5.510000000000000453e-01,1.333385522549123126e-01,1.002279998471874017e-01,8.358154503826197013e-02
5.520000000000000462e-01,1.836602348856876052e-02,-1.960724202800021021e-02,3.874199202483467191e-02
5.530000000000000471e-01,-1.223343678400237028e-01,-1.217623205419006843e-01,-5.596862051598349569e-02
5.540000000000000480e-01,-1.199880484478966225e-01,-6.747725489310750502e-02,-7.773508893976618928e-02
5.550000000000000488e-01,3.152309421760452618e-02,5.209812597590887662e-02,-2.109087140030330501e-02
5.560000000000000497e-01,1.240620632403122287e-01,1.061748529036765226e-01,6.059557422416164685e-02
5.570000000000000506e-01,8.267770116808753622e-02,2.046075808197877696e-02,6.634691041707774239e-02
5.580000000000000515e-01,-7.114204806478149901e-02,-8.407379808118314868e-02,-9.082162449318859423e-03
5.590000000000000524e-01,-1.429478825087854288e-01,-9.164076137235201147e-02,-7.818730578748819826e-02
5.600000000000000533e-01,-3.060398729355956471e-02,4.219451630033084662e-03,-5.351625109784382411e-02
5.610000000000000542e-01,1.121581518217555085e-01,1.058463938471538301e-01,4.236018618030779059e-02
5.620000000000000551e-01,1.363243467276559484e-01,5.422162375321899069e-02,9.195160034421127893e-02
5.629999999999999449e-01,-9.060122099895328435e-03,-5.339413547553416295e-02,3.755014604914670706e-02
5.639999999999999458e-01,-1.241004934493597500e-01,-1.186754988284491885e-01,-6.493828739063525757e-02
5.649999999999999467e-01,-9.362746201916076483e-02,-3.209298991919555533e-02,-9.238297545322046722e-02
5.659999999999999476e-01,6.552038521756271827e-02,8.351757805971617155e-02,-5.281092880510642081e-03
5.669999999999999485e-01,1.431688901626834431e-01,9.561000554758214420e-02,7.405350682880099122e-02
5.679999999999999494e-01,5.749414042880582332e-02,-1.692508448875455068e-02,6.234463659603211444e-02
5.689999999999999503e-01,-9.466551598614590668e-02,-1.056411368096865505e-01,-1.829847399418583001e-02
5.699999999999999512e-01,-1.232732937906651921e-01,-7.105931997296084657e-02,-8.708269660074388629e-02
5.709999999999999520e-01,4.572618673831914393e-03,6.281461720348621713e-02,-5.150686943262634127e-02
5.719999999999999529e-01,1.298069733006102233e-01,1.185467987534212786e-01,3.898635826090383200e-02
5.729999999999999538e-01,1.084238564294358886e-01,3.904920214299685555e-02,8.474045260054291484e-02
5.739999999999999547e-01,-4.313253087770729799e-02,-9.404035572075838956e-02,2.242232012941534555e-02
5.749999999999999556e-01,-1.394434868911060554e-01,-9.541032105545546593e-02,-8.574044837814695508e-02
5.759999999999999565e-01,-5.891734004974866212e-02,3.050224409441377321e-03,-7.250608850535969485e-02
5.769999999999999574e-01,9.027393110223878858e-02,1.060975940600808604e-01,4.936876129565958421e-03
5.779999999999999583e-01,1.294701544925098979e-01,6.984227085245899025e-02,7.084119021711382524e-02
5.789999999999999591e-01,3.025343592751904634e-02,-6.482224210761701466e-02,6.517011308013903603e-02
5.799999999999999600e-01,-1.140682432241308802e-01,-1.200395067227245371e-01,-3.484904574441422681e-02
5.809999999999999609e-01,-1.282597578011878681e-01,-4.409596021785302383e-02,-8.106965439294951115e-02
5.819999999999999618e-01,1.763367282340778941e-02,9.033093728000801681e-02,-3.454467387402448270e-02
5.829999999999999627e-01,1.286511531004869147e-01,9.915788129564032105e-02,4.954200264461159492e-02
5.839999999999999636e-01,9.510348842575748474e-02,-4.715272146532597207e-03,7.656752172221287234e-02
5.849999999999999645e-01,-7.435072135442839791e-02,-1.054890359031972202e-01,8.251865864130203745e-03
5.859999999999999654e-01,-1.390310951533148265e-01,-7.808667174529876354e-02,-6.793310527571808088e-02
5.869999999999999662e-01,-4.137946250775349777e-02,4.098999738016353978e-02,-7.752675600429045910e-02
5.879999999999999671e-01,1.151878050035166079e-01,1.206526164973495407e-01,8.350368146297316649e-03
5.889999999999999680e-01,1.310089299798453677e-01,3.541613105152273400e-02,8.175700915402002444e-02
5.899999999999999689e-01,-1.122559289675754447e-02,-8.317478635922651020e-02,4.275054883490480434e-02
5.909999999999999698e-01,-1.306301858997889198e-01,-1.124454375034134035e-01,-3.242444344842917298e-02
5.919999999999999707e-01,-9.492109566732367942e-02,1.872523941022306588e-03,-9.095033482216631493e-02
5.929999999999999716e-01,4.400031842982863456e-02,1.020070345434952175e-01,-3.604862553101398359e-02
5.939999999999999725e-01,1.475052743271292599e-01,6.911886747866946568e-02,6.412650413068710087e-02
5.949999999999999734e-01,5.927257253157704880e-02,-3.639930285567917478e-02,8.238979208646796115e-02
5.959999999999999742e-01,-1.154013881312042772e-01,-1.195273607168041430e-01,1.612381824292061575e-02
5.969999999999999751e-01,-1.334139140830472303e-01,-5.746768037637230847e-02,-7.024252046879277123e-02
5.979999999999999760e-01,-6.738018865917971140e-03,7.656583099733035858e-02,-6.985496915093802883e-02
5.989999999999999769e-01,1.280005389049135023e-01,1.014876629749839748e-01,1.837284895332398291e-02
5.999999999999999778e-01,1.163727332380953966e-01,4.586166512037818423e-03,9.572214302192900981e-02
6.009999999999999787e-01,-3.917093731846765098e-02,-1.118550992939266048e-01,5.114925627553242038e-02
6.019999999999999796e-01,-1.454669037878071614e-01,-8.858611242954211873e-02,-4.637193887925503133e-02
6.029999999999999805e-01,-6.760057213427217437e-02,4.590590607678082108e-02,-8.755740922457511122e-02
6.039999999999999813e-01,9.465559554826308286e-02,1.228819120838430118e-01,-2.633148852250731531e-02
6.049999999999999822e-01,1.312958658398619416e-01,4.006506796371847590e-02,7.574908859340029332e-02
6.059999999999999831e-01,2.892694533759775435e-02,-7.421679553655401163e-02,8.293784627607121707e-02
6.069999999999999840e-01,-1.240998345995797530e-01,-1.101410155781044620e-01,-1.512693676275499860e-03
6.079999999999999849e-01,-1.193887108229428895e-01,-7.585062696157864916e-03,-7.978703372980529285e-02
6.089999999999999858e-01,1.923839224724545674e-02,1.134048611415447994e-01,-6.519329397157448691e-02
6.099999999999999867e-01,1.239906885677242443e-01,8.838148660064336359e-02,3.871467914372812846e-02
6.109999999999999876e-01,7.805352591345318669e-02,-2.785631805391308030e-02,8.884344590615958492e-02
6.119999999999999885e-01,-7.714210885748898350e-02,-1.175289627268939485e-01,3.861734517004943718e-02
6.129999999999999893e-01,-1.391335587390577777e-01,-3.728519451753255914e-02,-5.953295268338516105e-02
6.139999999999999902e-01,-2.880576383943093607e-02,7.821858241632416442e-02,-6.693620699521118933e-02
6.149999999999999911e-01,1.130302131208267974e-01,1.116159974811431893e-01,-1.750261491002300454e-02
6.159999999999999920e-01,1.162264216684851942e-01,-2.341325695203746570e-03,7.867677470456579947e-02
6.169999999999999929e-01,-2.585193544970593778e-03,-9.854480061625531251e-02,6.361649151734681540e-02
6.179999999999999938e-01,-1.378484016368285436e-01,-9.034252757460074779e-02,-7.795097894554025436e-03
6.189999999999999947e-01,-9.431188440145849006e-02,3.203061711548064322e-02,-8.718776481885674723e-02
6.199999999999999956e-01,5.082646147758463490e-02,1.110097211959932689e-01,-5.970503857925511110e-02
6.209999999999999964e-01,1.415164803358822387e-01,4.737789491691527660e-02,4.602713246460941182e-02
6.219999999999999973e-01,5.278528416129889961e-02,-9.057557854531106400e-02,7.416264873910763389e-02
6.229999999999999982e-01,-9.446802661254333211e-02,-1.082522387693840432e-01,4.655141415047968356e-02
6.239999999999999991e-01,-1.449266006968371601e-01,-1.248627412676551682e-02,-6.271411284490324700e-02
6.250000000000000000e-01,-7.263341939360357276e-03,1.038590134653391978e-01,-7.850959080886799057e-02
6.260000000000000009e-01,1.125765817843617372e-01,9.287835522911569441e-02,4.562142562893606659e-03
6.270000000000000018e-01,1.143267806868571712e-01,-3.440531992079291779e-02,9.107224299011801305e-02
6.280000000000000027e-01,-3.686152404735522359e-02,-1.170473643132108055e-01,7.463257881051132969e-02
6.290000000000000036e-01,-1.394091226928310112e-01,-6.875165490383469691e-02,-2.239094116567900625e-02
6.300000000000000044e-01,-7.391661425137177610e-02,6.838678634025352476e-02,-8.847312002471202641e-02
6.310000000000000053e-01,8.043316962948061921e-02,1.208470243665549643e-01,-5.701711220114166756e-02
6.320000000000000062e-01,1.296708176289091408e-01,4.245191077242822320e-04,4.349100017690558928e-02
6.330000000000000071e-01,2.496134140400089671e-02,-1.077938358592797768e-01,7.894902090672674400e-02
6.340000000000000080e-01,-1.235285692082867676e-01,-9.853859586649031665e-02,2.630732816966206700e-02
6.350000000000000089e-01,-1.178394338348305176e-01,2.488359628730251599e-02,-7.072685489309868401e-02
6.360000000000000098e-01,3.466221742804621864e-02,1.221984783259648655e-01,-7.767601909055849019e-02
6.370000000000000107e-01,1.483587577399599899e-01,5.783160948828074133e-02,1.124114853198849781e-02
6.380000000000000115e-01,9.639638940067067618e-02,-7.427537875625356278e-02,8.777124986102292914e-02
6.390000000000000124e-01,-7.410025445947954204e-02,-1.056595048062984460e-01,5.098759087441671889e-02
6.400000000000000133e-01,-1.363975011975844254e-01,-1.382259684723228382e-02,-3.286329571671180172e-02
6.410000000000000142e-01,-4.285311055356141180e-02,9.898107880272544179e-02,-8.104374057097347983e-02
6.420000000000000151e-01,1.206011294486307173e-01,7.916403090865362091e-02,-4.956235223990497485e-02
6.430000000000000160e-01,1.437070348904159744e-01,-2.258446371473936051e-02,5.018459902780143811e-02
6.440000000000000169e-01,-1.014200296740086840e-02,-1.115186201418199297e-01,8.213034912945935129e-02
6.450000000000000178e-01,-1.338328190830969655e-01,-3.660461454446494595e-02,2.381708759896019115e-02
6.460000000000000187e-01,-1.010604724927229026e-01,6.101228981763865550e-02,-4.795531497142369037e-02
6.470000000000000195e-01,5.969046830699268474e-02,1.081232748932413612e-01,-6.715918458857329798e-02
6.480000000000000204e-01,1.474751497252903276e-01,2.095076507620918099e-02,4.553419399660762340e-03
6.490000000000000213e-01,5.526795065637189752e-02,-1.006498542967724369e-01,8.365761715215612460e-02
6.500000000000000222e-01,-9.540766458979321740e-02,-9.919672180278414630e-02,5.372900128085936200e-02
6.510000000000000231e-01,-1.322306891013937946e-01,2.056572826014520586e-02,-2.196459951465552438e-02
6.520000000000000240e-01,-5.387374628164442666e-03,1.220098370654699310e-01,-9.003082259647965380e-02
6.530000000000000249e-01,1.230977621292104196e-01,5.552845589882847432e-02,-2.967139098575815800e-02
6.540000000000000258e-01,1.160178346861105714e-01,-6.811033224417085974e-02,6.945383660109644142e-02
6.550000000000000266e-01,-4.654857254033964442e-02,-1.128228737793178227e-01,8.008872436851917354e-02
6.560000000000000275e-01,-1.451013727828744382e-01,-2.957282671074164260e-02,2.840141340895733970e-03
6.570000000000000284e-01,-7.915291058586497452e-02,1.084378892112747572e-01,-8.074214045366549797e-02
6.580000000000000293e-01,1.008584434805018526e-01,9.730660545463286348e-02,-7.352636474232050745e-02
6.590000000000000302e-01,1.491301548360451368e-01,-1.887055462552270427e-02,1.946951357816673403e-02
6.600000000000000311e-01,2.410615163259764021e-02,-1.025228782242635778e-01,7.540141485579064662e-02
6.610000000000000320e-01,-1.210265767399124059e-01,-6.141738551248221434e-02,4.893620200522133534e-02
6.620000000000000329e-01,-1.122906788714344989e-01,5.900010415785466450e-02,-4.090233756205432364e-02
6.630000000000000338e-01,3.023260799724680065e-02,1.138828027532918091e-01,-8.598931653181460244e-02
6.640000000000000346e-01,1.271113754671109597e-01,2.804038904302185581e-02,-2.241707353310242595e-02
6.650000000000000355e-01,1.023034469296430632e-01,-9.437678242940214512e-02,5.310301120588734741e-02
6.660000000000000364e-01,-6.400995687653725230e-02,-9.539552724679349616e-02,7.730843750213810261e-02
6.670000000000000373e-01,-1.546359390038501425e-01,3.088144608352848611e-02,-1.490581738702153290e-02
6.680000000000000382e-01,-4.255113092212148979e-02,1.226240257462759137e-01,-8.534277095715459005e-02
6.690000000000000391e-01,1.239882364570238232e-01,6.111472098930706420e-02,-6.874411289458552676e-02
6.700000000000000400e-01,1.280958692914690722e-01,-6.661037228853737557e-02,2.983121330573640720e-02
6.710000000000000409e-01,-1.182255725521373646e-02,-1.162569307549963793e-01,8.416812986730115576e-02
6.720000000000000417e-01,-1.341033388386640712e-01,-3.103853044775646899e-02,4.580144324967592301e-02
6.730000000000000426e-01,-1.068982768279199413e-01,9.797141615338381126e-02,-5.729021196016754330e-02
6.740000000000000435e-01,5.961503350981262744e-02,1.087375977638633529e-01,-8.270841290255495637e-02
6.750000000000000444e-01,1.345564645773221768e-01,-2.302628552394599126e-02,-2.238572443584101873e-02
6.760000000000000453e-01,5.545056455871735790e-02,-1.096660017642788754e-01,8.981018222856954059e-02
6.770000000000000462e-01,-9.113381398123507338e-02,-7.630439960028448376e-02,6.760708488982944409e-02
6.780000000000000471e-01,-1.269968863104636025e-01,5.518901923505478702e-02,-2.502241470472893817e-02
6.790000000000000480e-01,-1.235915009508685436e-02,1.229961998356106090e-01,-8.723672894239205278e-02
6.800000000000000488e-01,1.315834094411117428e-01,4.006968109861500787e-02,-4.504822598990682048e-02
6.810000000000000497e-01,1.074271785184281180e-01,-8.905877619423595293e-02,3.721159043650765913e-02
6.820000000000000506e-01,-3.843457252255754603e-02,-1.020803113239279608e-01,9.222469320404724780e-02
6.830000000000000515e-01,-1.383365421911019744e-01,7.047428843374142771e-03,2.534765687756727892e-02
6.840000000000000524e-01,-8.282042862605321076e-02,1.062274847631428099e-01,-4.803246633330165993e-02
6.850000000000000533e-01,9.215669057843105250e-02,7.147287466862246863e-02,-8.514416783367247110e-02
6.860000000000000542e-01,1.437949989650664229e-01,-5.690138559696561460e-02,-1.332799579520675334e-02
6.870000000000000551e-01,3.508609036185714875e-02,-1.009401120480134806e-01,7.018149361423531296e-02
6.879999999999999449e-01,-1.112330113717925201e-01,-2.216433237944439097e-02,6.906433931965223760e-02
6.889999999999999458e-01,-1.067629244813757816e-01,9.547614340062583749e-02,-2.330656896550849233e-02
6.899999999999999467e-01,1.934975279188466679e-02,1.037010219512645715e-01,-8.961806336805351603e-02
6.909999999999999476e-01,1.358601473625328238e-01,-2.111801934117577342e-02,-3.957226128873900239e-02
6.919999999999999485e-01,8.289533729969060516e-02,-1.068982453892840939e-01,4.577960329660295952e-02
6.929999999999999494e-01,-6.902768322990771033e-02,-6.628916223542570541e-02,9.014031276965614459e-02
6.939999999999999503e-01,-1.389582270774727124e-01,5.066910999969778673e-02,1.391246917020403165e-02
6.949999999999999512e-01,-4.254220638024990009e-02,1.284350262934806364e-01,-7.670988963466272847e-02
6.959999999999999520e-01,1.165375694962659942e-01,3.264727204807470889e-02,-8.047137431164878840e-02
6.969999999999999529e-01,1.369174214325846461e-01,-9.418477451485049445e-02,1.237513611249536731e-02
6.979999999999999538e-01,-4.984414350668303802e-03,-9.912604289839672955e-02,8.054032347138026515e-02
6.989999999999999547e-01,-1.295530314972662134e-01,8.608967078461008879e-03,6.654946044182462328e-02
6.999999999999999556e-01,-1.068700570815504791e-01,1.012567732652295133e-01,-3.511932164389788835e-02
7.009999999999999565e-01,4.430930064039897975e-02,7.329651706423859214e-02,-8.843424368920653478e-02
7.019999999999999574e-01,1.501317842770650557e-01,-6.316166731189556960e-02,-4.500356648982969943e-02
7.029999999999999583e-01,6.908041059899348857e-02,-1.199728560008087586e-01,5.881250104495677755e-02
7.039999999999999591e-01,-1.099699692322227418e-01,-3.864739346915898460e-02,7.851763196568818659e-02
7.049999999999999600e-01,-1.346968055030358935e-01,8.091697179371112880e-02,1.994950752296563781e-02
7.059999999999999609e-01,-5.848525234080662006e-04,1.082878011210623714e-01,-7.984117971365198296e-02
7.069999999999999618e-01,1.312493760507309482e-01,-5.289007266566016739e-03,-6.606039475559702390e-02
7.079999999999999627e-01,1.159642456169893698e-01,-9.618453559122946972e-02,1.631014178203696666e-02
7.089999999999999636e-01,-4.129021596738851468e-02,-7.858222902010153499e-02,8.759580965813820730e-02
7.099999999999999645e-01,-1.363872501353576849e-01,4.302385880149275227e-02,6.194266717114611104e-02
7.109999999999999654e-01,-7.135705138711853635e-02,1.161213631807197916e-01,-3.917108998910322215e-02
7.119999999999999662e-01,8.781040555002431192e-02,3.601264331208935132e-02,-8.667999863480348177e-02
7.129999999999999671e-01,1.487329911525404613e-01,-8.406193699638679628e-02,-2.340322058819302095e-02
7.139999999999999680e-01,2.806227110979934644e-02,-9.987666549494922386e-02,5.817407280919020818e-02
7.149999999999999689e-01,-1.159459352134936810e-01,-6.924779121520775911e-03,7.903897100684560695e-02
7.159999999999999698e-01,-1.165742883347248710e-01,1.049440165024261573e-01,9.325940545068065347e-04
7.169999999999999707e-01,3.196048948165947090e-02,8.766336881935672676e-02,-8.059783455954680487e-02
7.179999999999999716e-01,1.379755940560377092e-01,-5.535358469178712493e-02,-6.220855168796868284e-02
7.189999999999999725e-01,9.262540325172799460e-02,-1.263839630870215169e-01,2.380439743577934461e-02
7.199999999999999734e-01,-5.378806399639154967e-02,-3.951715618682710013e-02,8.650588131991482355e-02
7.209999999999999742e-01,-1.571989004077614105e-01,8.709037192412753814e-02,5.346154572904267960e-02
7.219999999999999751e-01,-4.530380093193582536e-02,1.081129123221869076e-01,-3.893513767325396807e-02
7.229999999999999760e-01,1.185855146636000668e-01,3.589345674576928900e-03,-9.391724567762146925e-02
7.239999999999999769e-01,1.242275665362061465e-01,-1.026270481730527095e-01,-1.683097798925378696e-02
7.249999999999999778e-01,-1.119279866513254139e-02,-9.034999448800233590e-02,6.475032252172870095e-02
7.259999999999999787e-01,-1.408567817120300325e-01,3.818169189184610068e-02,9.094500300826897921e-02
7.269999999999999796e-01,-1.005074485589057404e-01,1.124544555222120323e-01,-1.091379537125061749e-02
7.279999999999999805e-01,6.170576065729820731e-02,4.697726210252745754e-02,-8.500107555025517014e-02
7.289999999999999813e-01,1.393170936544948224e-01,-9.410708720511949676e-02,-6.469986402607325049e-02
7.299999999999999822e-01,5.867899334756515595e-02,-1.074416552888195348e-01,2.876965914455376083e-02
7.309999999999999831e-01,-9.321690352736404506e-02,-1.936092728776831785e-03,9.002339876661771823e-02
7.319999999999999840e-01,-1.444842624868594161e-01,9.145155132145657562e-02,4.048284058931407581e-02
7.329999999999999849e-01,-1.279692624166558525e-02,8.284724564531371904e-02,-5.002830647363363387e-02
7.339999999999999858e-01,1.328599487043638783e-01,-5.160187574512962311e-02,-8.716732854581871193e-02
7.349999999999999867e-01,1.223161367266582672e-01,-1.188451811776509298e-01,-2.149606717309755430e-02
7.359999999999999876e-01,-3.918709891183208560e-02,-4.802019477139130715e-02,5.394795688431595904e-02
7.369999999999999885e-01,-1.431780556770492208e-01,8.065965860529640541e-02,7.460501722529705448e-02
7.379999999999999893e-01,-6.291666900090396586e-02,1.123897128832289372e-01,-1.025346955484305982e-02
7.389999999999999902e-01,7.261767894837445336e-02,1.483747827031968837e-03,-8.317292485957157588e-02
7.399999999999999911e-01,1.390866793016275471e-01,-1.171418230308778619e-01,-6.453291387010560987e-02
7.409999999999999920e-01,2.542190880094257616e-02,-8.263714462178464726e-02,3.137805589085297664e-02
7.419999999999999929e-01,-1.203715452793955726e-01,3.285982245806756685e-02,1.021403133233660110e-01
7.429999999999999938e-01,-1.281530603106237898e-01,1.200710639295481386e-01,4.575486670278059581e-02
7.439999999999999947e-01,2.635705658130043164e-02,5.793725787628897089e-02,-5.157991687634722044e-02
7.449999999999999956e-01,1.444510834984340519e-01,-8.186278413852890457e-02,-1.022424108230470668e-01
7.459999999999999964e-01,9.112252885980987038e-02,-1.131546556137444093e-01,-6.369228360205005796e-03
7.469999999999999973e-01,-6.016635767772671867e-02,-1.178707646697142210e-02,7.034819052467371214e-02
7.479999999999999982e-01,-1.436588420658028997e-01,1.050115081638881703e-01,6.124853063170542650e-02
7.489999999999999991e-01,-4.100143084299011365e-02,8.657847057615447595e-02,-2.995265503399466636e-02
7.500000000000000000e-01,1.128604756251096880e-01,-4.592918990514555100e-02,-8.224938497538131221e-02
7.510000000000000009e-01,1.301355661899881166e-01,-1.128153076598863991e-01,-5.226723404111169313e-02
7.520000000000000018e-01,-9.490889869006277277e-03,-5.117082369638023542e-02,4.629025488613531386e-02
7.530000000000000027e-01,-1.243011972848000191e-01,8.540135181650235219e-02,7.290083164360328105e-02
7.540000000000000036e-01,-9.299463515840930561e-02,1.057344619764377380e-01,2.545542758985081325e-02
7.550000000000000044e-01,5.172801555620989977e-02,1.330473208510686740e-02,-6.945194401343632307e-02
7.560000000000000053e-01,1.444996884285658645e-01,-1.055145636384395152e-01,-7.321909722796891840e-02
7.570000000000000062e-01,5.507345778425493110e-02,-8.811244554570608900e-02,2.824526675079577255e-03
7.580000000000000071e-01,-9.830424089349561190e-02,2.687781123603160544e-02,9.347752798521297146e-02
7.590000000000000080e-01,-1.377987144233287220e-01,1.122443889386952470e-01,5.796303847684131094e-02
7.600000000000000089e-01,-1.919629978373459112e-02,4.569139298471411315e-02,-3.587174064149027675e-02
7.610000000000000098e-01,1.424603425781460209e-01,-7.641493649564852497e-02,-8.588162456195738703e-02
7.620000000000000107e-01,1.123750610973698466e-01,-1.039387032359731372e-01,-4.198147525090842325e-02
7.630000000000000115e-01,-3.972519609507352972e-02,-1.715204382007394154e-02,5.653946558854480720e-02
7.640000000000000124e-01,-1.396424569289940187e-01,9.005471293042940917e-02,6.737846260814617239e-02
7.650000000000000133e-01,-7.154890831160944098e-02,8.996511953272880169e-02,1.908630032473715432e-02
7.660000000000000142e-01,7.984605246146737889e-02,-3.259557217190667266e-02,-6.958041451336094418e-02
7.670000000000000151e-01,1.386549838934987289e-01,-1.268754085237518425e-01,-6.412377274722765030e-02
7.680000000000000160e-01,2.671865938960333794e-02,-3.814689937498610267e-02,4.420717755101162376e-03
7.690000000000000169e-01,-1.209650313459507825e-01,7.381924798987435365e-02,8.194819982221560051e-02
7.700000000000000178e-01,-1.219892677477592974e-01,9.962684537701808896e-02,5.380942272092993639e-02
7.710000000000000187e-01,2.343148258705213607e-02,2.268097144635366005e-02,-4.529186770101851361e-02
7.720000000000000195e-01,1.418451616719177411e-01,-1.044417084280810787e-01,-9.222308745604568259e-02
7.730000000000000204e-01,8.672599186682815320e-02,-8.992989129103745594e-02,-4.784936024117755760e-02
7.740000000000000213e-01,-5.633439273160054800e-02,2.478601013907649059e-02,6.068162830783380840e-02
7.750000000000000222e-01,-1.378562976451529754e-01,1.221023370499911415e-01,7.919818842700210304e-02
7.760000000000000231e-01,-3.329309903431475898e-02,6.389487999549849084e-02,1.208389935471450120e-02
7.770000000000000240e-01,1.117268980776310594e-01,-6.827760138161337311e-02,-5.901054231944524026e-02
7.780000000000000249e-01,1.407048363288807835e-01,-1.063330888220972575e-01,-6.381336345767069096e-02
7.790000000000000258e-01,-1.572991375015937721e-02,-2.026436728807730001e-02,1.284467200539055401e-02
7.800000000000000266e-01,-1.267608346646238449e-01,9.707547414110836992e-02,7.155411047146968684e-02
7.810000000000000275e-01,-1.030186159820316721e-01,9.545514879367027195e-02,5.188937700572342909e-02
7.820000000000000284e-01,5.397767701026531112e-02,-2.182987950297337817e-02,-5.194813916879599536e-02
7.830000000000000293e-01,1.282827050402980118e-01,-1.144509785729948270e-01,-8.721252502639535720e-02
7.840000000000000302e-01,5.281032145890385276e-02,-7.533542963213361865e-02,-1.720871782006360914e-02
7.850000000000000311e-01,-9.657044245154061679e-02,6.762672852876787377e-02,6.348243233969615151e-02
7.860000000000000320e-01,-1.278084698056124180e-01,1.169106737629443810e-01,6.983595296640084105e-02
7.870000000000000329e-01,-9.813611062771279356e-03,1.482440115847176616e-02,-1.154647247572013853e-03
7.880000000000000338e-01,1.350856125799214102e-01,-1.007243624132318632e-01,-8.153250037576909026e-02
7.890000000000000346e-01,1.157951101785859027e-01,-8.686721449656538419e-02,-7.035437065614542906e-02
7.900000000000000355e-01,-3.466110495345682552e-02,3.536931936121678888e-02,2.558333539034516810e-02
7.910000000000000364e-01,-1.442548445522624512e-01,1.032822909743780909e-01,9.546170972971559920e-02
7.920000000000000373e-01,-8.107615403605994420e-02,6.488794967490937871e-02,4.345324411680512311e-02
7.930000000000000382e-01,8.614701228744774120e-02,-6.695604596423584964e-02,-4.380715412497337286e-02
7.940000000000000391e-01,1.437070160204385327e-01,-1.154589075570686546e-01,-7.850383406492812688e-02
7.950000000000000400e-01,1.479365138196544679e-02,-2.432045088879361203e-02,-7.849037029339301502e-03
7.960000000000000409e-01,-1.139168735880884409e-01,9.892310555072016121e-02,6.556569317739133207e-02
7.970000000000000417e-01,-1.240832504638546829e-01,9.070119402800713715e-02,7.630936598729758102e-02
7.980000000000000426e-01,1.272560651317641671e-02,-2.325820995257460791e-02,-1.348007412765780131e-03
7.990000000000000435e-01,1.394058549415828074e-01,-1.005510000068397802e-01,-7.943883768750890917e-02
8.000000000000000444e-01,9.057360149837295760e-02,-6.082608206801937145e-02,-5.456925912603659279e-02
8.010000000000000453e-01,-5.414627841053392537e-02,6.952111673721463048e-02,4.664249986750080429e-02
8.020000000000000462e-01,-1.458141730912356770e-01,1.186972094087350854e-01,8.060740454576903469e-02
8.030000000000000471e-01,-4.062716795230235378e-02,2.449915930342689077e-02,2.645094424857364485e-02
8.040000000000000480e-01,1.136776026513049848e-01,-9.347294701842294440e-02,-6.014436195432884547e-02
8.050000000000000488e-01,1.407976812575961190e-01,-9.844871173091265804e-02,-6.927396386191964073e-02
8.060000000000000497e-01,-5.705525125503500307e-03,1.789993707064595208e-02,-9.264070257258429086e-03
8.070000000000000506e-01,-1.493354742131189350e-01,1.246380320028068894e-01,7.160521729253011003e-02
8.080000000000000515e-01,-9.431141150625775571e-02,6.186651776553001025e-02,7.313937115005519907e-02
8.090000000000000524e-01,5.678380808552304509e-02,-4.710214572305157499e-02,-1.157300612499840078e-02
8.100000000000000533e-01,1.519786086202682684e-01,-1.119403466002361347e-01,-8.733343264899655345e-02
8.110000000000000542e-01,5.997430070358208271e-02,-2.097350826521158021e-02,-4.779878861487799058e-02
8.120000000000000551e-01,-9.147523367839131836e-02,9.321609277991713127e-02,5.062870206669627809e-02
8.129999999999999449e-01,-1.365833173426162783e-01,9.858906816906498616e-02,7.547142210246118865e-02
8.139999999999999458e-01,-1.122872150577934949e-02,-2.210746010759068528e-02,2.911108500760873491e-02
8.149999999999999467e-01,1.359483976488769785e-01,-1.086746735579002948e-01,-7.522027487738316975e-02
8.159999999999999476e-01,1.130932764743471097e-01,-8.977939555334775446e-02,-8.076022603173711734e-02
8.169999999999999485e-01,-3.747982972285338055e-02,5.143192576263265481e-02,7.627412214695628544e-03
8.179999999999999494e-01,-1.500010278931566132e-01,1.035209436706104186e-01,7.346930269425043514e-02
8.189999999999999503e-01,-6.716922651584092407e-02,2.622836362059221410e-02,6.248891014376523750e-02
8.199999999999999512e-01,9.097758354305950090e-02,-8.628351262851119419e-02,-3.855455807506243116e-02
8.209999999999999520e-01,1.358582019750367853e-01,-9.558262422304504569e-02,-7.661686512808364713e-02
8.219999999999999529e-01,3.724234098954072592e-02,-1.140183021369721656e-03,-2.543520266199439731e-02
8.229999999999999538e-01,-1.212047743401958033e-01,1.137693523658596662e-01,4.843395808763896471e-02
8.239999999999999547e-01,-1.289211819127561720e-01,7.255723447121936731e-02,9.121967028479500972e-02
8.249999999999999556e-01,2.040010408272054793e-02,-3.935526049944319121e-02,1.916427850441423247e-02
8.259999999999999565e-01,1.369448030692271556e-01,-1.168786837248407678e-01,-7.888641153315034682e-02
8.269999999999999574e-01,9.633205843246853139e-02,-2.748931784093977537e-02,-7.036383043569180429e-02
8.279999999999999583e-01,-7.116709744870317045e-02,8.584646260739557666e-02,1.163688843723119717e-02
8.289999999999999591e-01,-1.417744655897211492e-01,9.559266560917480116e-02,7.536653484670384484e-02
8.299999999999999600e-01,-3.503113420181951793e-02,-9.764782355877354991e-03,6.019836213870691927e-02
8.309999999999999609e-01,1.060661355699208386e-01,-1.109376163216967554e-01,-4.889471877090751512e-02
8.319999999999999618e-01,1.357818983751344910e-01,-5.746523378903269086e-02,-8.207093932906628364e-02
8.329999999999999627e-01,-5.473371379940869010e-03,5.169350773555607403e-02,-3.510385411105947789e-02
8.339999999999999636e-01,-1.428905610160942363e-01,1.125214393335122187e-01,6.030392296386619111e-02
8.349999999999999645e-01,-1.060246440535299872e-01,4.276758854567620782e-02,7.128910788870203297e-02
8.359999999999999654e-01,5.292533371288686561e-02,-9.218216562470742115e-02,1.472753720757874127e-02
8.369999999999999662e-01,1.430151652067452595e-01,-1.104790430445741767e-01,-7.265936059519112478e-02
8.379999999999999671e-01,6.979751423044044945e-02,7.373528512846102244e-03,-7.472046160229607603e-02
8.389999999999999680e-01,-1.071061975661784793e-01,1.091654090563527052e-01,1.685669851728752167e-02
8.399999999999999689e-01,-1.298143861205553751e-01,8.614309959033264463e-02,8.491794599768040519e-02
8.409999999999999698e-01,-1.126308339483084002e-02,-5.246163865452166397e-02,4.052826440877304454e-02
8.419999999999999707e-01,1.327333117563838649e-01,-1.070684250183165376e-01,-4.600545889641977082e-02
8.429999999999999716e-01,1.196109958680446894e-01,-5.540502640822491526e-02,-9.163133270314388623e-02
8.439999999999999725e-01,-3.076308559847597962e-02,7.897506933266355833e-02,-2.310457918139090239e-02
8.449999999999999734e-01,-1.415929013848278017e-01,9.997430231587808858e-02,7.090786249182561007e-02
8.459999999999999742e-01,-7.803480091347322900e-02,3.066697605349654257e-03,6.661129136361872149e-02
8.469999999999999751e-01,8.175240614578305198e-02,-1.082787277522034436e-01,-6.323098117171340425e-03
8.479999999999999760e-01,1.443598253080689287e-01,-7.314361821313869472e-02,-8.339093160226569712e-02
8.489999999999999769e-01,2.759679037387184619e-02,4.614216058556202399e-02,-6.179395962049989699e-02
8.499999999999999778e-01,-1.189233547575313105e-01,1.130450938099039349e-01,2.725400772712940553e-02
8.509999999999999787e-01,-1.234393894814385245e-01,4.498116634564119920e-02,8.590952489185386953e-02
8.519999999999999796e-01,2.298110328248690465e-02,-7.386189551857820501e-02,3.774666476228497047e-02
8.529999999999999805e-01,1.221635753345410580e-01,-1.148837645905090993e-01,-5.118539593958402328e-02
8.539999999999999813e-01,8.431303191712065381e-02,-4.305117926241450524e-03,-7.274299021393383635e-02
8.549999999999999822e-01,-6.994681114162358548e-02,1.017820976916343767e-01,-2.249432691287504490e-02
8.559999999999999831e-01,-1.359750769067905596e-01,8.583672822829861715e-02,7.500761230662605916e-02
8.569999999999999840e-01,-4.731786185643076931e-02,-4.702251196843798553e-02,7.824512018055536366e-02
8.579999999999999849e-01,9.794920033698641115e-02,-1.056569825081658948e-01,-6.503842952576499581e-03
8.589999999999999858e-01,1.336052234148108198e-01,-4.597355321507894110e-02,-9.006021419358584135e-02
8.599999999999999867e-01,-1.205920509650739401e-02,8.042739992397307525e-02,-5.180376027466113836e-02
8.609999999999999876e-01,-1.349587106100728351e-01,1.082069896082783617e-01,4.556237523419152946e-02
8.619999999999999885e-01,-9.490210044716801407e-02,1.799950898663802042e-03,7.924583481713842747e-02
8.629999999999999893e-01,4.835959305041167416e-02,-1.153199306099475241e-01,4.020528978547683457e-02
8.639999999999999902e-01,1.469205092914209199e-01,-7.370259739176768243e-02,-4.284015343067868603e-02
8.649999999999999911e-01,6.000560501613568659e-02,2.744280802888390478e-02,-8.713094715901496812e-02
8.659999999999999920e-01,-9.973699479448520921e-02,1.121325282477282775e-01,-1.592921268530906112e-02
8.669999999999999929e-01,-1.255841051859116486e-01,3.751927993298393577e-02,8.126028776642894857e-02
8.679999999999999938e-01,-1.777805736800096292e-02,-8.653624843055433835e-02,7.519593313839532944e-02
8.689999999999999947e-01,1.113600971303694009e-01,-1.228049660009161576e-01,-1.896430437890196663e-02
8.699999999999999956e-01,1.200333234956870304e-01,7.744860561329603571e-03,-8.285416968654343850e-02
8.709999999999999964e-01,-3.957296119645294791e-02,1.085003811922686662e-01,-4.695737670063860475e-02
8.719999999999999973e-01,-1.367571672676230754e-01,8.945379858773855331e-02,3.517892149261601931e-02
8.729999999999999982e-01,-8.392697765230756890e-02,-3.068550065116281908e-02,8.114925033493934625e-02
8.739999999999999991e-01,7.914920304823490349e-02,-1.180700063328271321e-01,2.111514195177650530e-02
8.750000000000000000e-01,1.589734478392235417e-01,-4.359156761558253407e-02,-6.028052266373257889e-02
8.760000000000000009e-01,1.593459304758754538e-02,8.118321090716654198e-02,-9.158222831570669853e-02
8.770000000000000018e-01,-1.210886214352427798e-01,1.109170030471536977e-01,-6.364411551986386660e-03
8.780000000000000027e-01,-1.233110131806194332e-01,-2.538744636659660651e-03,7.563008677631816168e-02
8.790000000000000036e-01,1.432158642050366387e-02,-1.003831453096594717e-01,6.756764503324805271e-02
8.800000000000000044e-01,1.323748585680220025e-01,-9.062710199940518518e-02,-3.425250380788421450e-02
8.810000000000000053e-01,9.257384060217464794e-02,3.483455281998616704e-02,-8.546247547576030223e-02
8.820000000000000062e-01,-6.308935420448132103e-02,1.105305637585364542e-01,-5.032036029619510464e-02
8.830000000000000071e-01,-1.423211109105923800e-01,3.920724604890103021e-02,6.369760345095241971e-02
8.840000000000000080e-01,-5.757501767807238907e-02,-5.819501115965114435e-02,9.745723612866429020e-02
8.850000000000000089e-01,1.099940909037152997e-01,-1.022295420924144299e-01,1.065913624008576338e-02
8.860000000000000098e-01,1.191689733635258597e-01,-2.190919823671548528e-02,-6.924398261525153975e-02
8.870000000000000107e-01,1.045766999763276780e-03,9.392827330942303543e-02,-7.277712529176508238e-02
8.880000000000000115e-01,-1.400393899725324576e-01,9.170502904492036644e-02,1.667572444517824784e-02
8.890000000000000124e-01,-1.057592901312961742e-01,-3.236531340012574476e-02,9.257945713826574996e-02
8.900000000000000133e-01,6.388428646733385063e-02,-1.089627006744809806e-01,5.952641738452573578e-02
8.910000000000000142e-01,1.473723286813901912e-01,-5.340544949539279690e-02,-5.055198262530224973e-02
8.920000000000000151e-01,6.960969452581512729e-02,7.735725146517079265e-02,-9.385295030406513861e-02
8.930000000000000160e-01,-1.020976479044227031e-01,1.063998070770274529e-01,-3.422518298053116304e-02
8.940000000000000169e-01,-1.377897060890469760e-01,4.682601372003525851e-03,5.283891350247441748e-02
8.950000000000000178e-01,-1.670111800655416437e-02,-1.033550623002880697e-01,7.773306726891612839e-02
8.960000000000000187e-01,1.202970256022204698e-01,-9.870121613407431549e-02,6.569977596559700359e-03
8.970000000000000195e-01,1.204432458687975660e-01,2.049487321182998090e-02,-6.982578984222058416e-02
8.980000000000000204e-01,-3.701047105832117740e-02,1.100476538867610765e-01,-7.485497816588534969e-02
8.990000000000000213e-01,-1.330318640107869266e-01,7.105702284314606432e-02,1.788566030716260552e-02
9.000000000000000222e-01,-7.548792776763189882e-02,-7.772342553441398405e-02,8.368654457702097427e-02
9.010000000000000231e-01,7.591006710874645402e-02,-1.129953856245165950e-01,4.190432693918286905e-02
9.020000000000000240e-01,1.393864318782427336e-01,-1.956923371196828132e-02,-5.193330517958186926e-02
9.030000000000000249e-01,2.339464448414042830e-02,8.802498014872468801e-02,-9.687097040306233420e-02
9.040000000000000258e-01,-1.071905131675082862e-01,9.905691226412423334e-02,-2.655818499982194603e-02
9.050000000000000266e-01,-1.264008706431781204e-01,-3.010105020681423660e-02,6.636900735129433460e-02
9.060000000000000275e-01,3.493307129417090595e-02,-1.069615428701864157e-01,8.254289062245870334e-02
9.070000000000000284e-01,1.322619594203593707e-01,-7.934957476041366864e-02,-1.186209152987156498e-02
9.080000000000000293e-01,8.449616152640344879e-02,6.952436886920923542e-02,-7.788088946816706937e-02
9.090000000000000302e-01,-6.596399600024932530e-02,1.118116053152984901e-01,-6.010222661068589239e-02
9.100000000000000311e-01,-1.332331538939768578e-01,1.749859798993630422e-02,1.359166770289941921e-02
9.110000000000000320e-01,-3.691222513323056537e-02,-9.287620043800867697e-02,8.796201169641401640e-02
9.120000000000000329e-01,1.085943107745648700e-01,-8.466151598001625533e-02,4.006451178782804295e-02
9.130000000000000338e-01,1.478446183975765660e-01,2.927015922182633206e-02,-5.789246134065103438e-02
9.140000000000000346e-01,4.356486735945826541e-03,1.230044669837303400e-01,-8.008988248917375818e-02
9.150000000000000355e-01,-1.340238611208955932e-01,7.169186610492855882e-02,-1.037295297887405598e-02
9.160000000000000364e-01,-1.101362210426916621e-01,-6.769945972644318688e-02,7.379710634676989178e-02
9.170000000000000373e-01,5.772122162731768702e-02,-1.059753951875903460e-01,6.785925347480462055e-02
9.180000000000000382e-01,1.492984486918615961e-01,-2.147012874980148978e-02,-3.029549625649042427e-03
9.190000000000000391e-01,6.204430381391981553e-02,9.221615166535103436e-02,-8.480770849094702857e-02
9.200000000000000400e-01,-9.383190077048300659e-02,9.978332683149737647e-02,-6.347601334324602662e-02
9.210000000000000409e-01,-1.302776742957972300e-01,-1.463754878773657758e-02,2.755757630925555202e-02
9.220000000000000417e-01,-1.159386197758901539e-02,-1.107566196306963291e-01,9.004221989561600470e-02
9.230000000000000426e-01,1.178239251532962883e-01,-6.711507102028939353e-02,3.030500964213632062e-02
9.240000000000000435e-01,1.279191471340466457e-01,6.165826470627912281e-02,-5.478766384381102833e-02
9.250000000000000444e-01,-1.985729261439654961e-02,1.094660071730019918e-01,-8.928762085727044717e-02
9.260000000000000453e-01,-1.492021337818301430e-01,3.368602781593785234e-02,-1.092673301651407754e-02
9.270000000000000462e-01,-7.920069304502942720e-02,-8.896420936077535646e-02,7.778393091611741916e-02
9.280000000000000471e-01,8.799595987598216040e-02,-8.551612280577179648e-02,6.890603398561691295e-02
9.290000000000000480e-01,1.451253693629972474e-01,1.989777401851084218e-02,-1.624173839489512564e-02
9.300000000000000488e-01,3.378811632717577951e-02,1.169862153476608491e-01,-9.063233534764653099e-02
9.310000000000000497e-01,-1.097026975290964212e-01,5.941904383409404161e-02,-5.274289990433700392e-02
9.320000000000000506e-01,-1.227645122056008620e-01,-5.983076202799694071e-02,4.117902122335671822e-02
9.330000000000000515e-01,9.155255058300571999e-03,-1.071280079197088064e-01,8.315984613117306801e-02
9.340000000000000524e-01,1.409772918607347103e-01,-3.791480105658015520e-02,3.538547105391353503e-02
9.350000000000000533e-01,8.994010953329756308e-02,9.045888939499224790e-02,-5.528925889734059851e-02
9.360000000000000542e-01,-5.364727366642924045e-02,9.849592928428980987e-02,-8.395733295262371165e-02
9.370000000000000551e-01,-1.503942460199049758e-01,-1.358504525736834757e-02,-1.024409288466475269e-02
9.379999999999999449e-01,-4.882246801091478378e-02,-1.011140315852448041e-01,7.919047607939655453e-02
9.389999999999999458e-01,1.165950261251905568e-01,-6.488036688445128486e-02,6.315115901940247800e-02
9.399999999999999467e-01,1.374225165946354466e-01,6.089350708352418706e-02,-3.246845739255004720e-02
9.409999999999999476e-01,-6.213562057439148655e-03,1.128772938478761617e-01,-8.926168646134559348e-02
9.419999999999999485e-01,-1.247225732487773908e-01,3.398964672853519581e-02,-3.828693980514798201e-02
9.429999999999999494e-01,-9.950040862842624012e-02,-9.013126912194273366e-02,4.750412836171856445e-02
9.439999999999999503e-01,4.797892434468306599e-02,-1.005385796324762548e-01,9.782809620283079710e-02
9.449999999999999512e-01,1.398207614730742898e-01,1.783246172461173257e-02,1.472838643118943094e-02
9.459999999999999520e-01,5.570948713340107689e-02,1.135101152501842847e-01,-5.257234554500494345e-02
9.469999999999999529e-01,-1.001439709527461447e-01,7.456684271682118004e-02,-7.517909554054488797e-02
9.479999999999999538e-01,-1.325822472483965120e-01,-6.247864073855174255e-02,2.118549074486034134e-02
9.489999999999999547e-01,-1.620415377100776697e-02,-1.061464778922255603e-01,8.569527767409648722e-02
9.499999999999999556e-01,1.277311128978798338e-01,-5.745415241142926011e-02,6.287700628715107987e-02
9.509999999999999565e-01,1.082018960194497254e-01,1.014367191308773036e-01,-3.240373779459744530e-02
9.519999999999999574e-01,-4.377188252416806813e-02,9.477558086327605991e-02,-8.922117913933666489e-02
9.529999999999999583e-01,-1.375382059132521373e-01,-1.376733736324578863e-02,-2.863160285869392058e-02
9.539999999999999591e-01,-9.012432902838397875e-02,-1.201192839596038897e-01,6.489686391516399921e-02
9.549999999999999600e-01,7.690274708304942197e-02,-6.451065611438808189e-02,9.148546170860588633e-02
9.559999999999999609e-01,1.354650718942319587e-01,5.664506959105257422e-02,1.034644900625784729e-02
9.569999999999999618e-01,2.845267958019098709e-02,1.230917462305496646e-01,-7.684440888732053943e-02
9.579999999999999627e-01,-1.087153069075553202e-01,3.774267617721369095e-02,-7.815322666438978549e-02
9.589999999999999636e-01,-1.211910593153698312e-01,-8.980906358076945484e-02,1.425529249024566278e-02
9.599999999999999645e-01,-2.682441395596989447e-03,-1.180271139690107357e-01,8.443624495906601468e-02
9.609999999999999654e-01,1.468450142406579895e-01,7.524432351074258375e-03,5.111994058171615701e-02
9.619999999999999662e-01,9.874395260094739890e-02,1.046597883061121670e-01,-4.386959455300926125e-02
9.629999999999999671e-01,-6.299784741698245816e-02,8.565730531148763038e-02,-8.437682101844812266e-02
9.639999999999999680e-01,-1.495932378805372442e-01,-5.073506040878120876e-02,-2.938016225555562314e-02
9.649999999999999689e-01,-4.618311485860502469e-02,-1.214348136693963187e-01,6.983771514331532648e-02
9.659999999999999698e-01,1.019718134923584679e-01,-3.345906774429676517e-02,6.736431115670636627e-02
9.669999999999999707e-01,1.386832692480001183e-01,9.537847113560744827e-02,-6.628786822820290428e-03
9.679999999999999716e-01,7.167919379329984117e-03,1.122937603703927506e-01,-8.471490125049618847e-02
9.689999999999999725e-01,-1.297958786581482615e-01,3.084915863310286246e-03,-7.355152558612654268e-02
9.699999999999999734e-01,-1.028816604336944829e-01,-1.000403366326984844e-01,2.315626191963341546e-02
9.709999999999999742e-01,5.299536046678962609e-02,-7.834892438171198181e-02,7.591828657231734778e-02
9.719999999999999751e-01,1.486356302140425800e-01,4.375259815887296011e-02,4.804256546459104160e-02
9.729999999999999760e-01,5.737310443603332866e-02,1.314319987962931369e-01,-5.430650980457968346e-02
9.739999999999999769e-01,-9.711300713056465750e-02,3.734703446886956241e-02,-8.298173433209157790e-02
9.749999999999999778e-01,-1.348477929691304089e-01,-9.127588675233115623e-02,-4.644149531820119386e-03
9.759999999999999787e-01,-1.315344455325213706e-02,-1.047522935135458133e-01,8.031712518915271048e-02
9.769999999999999796e-01,1.402762384734528023e-01,-4.161534267969941962e-03,7.262285870268139765e-02
9.779999999999999805e-01,1.261344704696973906e-01,1.150410738754677059e-01,-1.016050028486129887e-02
9.789999999999999813e-01,-3.396934944538020085e-02,9.463300319812002759e-02,-8.897827555537310418e-02
9.799999999999999822e-01,-1.438690365560916229e-01,-4.420304592137001831e-02,-5.248827352424508680e-02
9.809999999999999831e-01,-8.812279707116003891e-02,-1.165389047082917018e-01,3.591800045149417392e-02
9.819999999999999840e-01,7.260384321125544493e-02,-4.727243531806876731e-02,8.499407510571221902e-02
9.829999999999999849e-01,1.370630012637066575e-01,8.388555146501279480e-02,2.738569700123398565e-02
9.839999999999999858e-01,2.892364577499905928e-02,1.069072672196741125e-01,-5.780782885664664805e-02
9.849999999999999867e-01,-1.086640271090680426e-01,1.442858361261415085e-03,-9.069871670046936174e-02
9.859999999999999876e-01,-1.245328006131939391e-01,-1.095532951202813632e-01,-1.617013707241215029e-02
9.869999999999999885e-01,2.718350526848795079e-02,-6.933904251604973423e-02,6.622534922945162716e-02
9.879999999999999893e-01,1.378468267298276762e-01,3.123942537704492775e-02,5.990612744101659476e-02
9.889999999999999902e-01,9.677484803114311251e-02,1.139682574847566549e-01,-9.427946946333951722e-03
9.899999999999999911e-01,-5.931627854528112587e-02,4.699502860842528357e-02,-9.693980927546716475e-02
9.909999999999999920e-01,-1.465579964308567074e-01,-7.359407263978458291e-02,-6.075189114298076842e-02
9.919999999999999929e-01,-4.757561660072642806e-02,-1.068394670568875854e-01,2.575071732419453863e-02
9.929999999999999938e-01,1.056072430440552212e-01,-2.454379832733033159e-03,8.298866064978298318e-02
9.939999999999999947e-01,1.212527625962666888e-01,9.946338882429696382e-02,1.725343998950708280e-02
9.949999999999999956e-01,-1.652517944698417849e-03,8.450029232733964613e-02,-6.222518573922156820e-02
9.959999999999999964e-01,-1.310493654051940460e-01,-3.515068200789157882e-02,-7.285723189185423776e-02
9.969999999999999973e-01,-1.043115268383242450e-01,-1.076332885727847993e-01,9.765775553852535859e-03
9.979999999999999982e-01,4.562848203498554023e-02,-3.200552318761729076e-02,7.758420416845168699e-02
9.989999999999999991e-01,1.355103364164798596e-01,8.214027395867494474e-02,6.308871585901744405e-02
1.000000000000000000e+00,5.980200995700768463e-02,9.508099996247884600e-02,-2.534225504842414420e-02
1.000999999999999890e+00,-1.009071034023179964e-01,7.245792604401619930e-03,-8.760267519092146404e-02
1.002000000000000002e+00,-1.381954426060695018e-01,-1.121397570752448308e-01,-4.392023983258963593e-02
1.002999999999999892e+00,-1.957025193473041491e-02,-8.271864484121782546e-02,5.701947671763845510e-02
1.004000000000000004e+00,1.150629346420098398e-01,3.400591739184101459e-02,7.729330633468137202e-02
1.004999999999999893e+00,1.108751273089837869e-01,1.158850404747045204e-01,1.759313883665955189e-02
1.006000000000000005e+00,-3.429306359087353623e-02,6.075860935325790718e-02,-6.803590238230880494e-02
1.006999999999999895e+00,-1.423023965684021841e-01,-6.561682497122751923e-02,-8.836133855220837385e-02
1.008000000000000007e+00,-8.464242672172389570e-02,-1.069368724652187685e-01,4.078902569926691479e-03
1.008999999999999897e+00,7.198484182053713210e-02,-1.117111620714850671e-02,9.201791729280671406e-02
1.010000000000000009e+00,1.399607057932519827e-01,8.782929897486189963e-02,7.057833898623233626e-02
1.010999999999999899e+00,3.546123503355269602e-02,8.102736030475732321e-02,-2.635705395175079110e-02
1.012000000000000011e+00,-1.162995781605853096e-01,-3.841430863388420325e-02,-8.995422725713281276e-02
1.012999999999999901e+00,-1.362182902867093148e-01,-1.066351716601701693e-01,-4.453700879470628288e-02
1.014000000000000012e+00,1.608010598880160388e-02,-5.849925552892648595e-02,5.325443542638594319e-02
1.014999999999999902e+00,1.421192431948519741e-01,8.040336331715722262e-02,8.658411160368595372e-02
1.016000000000000014e+00,9.218851220778197242e-02,1.115617519089572851e-01,2.649036758702301431e-02
1.016999999999999904e+00,-6.766274161519594821e-02,1.019734013222867337e-02,-6.492699086952138932e-02
1.018000000000000016e+00,-1.611662269797359548e-01,-1.080586926414602578e-01,-8.746947972991934994e-02
1.018999999999999906e+00,-4.511381805315905352e-02,-1.037764617292067371e-01,1.972268178736553967e-02
1.020000000000000018e+00,1.052909850916440293e-01,3.311265173240996590e-02,9.274210187916363812e-02
1.020999999999999908e+00,1.378010855708650950e-01,1.111224647620284722e-01,7.022190275250592140e-02
1.022000000000000020e+00,-8.639281994698395223e-03,6.490482875060005208e-02,-3.191302715360839343e-02
1.022999999999999909e+00,-1.366833677793082291e-01,-7.521831949689455898e-02,-9.034701413836711270e-02
1.024000000000000021e+00,-1.104645699217222526e-01,-1.165210510638426261e-01,-2.799934146561540785e-02
1.024999999999999911e+00,5.516059038231858197e-02,-7.688153638669171022e-03,5.968651970325618283e-02
1.026000000000000023e+00,1.551808889721028595e-01,9.826533381698254743e-02,1.004043241002600811e-01
1.026999999999999913e+00,5.948814894332372927e-02,8.660729038249818934e-02,1.215527997827140980e-02
1.028000000000000025e+00,-9.631430531425792807e-02,-3.951726085276582867e-02,-8.577254753861358882e-02
1.028999999999999915e+00,-1.339526285828578911e-01,-1.222298748513650779e-01,-7.263778953169797159e-02
1.030000000000000027e+00,-7.394770451180075234e-03,-6.828983023018002363e-02,2.229288357767559084e-02
1.030999999999999917e+00,1.182234422289769327e-01,7.554777082096050811e-02,9.302389590710556655e-02
1.032000000000000028e+00,1.140772687977668898e-01,1.195926840112624817e-01,4.585008158848390136e-02
1.032999999999999918e+00,-3.937969517859587348e-02,2.671563193416910675e-02,-5.090653586483506743e-02
1.034000000000000030e+00,-1.436337238636623548e-01,-9.580636489312231718e-02,-8.867006339725455599e-02
1.034999999999999920e+00,-7.957569538736040948e-02,-8.953055083098246381e-02,-2.424543956613792531e-02
1.036000000000000032e+00,8.833975818804162827e-02,1.617000587586069418e-02,7.871460855861910078e-02
1.036999999999999922e+00,1.387896251447738871e-01,1.161515337967733985e-01,8.327310835395577981e-02
1.038000000000000034e+00,4.073262114016515389e-02,7.465348724478547415e-02,-7.291578989886970952e-03
1.038999999999999924e+00,-1.096739046419065305e-01,-6.293872071647811650e-02,-7.561155406651773325e-02
1.040000000000000036e+00,-1.316512569782321285e-01,-1.083996286906864226e-01,-6.134439223512166972e-02
1.040999999999999925e+00,1.880370176598549631e-02,-1.324465541692376042e-02,4.667927464415051741e-02
1.042000000000000037e+00,1.377174840372654696e-01,9.501430680762067149e-02,9.145071747897438874e-02
1.042999999999999927e+00,9.850945828689179617e-02,1.019330372054217948e-01,4.166519915141281977e-02
1.044000000000000039e+00,-5.527487732093778333e-02,-1.432294557810921513e-02,-5.649275879823587726e-02
1.044999999999999929e+00,-1.401778683705038331e-01,-1.098573123269587087e-01,-8.215011391740617563e-02
1.046000000000000041e+00,-5.194190081993867864e-02,-6.847764896858364592e-02,-6.954077297171889008e-04
1.046999999999999931e+00,1.239871209509988831e-01,5.998681186067141707e-02,8.952626603553427709e-02
1.048000000000000043e+00,1.349522570779343456e-01,1.087621974826338128e-01,6.286864878565777415e-02
1.048999999999999932e+00,1.721786403996877291e-03,1.123797016837878304e-02,-1.514240816196086442e-02
1.050000000000000044e+00,-1.345165752252711622e-01,-9.518459475011620263e-02,-7.667873444326506194e-02
1.050999999999999934e+00,-1.151067342882577255e-01,-1.026785816287247854e-01,-5.864447623012881972e-02
1.052000000000000046e+00,5.410666903269384376e-02,3.114082940393496715e-02,4.229069557408516450e-02
1.052999999999999936e+00,1.336645828395611746e-01,1.245852469295741644e-01,9.467236309868719280e-02
1.054000000000000048e+00,7.357934471415814026e-02,7.432001077837109559e-02,2.876638154687092067e-02
1.054999999999999938e+00,-9.148607414271377192e-02,-6.768959695266675569e-02,-5.478994959708462231e-02
1.056000000000000050e+00,-1.414111826351505952e-01,-1.100430850067379840e-01,-8.487056826689418076e-02
1.056999999999999940e+00,-1.071663698034064013e-02,-2.481420467912218500e-02,-4.500110925734938233e-03
1.058000000000000052e+00,1.255334246551207400e-01,8.851817762471697604e-02,8.645491551250775175e-02
1.058999999999999941e+00,1.165939448341860724e-01,8.642215943944546452e-02,5.417168885871257583e-02
1.060000000000000053e+00,-3.452958106800325944e-02,-1.371875452169978721e-02,-2.675625354688742144e-02
1.060999999999999943e+00,-1.415922052973193623e-01,-1.092559784436204495e-01,-9.056644528080620704e-02
1.062000000000000055e+00,-8.067160980191424857e-02,-6.993745135826957837e-02,-4.519536867010535280e-02
1.062999999999999945e+00,7.563190770803911167e-02,5.446155495527694318e-02,5.105721374597578521e-02
1.064000000000000057e+00,1.329053202185342397e-01,1.203036222803996885e-01,9.528646650756732173e-02
1.064999999999999947e+00,3.905889352119337743e-02,3.945775992014841083e-02,1.535455116844322565e-02
1.066000000000000059e+00,-1.094914035713134975e-01,-9.195430344122493271e-02,-7.544901962431371789e-02
1.066999999999999948e+00,-1.289920528453547266e-01,-9.789105969458446188e-02,-8.950827878150952044e-02
1.068000000000000060e+00,8.421518303830279745e-03,1.594027560010036551e-02,1.484865092029859354e-03
1.068999999999999950e+00,1.446168255182158635e-01,1.095106175477018884e-01,8.222081143515586055e-02
1.070000000000000062e+00,9.854865939654301743e-02,6.941047671054731416e-02,6.200345051081322667e-02
1.070999999999999952e+00,-6.149822389596098365e-02,-4.528236107040257974e-02,-2.925456999657263454e-02
1.072000000000000064e+00,-1.327020946777493771e-01,-1.218486710249199884e-01,-9.935061461952834905e-02
1.072999999999999954e+00,-5.998592315585149493e-02,-5.173845908162184176e-02,-2.925833442664757186e-02
1.074000000000000066e+00,9.884647297129110777e-02,8.683955506991106188e-02,6.423776148637480587e-02
1.074999999999999956e+00,1.325154750330381770e-01,9.232563790991647756e-02,8.406533277661983050e-02
1.076000000000000068e+00,4.415984213048372749e-03,-9.670657316702455097e-03,4.264033970803942850e-03
1.076999999999999957e+00,-1.251582476549706890e-01,-1.178424470044860256e-01,-6.976766399146187847e-02
1.078000000000000069e+00,-1.013006639018832894e-01,-7.469922067462926585e-02,-7.443654043322026070e-02
1.078999999999999959e+00,4.191066884473675092e-02,5.551329548737575503e-02,1.861273576015140888e-02
1.080000000000000071e+00,1.489386629090712066e-01,1.114591511877927876e-01,8.467893015824794201e-02
1.080999999999999961e+00,6.844473308078838358e-02,3.126105627000894810e-02,6.007730963755102821e-02
1.082000000000000073e+00,-9.320524390677398241e-02,-9.166037709266629252e-02,-4.380817037822502119e-02
1.082999999999999963e+00,-1.389812592594718565e-01,-1.130544698038332546e-01,-9.179597933316184510e-02
1.084000000000000075e+00,-1.660336203150315423e-02,-6.251076603006465449e-03,-2.534091813767351889e-02
1.084999999999999964e+00,1.275957775152838092e-01,1.102588771033315013e-01,6.037177998211128160e-02
1.086000000000000076e+00,1.173514720456144828e-01,7.524703662593265618e-02,8.282282399446454224e-02
1.086999999999999966e+00,-2.662121663545945552e-02,-6.972683287249988038e-02,2.982718679960806064e-03
1.088000000000000078e+00,-1.297654288428232439e-01,-1.030136167330730351e-01,-6.938272413620776013e-02
1.088999999999999968e+00,-7.980298066847843486e-02,-4.017762564805490294e-02,-6.861334056499245049e-02
1.090000000000000080e+00,7.061635550630235292e-02,9.729696530801192067e-02,2.632395309560320654e-02
1.090999999999999970e+00,1.451056536861513868e-01,9.587060626641435990e-02,9.064391524538237266e-02
1.092000000000000082e+00,4.757060076379018843e-02,-1.230664326566370754e-03,4.923304517717032314e-02
1.092999999999999972e+00,-1.028167432380544810e-01,-1.074624800214723369e-01,-4.202922791841081501e-02
1.094000000000000083e+00,-1.303816165619990086e-01,-7.569879619104810664e-02,-8.481588611288529145e-02
1.094999999999999973e+00,-1.714491513999956591e-03,5.409940863572437753e-02,-1.375434715534742947e-02
1.096000000000000085e+00,1.433185818060364325e-01,1.179344669731267337e-01,7.194275488062536195e-02
1.096999999999999975e+00,1.020181933844641065e-01,3.787933105832581165e-02,7.145258276182081536e-02
1.098000000000000087e+00,-5.851792189749191464e-02,-8.929125293032957877e-02,-1.540496146572470706e-02
1.098999999999999977e+00,-1.400237589174184172e-01,-1.000217446886084577e-01,-8.051439773726253024e-02
1.100000000000000089e+00,-5.922216797657486181e-02,1.614812472550326318e-03,-5.102134926185861868e-02
1.100999999999999979e+00,1.006452864855593016e-01,1.014525168150462037e-01,3.695701820541937022e-02
1.102000000000000091e+00,1.223059475832047743e-01,8.849119916997669200e-02,7.771286185251019552e-02
1.102999999999999980e+00,2.456076371807157724e-03,-5.299741672224803080e-02,4.244072775714587825e-02
1.104000000000000092e+00,-1.426931189639459863e-01,-1.200883122545172849e-01,-5.404625304808779312e-02
1.104999999999999982e+00,-1.142457577883250475e-01,-4.620644019873179631e-02,-8.604294523915981263e-02
1.106000000000000094e+00,4.010015568597073699e-02,8.787410878850648865e-02,-1.292464690276378877e-02
1.106999999999999984e+00,1.481849739426004953e-01,1.095229205865262817e-01,7.078141059339082553e-02
1.108000000000000096e+00,8.424592658095599040e-02,-5.550375372858742766e-03,6.462530117854782541e-02
1.108999999999999986e+00,-8.699796055123297511e-02,-1.179990771332350696e-01,-1.802716923951484113e-02
1.110000000000000098e+00,-1.398843629071588324e-01,-8.120729484606416249e-02,-8.772227863927638258e-02
1.110999999999999988e+00,-1.605573108988750386e-02,4.608670163107119605e-02,-6.219679586104498448e-02
1.112000000000000099e+00,1.199005619335413164e-01,1.046049078102520846e-01,3.640847068215806448e-02
1.112999999999999989e+00,1.003460396221418638e-01,4.247423592680667215e-02,7.790512774221915182e-02
1.114000000000000101e+00,-2.913906663426977031e-02,-8.383286050978591697e-02,3.051486947244196057e-02
1.114999999999999991e+00,-1.509964085116011767e-01,-9.235771517002655528e-02,-6.127515736086200371e-02
1.116000000000000103e+00,-8.886524995373408509e-02,-6.745130193621003134e-03,-8.228163362297000183e-02
1.116999999999999993e+00,8.844209189623550293e-02,1.187969667683335534e-01,-1.252930900341666341e-02
1.118000000000000105e+00,1.433171106236763859e-01,8.423422071462903504e-02,7.210800341408095393e-02
1.118999999999999995e+00,2.406212238895685113e-02,-3.960337980619419579e-02,7.489942702551020959e-02
1.120000000000000107e+00,-1.043401365882198201e-01,-1.082384889322785398e-01,-1.696806424264519012e-02
1.120999999999999996e+00,-1.152195604918103550e-01,-4.391854697995783291e-02,-8.976448225029294570e-02
1.122000000000000108e+00,1.123129080524546373e-02,6.813113512747112632e-02,-5.084777232802070029e-02
1.122999999999999998e+00,1.366498696308868777e-01,9.795392573613678766e-02,5.107861529480051815e-02
1.124000000000000110e+00,1.039624504835028190e-01,1.174365099840118248e-02,9.150977435999912979e-02
1.125000000000000000e+00,-5.886835720218135115e-02,-1.030825479404056944e-01,1.239661342556055458e-02
1.125999999999999890e+00,-1.540842872395510044e-01,-8.555252485111675131e-02,-6.696194613043612853e-02
1.127000000000000002e+00,-5.670826102435330002e-02,3.254047823016514157e-02,-6.279583770850598323e-02
1.127999999999999892e+00,9.164457550337432035e-02,1.247333887532351554e-01,6.953417764069423114e-03
1.129000000000000004e+00,1.318047557631357725e-01,5.830967152026139688e-02,7.103407394133126607e-02
1.129999999999999893e+00,-6.336481857200678205e-03,-7.902499083572474270e-02,7.209996785913011519e-02
1.131000000000000005e+00,-1.187668461814868487e-01,-1.142102687828847191e-01,-2.424206899076397984e-02
1.131999999999999895e+00,-9.865813840058602902e-02,-1.416648079273365168e-02,-7.898869361232475905e-02
1.133000000000000007e+00,4.338529688408194335e-02,1.010829562264866088e-01,-2.337291086252546446e-02
1.133999999999999897e+00,1.341032696395591806e-01,8.351843891372287554e-02,5.185580677086529949e-02
1.135000000000000009e+00,6.469824206230199992e-02,-2.615670588498450119e-02,6.976249667188558212e-02
1.135999999999999899e+00,-9.206162045410201666e-02,-1.129771245705704086e-01,1.943146979848758837e-02
1.137000000000000011e+00,-1.399403535904688578e-01,-6.071556132533659916e-02,-8.479430339402109496e-02
1.137999999999999901e+00,-2.297659222754368236e-02,8.798994103158676305e-02,-7.371978418470238881e-02
1.139000000000000012e+00,1.354701146760962649e-01,1.030913867712426046e-01,2.135718034167430682e-02
1.139999999999999902e+00,1.136469690206825534e-01,1.696845098035622279e-02,7.891976979314786755e-02
1.141000000000000014e+00,-3.166934552896356198e-02,-1.109131211713270254e-01,4.592500784871096642e-02
1.141999999999999904e+00,-1.425122678993149539e-01,-8.900314714990884002e-02,-3.986116444264743708e-02
1.143000000000000016e+00,-9.978976426357712148e-02,2.198880742125280952e-02,-9.560687798447742303e-02
1.143999999999999906e+00,6.697917656356762450e-02,1.256111592879353422e-01,-2.557132944886996231e-02
1.145000000000000018e+00,1.470660492104937933e-01,5.607674353853366045e-02,5.256169570191563528e-02
1.145999999999999908e+00,5.006709666891980687e-02,-6.762816723596015711e-02,8.752925286734959676e-02
1.147000000000000020e+00,-1.191164694227717924e-01,-1.094990917235371120e-01,6.513362494968030075e-03
1.147999999999999909e+00,-1.330997390041117057e-01,-1.369047369068214330e-02,-6.974673125340283275e-02
1.149000000000000021e+00,2.467336310305225100e-02,9.438197396327732691e-02,-6.096027008616479448e-02
1.149999999999999911e+00,1.397056597357342334e-01,9.801689213476154350e-02,1.135529901838622409e-02
1.151000000000000023e+00,8.794255967780775785e-02,-3.019904100983611742e-02,9.573863679576913310e-02
1.151999999999999913e+00,-6.065815951448527699e-02,-1.229307112183076062e-01,3.523033826315677408e-02
1.153000000000000025e+00,-1.384780677899974388e-01,-5.370821255526758015e-02,-5.559758946247080752e-02
1.153999999999999915e+00,-4.691774185737153380e-02,6.474858796957511098e-02,-9.075670567307808634e-02
1.155000000000000027e+00,9.628839461806906752e-02,1.114569013066237374e-01,-2.407516858077463420e-02
1.155999999999999917e+00,1.369686215046063693e-01,1.231198148685405322e-02,6.631801001448642263e-02
1.157000000000000028e+00,9.833840174834683132e-03,-1.172735614538722992e-01,7.499628705788523308e-02
1.157999999999999918e+00,-1.290650465456091855e-01,-1.004006028232727749e-01,-8.273958885695742590e-05
1.159000000000000030e+00,-1.021061214119177024e-01,3.551984734513360942e-02,-8.271133054392326711e-02
1.159999999999999920e+00,5.314225258084833564e-02,1.126395447447992165e-01,-6.710225776115395779e-02
1.161000000000000032e+00,1.497466092218290301e-01,5.952874900900119448e-02,3.388076938314956571e-02
1.161999999999999922e+00,8.214659799447376898e-02,-6.839691628666200174e-02,9.434135728076890881e-02
1.163000000000000034e+00,-8.536007286757323065e-02,-1.136863518104758719e-01,5.062810387183593053e-02
1.163999999999999924e+00,-1.473732451475965044e-01,-2.059826388560805424e-02,-4.847008029352623676e-02
1.165000000000000036e+00,-3.018982756802592038e-02,9.889352749877117210e-02,-8.695168137566003375e-02
1.165999999999999925e+00,1.198261345620194873e-01,1.013982496278507811e-01,-1.490435237941304357e-02
1.167000000000000037e+00,1.094943388966252429e-01,-3.308112345294338813e-02,7.509853394207534338e-02
1.167999999999999927e+00,-3.140907471658362787e-02,-1.138072228740734104e-01,7.247044669141737561e-02
1.169000000000000039e+00,-1.416371032430776278e-01,-5.283107995428393960e-02,-2.559174805621917612e-02
1.169999999999999929e+00,-8.788101047782137520e-02,7.431290370114740362e-02,-8.171324604706003969e-02
1.171000000000000041e+00,5.822700081777477249e-02,1.117908762632624509e-01,-4.926665153057436380e-02
1.171999999999999931e+00,1.439717353316563864e-01,1.806557206440503535e-02,3.632147381705223832e-02
1.173000000000000043e+00,5.113678719850145438e-02,-9.241248685783608197e-02,7.562305592659678000e-02
1.173999999999999932e+00,-1.016517287853643120e-01,-1.061208730127290306e-01,3.547260174521307124e-02
1.175000000000000044e+00,-1.201480770956039612e-01,4.095954683786371883e-03,-6.581382005405961300e-02
1.175999999999999934e+00,6.308106957203634020e-03,1.047403843034912518e-01,-7.751570418174988375e-02
1.177000000000000046e+00,1.279794973121786139e-01,7.430543995426347470e-02,-1.498168215436944568e-02
1.177999999999999936e+00,1.071356225231651915e-01,-6.264102453002587390e-02,7.385208229142384284e-02
1.179000000000000048e+00,-6.510768708863121090e-02,-1.101235664938969711e-01,7.560882767284878014e-02
1.179999999999999938e+00,-1.301358284196911796e-01,-3.264786727526840932e-02,-2.545662810653739547e-02
