time,acc_x,acc_y,acc_z
0.000000000000000000e+00,8.235817970063168125e-02,4.025867508513131937e-02,7.749885632936126534e-02
1.000000000000000021e-03,-1.199179248120134551e-03,-1.624474312796668138e-02,3.100528791455493469e-02
2.000000000000000042e-03,-6.837927683798586398e-02,-8.602369610667799649e-02,-2.462596192389734234e-02
3.000000000000000062e-03,-1.167423255994367165e-01,-8.531936187169908425e-02,-7.054846513676418795e-02
4.000000000000000083e-03,-1.408525485659133936e-01,-9.050068804134416001e-02,-8.040050555392584675e-02
5.000000000000000104e-03,-1.093979001805272938e-01,-7.859442787963871746e-02,-9.616276327750998554e-02
6.000000000000000125e-03,-6.296721281182364460e-02,-3.858501954608033191e-02,-5.935518615939629206e-02
7.000000000000000146e-03,-1.401737660945560036e-02,-1.364586447988837790e-02,-3.066836851355754512e-02
8.000000000000000167e-03,2.352657387992248064e-02,4.068962837330217935e-02,1.545660442526000655e-02
8.999999999999999320e-03,5.785015409928708635e-02,3.742261759918418668e-02,2.947609687728445366e-02
1.000000000000000021e-02,5.657533154799877090e-02,4.815931344333052727e-02,4.975988109979565671e-02
1.099999999999999936e-02,7.633616818399828474e-02,5.340552265142019250e-02,3.164769935559300779e-02
1.200000000000000025e-02,6.980526343729452632e-02,5.422300687028207278e-02,5.079597592668199518e-02
1.299999999999999940e-02,4.915428663389734970e-02,3.726824309978193916e-02,2.905066809102530706e-02
1.400000000000000029e-02,3.674366936291913882e-02,2.534110069550804187e-02,1.949619100226409121e-02
1.499999999999999944e-02,2.226178428480196647e-02,1.145511876574412981e-02,1.403279180486630660e-02
1.600000000000000033e-02,-1.598991139367976835e-02,-6.158332666047504345e-03,3.785427266700909683e-03
1.700000000000000122e-02,-2.197551270022189349e-02,-3.846653683379318983e-02,-1.491067564778777565e-03
1.799999999999999864e-02,-4.715072367577742563e-02,-7.604367495245176189e-02,-2.039662571947486666e-02
1.899999999999999953e-02,-7.515330273468549815e-02,-8.340346800291273399e-02,-3.745358581110522223e-02
2.000000000000000042e-02,-8.984176979279839825e-02,-8.064168549095802885e-02,-4.696471621415007625e-02
2.100000000000000130e-02,-8.670813157560346152e-02,-6.621470049603271624e-02,-4.648750071740907069e-02
2.199999999999999872e-02,-2.015886909430612481e-02,-5.417005278645237870e-03,-3.651010413488560424e-02
2.299999999999999961e-02,7.454541824825225774e-03,5.476558512796821793e-02,-2.233668996212126966e-03
2.400000000000000050e-02,8.477199474078156438e-02,9.463342771611342463e-02,2.374479193793683010e-02
2.500000000000000139e-02,1.510994661219283997e-01,1.347611635789035256e-01,5.281965682380536375e-02
2.599999999999999881e-02,1.604554164659498516e-01,1.435211168051111763e-01,7.034760261548099469e-02
2.699999999999999969e-02,1.453561661210797940e-01,1.024075617319351178e-01,8.819620809554723495e-02
2.800000000000000058e-02,8.634625731863226905e-02,5.363033697411092107e-03,6.719833739628339186e-02
2.900000000000000147e-02,1.259832546321747355e-02,-6.971330815499944544e-02,3.756745478845306685e-02
2.999999999999999889e-02,-1.007136477539225805e-01,-1.288987254847793751e-01,-2.870091869723480002e-02
3.099999999999999978e-02,-1.718061489230525707e-01,-1.746073413982636713e-01,-7.759047673988762883e-02
3.200000000000000067e-02,-2.252316996119304304e-01,-1.478069343495960197e-01,-1.047064211547744234e-01
3.300000000000000155e-02,-1.988672243557538799e-01,-9.193349208260689909e-02,-9.890782341244284959e-02
3.400000000000000244e-02,-1.184145256920253603e-01,-2.028567898130576724e-02,-9.924577959924645032e-02
3.500000000000000333e-02,9.052878173908750561e-03,8.751726226073471004e-02,-5.617888072067517280e-02
3.599999999999999728e-02,1.393189644148603856e-01,1.728755332072379747e-01,3.028594460135172403e-02
3.699999999999999817e-02,2.214258559933597603e-01,2.038166992111818954e-01,7.247139796890683661e-02
3.799999999999999906e-02,2.526659598296639442e-01,1.772140423643027707e-01,1.425466387548069702e-01
3.899999999999999994e-02,2.150977415352118560e-01,1.145014365899848785e-01,1.560734381398120596e-01
4.000000000000000083e-02,1.119340487495201902e-01,-1.202905154131311133e-02,1.346291899877953835e-01
4.100000000000000172e-02,-3.077237420663659490e-02,-1.208533445132600609e-01,6.963769259991971217e-02
4.200000000000000261e-02,-1.460528306980829749e-01,-2.059011426788569521e-01,-2.726544472093763924e-02
4.299999999999999656e-02,-2.367534315885632401e-01,-2.311616359212217420e-01,-1.060324271622038600e-01
4.399999999999999745e-02,-2.824221947401302502e-01,-1.779459976135822352e-01,-1.482304151982808127e-01
4.499999999999999833e-02,-2.298537135653986319e-01,-8.233359264436602987e-02,-1.598411998803007383e-01
4.599999999999999922e-02,-1.087420413991063983e-01,1.767283214532047730e-02,-1.154803860329590842e-01
4.700000000000000011e-02,3.989766899795048338e-02,1.320145925184977032e-01,-6.326665820331943413e-02
4.800000000000000100e-02,1.731626139232818051e-01,2.027953760755759893e-01,2.485657474639888648e-02
4.900000000000000189e-02,2.506692804527261287e-01,2.271976828146732574e-01,1.015092210302257630e-01
5.000000000000000278e-02,2.802857471141019796e-01,1.561983629493758907e-01,1.438772946926573371e-01
5.099999999999999672e-02,2.128077290308524605e-01,5.864410840906304073e-02,1.551828155315359004e-01
5.199999999999999761e-02,7.342228726351919532e-02,-4.486207236729622405e-02,1.179337759075727854e-01
5.299999999999999850e-02,-4.740665877433839631e-02,-1.444084834388346117e-01,4.731930020942531900e-02
5.399999999999999939e-02,-1.841384674790984277e-01,-1.945999362030595425e-01,-3.814384329521324640e-02
5.500000000000000028e-02,-2.443893966622278091e-01,-2.004811880792777834e-01,-1.017937981842145373e-01
5.600000000000000117e-02,-2.573643255927661189e-01,-1.497271380272009178e-01,-1.450509170272467896e-01
5.700000000000000205e-02,-1.868270468441663723e-01,-5.219285932148403501e-02,-1.695936024217239435e-01
5.800000000000000294e-02,-8.613099306999913440e-02,4.669894205443761437e-02,-1.300765660025260118e-01
5.899999999999999689e-02,5.571306322015467938e-02,9.958636987050996370e-02,-4.794582485585586334e-02
5.999999999999999778e-02,1.588862277463319039e-01,1.683280305032260615e-01,2.122744797394328017e-02
6.099999999999999867e-02,2.144778608565964528e-01,1.725364608975162861e-01,1.029125265458190747e-01
6.199999999999999956e-02,1.982603516014310729e-01,1.128746160041824709e-01,1.213768803502300736e-01
6.300000000000000044e-02,1.414119938410999255e-01,3.777776141021735312e-02,1.369070414315108897e-01
6.400000000000000133e-02,6.349944330879798982e-02,-4.210228142136603763e-02,1.108060176789319173e-01
6.500000000000000222e-02,-3.236684223713603981e-02,-9.195413201619639931e-02,4.391217130930815532e-02
6.600000000000000311e-02,-1.260576376234643081e-01,-1.153197422013292756e-01,-2.076928159081067524e-02
6.700000000000000400e-02,-1.781664371252563717e-01,-1.191972948242034230e-01,-6.528095395800610767e-02
6.800000000000000488e-02,-1.619835618717559433e-01,-7.932423921597797634e-02,-1.091213206190843471e-01
6.900000000000000577e-02,-1.116355876167116623e-01,-2.137056280352652923e-02,-1.055405040397573158e-01
7.000000000000000666e-02,-3.625241129628639647e-02,1.851587294519985161e-02,-7.373756440882389684e-02
7.099999999999999367e-02,3.912069096140238789e-02,5.422191005953495152e-02,-3.426997444405772281e-02
7.199999999999999456e-02,6.905167966341414776e-02,6.564155904467765257e-02,5.530574347947655404e-04
7.299999999999999545e-02,9.847807799926465433e-02,5.513951549141875991e-02,3.980361416364896349e-02
7.399999999999999634e-02,8.763995450911317431e-02,4.425161882603764751e-02,7.576738895832939302e-02
7.499999999999999722e-02,8.404373539739051768e-02,2.982687826346354029e-02,7.334376867348088580e-02
7.599999999999999811e-02,5.604264400533495033e-02,-6.099050596616409879e-03,5.262903161408782199e-02
7.699999999999999900e-02,1.255395643045590683e-02,-3.991400733010057149e-03,3.121074607884201033e-02
7.799999999999999989e-02,-1.573341041339453364e-02,-1.765568299668362692e-02,2.441701298514868668e-02
7.900000000000000078e-02,-3.558110524565757243e-02,-2.333218584638899196e-02,-2.300108356839937820e-02
8.000000000000000167e-02,-3.598078230517428450e-02,-5.250283729094371715e-02,-2.541629989770883766e-02
8.100000000000000255e-02,-5.874404549903153305e-02,-4.243900020190623928e-02,-3.026950205566590266e-02
8.200000000000000344e-02,-6.382093934566453186e-02,-8.214594835941392559e-02,-4.210477940335496244e-02
8.300000000000000433e-02,-8.336165662460517933e-02,-6.910342667338235934e-02,-4.424531457539949975e-02
8.400000000000000522e-02,-5.681927901902660005e-02,-4.089821127116702315e-02,-4.787844681368037814e-02
8.500000000000000611e-02,-4.004813438959820698e-02,-5.423938900559607465e-03,-1.757561650231419248e-02
8.599999999999999312e-02,-3.768419148800645482e-04,3.647035092545612006e-02,-2.856273879714474329e-03
8.699999999999999400e-02,4.844184431587576084e-02,8.957946879458593414e-02,4.964362339318966963e-03
8.799999999999999489e-02,7.164473513859791198e-02,1.165223817751292468e-01,7.947123109333865260e-03
8.899999999999999578e-02,1.050293269909979843e-01,8.937055099698529292e-02,1.362446193580387974e-02
8.999999999999999667e-02,1.349418917803879292e-01,6.619916255502354685e-02,5.472397007480634540e-02
9.099999999999999756e-02,1.006663427097437974e-01,1.778074882934760001e-02,6.894026727656323017e-02
9.199999999999999845e-02,4.858698994537302002e-02,-6.833212812467219510e-02,5.666332168709156680e-02
9.299999999999999933e-02,-5.199722823902485497e-02,-1.243145491028104371e-01,3.926309407489043252e-02
9.400000000000000022e-02,-1.211751257609477023e-01,-1.658272761857648991e-01,-7.610254464707695392e-03
9.500000000000000111e-02,-1.851698558475552980e-01,-1.388723109319664195e-01,-5.676638739943288409e-02
9.600000000000000200e-02,-1.894819412912196743e-01,-8.520869824700981476e-02,-9.215280497738041754e-02
9.700000000000000289e-02,-1.420014339891966237e-01,-1.330593053618003667e-02,-9.999963813512170729e-02
9.800000000000000377e-02,-5.260470366098558143e-02,9.178833300245121951e-02,-9.489030827180254535e-02
9.900000000000000466e-02,5.075579635456462652e-02,1.570673853403843634e-01,-4.516730530692854295e-02
1.000000000000000056e-01,1.513844027722303365e-01,1.716877661447015480e-01,1.043961391260827057e-02
1.010000000000000064e-01,2.209682925609268156e-01,1.868812937458312617e-01,5.901025603643032802e-02
1.019999999999999934e-01,2.298352819647476453e-01,1.062722074519594356e-01,1.159703082603554952e-01
1.029999999999999943e-01,1.782951687647921224e-01,-1.283481133663038481e-02,1.530213179452517280e-01
1.039999999999999952e-01,7.417543364851425514e-02,-1.151761726927373330e-01,1.222478940368500466e-01
1.049999999999999961e-01,-6.553932148771640653e-02,-1.859948996746465799e-01,6.837250816669647457e-02
1.059999999999999970e-01,-1.769911853177280614e-01,-2.155140778384411759e-01,-8.743436732684789839e-03
1.069999999999999979e-01,-2.560600301539283086e-01,-1.709478141136994978e-01,-6.881664705944218197e-02
1.079999999999999988e-01,-2.662627116480169032e-01,-8.651134987306276225e-02,-1.245986308031750422e-01
1.089999999999999997e-01,-1.848041782944538358e-01,3.978297471484835979e-02,-1.501521325873682866e-01
1.100000000000000006e-01,-6.461080239584082729e-02,1.340230784522238039e-01,-1.474909773528783330e-01
1.110000000000000014e-01,7.806506619638824140e-02,1.991217323682103468e-01,-8.090152084078904016e-02
1.120000000000000023e-01,2.041451847631326200e-01,2.110207787075074337e-01,-6.117991171825564768e-03
1.130000000000000032e-01,2.710320613980606308e-01,1.703504344125811309e-01,8.696758878048367614e-02
1.140000000000000041e-01,2.576073794281756313e-01,6.902252650501160269e-02,1.456567401691978292e-01
1.150000000000000050e-01,1.918872839798528296e-01,-5.529368789097457298e-02,1.748526286115797967e-01
1.160000000000000059e-01,3.938212205837643420e-02,-1.553790956265249656e-01,1.393318731777931363e-01
1.170000000000000068e-01,-8.684914694847213623e-02,-2.019160041076422107e-01,8.073463496816042639e-02
1.179999999999999938e-01,-2.035817862053609095e-01,-2.076714773681975212e-01,7.698002499530547907e-05
1.189999999999999947e-01,-2.831360796154449022e-01,-1.342067974042930600e-01,-8.098485945584951717e-02
1.199999999999999956e-01,-2.493184985253429076e-01,-5.790019571804186360e-02,-1.417242692118126646e-01
1.209999999999999964e-01,-1.510527383845669258e-01,4.769681128337099896e-02,-1.681848613812575444e-01
1.219999999999999973e-01,-1.931994068840987497e-02,1.410158860104710754e-01,-1.480893871096314041e-01
1.229999999999999982e-01,9.638802956410072453e-02,1.810433688626711668e-01,-8.061896088855274867e-02
1.239999999999999991e-01,2.080488451810098838e-01,1.746726940637597369e-01,9.728086703316632736e-03
1.250000000000000000e-01,2.490031513636223881e-01,1.282780696653826880e-01,7.642371192912802980e-02
1.260000000000000009e-01,2.163587412722773606e-01,3.178688612957877163e-02,1.293794844901383356e-01
1.270000000000000018e-01,1.222895908448533991e-01,-6.136417901304826172e-02,1.400071931870398578e-01
1.280000000000000027e-01,2.014180225404172547e-02,-1.198545733920410306e-01,1.148903913588221470e-01
1.290000000000000036e-01,-1.075451509345902446e-01,-1.451596700638909943e-01,5.937467931038597352e-02
1.300000000000000044e-01,-1.673760404674445312e-01,-1.403382439339975751e-01,-6.512664089042781435e-03
1.310000000000000053e-01,-1.994679537518066204e-01,-7.811735029999956892e-02,-7.665934199573190555e-02
1.320000000000000062e-01,-1.753677022763237003e-01,-2.295998054369026778e-02,-9.965065075034035269e-02
1.330000000000000071e-01,-9.889374002986009438e-02,3.571517118164577870e-02,-1.417094543056377220e-01
1.340000000000000080e-01,7.680297412014887477e-03,8.134021684131981234e-02,-1.061078763725130519e-01
1.350000000000000089e-01,6.639220098262155201e-02,9.275292076927058038e-02,-6.048100150634001110e-02
1.360000000000000098e-01,1.335388422074373083e-01,8.685700191511958046e-02,2.768913907059944099e-03
1.370000000000000107e-01,1.397443420687073667e-01,6.287899633723902093e-02,5.575716684299135417e-02
1.380000000000000115e-01,1.295713859586591632e-01,2.513345485478633845e-02,8.205486393869271255e-02
1.390000000000000124e-01,6.703103536659973938e-02,-1.543904786612205517e-02,1.042852388800366709e-01
1.400000000000000133e-01,2.613864433902307605e-02,-4.370233627291339462e-02,7.620076587002595769e-02
1.409999999999999865e-01,-3.140091941546752780e-02,-4.409974449763157806e-02,4.360759126439969768e-02
1.419999999999999873e-01,-7.136510794892778065e-02,-5.001924377466804988e-02,8.205907155107343767e-03
1.429999999999999882e-01,-8.754866959917644020e-02,-5.557276897792549908e-02,-3.298584756325905615e-02
1.439999999999999891e-01,-6.025925514110972575e-02,-3.350427582752261990e-02,-5.164466316443645788e-02
1.449999999999999900e-01,-6.382868691745213763e-02,-3.200690333767598067e-02,-4.837074413256054611e-02
1.459999999999999909e-01,-3.873670390668287195e-02,-1.681421963181085194e-02,-4.349296736078136355e-02
1.469999999999999918e-01,-2.790633645908928775e-02,5.648716241271992643e-03,-5.341655191457576196e-02
1.479999999999999927e-01,-8.284851264323574507e-03,2.798029171132380977e-02,-3.271626463532402440e-02
1.489999999999999936e-01,1.806889874616212505e-02,4.449495926717474820e-02,1.490530701933739932e-02
1.499999999999999944e-01,4.496069920328141234e-02,5.951499247885494448e-02,8.808608818480683292e-03
1.509999999999999953e-01,5.408453697789697423e-02,7.028145662568024976e-02,5.537982917081124036e-03
1.519999999999999962e-01,7.481970924384205579e-02,8.097835130160339900e-02,2.302726748649701685e-02
1.529999999999999971e-01,8.777816285849257549e-02,2.907358955779748219e-02,3.803756201985195734e-02
1.539999999999999980e-01,7.806616667134114174e-02,1.009431393990601732e-03,4.265015099687405331e-02
1.549999999999999989e-01,3.488760710644497193e-02,-5.301262050373765911e-02,3.322176091350780708e-02
1.559999999999999998e-01,-9.559224655022770245e-03,-1.112366546621152974e-01,3.520531031866967753e-02
1.570000000000000007e-01,-6.012563468197086591e-02,-1.300437974613508074e-01,2.493203521768917047e-02
1.580000000000000016e-01,-1.130839305590715799e-01,-1.169601307988032551e-01,-1.357137307329125053e-03
1.590000000000000024e-01,-1.381251297166673497e-01,-7.557025279187408462e-02,-4.543015362338733570e-02
1.600000000000000033e-01,-1.508063485541660531e-01,-4.112766918529639840e-03,-7.214445298133839723e-02
1.610000000000000042e-01,-8.630308188874244446e-02,7.101720277977276174e-02,-7.940069675289379569e-02
1.620000000000000051e-01,-2.961520698899505147e-03,1.482455292629090982e-01,-9.089356449878732702e-02
1.630000000000000060e-01,9.343442853965390482e-02,1.911910531611202835e-01,-7.094539580270783907e-02
1.640000000000000069e-01,1.465135373738298552e-01,1.487992881131949829e-01,-7.072308079746719017e-03
1.650000000000000078e-01,2.113971250965087090e-01,1.002918986173237659e-01,3.917690524361163579e-02
1.660000000000000087e-01,2.063066312104867017e-01,-3.968377219657669153e-03,9.466576168350802900e-02
1.670000000000000095e-01,1.281732056445731849e-01,-1.004419589540060664e-01,1.160826791419970888e-01
1.680000000000000104e-01,1.718830906631565580e-03,-1.893381471464493926e-01,1.124843292222071356e-01
1.690000000000000113e-01,-1.156973199124403523e-01,-2.036719073986728579e-01,7.268747656398324986e-02
1.700000000000000122e-01,-1.943073512824136928e-01,-1.757519596304092102e-01,1.549026693196786653e-02
1.710000000000000131e-01,-2.466510550475028984e-01,-9.309343376294830497e-02,-3.979199280164807256e-02
1.719999999999999862e-01,-2.193347164457984111e-01,2.404466689522676351e-02,-1.181578882323876811e-01
1.729999999999999871e-01,-1.363358925860038706e-01,1.399546003164131025e-01,-1.350015155991962645e-01
1.739999999999999880e-01,-1.062622424706389027e-02,1.966361649577984816e-01,-1.406525497017025728e-01
1.749999999999999889e-01,1.383574538570556123e-01,2.200361793844709535e-01,-1.059452884137554313e-01
1.759999999999999898e-01,2.313728710540594313e-01,1.772899243983354634e-01,-2.515555739531031773e-02
1.769999999999999907e-01,2.822023645315922535e-01,7.479753319023925429e-02,5.485197793437876501e-02
1.779999999999999916e-01,2.376176719992501296e-01,-2.958780023933775191e-02,1.246895433822532567e-01
1.789999999999999925e-01,1.435148232495759846e-01,-1.519208794884765179e-01,1.732207065326109852e-01
1.799999999999999933e-01,-6.858031263728952415e-03,-2.118040314002866686e-01,1.367329975454421032e-01
1.809999999999999942e-01,-1.628819290651377927e-01,-2.071110664953421387e-01,1.073579309391183984e-01
1.819999999999999951e-01,-2.331011174368016192e-01,-1.697284406552631297e-01,2.386444860672145077e-02
1.829999999999999960e-01,-2.736010644345259757e-01,-5.918576963642555033e-02,-5.417176235539055557e-02
1.839999999999999969e-01,-2.235389757118191323e-01,4.503565804668733380e-02,-1.428569453031060532e-01
1.849999999999999978e-01,-1.187021096376345147e-01,1.584996810965914049e-01,-1.627525711088248228e-01
1.859999999999999987e-01,1.023563841630477714e-02,2.019514536367128799e-01,-1.689444611131235285e-01
1.869999999999999996e-01,1.651768384998159034e-01,1.939746645855751350e-01,-1.136004358587807683e-01
1.880000000000000004e-01,2.304667084284940937e-01,1.370476829142129316e-01,-2.883721610332772717e-03
1.890000000000000013e-01,2.685882182415290642e-01,2.605407533703367126e-02,6.639142515893324548e-02
1.900000000000000022e-01,2.091533593405711655e-01,-5.211550403851972213e-02,1.203174905539416834e-01
1.910000000000000031e-01,1.051280514819970674e-01,-1.328939857355236620e-01,1.586288265408766496e-01
1.920000000000000040e-01,-2.692882825138044264e-02,-1.762220384373357762e-01,1.424226327261344238e-01
1.930000000000000049e-01,-1.459738968900708422e-01,-1.683742408628488563e-01,9.106360370426698492e-02
1.940000000000000058e-01,-2.120010625356331113e-01,-9.397372464876989351e-02,1.261993691881191197e-02
1.950000000000000067e-01,-2.118803443549775456e-01,-3.106477651673707902e-02,-5.961259045073455387e-02
1.960000000000000075e-01,-1.750222635327847442e-01,4.870327748561883302e-02,-1.160102064011275386e-01
1.970000000000000084e-01,-6.385784771009045402e-02,1.080239929247764491e-01,-1.339574515893951767e-01
1.980000000000000093e-01,2.920418904880457342e-02,1.198163897874231221e-01,-1.164339713732315262e-01
1.990000000000000102e-01,1.219377156602532708e-01,1.111605619347106472e-01,-6.508742449925077056e-02
2.000000000000000111e-01,1.715305516209376380e-01,7.070271190135574146e-02,-2.578264123722479387e-02
2.010000000000000120e-01,1.662709572050307671e-01,1.869084569992814776e-02,5.235191156929724920e-02
2.020000000000000129e-01,1.403793501647004061e-01,-3.577602525926187188e-02,8.899124366899939520e-02
2.030000000000000138e-01,6.328963955788366458e-02,-5.798378846895003991e-02,1.139022591561239667e-01
2.039999999999999869e-01,-1.170186146039898373e-02,-8.742276807508449210e-02,9.995621514646423067e-02
2.049999999999999878e-01,-6.798869677720430216e-02,-7.916924302871630736e-02,7.091457894755537339e-02
2.059999999999999887e-01,-1.002831124148075709e-01,-5.988268246949494250e-02,1.143225435195570870e-02
2.069999999999999896e-01,-1.160918919198033195e-01,-1.953844265786580311e-02,-4.264415564500322053e-02
2.079999999999999905e-01,-8.512156061006545538e-02,-9.442679300752846935e-03,-5.612396580812119284e-02
2.089999999999999913e-01,-4.281800923022628658e-02,1.035425194603411918e-02,-8.386252939211612245e-02
2.099999999999999922e-01,-5.511587063850979275e-03,2.130642592702555044e-02,-7.228614884434664267e-02
2.109999999999999931e-01,2.175265771639943446e-02,4.871752802960271217e-02,-4.479471451931488907e-02
2.119999999999999940e-01,4.827132350954296824e-02,5.364121272879128488e-02,-6.163377821331467513e-03
2.129999999999999949e-01,5.520474288044181777e-02,5.817164996649517444e-02,6.919017191218141544e-03
2.139999999999999958e-01,3.777429211224696964e-02,4.972000929027619448e-02,4.165403824299513530e-02
2.149999999999999967e-01,5.009438457472224770e-02,6.476070708876099924e-02,4.754475266586617038e-02
2.159999999999999976e-01,5.904103806516387831e-02,2.075231596524533539e-02,3.595310815872065913e-02
2.169999999999999984e-01,3.564085417948448936e-02,-1.228217035396564696e-02,2.838261992925338040e-02
2.179999999999999993e-01,3.209931051089655318e-02,-4.134769923800803160e-02,3.949357448760349582e-02
2.190000000000000002e-01,-8.017810860756188762e-03,-7.771140367378374936e-02,1.095849220093161880e-02
2.200000000000000011e-01,-4.830334078523224745e-02,-9.292901378649856547e-02,1.693635488988467705e-02
2.210000000000000020e-01,-7.163591359388830904e-02,-9.438461353371119245e-02,2.062902070462262465e-03
2.220000000000000029e-01,-9.227550488540187112e-02,-6.135280028011692866e-02,-1.546762398843628400e-02
2.230000000000000038e-01,-1.179983601793719861e-01,-1.048514296480648929e-02,-2.199314119489528818e-02
2.240000000000000047e-01,-9.928495048491421671e-02,8.367771821615840877e-02,-3.280986484511624890e-02
2.250000000000000056e-01,-3.863019528570654781e-02,1.365051822513243529e-01,-6.073786094044831413e-02
2.260000000000000064e-01,1.675385102014547919e-02,1.296595472330651089e-01,-6.087283039094599363e-02
2.270000000000000073e-01,9.204370129958185098e-02,1.316065132475610355e-01,-5.309283875851751600e-02
2.280000000000000082e-01,1.642332524432846830e-01,7.468521712796007128e-02,-6.656401788529333133e-03
2.290000000000000091e-01,1.745441921719058376e-01,-7.457222676276012950e-03,3.266103668655621212e-02
2.300000000000000100e-01,1.661804538079968141e-01,-1.002642632474807505e-01,5.894588329273475064e-02
2.310000000000000109e-01,5.839425636396870095e-02,-1.519181711108028021e-01,9.202309729410540484e-02
2.320000000000000118e-01,-4.567191356752905995e-02,-1.926063162701121545e-01,1.043915593617035092e-01
2.330000000000000127e-01,-1.329649241450548691e-01,-1.596410404826124341e-01,8.040325361932883219e-02
2.340000000000000135e-01,-1.975592518602984349e-01,-9.444378031849588739e-02,3.524078489790057750e-02
2.349999999999999867e-01,-2.177870268203448145e-01,1.719027498886361791e-02,-3.264024964072105572e-02
2.359999999999999876e-01,-1.774822179727326421e-01,1.072430339033223767e-01,-7.897327769632031536e-02
2.369999999999999885e-01,-8.163497489094309612e-02,1.793319957370885231e-01,-1.016746269857618235e-01
2.379999999999999893e-01,3.224410857479674541e-02,2.222928858872346425e-01,-1.237169642803472858e-01
2.389999999999999902e-01,1.609646921804045172e-01,1.653365092784238322e-01,-1.025697911397636247e-01
2.399999999999999911e-01,2.431803654386836544e-01,6.721657215485156434e-02,-4.382344760966998265e-02
2.409999999999999920e-01,2.711400680547591535e-01,-3.975945440864853131e-02,3.127731354803424402e-02
2.419999999999999929e-01,1.900757982024494086e-01,-1.453148444430397146e-01,8.341882971933205215e-02
2.429999999999999938e-01,7.972623107663066866e-02,-2.077080601727336606e-01,1.397167356077666789e-01
2.439999999999999947e-01,-6.809533439621562323e-02,-2.275088083633905744e-01,1.575200850647192896e-01
2.449999999999999956e-01,-1.892530187688026555e-01,-1.598278048673422713e-01,1.186450264596792398e-01
2.459999999999999964e-01,-2.600468790519783746e-01,-5.941474311304194289e-02,3.963891445011687859e-02
2.469999999999999973e-01,-2.675018949785014089e-01,5.380530910287096430e-02,-3.484747005730122471e-02
2.479999999999999982e-01,-2.003904761695127767e-01,1.517693360022391580e-01,-1.200114373513338079e-01
2.489999999999999991e-01,-7.088883078511035163e-02,2.159462864604844434e-01,-1.490312098995207335e-01
2.500000000000000000e-01,8.509448415006511113e-02,2.162734984918272263e-01,-1.693980428608511668e-01
2.510000000000000009e-01,1.826008157926196918e-01,1.346013414057639912e-01,-1.300615421496352508e-01
2.520000000000000018e-01,2.584122678796876293e-01,4.947738489958961039e-02,-3.580499201817537863e-02
2.530000000000000027e-01,2.659100813135357733e-01,-6.933010244572215819e-02,5.115630909072933080e-02
2.540000000000000036e-01,1.933174151592192969e-01,-1.558682424664514232e-01,1.172286183071071658e-01
2.550000000000000044e-01,7.615763919357909639e-02,-1.834401395431587978e-01,1.526242808931522477e-01
2.560000000000000053e-01,-8.322842265141539020e-02,-1.714723828481496126e-01,1.429476599338003473e-01
2.570000000000000062e-01,-1.987475156645440166e-01,-1.063463197212353439e-01,1.186592760878727448e-01
2.580000000000000071e-01,-2.439604031742217127e-01,-1.994766874083951994e-02,4.248420886207611435e-02
2.590000000000000080e-01,-2.206697689161857823e-01,6.186898663832979262e-02,-4.799422106112453956e-02
2.600000000000000089e-01,-1.633249462259016294e-01,1.227389437089759922e-01,-1.143062923241629641e-01
2.610000000000000098e-01,-3.299410280874957163e-02,1.605429292505911876e-01,-1.385664029341202863e-01
2.620000000000000107e-01,7.003728154750007984e-02,1.308123526056184371e-01,-1.494325076267372376e-01
2.630000000000000115e-01,1.756194265488918715e-01,8.285940525846818838e-02,-1.026709317363014573e-01
2.640000000000000124e-01,2.104294935348475781e-01,1.407864826497680528e-02,-2.708728543858370322e-02
2.650000000000000133e-01,1.809987485138753738e-01,-4.245831135390964323e-02,3.411803040638351076e-02
2.660000000000000142e-01,1.250139547867610001e-01,-8.173991914678002679e-02,1.217435404315782010e-01
2.670000000000000151e-01,3.380808181734129558e-02,-1.135036737930659040e-01,1.155269553156768048e-01
2.680000000000000160e-01,-5.623606498700844253e-02,-1.003564130712736036e-01,1.214319582547208343e-01
2.690000000000000169e-01,-1.262266670688282078e-01,-7.429723944792432366e-02,8.481040254117235000e-02
2.700000000000000178e-01,-1.449300276869376902e-01,-1.383926867405788769e-02,3.355808862086669120e-02
2.710000000000000187e-01,-1.202901507912354090e-01,2.457964459102469565e-02,-3.534305655215302933e-02
2.720000000000000195e-01,-8.805058503247913115e-02,3.562795023404404654e-02,-8.250367462217857162e-02
2.730000000000000204e-01,-2.588501706581375697e-02,5.522743079204216893e-02,-1.065205751408571100e-01
2.740000000000000213e-01,3.084101920645960018e-02,5.210057486162143758e-02,-9.361612026112718643e-02
2.750000000000000222e-01,5.602725097510920932e-02,4.446275504790907912e-02,-7.422935734403346419e-02
2.760000000000000231e-01,9.778402287411838700e-02,4.467281090129673199e-02,-1.674940331945419525e-02
2.770000000000000240e-01,7.251797382164150430e-02,2.635239132407470736e-02,1.752991988569298915e-02
2.780000000000000249e-01,5.746340617463773642e-02,2.945391589583627040e-03,4.731315814822398963e-02
2.790000000000000258e-01,4.319292353348998248e-02,-5.917282035479537114e-03,6.942257328217975310e-02
2.800000000000000266e-01,1.638194166941130472e-02,-2.832580490594441974e-02,5.415894299531812117e-02
2.810000000000000275e-01,2.582476173872726762e-03,-5.272009631156804321e-02,5.138711585181694047e-02
2.819999999999999729e-01,-1.203043825528319309e-02,-7.925545584906223961e-02,3.516283071241708275e-02
2.829999999999999738e-01,-3.569188102489891101e-02,-8.292846848710708207e-02,1.248099290426895464e-02
2.839999999999999747e-01,-6.908714186869222007e-02,-5.830815139494179011e-02,-4.212959232374416212e-03
2.849999999999999756e-01,-5.599852732627649127e-02,-6.315709817875844734e-02,-5.412815503730537825e-03
2.859999999999999765e-01,-7.385603050130051805e-02,-2.681859549998387524e-03,-2.379607356330467813e-02
2.869999999999999774e-01,-7.058840201213469057e-02,5.528701043484013367e-02,-4.876337427244752110e-02
2.879999999999999782e-01,-5.404131494515816009e-02,1.123990713983195056e-01,-1.560529057923516413e-02
2.889999999999999791e-01,-1.582816004515227512e-03,1.349393216000006890e-01,-3.650175602457395724e-02
2.899999999999999800e-01,5.609918802490109629e-02,1.151873040813487237e-01,-4.033169931296261279e-02
2.909999999999999809e-01,1.037089589234370390e-01,7.257837231815515711e-02,-1.382637896777333397e-02
2.919999999999999818e-01,1.462590233921006178e-01,-7.945086970947578056e-03,-8.454281838363116031e-03
2.929999999999999827e-01,1.405441712484841177e-01,-8.588055591915273734e-02,1.954753279004871683e-02
2.939999999999999836e-01,9.310154289650778014e-02,-1.419257000244638633e-01,3.793733668590078267e-02
2.949999999999999845e-01,3.010192853633933754e-02,-1.706679158809301378e-01,9.035556681902270904e-02
2.959999999999999853e-01,-7.513809906737968503e-02,-1.363477785982960544e-01,7.146175852141856133e-02
2.969999999999999862e-01,-1.395229280389105042e-01,-7.998854071898939266e-02,5.906752611296573613e-02
2.979999999999999871e-01,-1.921698552357254119e-01,3.591240801621307932e-02,4.900604684870859401e-02
2.989999999999999880e-01,-1.991799233065950636e-01,1.177512105937647546e-01,-1.235190992370794640e-03
2.999999999999999889e-01,-1.305809732318749250e-01,1.924632161361642391e-01,-6.062403243107411521e-02
3.009999999999999898e-01,-4.149793359004104454e-02,1.981199715589737342e-01,-1.062010673497263274e-01
3.019999999999999907e-01,7.224919563992591998e-02,1.731737332918484862e-01,-9.894737801033745561e-02
3.029999999999999916e-01,1.881182277374373046e-01,7.947426999127557568e-02,-1.005768955651964031e-01
3.039999999999999925e-01,2.397959548599510882e-01,-3.282564983565249700e-02,-2.417239091153057171e-02
3.049999999999999933e-01,2.343589397221058912e-01,-1.367308954539472043e-01,2.143363438808535554e-02
3.059999999999999942e-01,1.637292556057896309e-01,-2.294932192905126955e-01,7.728112784733510987e-02
3.069999999999999951e-01,3.320844850282127919e-02,-2.219537950152743744e-01,1.344078711581397634e-01
3.079999999999999960e-01,-8.081694315266128859e-02,-1.485743195541396333e-01,1.302680222189277759e-01
3.089999999999999969e-01,-2.164438185389292724e-01,-5.691284949975553703e-02,1.154390094124801702e-01
3.099999999999999978e-01,-2.729176288236501158e-01,6.554088720603699902e-02,5.835949192115017642e-02
3.109999999999999987e-01,-2.440732588596083441e-01,1.454914270558884393e-01,-8.962092245848242433e-03
3.119999999999999996e-01,-1.644083448390342428e-01,2.125048829351649238e-01,-8.659764611743428486e-02
3.130000000000000004e-01,-3.332434996023402735e-02,2.017798451657931702e-01,-1.415772736515397701e-01
3.140000000000000013e-01,1.319829058140506439e-01,1.552428115751394444e-01,-1.580521848102755811e-01
3.150000000000000022e-01,2.395130615137314734e-01,4.938582967784176797e-02,-1.333601704144300459e-01
3.160000000000000031e-01,2.835525961253673732e-01,-9.134714300169829992e-02,-6.002085061313764541e-02
3.170000000000000040e-01,2.597481008841657779e-01,-1.609302741889830912e-01,2.908828771241581471e-03
3.180000000000000049e-01,1.382389268732917842e-01,-2.042463591686094482e-01,1.003149305884264292e-01
3.190000000000000058e-01,-1.280350414032995106e-02,-1.814753876495657503e-01,1.492978710879186155e-01
3.200000000000000067e-01,-1.358779079334185291e-01,-1.305424625104899539e-01,1.721275247066256786e-01
3.210000000000000075e-01,-2.355390736030208709e-01,-3.005704017793796312e-02,1.535858959354744202e-01
3.220000000000000084e-01,-2.518926357231175417e-01,5.785482768191516079e-02,5.930865065488687832e-02
3.230000000000000093e-01,-2.214703397747413427e-01,1.403775428844027673e-01,-1.266160932530508224e-02
3.240000000000000102e-01,-1.151810276426884216e-01,1.735619614871319327e-01,-9.654902020558492337e-02
3.250000000000000111e-01,1.481674592772618503e-02,1.647082622840160271e-01,-1.484736758701401260e-01
3.260000000000000120e-01,1.399687212795453495e-01,9.579337162792746219e-02,-1.553351511978824928e-01
3.270000000000000129e-01,2.105493523335595918e-01,-1.159287916195938725e-03,-1.379949641895500401e-01
3.280000000000000138e-01,2.366799985170862375e-01,-8.633727026951140693e-02,-4.928063782583651936e-02
3.290000000000000147e-01,1.917855956238162241e-01,-1.069589963204050642e-01,1.469760423489922113e-02
3.300000000000000155e-01,9.211555249671121715e-02,-1.404284454784485159e-01,9.012384012804255939e-02
3.310000000000000164e-01,-8.842849169547554664e-03,-1.061627492894395286e-01,1.377816636017323848e-01
3.320000000000000173e-01,-1.165183008422794320e-01,-6.054328834020841071e-02,1.461741207492401606e-01
3.330000000000000182e-01,-1.660305573749979724e-01,-1.073775777452791458e-02,1.088064662718100789e-01
3.340000000000000191e-01,-1.820616752017844009e-01,5.068975052484452765e-02,4.790622206732566418e-02
3.350000000000000200e-01,-1.611168828958721988e-01,6.727996010390566162e-02,-2.228793216571341856e-02
3.360000000000000209e-01,-6.676619618860438199e-02,8.908405263163854393e-02,-8.129109025410401201e-02
3.370000000000000218e-01,6.314950618359715592e-03,6.955605526607207267e-02,-1.205379051911055627e-01
3.380000000000000226e-01,7.669884572601032291e-02,4.145678649639162466e-02,-1.267945225667276299e-01
3.390000000000000235e-01,1.060681832005028191e-01,3.306636213576259059e-02,-8.843032388586387349e-02
3.400000000000000244e-01,1.249031224479309476e-01,5.099959342389954217e-05,-3.021547395333613883e-02
3.410000000000000253e-01,8.801115071134590906e-02,-3.561516293494998431e-02,2.440786466110316313e-02
3.420000000000000262e-01,6.422308461385148326e-02,-4.529856605934919761e-02,6.071832253603145352e-02
3.430000000000000271e-01,1.240055201858844026e-02,-4.289988499665839394e-02,8.830040990067479501e-02
3.439999999999999725e-01,-1.626044546118064413e-02,-5.055728475872918459e-02,7.977298530099961871e-02
3.449999999999999734e-01,-7.236056172304787537e-02,-4.166253450665848013e-02,6.076263997101801623e-02
3.459999999999999742e-01,-7.418903638889151608e-02,-3.448325550664843586e-02,3.900374647263352146e-02
3.469999999999999751e-01,-8.486465240940800625e-02,-3.481021052326747911e-02,-1.537642394647796302e-04
3.479999999999999760e-01,-6.886794919466587839e-02,-2.163771915643205451e-02,-2.455967773107898405e-02
3.489999999999999769e-01,-3.146989201119588381e-02,5.148430567489230801e-03,-3.392135812084878799e-02
3.499999999999999778e-01,-5.004921286583714768e-02,7.177578724319401415e-02,-5.017233802501382123e-02
3.509999999999999787e-01,-2.381212309024426446e-02,8.366840459459744250e-02,-2.823503204169139705e-02
3.519999999999999796e-01,4.468034517186700652e-03,1.050214066910514915e-01,-3.879423376289593134e-02
3.529999999999999805e-01,2.809532688197626318e-02,9.686506933492090854e-02,-1.706002397380510655e-02
3.539999999999999813e-01,6.850433909207490069e-02,3.745380934598697281e-02,-1.882078648761638384e-02
3.549999999999999822e-01,1.026283652128286983e-01,-1.629528816778954073e-02,-3.761971599928290444e-03
3.559999999999999831e-01,1.195891845076107324e-01,-7.796305816977582015e-02,1.582536642606800076e-02
3.569999999999999840e-01,1.007815048523015150e-01,-1.129309133649114977e-01,2.921587101311839615e-02
3.579999999999999849e-01,5.534621708495064685e-02,-1.429154235952859453e-01,4.141411464629504713e-02
3.589999999999999858e-01,-1.560717549470701584e-02,-1.372456525167374264e-01,4.712403475855593549e-02
3.599999999999999867e-01,-7.766438476570768079e-02,-7.539412647107578136e-02,6.420538358769266318e-02
3.609999999999999876e-01,-1.513173098892321156e-01,1.768144081838775653e-02,4.897160802015333020e-02
3.619999999999999885e-01,-1.704841235474292838e-01,1.012816736583738025e-01,4.458732565559922478e-02
3.629999999999999893e-01,-1.553912714628183644e-01,1.640473815832381443e-01,8.485226161042157267e-03
3.639999999999999902e-01,-8.303117607797408373e-02,1.843557884076757192e-01,-4.284671538427516080e-02
3.649999999999999911e-01,-5.341964825405646003e-03,1.454566069750656554e-01,-6.886846307796987143e-02
3.659999999999999920e-01,1.028557784034178080e-01,6.773479411401350792e-02,-9.941110860617749512e-02
3.669999999999999929e-01,1.947161484183314306e-01,-3.408600204725541205e-02,-8.842105479804636403e-02
3.679999999999999938e-01,2.318674552971658198e-01,-1.586094640633326502e-01,-5.588720453724982384e-02
3.689999999999999947e-01,2.008785588052243720e-01,-1.962502954591136828e-01,1.679095863979244638e-02
3.699999999999999956e-01,1.084546205250081774e-01,-2.041901498003901860e-01,5.831187123152423851e-02
3.709999999999999964e-01,-6.239782454132830440e-03,-1.618634879835186557e-01,1.042557163337456960e-01
3.719999999999999973e-01,-1.442012962674695531e-01,-5.869343829737824064e-02,1.298579140378728902e-01
3.729999999999999982e-01,-2.257760797213714810e-01,5.699113664953493752e-02,1.092551690777182755e-01
3.739999999999999991e-01,-2.649957788002669234e-01,1.476326832383541843e-01,6.530186939287839498e-02
3.750000000000000000e-01,-2.113824877404574532e-01,2.019801759216391657e-01,-3.318047855475241177e-03
3.760000000000000009e-01,-1.163629216552089646e-01,2.097851519278106369e-01,-6.136070727245104134e-02
3.770000000000000018e-01,3.361570044377400202e-02,1.592342506562094695e-01,-1.186748239869404448e-01
3.780000000000000027e-01,1.708836502929035883e-01,4.273673341713662976e-02,-1.395366538773460396e-01
3.790000000000000036e-01,2.740638738979361277e-01,-7.063728746562174254e-02,-1.411142105171515060e-01
3.800000000000000044e-01,2.679631034826481240e-01,-1.818741672903896600e-01,-9.254423443949308381e-02
3.810000000000000053e-01,2.352765940129026012e-01,-2.216038579593016811e-01,-5.003771514752804357e-03
3.820000000000000062e-01,1.015341175767552617e-01,-2.009992186164556438e-01,7.448787532636010067e-02
3.830000000000000071e-01,-5.943288870575298699e-02,-1.397815704172048201e-01,1.352243438154698274e-01
3.840000000000000080e-01,-1.833213622303266899e-01,-4.854140595529751051e-02,1.692254509988597722e-01
3.850000000000000089e-01,-2.673275875484567576e-01,8.138373637742818412e-02,1.320677081816498122e-01
3.860000000000000098e-01,-2.676609416089217874e-01,1.547491017296006577e-01,8.961045601698845731e-02
3.870000000000000107e-01,-1.963090886665142809e-01,2.061300131304207861e-01,6.910242126911927615e-03
3.880000000000000115e-01,-7.400492714466269661e-02,1.724428353282911608e-01,-7.390152024809201747e-02
3.890000000000000124e-01,6.159475022055271171e-02,1.010626858370663600e-01,-1.492539846099448231e-01
3.900000000000000133e-01,1.691984369232918672e-01,1.861714268787824367e-02,-1.590574046392236596e-01
3.910000000000000142e-01,2.395862554400357836e-01,-7.672809793328090600e-02,-1.397764447752141703e-01
3.920000000000000151e-01,2.452795846710738581e-01,-1.441104825025567304e-01,-8.991997634125542538e-02
3.930000000000000160e-01,1.810417646773629097e-01,-1.544901899712399773e-01,-7.682307691885833546e-03
3.940000000000000169e-01,6.658026273464220934e-02,-1.392142246412567397e-01,8.432675666588010377e-02
3.950000000000000178e-01,-7.187856948465339013e-02,-8.357652374516591487e-02,1.552398903449879741e-01
3.960000000000000187e-01,-1.664500952075963491e-01,-6.491049788388653444e-03,1.688390658993273175e-01
3.970000000000000195e-01,-2.119084437564597023e-01,8.155085070152844062e-02,1.233745843055596841e-01
3.980000000000000204e-01,-2.111149504693368983e-01,1.021838770479195219e-01,6.833412242353606447e-02
3.990000000000000213e-01,-1.284694519571217275e-01,1.208014928630446044e-01,-2.421580154851884028e-04
4.000000000000000222e-01,-4.215190133929675592e-02,8.923246800346384955e-02,-6.523696566081876869e-02
4.010000000000000231e-01,5.671906060938788907e-02,5.773277259048151949e-02,-1.414435436064476193e-01
4.020000000000000240e-01,1.408407993013392201e-01,1.369594935153801464e-02,-1.448750995045739176e-01
4.030000000000000249e-01,1.582691175034105502e-01,-2.848917974939287404e-02,-1.067431505201074798e-01
4.040000000000000258e-01,1.651122630977424621e-01,-6.089705533146971828e-02,-5.784574659249483441e-02
4.050000000000000266e-01,9.466493181090721021e-02,-6.627715502733626252e-02,-5.924799986670143716e-03
4.060000000000000275e-01,5.798679741729172166e-02,-6.148175625882435630e-02,5.103519118579577518e-02
4.069999999999999729e-01,-3.547641574677613818e-02,-4.270562791536649389e-02,8.963517699373525771e-02
4.079999999999999738e-01,-8.091838276975400757e-02,-3.029810943653702543e-02,1.106513032604154456e-01
4.089999999999999747e-01,-1.040717417153345786e-01,-9.465863788738773654e-03,8.841726885049706885e-02
4.099999999999999756e-01,-1.028442819948763992e-01,-7.129297423621689528e-03,5.393330301989148617e-02
4.109999999999999765e-01,-6.460623746622733143e-02,1.195480175973617949e-02,1.655070314280338364e-02
4.119999999999999774e-01,-4.304971350626713572e-02,2.728256451647943781e-02,-3.347208417275317899e-02
4.129999999999999782e-01,-1.377666742743608418e-02,5.115745038772332581e-02,-6.474866264335114863e-02
4.139999999999999791e-01,5.861423717135171713e-03,5.414715684083641623e-02,-6.484155457995363636e-02
4.149999999999999800e-01,3.222116136621334254e-02,6.081804678061648872e-02,-7.700801069945309441e-02
4.159999999999999809e-01,4.046079541093060977e-02,4.824038652782367681e-02,-2.851185660401726191e-02
4.169999999999999818e-01,5.738734146331276459e-02,2.922728232715539332e-02,-2.595873909922971970e-02
4.179999999999999827e-01,5.317558933645397806e-02,-1.442885556543731067e-02,-4.966739234857965070e-03
4.189999999999999836e-01,6.075063589204467152e-02,-6.967929485601496997e-02,2.884436871926349816e-02
4.199999999999999845e-01,6.051239338221433423e-02,-1.105083589415029044e-01,3.896076175688998472e-02
4.209999999999999853e-01,4.505525889655345728e-02,-1.142541387905390282e-01,2.442055986111742877e-02
4.219999999999999862e-01,9.566571450802436455e-03,-1.174247932754342444e-01,3.500161410727659766e-02
4.229999999999999871e-01,-4.264547534096090053e-02,-4.793133385527861834e-02,3.376979013376533306e-02
4.239999999999999880e-01,-8.954790528418944684e-02,1.223322999125945644e-02,3.079133874318360289e-02
4.249999999999999889e-01,-1.320894259099774370e-01,9.490939500470924051e-02,2.595694947506204178e-02
4.259999999999999898e-01,-1.342941015361376889e-01,1.357382967817122310e-01,2.035748700702478750e-02
4.269999999999999907e-01,-9.035041615937877690e-02,1.550670170138516712e-01,-1.383286710720820455e-02
4.279999999999999916e-01,-4.479670964234432756e-02,1.398654214291776554e-01,-4.515337508345419748e-02
4.289999999999999925e-01,4.619209302123669647e-02,6.170017701659238907e-02,-5.916035268056334118e-02
4.299999999999999933e-01,1.165211451737017539e-01,-2.189453319795286665e-02,-6.673968318525247412e-02
4.309999999999999942e-01,1.775356887549852936e-01,-1.133127081959825061e-01,-6.133864024842624468e-02
4.319999999999999951e-01,1.974915246687448944e-01,-1.968822953666219400e-01,-4.528770094935100771e-02
4.329999999999999960e-01,1.464586327748961248e-01,-1.845394321276888350e-01,-1.510708318010090846e-02
4.339999999999999969e-01,5.704745282301387083e-02,-1.469800630605569980e-01,3.280409688941827995e-02
4.349999999999999978e-01,-7.559546759685456530e-02,-6.711396087745133410e-02,7.551511902224797290e-02
4.359999999999999987e-01,-1.681136295199315012e-01,5.512594475792555876e-02,9.287428874634374998e-02
4.369999999999999996e-01,-2.311871245950842813e-01,1.560987341389722671e-01,1.070823896711867868e-01
4.380000000000000004e-01,-2.312744304558463082e-01,2.002669604782854329e-01,8.321963492860516565e-02
4.390000000000000013e-01,-1.511459437519884763e-01,2.040303873956212377e-01,3.046131019552645453e-02
4.400000000000000022e-01,-7.025082578817180845e-02,1.615037469524746305e-01,-5.967425056849229997e-02
4.410000000000000031e-01,6.611618785777603757e-02,4.562009216182390248e-02,-1.027081824782459935e-01
4.420000000000000040e-01,1.961296248109027640e-01,-6.362503516194834008e-02,-1.245353197231482828e-01
4.430000000000000049e-01,2.652340734748860895e-01,-1.897499955081602130e-01,-1.381596073301463445e-01
4.440000000000000058e-01,2.519565376075288965e-01,-2.143042824287238468e-01,-1.036474125849714129e-01
4.450000000000000067e-01,1.841572255394139657e-01,-1.966236318756499346e-01,-3.031083574221772950e-02
4.460000000000000075e-01,3.533451010974374140e-02,-1.321479691036213655e-01,5.084924299296130629e-02
4.470000000000000084e-01,-1.050952858022099895e-01,-2.307841504894802762e-02,1.049021323486004076e-01
4.480000000000000093e-01,-2.065137999084899756e-01,8.647533896116056662e-02,1.429661155842280040e-01
4.490000000000000102e-01,-2.773121080267659244e-01,1.773822243296886425e-01,1.511968550350192564e-01
4.500000000000000111e-01,-2.512010861915864313e-01,2.178008581099915297e-01,1.085448241235449918e-01
4.510000000000000120e-01,-1.670608215520528461e-01,1.978114015656520785e-01,5.649370422002580362e-03
4.520000000000000129e-01,-3.035566965105088166e-02,1.066328913730638511e-01,-5.447197296148659912e-02
4.530000000000000138e-01,1.229500376395454980e-01,1.792349680581037386e-02,-1.242052932095057682e-01
4.540000000000000147e-01,2.344140725124289615e-01,-7.158208174610007635e-02,-1.695754768142212487e-01
4.550000000000000155e-01,2.919874403076881952e-01,-1.607032174252393253e-01,-1.523835246727277826e-01
4.560000000000000164e-01,2.456040840388942770e-01,-1.758815020775532367e-01,-1.010420492827361211e-01
4.570000000000000173e-01,1.410126920083120683e-01,-1.664783959912214395e-01,-1.255888345492290822e-02
4.580000000000000182e-01,2.186778872409472774e-02,-8.030599509286716342e-02,6.207630642936051019e-02
4.590000000000000191e-01,-1.056533284346006935e-01,-1.160830473841623078e-02,1.266691122332691544e-01
4.600000000000000200e-01,-2.044073280592256792e-01,8.390128021674307657e-02,1.580155651637651648e-01
4.610000000000000209e-01,-2.290082282731864816e-01,1.231635401246057582e-01,1.547639459285485852e-01
4.620000000000000218e-01,-2.226571296467666217e-01,1.274398841776604729e-01,1.063271479419133081e-01
4.630000000000000226e-01,-1.343063141168086283e-01,1.180260451682529355e-01,4.526838790079557723e-02
4.640000000000000235e-01,-1.838680426018936796e-03,6.131009307375818312e-02,-6.577195577910517621e-02
4.650000000000000244e-01,9.492635637997275111e-02,4.389073809348718533e-03,-1.132857732763168784e-01
4.660000000000000253e-01,1.704729021229877683e-01,-7.298986169103045818e-02,-1.486027019459807419e-01
4.670000000000000262e-01,1.943649172296816885e-01,-9.344611987529227726e-02,-1.466471880858571386e-01
4.680000000000000271e-01,1.432091300668550671e-01,-1.033674560371231899e-01,-7.566495982842169621e-02
4.689999999999999725e-01,9.051899393238645175e-02,-7.910352942994769432e-02,-1.794641494956745326e-02
4.699999999999999734e-01,9.198433292707317369e-03,-4.956333911649637991e-02,6.938533503073004982e-02
4.709999999999999742e-01,-7.133672779078278903e-02,-2.663132497792890935e-02,1.013677151009244742e-01
4.719999999999999751e-01,-1.408722042148003450e-01,8.672055930307261476e-03,1.323514759089282899e-01
4.729999999999999760e-01,-1.341667271284134599e-01,5.176121792674509559e-02,1.057773216404731681e-01
4.739999999999999769e-01,-1.095153858594722501e-01,5.307559817441954986e-02,6.659345286847719037e-02
4.749999999999999778e-01,-6.156720049619764101e-02,3.310002822550995455e-02,1.706665435745765430e-02
4.759999999999999787e-01,-1.396006570908357725e-02,3.890791392774238522e-02,-2.482737724582107300e-02
4.769999999999999796e-01,2.906839837318394432e-02,2.974577585915112038e-02,-6.687685056802478156e-02
4.779999999999999805e-01,6.368054711223439246e-02,3.263754004651338303e-02,-7.292698276692861914e-02
4.789999999999999813e-01,6.741896656437557089e-02,8.753023387551099252e-03,-8.634374385654236539e-02
4.799999999999999822e-01,6.825950264839461545e-02,8.595080721884976876e-03,-5.394522960308133219e-02
4.809999999999999831e-01,5.794238349735546245e-02,-1.220977956838993628e-02,-3.140007296049693308e-02
4.819999999999999840e-01,4.430481583444551702e-02,-6.909222128098291282e-02,1.768926345245196499e-02
4.829999999999999849e-01,4.377822049873823090e-02,-9.418814907954270454e-02,4.976560629022279414e-02
4.839999999999999858e-01,1.512124961402977821e-02,-7.933363687904243511e-02,4.642818649920190527e-02
4.849999999999999867e-01,-1.449741474729151006e-02,-8.578633540290947490e-02,5.296794444824791392e-02
4.859999999999999876e-01,-2.894812819004434837e-02,-3.831695179403180052e-02,3.937729531283425816e-02
4.869999999999999885e-01,-6.494025745628945190e-02,2.003593966060891740e-02,2.819049684560864452e-02
4.879999999999999893e-01,-7.739823904684212108e-02,7.207249649801367175e-02,2.675356401569251377e-02
4.889999999999999902e-01,-9.013293541848164947e-02,1.436561471529091416e-01,-2.173664271600647853e-03
4.899999999999999911e-01,-9.511021049674614480e-02,1.267800270757141468e-01,-1.299071620369802310e-02
4.909999999999999920e-01,-6.950671189648138792e-02,1.487718154158104988e-01,-2.265440097427488808e-02
4.919999999999999929e-01,-2.744682141870741308e-03,5.385588215963722780e-02,-3.619586540706175304e-02
4.929999999999999938e-01,7.828771058129577187e-02,-2.699293741986739589e-02,-4.318290917183977007e-02
4.939999999999999947e-01,1.066889332692686071e-01,-1.018672336677255985e-01,-4.701265396577372635e-02
4.949999999999999956e-01,1.599622254903959595e-01,-1.685640855845085828e-01,-4.265001457718791550e-02
4.959999999999999964e-01,1.366608506356745412e-01,-1.709368755906968962e-01,-2.909933125463071493e-02
4.969999999999999973e-01,9.657101382941150891e-02,-1.480462541555500611e-01,-4.197917281748466366e-03
4.979999999999999982e-01,1.570622764556534393e-02,-5.656885895914798290e-02,1.645124244848731460e-02
4.989999999999999991e-01,-8.696923620791865983e-02,4.695284642824647942e-02,5.476523134171161489e-02
5.000000000000000000e-01,-1.658807372911317302e-01,1.631738607995669443e-01,6.465293693763561611e-02
5.010000000000000009e-01,-2.334716112738365046e-01,2.082446510015415753e-01,7.855909918549086601e-02
5.020000000000000018e-01,-1.909998125212510334e-01,1.928139790428684275e-01,7.628964247022045064e-02
5.030000000000000027e-01,-1.241600961796936325e-01,1.383827894945813541e-01,2.386970054123079693e-02
5.040000000000000036e-01,-1.827133246612923324e-03,4.889898977248586381e-02,-2.547873063721047687e-02
5.050000000000000044e-01,1.014320373565032601e-01,-6.622777936760793072e-02,-8.417556616657763391e-02
5.060000000000000053e-01,2.192466801413172073e-01,-1.544393314921083948e-01,-9.438886012880057241e-02
5.070000000000000062e-01,2.407430656430413207e-01,-1.916875949426079251e-01,-1.209073478948046176e-01
5.080000000000000071e-01,2.311725101878721877e-01,-2.109383930587800937e-01,-9.834694297910384631e-02
5.090000000000000080e-01,1.275468806756062112e-01,-1.428346379146815670e-01,-4.184614591422671642e-02
5.100000000000000089e-01,8.048699801187929673e-03,-3.083699108893737592e-02,3.133166534170925277e-02
5.110000000000000098e-01,-1.359267967951927059e-01,1.037779672016690968e-01,8.320809200219415891e-02
5.120000000000000107e-01,-2.360378252779259667e-01,1.777224972399020775e-01,1.503231206163841149e-01
5.130000000000000115e-01,-2.728708946564485927e-01,2.117274629468472169e-01,1.485377181379360922e-01
5.140000000000000124e-01,-2.306925167464075055e-01,1.868722743228004302e-01,1.171416279640026259e-01
5.150000000000000133e-01,-1.201641281705306263e-01,1.255117472348933616e-01,4.250018042371019045e-02
5.160000000000000142e-01,2.849790466734818464e-02,2.665116840184728400e-02,-3.907342280201658857e-02
5.170000000000000151e-01,1.759616730216344016e-01,-1.036034645089688039e-01,-1.202225953944888737e-01
5.180000000000000160e-01,2.519000458646526441e-01,-1.817034405260626040e-01,-1.621216660259693354e-01
5.190000000000000169e-01,2.797006633004535114e-01,-2.177025193383525514e-01,-1.847230327629577340e-01
5.200000000000000178e-01,2.343986634936099100e-01,-1.628273418416323337e-01,-1.066352583806324805e-01
5.210000000000000187e-01,1.043127897870262527e-01,-9.214315763407888993e-02,-5.155405784733088637e-02
5.220000000000000195e-01,-2.761178355294847259e-02,-8.048726217163300334e-03,3.880168882612572423e-02
5.230000000000000204e-01,-1.568835609262933806e-01,1.013750236273781025e-01,1.122855155276638456e-01
5.240000000000000213e-01,-2.363943786229825705e-01,1.582984244671886698e-01,1.745075974371398109e-01
5.250000000000000222e-01,-2.612965685551468242e-01,1.750680158339847081e-01,1.670745523294012713e-01
5.260000000000000231e-01,-2.025626685704671470e-01,1.228709210282885045e-01,1.340467383913064581e-01
5.270000000000000240e-01,-1.028024709837916800e-01,4.819341368272527654e-02,5.549651154748376503e-02
5.280000000000000249e-01,3.575431354513555759e-02,-3.261134873072865908e-03,-4.603005856132306312e-02
5.290000000000000258e-01,1.438702327475311904e-01,-7.716649401325217927e-02,-1.126522218747487009e-01
5.300000000000000266e-01,2.209516543860426951e-01,-1.311974964240248120e-01,-1.587465766472758721e-01
5.310000000000000275e-01,2.060830045290951984e-01,-1.311904278431388904e-01,-1.592272728311250884e-01
5.320000000000000284e-01,1.668598222259249919e-01,-1.043805170871589666e-01,-1.157307315923703367e-01
5.330000000000000293e-01,7.598833618980969928e-02,-5.604599042944252707e-02,-4.909627615513438570e-02
5.340000000000000302e-01,-3.170693017818215775e-02,-5.137333892258259468e-03,4.270988764126718018e-02
5.350000000000000311e-01,-9.565673206025146480e-02,5.397451646625130856e-02,1.239096145811066640e-01
5.360000000000000320e-01,-1.585756072872292199e-01,7.584326895379127353e-02,1.442629011052033172e-01
5.370000000000000329e-01,-1.550648547340109928e-01,8.950159049103274811e-02,1.301189129518453280e-01
5.380000000000000338e-01,-1.341801794186862906e-01,5.782588165487500403e-02,9.809989326794342490e-02
5.390000000000000346e-01,-6.988811175119087615e-02,2.311300116597900592e-02,3.595539255401408035e-02
5.400000000000000355e-01,1.893351617317649838e-02,2.922069457317870433e-02,-2.988560874371360213e-02
5.410000000000000364e-01,6.106473300902157120e-02,-3.292887907104879042e-03,-8.441543750598665130e-02
5.420000000000000373e-01,1.036305242890946110e-01,-1.685622705847598696e-04,-1.264313484330363280e-01
5.430000000000000382e-01,1.128226971650309468e-01,-3.200000566724503503e-02,-1.134741132058504354e-01
5.440000000000000391e-01,7.644107838021022006e-02,-3.585939217595179168e-02,-9.162797599657894476e-02
5.450000000000000400e-01,7.069717912128274662e-02,-6.263571226027063454e-02,-3.974908213359296810e-02
5.460000000000000409e-01,9.322776878111983800e-03,-4.789393954835020201e-02,1.759645755192780145e-02
5.470000000000000417e-01,-2.671729629533184727e-02,-4.918275797714004999e-02,5.648326632212329057e-02
5.480000000000000426e-01,-1.894590194525693980e-02,-5.720794341271147332e-02,7.180761769514104609e-02
5.490000000000000435e-01,-4.712095191063701144e-02,-8.995398042211472101e-03,6.067477134594664867e-02
5.500000000000000444e-01,-5.192574066397773191e-02,1.253304912753511885e-02,6.152265059345651127e-02
5.510000000000000453e-01,-4.963095768600173097e-02,6.231929996959254675e-02,2.796300712929566251e-02
5.520000000000000462e-01,-3.926897323290785835e-02,9.594047578457606806e-02,2.151382672102084351e-02
5.530000000000000471e-01,-4.350269511639013459e-02,9.633790761150827497e-02,-1.635963578737570021e-02
5.540000000000000480e-01,-4.597576889929835126e-02,9.331516591891204915e-02,-1.891102804905088822e-02
5.550000000000000488e-01,-3.140231175808164306e-03,3.664947111954582754e-02,-3.697562690648668188e-02
5.560000000000000497e-01,5.549644157611979128e-02,-1.099797389718055671e-02,-3.800499534548995584e-02
5.570000000000000506e-01,7.884104842968125970e-02,-9.739521685488068681e-02,-4.019640437153670226e-02
5.580000000000000515e-01,1.184611803625600507e-01,-1.520391123987364923e-01,-2.364459143155760862e-02
5.590000000000000524e-01,1.298714651182027724e-01,-1.575662569799770318e-01,-2.980212636775081414e-02
5.600000000000000533e-01,1.011459699183408223e-01,-1.116613051730135503e-01,-1.251488939263869539e-02
5.610000000000000542e-01,4.295196776091540769e-02,-5.020492386106818750e-02,4.572525330217669208e-03
5.620000000000000551e-01,-3.308243395598790826e-02,5.652608040853315807e-02,2.341378686231430570e-02
5.629999999999999449e-01,-1.170903246088703942e-01,1.216791766834688510e-01,4.430939274022497459e-02
5.639999999999999458e-01,-1.520708865219231876e-01,1.898664866139041507e-01,5.993581329770844568e-02
5.649999999999999467e-01,-1.800304469731809631e-01,1.867104701332342742e-01,5.226258072451391706e-02
5.659999999999999476e-01,-1.477440504236322283e-01,1.428218802024215361e-01,5.053819767558413029e-02
5.669999999999999485e-01,-6.654049884223603439e-02,4.890596578283420981e-02,2.780762130623973261e-02
5.679999999999999494e-01,4.134490885479444322e-02,-5.500181479083472713e-02,-7.175049966537031150e-03
5.689999999999999503e-01,1.335437313905077916e-01,-1.603491897473746930e-01,-6.613512589136667785e-02
5.699999999999999512e-01,2.142193351706704885e-01,-2.204598169162636789e-01,-1.026962609918222885e-01
5.709999999999999520e-01,2.206878282808949487e-01,-2.169778662658556068e-01,-1.055718634744148149e-01
5.719999999999999529e-01,1.672247210240621895e-01,-1.488205864013114610e-01,-7.671070775782055928e-02
5.729999999999999538e-01,7.446984105903681206e-02,-4.337423899468311611e-02,-4.234944468720614613e-02
5.739999999999999547e-01,-6.833398101135816638e-02,8.966623106973103940e-02,7.445382382014833784e-04
5.749999999999999556e-01,-1.700169250756356221e-01,1.807003747924456338e-01,7.849200267152067756e-02
5.759999999999999565e-01,-2.433199027956440830e-01,2.329959387915393199e-01,1.118589647298334627e-01
5.769999999999999574e-01,-2.644481668968668986e-01,1.984207955346066476e-01,1.216465045546897134e-01
5.779999999999999583e-01,-1.842569603277280366e-01,1.248248760327122647e-01,1.156774984396382738e-01
5.789999999999999591e-01,-6.799549381925508451e-02,-9.863173827543815844e-03,7.124898613875836617e-02
5.799999999999999600e-01,6.426779004881477686e-02,-9.111454570513555229e-02,-1.408253143938205734e-02
5.809999999999999609e-01,2.084094343073924493e-01,-1.908424982925483737e-01,-8.523791004822382777e-02
5.819999999999999618e-01,2.641240878494933164e-01,-2.164773727680532334e-01,-1.411777300255603607e-01
5.829999999999999627e-01,2.563561953229442913e-01,-1.952825367350117247e-01,-1.544122134649668909e-01
5.839999999999999636e-01,2.047739726408666916e-01,-9.153761387219058743e-02,-1.314710274400007206e-01
5.849999999999999645e-01,6.777304144775740669e-02,1.198171879752317655e-02,-7.512180090311208758e-02
5.859999999999999654e-01,-7.945869996395636681e-02,1.138717816679356981e-01,1.681676038549389032e-02
5.869999999999999662e-01,-1.922874864389495508e-01,1.756343514007024376e-01,9.448028077208883713e-02
5.879999999999999671e-01,-2.761208195655911468e-01,1.767242372595876632e-01,1.469574903248044850e-01
5.889999999999999680e-01,-2.480285555161606259e-01,1.455579520353804668e-01,1.632532621713860821e-01
5.899999999999999689e-01,-1.714322428406760412e-01,7.635136595376236512e-02,1.484500638209138301e-01
5.909999999999999698e-01,-4.283101084944772319e-02,-1.838137861204703792e-04,7.786314461962756672e-02
5.919999999999999707e-01,8.074357915234482708e-02,-9.473673663969690850e-02,-1.398336931321647603e-02
5.929999999999999716e-01,2.021363746545376538e-01,-1.426519676210636633e-01,-9.152208524402165313e-02
5.939999999999999725e-01,2.686592232070086350e-01,-1.326285389817061233e-01,-1.552125914181034794e-01
5.949999999999999734e-01,2.249472311070335184e-01,-1.014573054879579772e-01,-1.671182604389727933e-01
5.959999999999999742e-01,1.461095268625816623e-01,-4.870178462856868118e-02,-1.313815338192106941e-01
5.969999999999999751e-01,1.633151333046345410e-02,9.641560537314589063e-03,-6.938084998203679354e-02
5.979999999999999760e-01,-8.574345725889208347e-02,8.227638910574405773e-02,1.707669309422523568e-02
5.989999999999999769e-01,-1.667500350049484492e-01,8.711202818247389124e-02,8.203966954024628777e-02
5.999999999999999778e-01,-2.019837441232598951e-01,9.889404236358935452e-02,1.510301764331238028e-01
6.009999999999999787e-01,-1.802281814368790480e-01,7.785695391003558119e-02,1.544688733640054157e-01
6.019999999999999796e-01,-1.189273771923622519e-01,5.311009351301673037e-02,1.034200571735436475e-01
6.029999999999999805e-01,-1.573152506101773915e-02,1.537082927048702289e-03,6.841949442615687105e-02
6.039999999999999813e-01,7.575180515833636330e-02,-2.657503729115555380e-02,-2.818377316368272587e-02
6.049999999999999822e-01,1.264937769127132683e-01,-5.139544448975839203e-02,-8.292882640597284971e-02
6.059999999999999831e-01,1.525832287016688771e-01,-4.005489020516996707e-02,-1.109029905519759024e-01
6.069999999999999840e-01,1.275922808743861492e-01,-3.417205984171627076e-02,-1.292641579076927172e-01
6.079999999999999849e-01,9.291522738825976069e-02,-4.458859285514073928e-02,-9.724107642712961908e-02
6.089999999999999858e-01,2.332541711572174228e-02,-4.566250857441631755e-02,-5.232582783829613227e-02
6.099999999999999867e-01,-3.568504978140220329e-02,-2.913455630994088788e-02,6.991642658581554261e-04
6.109999999999999876e-01,-6.780938280739334800e-02,-1.570247634706642761e-02,5.029716892763938518e-02
6.119999999999999885e-01,-8.850059341482575948e-02,7.523226285024550881e-04,9.440769370728563370e-02
6.129999999999999893e-01,-6.973193344710851282e-02,4.205217608723949702e-02,8.750306658525415504e-02
6.139999999999999902e-01,-6.835935436280828059e-02,6.051760867087017243e-02,5.755073163245440909e-02
6.149999999999999911e-01,-4.417805893045329002e-02,8.049243123874666450e-02,2.957115118002178258e-02
6.159999999999999920e-01,1.181451730372169674e-03,8.262249042778190000e-02,-1.702726127060992176e-02
6.169999999999999929e-01,-1.271424186618374044e-02,5.379279558488835045e-02,-2.301662017295538071e-02
6.179999999999999938e-01,-1.057350904061124227e-03,1.449669221512576989e-02,-6.680970752903463150e-02
6.189999999999999947e-01,4.465308889770684686e-02,-2.209290278741596336e-02,-5.838876344324495093e-02
6.199999999999999956e-01,5.794441512752081247e-02,-9.792194808450910282e-02,-6.713565544104273253e-02
6.209999999999999964e-01,6.810048768665466490e-02,-1.316863473064380785e-01,-3.742583787881791774e-02
6.219999999999999973e-01,8.023478696668980004e-02,-1.262762638952054373e-01,-1.719113509303130116e-02
6.229999999999999982e-01,9.486126715384049501e-02,-8.442746956499259936e-02,2.344111617810085060e-03
6.239999999999999991e-01,4.083706434583971728e-02,-4.677466623125711015e-02,1.170037583258649871e-02
6.250000000000000000e-01,1.009807533907422505e-02,4.711098758878207865e-02,8.105663034809680242e-03
6.260000000000000009e-01,-5.505134262281287383e-02,1.063288262831115216e-01,2.292825751957446034e-02
6.270000000000000018e-01,-1.237287539383957469e-01,1.627901962924443446e-01,3.489513672736027639e-02
6.280000000000000027e-01,-1.463448629810150392e-01,1.711284384255516711e-01,3.834662507795642133e-02
6.290000000000000036e-01,-1.424926666434382927e-01,1.178514155172102201e-01,2.092675896239907379e-02
6.300000000000000044e-01,-1.015099562546216277e-01,4.563836939636952555e-02,2.547517419805434002e-02
6.310000000000000053e-01,-2.353153919207087025e-02,-4.456844672062221929e-02,6.088084776461821605e-03
6.320000000000000062e-01,6.804968412699363700e-02,-1.394512949642418842e-01,-1.704585519679903752e-02
6.330000000000000071e-01,1.522982816121052629e-01,-2.132226316999915605e-01,-3.731783101954511128e-02
6.340000000000000080e-01,2.024332331996908374e-01,-2.000162113520330964e-01,-6.687241868938166578e-02
6.350000000000000089e-01,2.075087750205724391e-01,-1.398211221817831640e-01,-8.768793302872054940e-02
6.360000000000000098e-01,1.384308590950029949e-01,-3.987996105823102266e-02,-6.811903765335625138e-02
6.370000000000000107e-01,2.070887316204019987e-02,7.416992272916657358e-02,-4.069373175308352297e-02
6.380000000000000115e-01,-9.400808754698361525e-02,1.754264383958150098e-01,9.374554113102315928e-03
6.390000000000000124e-01,-1.713677350556476187e-01,2.261679709548742034e-01,3.993952737143539877e-02
6.400000000000000133e-01,-2.350691512821084794e-01,2.137055498928534802e-01,9.340339231634794959e-02
6.410000000000000142e-01,-2.382751984578235227e-01,1.218262564207670956e-01,1.082199816346778448e-01
6.420000000000000151e-01,-1.501949672761261623e-01,3.051709961145630118e-02,1.157160690514566492e-01
6.430000000000000160e-01,-3.547870090156867579e-02,-9.416741021593538763e-02,7.121548594245753760e-02
6.440000000000000169e-01,1.089163941884292580e-01,-1.937489477598942356e-01,1.040737291705325258e-02
6.450000000000000178e-01,2.353581059462447334e-01,-2.018941487660329548e-01,-5.868848003521406897e-02
6.460000000000000187e-01,2.748037238658666004e-01,-2.060248747298129290e-01,-1.063368892890088208e-01
6.470000000000000195e-01,2.477864736492865760e-01,-1.039869263752051382e-01,-1.530103509930301475e-01
6.480000000000000204e-01,1.454150937517065256e-01,-6.424717751727118849e-03,-1.330571966585935573e-01
6.490000000000000213e-01,1.123153998852871073e-02,1.198319432862269551e-01,-9.949057963454153997e-02
6.500000000000000222e-01,-1.263277037799233060e-01,1.750921477938807425e-01,-1.204513604330539195e-02
6.510000000000000231e-01,-2.197631640673520237e-01,2.116142717994942135e-01,5.656351647751813039e-02
6.520000000000000240e-01,-2.789751080703547492e-01,1.650242431462505821e-01,1.319830438896760771e-01
6.530000000000000249e-01,-2.444723124571552830e-01,8.781303069442457365e-02,1.641989503176066456e-01
6.540000000000000258e-01,-1.490908223411517852e-01,-1.135425974968607039e-02,1.544727305238831894e-01
6.550000000000000266e-01,1.067284340255445288e-03,-1.156464843580021079e-01,9.953613349821296974e-02
6.560000000000000275e-01,1.389670780637835279e-01,-1.627378884218783628e-01,-4.943445564180831697e-03
6.570000000000000284e-01,2.382915403394790799e-01,-1.744366288663977416e-01,-8.355378363910960504e-02
6.580000000000000293e-01,2.710573147482998602e-01,-1.289847482517186561e-01,-1.161518022271775391e-01
6.590000000000000302e-01,2.028751444361575340e-01,-5.375209685105911128e-02,-1.669703166728944699e-01
6.600000000000000311e-01,1.022592644441256970e-01,2.618764656425605353e-02,-1.293242204497394854e-01
6.610000000000000320e-01,-6.332066390206589172e-03,9.135978163963312526e-02,-9.761756124016172931e-02
6.620000000000000329e-01,-1.069265404472469205e-01,1.287621943875686403e-01,-1.184245428100328193e-03
6.630000000000000338e-01,-2.135304077063038819e-01,1.339908168621927742e-01,7.408980466904552253e-02
6.640000000000000346e-01,-2.280992463601797249e-01,8.562322984378278878e-02,1.354524857779436653e-01
6.650000000000000355e-01,-1.748760503089010210e-01,5.389957223284290444e-02,1.563510688896805334e-01
6.660000000000000364e-01,-9.235844649722799171e-02,-6.609706928955994508e-03,1.335739885384025216e-01
6.670000000000000373e-01,1.743955667785470828e-02,-4.181596341708756354e-02,7.772936856889230139e-02
6.680000000000000382e-01,1.207824025156566117e-01,-8.863696151325807515e-02,4.282289754250766549e-04
6.690000000000000391e-01,1.584858402713217040e-01,-6.708329181659487828e-02,-8.185021109706357156e-02
6.700000000000000400e-01,1.784084565353445950e-01,-6.171146298942864483e-02,-1.169699732274279841e-01
6.710000000000000409e-01,1.370950262887518922e-01,-3.498092764828272111e-02,-1.559346559999508219e-01
6.720000000000000417e-01,6.469741548281207622e-02,-5.926187036780613572e-03,-1.286433289770479160e-01
6.730000000000000426e-01,-5.926400572375137375e-04,4.299597941256940066e-03,-8.439399580740408746e-02
6.740000000000000435e-01,-5.842552756444543971e-02,2.683735023259404759e-02,-3.328842332651670791e-03
6.750000000000000444e-01,-1.215249339605351669e-01,2.593025177749883059e-02,5.866634847042545564e-02
6.760000000000000453e-01,-1.097314418047200396e-01,5.772217845300796346e-02,1.037545402530829775e-01
6.770000000000000462e-01,-9.574785443293000464e-02,3.955587924584271636e-02,1.246560070650708368e-01
6.780000000000000471e-01,-6.690252885813950667e-02,6.232887077728514746e-02,9.889664475733764282e-02
6.790000000000000480e-01,-7.685748463865675097e-03,3.599141671574944412e-02,5.580662038414810344e-02
6.800000000000000488e-01,1.975612330131256561e-02,2.477521584694452814e-02,7.601663958662388879e-03
6.810000000000000497e-01,4.295336431545108968e-02,3.188503280167581493e-03,-3.647276161594083244e-02
6.820000000000000506e-01,5.688406711736761906e-02,-2.246601492521047710e-02,-6.925681123513403870e-02
6.830000000000000515e-01,5.510865751399315199e-02,-6.265319706202211736e-02,-9.226877698475872969e-02
6.840000000000000524e-01,7.244444160349307327e-02,-8.974920443153029670e-02,-6.726093922866642483e-02
6.850000000000000533e-01,4.620836583257099256e-02,-1.125201791758007053e-01,-3.872536414784479020e-02
6.860000000000000542e-01,3.733320063094913710e-02,-8.759012229096270474e-02,-7.606707939959842478e-03
6.870000000000000551e-01,2.941641533243641304e-02,-3.230068138674901251e-02,2.492503743747462655e-02
6.879999999999999449e-01,-1.004046312126120021e-02,4.934578156355553386e-02,2.883496685385950400e-02
6.889999999999999458e-01,-3.218045645119007453e-02,1.032384241110924916e-01,4.727712174151395275e-02
6.899999999999999467e-01,-6.224324867967386682e-02,1.380652420759704291e-01,2.955558456590454824e-02
6.909999999999999476e-01,-9.356435161914997134e-02,1.540324387199585865e-01,4.418575844119924934e-02
6.919999999999999485e-01,-1.139384103296803147e-01,1.178141301135706281e-01,4.360257068292554966e-02
6.929999999999999494e-01,-9.429066832727613090e-02,4.505676091805264905e-02,2.226520861301185469e-02
6.939999999999999503e-01,-6.238743021801734789e-02,-4.488364256831443161e-02,3.035654891274150446e-02
6.949999999999999512e-01,2.513006563349908309e-02,-1.282929718500415428e-01,-2.164055506113198718e-02
6.959999999999999520e-01,1.039013780923208480e-01,-1.910534347740955596e-01,-1.633325107281580028e-03
6.969999999999999529e-01,1.549415308371220878e-01,-1.869118512137632748e-01,-3.402377538516174194e-02
6.979999999999999538e-01,1.791140916204119748e-01,-1.355269242912750527e-01,-6.323852023377882214e-02
6.989999999999999547e-01,1.532244752470831028e-01,-4.193418963694524326e-02,-5.848191263231809767e-02
6.999999999999999556e-01,7.970944229822206351e-02,6.353989776420555791e-02,-4.488866142136602178e-02
7.009999999999999565e-01,-4.591912972614825561e-03,1.522679446963219052e-01,-4.499219312406994853e-02
7.019999999999999574e-01,-1.214190682772589291e-01,2.131411187332532819e-01,1.794857718041170972e-03
7.029999999999999583e-01,-2.081067726663842210e-01,1.829704868619621838e-01,2.810145568223587631e-02
7.039999999999999591e-01,-2.210024981137672651e-01,1.307065598027263575e-01,5.765571942586669718e-02
7.049999999999999600e-01,-1.915496339861655628e-01,1.195908694906509633e-02,1.055421945532442896e-01
7.059999999999999609e-01,-9.932557278786988131e-02,-9.606751033717403354e-02,8.076339066611773476e-02
7.069999999999999618e-01,2.091818957811880653e-02,-2.012657993173991300e-01,7.321063256617667270e-02
7.079999999999999627e-01,1.622965562619883562e-01,-2.244434898892003205e-01,2.385756374791899934e-02
7.089999999999999636e-01,2.390302687482711574e-01,-2.066194370919071099e-01,-5.713988873800046608e-02
7.099999999999999645e-01,2.554449545094406582e-01,-1.200871340352074601e-01,-8.096012121558580910e-02
7.109999999999999654e-01,2.112231253615698967e-01,-5.980946247625293540e-03,-1.210080113594081269e-01
7.119999999999999662e-01,8.375285555810974003e-02,1.132770799013988333e-01,-1.104997863995898777e-01
7.129999999999999671e-01,-5.777631182577794983e-02,1.866789851509459142e-01,-1.022283207558518370e-01
7.139999999999999680e-01,-1.528767951735212904e-01,2.162111535692848030e-01,-3.964822628308167091e-02
7.149999999999999689e-01,-2.474224638052570646e-01,1.763048584001321306e-01,4.221110718102965426e-02
7.159999999999999698e-01,-2.571679163139444224e-01,7.878840118549496063e-02,9.394946520428985870e-02
7.169999999999999707e-01,-2.202850175244138453e-01,2.096472797846785432e-03,1.505402505754982467e-01
7.179999999999999716e-01,-9.107952448016599922e-02,-1.233298298403939092e-01,1.500355288035650769e-01
7.189999999999999725e-01,5.457294841187337875e-02,-1.754660862100356766e-01,1.092916234013987936e-01
7.199999999999999734e-01,1.675315316372204266e-01,-1.822829894650203619e-01,3.207002073417780652e-02
7.209999999999999742e-01,2.599021311349817287e-01,-1.438529709866059048e-01,-4.589626787966109150e-02
7.219999999999999751e-01,2.620053673237877079e-01,-6.001198827257266111e-02,-1.250953017146160806e-01
7.229999999999999760e-01,1.861728119769116008e-01,2.556561690747902876e-02,-1.546192139106625785e-01
7.239999999999999769e-01,8.465960111041444247e-02,1.112234451393215862e-01,-1.643347276469602214e-01
7.249999999999999778e-01,-6.017888525075353046e-02,1.439853222153072709e-01,-1.045310968543344265e-01
7.259999999999999787e-01,-1.982648129904725498e-01,1.537463686404920704e-01,-3.465300506955179549e-02
7.269999999999999796e-01,-2.333729496574295792e-01,1.097376672813076270e-01,6.837260528564613471e-02
7.279999999999999805e-01,-2.302458250455974575e-01,4.464564823997359266e-02,1.405441660165541173e-01
7.289999999999999813e-01,-1.640968087276304388e-01,-2.389144853502165808e-02,1.792149944853696497e-01
7.299999999999999822e-01,-6.307840193722337452e-02,-7.366707953524034846e-02,1.601267243678217156e-01
7.309999999999999831e-01,8.036495419938850804e-02,-1.048781303280525018e-01,1.148303514988336799e-01
7.319999999999999840e-01,1.623306888356040312e-01,-9.282552973886168401e-02,2.507953868695838098e-02
7.329999999999999849e-01,1.854537734450772690e-01,-7.685373188202955508e-02,-5.652099961433169201e-02
7.339999999999999858e-01,1.925298611069004018e-01,-4.518227930984868024e-02,-1.073870522849992432e-01
7.349999999999999867e-01,1.393278594618730937e-01,5.997815292677892429e-03,-1.548077230395998316e-01
7.359999999999999876e-01,4.329126098899458569e-02,2.995375781992951070e-02,-1.472043938303075339e-01
7.369999999999999885e-01,-4.849480202326759970e-02,6.282454056597681913e-02,-1.099689864808005846e-01
7.379999999999999893e-01,-1.080214081847502422e-01,3.162435691018226913e-02,-2.384421127989738709e-02
7.389999999999999902e-01,-1.466987080874007365e-01,5.102623934330239447e-02,4.151407233016606024e-02
7.399999999999999911e-01,-1.428111163264906280e-01,4.247594255239219019e-02,9.783427746572330441e-02
7.409999999999999920e-01,-8.793564289230160202e-02,2.867196357458878103e-02,1.427475053177398590e-01
7.419999999999999929e-01,-1.735160501324934171e-02,1.664671512727036035e-02,1.323773473147871471e-01
7.429999999999999938e-01,3.591426180125051326e-02,1.670778698732111947e-02,7.764749217783620261e-02
7.439999999999999947e-01,6.492397741584828019e-02,-1.344057101886477271e-02,1.551523854610603603e-02
7.449999999999999956e-01,8.558033722299483725e-02,-5.772953080045544610e-02,-4.260422128769337374e-02
7.459999999999999964e-01,8.699532017264481609e-02,-6.575655945010668024e-02,-8.723118221435324782e-02
7.469999999999999973e-01,6.942065557809398713e-02,-6.706538853192486882e-02,-1.036272533282037722e-01
7.479999999999999982e-01,2.686782902812567819e-02,-7.847373811553715051e-02,-9.406375109114264998e-02
7.489999999999999991e-01,2.654291663394397344e-02,-5.648173153394397961e-02,-6.667216987875417000e-02
7.500000000000000000e-01,-1.542941536648934249e-02,-2.276803004543194453e-02,-2.732420245776720838e-02
7.510000000000000009e-01,-1.820093711813828771e-02,3.474859109347029629e-02,2.158111556245139243e-02
7.520000000000000018e-01,-2.712872167172858742e-02,7.666743689220487101e-02,4.684200901948687434e-02
7.530000000000000027e-01,-5.341598554176048980e-02,1.279958696763634218e-01,7.340091774276220893e-02
7.540000000000000036e-01,-6.201347794647088518e-02,1.188853183290279614e-01,7.000716549497343344e-02
7.550000000000000044e-01,-7.705908133518868386e-02,9.549991279512537456e-02,4.779256311288703624e-02
7.560000000000000053e-01,-7.404453437769943636e-02,3.654186323191743052e-02,1.579961195905814700e-02
7.570000000000000062e-01,-5.570995354248089310e-02,-4.630882357571626529e-02,-8.369331209060234655e-04
7.580000000000000071e-01,7.762190133912115096e-04,-1.294878277956996171e-01,-1.045601870432217098e-02
7.590000000000000080e-01,4.474531435495775200e-02,-1.707514419681897266e-01,-4.091037369575512006e-02
7.600000000000000089e-01,9.790087195700869493e-02,-1.514511193363828057e-01,-1.767766316213068706e-02
7.610000000000000098e-01,1.382462564063115240e-01,-1.164755801065774782e-01,-4.696768238251806948e-02
7.620000000000000107e-01,1.173197339093877412e-01,-3.168572598182166355e-02,-5.012872358913951498e-02
7.630000000000000115e-01,1.045382017070010661e-01,5.916533864425797817e-02,-3.826761992777026611e-02
7.640000000000000124e-01,3.631542530596115759e-02,1.633515272740266866e-01,-2.699980243907307287e-02
7.650000000000000133e-01,-4.174689556483794639e-02,2.024710455643703999e-01,-2.573164370398284620e-02
7.660000000000000142e-01,-1.259139420720632174e-01,1.705880881992590248e-01,-1.531280545723065316e-02
7.670000000000000151e-01,-1.764984082487817962e-01,1.298174773332995413e-01,3.806688896902916952e-02
7.680000000000000160e-01,-1.933524950739823611e-01,1.950303369098757870e-03,4.712474799704893802e-02
7.690000000000000169e-01,-1.444555915101547738e-01,-9.329601033794052145e-02,6.733521794138823402e-02
7.700000000000000178e-01,-4.669456508450001847e-02,-1.933723108454132866e-01,6.913893384864777669e-02
7.710000000000000187e-01,7.105842892542837963e-02,-1.983637952332729937e-01,5.426730565772176773e-02
7.720000000000000195e-01,1.765058654482940526e-01,-1.982868272777695284e-01,2.492672295559493836e-02
7.730000000000000204e-01,2.387726151090821258e-01,-1.095060827201042863e-01,-2.433673509503548466e-02
7.740000000000000213e-01,2.056084964367734802e-01,-3.457194037432541681e-03,-7.708262882100590241e-02
7.750000000000000222e-01,1.670500266873671813e-01,1.008391188768036212e-01,-9.550574190587099443e-02
7.760000000000000231e-01,4.124369146560141752e-02,1.925354138863289433e-01,-1.245883505049049517e-01
7.770000000000000240e-01,-7.863641675844254553e-02,2.264282003005894661e-01,-7.984612249417419316e-02
7.780000000000000249e-01,-2.097433262645498342e-01,1.800866483331728662e-01,-2.710269683097299431e-02
7.790000000000000258e-01,-2.590421120061394133e-01,1.067542740699821135e-01,1.388815141095240194e-02
7.800000000000000266e-01,-2.663228057824468253e-01,-1.827035981397363840e-02,8.639503421219271728e-02
7.810000000000000275e-01,-1.658495409681669253e-01,-1.148081796745752670e-01,1.127393615175459884e-01
7.820000000000000284e-01,-4.175471755899119036e-02,-1.884327136574605321e-01,1.411290848608895421e-01
7.830000000000000293e-01,9.674859339512420497e-02,-2.165334559687357718e-01,1.028760461545585592e-01
7.840000000000000302e-01,2.312377871875841151e-01,-1.378931620001159486e-01,5.705146716263036905e-02
7.850000000000000311e-01,2.798607942954956518e-01,-7.461817746210584745e-02,-3.986639390506972053e-02
7.860000000000000320e-01,2.424935463041328343e-01,2.432366068624872493e-02,-1.055086287480228313e-01
7.870000000000000329e-01,1.546176505046937544e-01,1.199258021589845041e-01,-1.565779746612816770e-01
7.880000000000000338e-01,2.625120694768444049e-02,1.866279920908537060e-01,-1.460554421218467624e-01
7.890000000000000346e-01,-1.219498236074164493e-01,1.842029311926983715e-01,-1.232593319290118811e-01
7.900000000000000355e-01,-2.158177054949199647e-01,1.167452369863548056e-01,-6.475927654878027573e-02
7.910000000000000364e-01,-2.643570907772593293e-01,5.875436351761460091e-02,2.375057439858966474e-02
7.920000000000000373e-01,-2.345135019185015934e-01,-2.997185724410729446e-02,1.214470543485839521e-01
7.930000000000000382e-01,-1.371837380646675209e-01,-9.167343545568239216e-02,1.458466997073302462e-01
7.940000000000000391e-01,-3.085871887209467104e-02,-1.288661637232206003e-01,1.645528322820362377e-01
7.950000000000000400e-01,1.094418255656106481e-01,-1.337902770173283740e-01,1.348968080799737013e-01
7.960000000000000409e-01,2.095348127783971393e-01,-1.060063526328515332e-01,5.113634184834687374e-02
7.970000000000000417e-01,2.593420246619698721e-01,-5.954643133366512020e-02,-3.483554382178714187e-02
7.980000000000000426e-01,2.009129072372783931e-01,2.805893880771044915e-02,-1.081992680155508257e-01
7.990000000000000435e-01,1.271911422031537786e-01,7.688652107997269447e-02,-1.571590510029450827e-01
8.000000000000000444e-01,2.220396630903940030e-02,1.004728670694597509e-01,-1.592575706269614699e-01
8.010000000000000453e-01,-9.144747599008974659e-02,9.709716920083930058e-02,-1.291980674937040496e-01
8.020000000000000462e-01,-1.775722841673126884e-01,7.429756605927162472e-02,-6.079411314669808108e-02
8.030000000000000471e-01,-1.749548643175760088e-01,5.455048349206423342e-02,2.218224231494154292e-02
8.040000000000000480e-01,-1.414957444650506435e-01,-4.406313975779375947e-03,1.037264547401330478e-01
8.050000000000000488e-01,-8.152224634534964431e-02,-1.781410568653006565e-02,1.404883729451952001e-01
8.060000000000000497e-01,5.242054488204442482e-03,-3.623569149640627068e-02,1.549373171686519168e-01
8.070000000000000506e-01,6.987507855172324367e-02,-2.573635210341587362e-02,1.152189599217805088e-01
8.080000000000000515e-01,1.154218664544052336e-01,-5.513189654392117167e-02,4.272492375923246655e-02
8.090000000000000524e-01,1.217633987984295535e-01,-3.294393846189806740e-02,-2.519680260788407372e-02
8.100000000000000533e-01,9.967794179013357569e-02,-3.369940175019570799e-02,-9.869239928489305369e-02
8.110000000000000542e-01,7.074826554218169306e-02,-3.911187892691783685e-02,-1.247255131185402016e-01
8.120000000000000551e-01,2.963789835689271956e-02,-1.959147981366179958e-02,-9.908451613333943420e-02
8.129999999999999449e-01,-2.648105479300514459e-02,1.701177272440556817e-02,-8.312015158285564198e-02
8.139999999999999458e-01,-4.032963055014884834e-02,1.284851375502702765e-02,-4.608350534320138775e-02
8.149999999999999467e-01,-6.953901833624340223e-02,7.359093930958013341e-02,-5.355966651930438218e-04
8.159999999999999476e-01,-6.697260181311666394e-02,1.067054321930648586e-01,5.787230141641468151e-02
8.169999999999999485e-01,-4.781718599271435333e-02,9.538145415062428134e-02,7.214826113459549273e-02
8.179999999999999494e-01,-5.527913586600445572e-02,7.573931365530520154e-02,9.516903837536665189e-02
8.189999999999999503e-01,-4.754984868647284257e-02,3.265346562218537224e-02,3.954789996956255271e-02
8.199999999999999512e-01,-2.256451607556608785e-02,-3.449943803241060925e-02,2.789056045724661384e-02
8.209999999999999520e-01,-3.880930698633970762e-04,-1.025466183368418799e-01,5.679759018586361986e-03
8.219999999999999529e-01,4.109073357457938835e-02,-1.472463550216139005e-01,-3.126690775401796962e-02
8.229999999999999538e-01,4.223092541350383089e-02,-1.613745369142045027e-01,-5.166317528277269977e-02
8.239999999999999547e-01,7.412768239033946938e-02,-1.049821597475111140e-01,-4.651303634233807521e-02
8.249999999999999556e-01,1.113883640275245834e-01,-1.807043897862004381e-02,-4.218850200329875982e-02
8.259999999999999565e-01,9.005306369946769474e-02,7.006803636523251111e-02,-2.934346469246684047e-02
8.269999999999999574e-01,6.480581901190678173e-02,1.340958063762471286e-01,-2.981645067046317932e-02
8.279999999999999583e-01,-1.983341480368190982e-02,1.821187478986046049e-01,-7.379567465971154094e-03
8.289999999999999591e-01,-7.786284612787995607e-02,1.703445983259196106e-01,6.978238208725152285e-04
8.299999999999999600e-01,-1.467037791179653106e-01,1.296344744646536484e-01,1.672885535755649217e-02
8.309999999999999609e-01,-1.709448724818309340e-01,1.585963732642281868e-02,1.443042060323718873e-02
8.319999999999999618e-01,-1.446784358239245338e-01,-8.108605706156057913e-02,5.650148545595968380e-02
8.329999999999999627e-01,-9.241821867721239370e-02,-1.644318147744001368e-01,5.824661383686726562e-02
8.339999999999999636e-01,-3.322222922377925450e-03,-2.046164683219926783e-01,4.858990107629878458e-02
8.349999999999999645e-01,9.302252566039080628e-02,-1.767842443758558535e-01,4.470763595730794376e-02
8.359999999999999654e-01,1.936016760947140425e-01,-1.243220258125735528e-01,1.479886868862572910e-02
8.369999999999999662e-01,2.165789433048701806e-01,-6.025546634351237017e-03,-9.215848696763477219e-03
8.379999999999999671e-01,1.831592219402269350e-01,1.198702014707812707e-01,-5.055299074646121132e-02
8.389999999999999680e-01,1.270665649098696448e-01,1.814511912712009345e-01,-6.974492809063473353e-02
8.399999999999999689e-01,-3.498893187325552087e-03,2.263298251266578076e-01,-7.588532329308000923e-02
8.409999999999999698e-01,-1.252985293392186172e-01,1.854362825265279680e-01,-7.283615986344312010e-02
8.419999999999999707e-01,-2.226216117659160776e-01,9.997103505136901991e-02,-3.424893625766062960e-02
8.429999999999999716e-01,-2.564553978128014666e-01,-2.246103520820920060e-02,-7.025673893370948039e-03
8.439999999999999725e-01,-2.226197884239734526e-01,-1.174277694712791559e-01,5.832399215652632474e-02
8.449999999999999734e-01,-1.161046308526759441e-01,-1.986838823783675656e-01,8.543262140806856531e-02
8.459999999999999742e-01,8.648280096036842918e-03,-2.163170170326869368e-01,1.206649408142997093e-01
8.469999999999999751e-01,1.576700300574005731e-01,-1.680934105043645210e-01,1.145676515720864819e-01
8.479999999999999760e-01,2.497304806942688693e-01,-7.237494183861477304e-02,7.437702506288292048e-02
8.489999999999999769e-01,2.757833803138574624e-01,3.946131408376146732e-02,-7.647333959870214644e-03
8.499999999999999778e-01,2.083914849316736151e-01,1.218858545388326886e-01,-8.212857411706299404e-02
8.509999999999999787e-01,1.405933593985256858e-01,1.793724302972405926e-01,-1.327890985533822787e-01
8.519999999999999796e-01,-3.145288757834245608e-02,1.903679924861097772e-01,-1.444155112248500517e-01
8.529999999999999805e-01,-1.787557583267790906e-01,1.407801640179383307e-01,-1.261989730611579319e-01
8.539999999999999813e-01,-2.529047932713604507e-01,4.445739365073616417e-02,-7.053891804457992909e-02
8.549999999999999822e-01,-2.914609024055596076e-01,-3.757960682768159838e-02,-5.843343883279104346e-03
8.559999999999999831e-01,-2.227160206779692231e-01,-1.151197795976860033e-01,8.713774180419002480e-02
8.569999999999999840e-01,-9.683357231153534583e-02,-1.522599297859360545e-01,1.477452164861441097e-01
8.579999999999999849e-01,3.072498264833024503e-02,-1.572186786765409072e-01,1.675817467000462746e-01
8.589999999999999858e-01,1.595981260663037749e-01,-1.055866199653502369e-01,1.573577860227839964e-01
8.599999999999999867e-01,2.393448143328564537e-01,-3.665013848366796556e-02,7.518165076404786928e-02
8.609999999999999876e-01,2.450752924636946106e-01,4.252788288955541840e-02,-1.326575762054678885e-02
8.619999999999999885e-01,1.796732161286020701e-01,8.754082608327885817e-02,-8.362256941993849446e-02
8.629999999999999893e-01,8.178265772609659423e-02,1.314816310164881319e-01,-1.590190602772725836e-01
8.639999999999999902e-01,-4.378976149602799295e-02,1.064314837556767090e-01,-1.661610589527657000e-01
8.649999999999999911e-01,-1.513850417207822652e-01,8.592679521214222071e-02,-1.346611887861142443e-01
8.659999999999999920e-01,-2.179775212364239712e-01,3.754554720069717966e-02,-7.989087967828328862e-02
8.669999999999999929e-01,-2.115388212374316179e-01,5.074150169266579847e-04,1.513343991516250334e-02
8.679999999999999938e-01,-1.533686199459946553e-01,-4.515388636494199748e-02,8.131192018624933127e-02
8.689999999999999947e-01,-4.785732564146526202e-02,-7.216941345154721799e-02,1.348137371984487187e-01
8.699999999999999956e-01,3.717347182277187106e-02,-5.696218173905270854e-02,1.670086557195996912e-01
8.709999999999999964e-01,1.244393428556753861e-01,-4.395996191522615060e-02,1.044567894318739892e-01
8.719999999999999973e-01,1.585417799385955007e-01,-3.217842342434792946e-02,6.109096741738107711e-02
8.729999999999999982e-01,1.466251127303676571e-01,-1.626369557188416318e-02,-8.572457396347821224e-03
8.739999999999999991e-01,1.155618284858273837e-01,-8.638397560885011962e-04,-7.226630462736581550e-02
8.750000000000000000e-01,4.693589279423950739e-02,9.933387727715318680e-03,-1.370023306868534407e-01
8.760000000000000009e-01,-1.664072535705543587e-02,1.748273260912803356e-02,-1.401117873126480340e-01
8.770000000000000018e-01,-7.260275064851773319e-02,2.553752159315112250e-02,-1.014769378283030127e-01
8.780000000000000027e-01,-1.008192156970001557e-01,5.293974501999143545e-02,-6.056525175063159905e-02
8.790000000000000036e-01,-1.015656793493553978e-01,7.594153918893974120e-02,2.520220702273185537e-02
8.800000000000000044e-01,-8.956823938050922917e-02,5.302831253196063632e-02,6.804629081266340418e-02
8.810000000000000053e-01,-5.711533558170104469e-02,2.775694612125924679e-02,8.733171810811331259e-02
8.820000000000000062e-01,-1.920541040842166369e-02,9.074241565619391853e-03,9.523113593935683685e-02
8.830000000000000071e-01,1.825436503293908011e-02,-4.815126327454895966e-02,8.256297433247786199e-02
8.840000000000000080e-01,2.269099593777097745e-02,-7.702721016386304687e-02,3.913169381504646993e-02
8.850000000000000089e-01,3.966491363127059439e-02,-1.120354800569836190e-01,-2.402370860002615589e-03
8.860000000000000098e-01,6.022439724823799856e-02,-1.012925931550938824e-01,-3.811791894119297142e-02
8.870000000000000107e-01,7.617868434669067268e-02,-8.077711624709342508e-02,-5.465961103617040379e-02
8.880000000000000115e-01,6.353203047849341478e-02,-9.946300869874418957e-03,-6.193939478956511646e-02
8.890000000000000124e-01,5.253007666474104193e-02,5.187650568826100705e-02,-4.719086894817621503e-02
8.900000000000000133e-01,3.809617432348553351e-02,1.300415642764878588e-01,-4.382927565123050789e-02
8.910000000000000142e-01,1.576435623604898612e-02,1.596705783574579041e-01,-2.252203144037654564e-02
8.920000000000000151e-01,-1.273679670835882287e-02,1.480944349506987390e-01,1.051387031173821839e-02
8.930000000000000160e-01,-6.951622882278188365e-02,1.114758905517830440e-01,3.185802831208060792e-02
8.940000000000000169e-01,-1.181670287240383366e-01,4.614259343607109674e-03,3.390991314139789325e-02
8.950000000000000178e-01,-1.284031678764047113e-01,-7.991220264067699919e-02,4.126859198218756075e-02
8.960000000000000187e-01,-9.839559432377485704e-02,-1.448981190345264014e-01,3.283417543810016048e-02
8.970000000000000195e-01,-4.716145850814675716e-02,-1.986640777022351811e-01,2.110807435455315517e-02
8.980000000000000204e-01,2.284439643158170732e-02,-1.819722795145574112e-01,1.794879552161879679e-02
8.990000000000000213e-01,1.078272203628712761e-01,-1.046802183446499807e-01,2.452190814344493153e-02
9.000000000000000222e-01,1.782282816817127025e-01,-4.256994356825746090e-03,1.329033546886533579e-02
9.010000000000000231e-01,1.798528340290141692e-01,9.489258807850918520e-02,2.034772338593153745e-03
9.020000000000000240e-01,1.449951846113974319e-01,1.820030840810777650e-01,-3.894532315355126589e-02
9.030000000000000249e-01,5.136192989386519081e-02,2.311961880652635970e-01,-7.773218945387030954e-02
9.040000000000000258e-01,-3.012847909411323424e-02,1.982918404314798488e-01,-7.255302821588732742e-02
9.050000000000000266e-01,-1.519837082271356943e-01,9.997317081744334921e-02,-5.511594873603887362e-02
9.060000000000000275e-01,-2.244975029858070070e-01,-1.318439217497575922e-02,-3.440230187806729567e-02
9.070000000000000284e-01,-2.294111544982071760e-01,-1.265905720482082830e-01,-1.334800318713793774e-02
9.080000000000000293e-01,-1.670190062515321261e-01,-1.994677710984054664e-01,4.501878167706055422e-02
9.090000000000000302e-01,-7.276300096521015615e-02,-2.286168983410814814e-01,9.240698705594403706e-02
9.100000000000000311e-01,6.994601644601629309e-02,-1.633860144689137928e-01,1.094337489649304385e-01
9.110000000000000320e-01,2.059589986435419184e-01,-1.013991008934912036e-01,9.406745907769339943e-02
9.120000000000000329e-01,2.635150436394437246e-01,3.424088524816275292e-02,7.201155913741551229e-02
9.130000000000000338e-01,2.488468204407848217e-01,1.366785053274575668e-01,1.534261299268185018e-02
9.140000000000000346e-01,1.814102789471056798e-01,2.006589374632077871e-01,-5.534475480360262489e-02
9.150000000000000355e-01,4.551577459520621954e-02,2.267161016315947797e-01,-1.209316672890905359e-01
9.160000000000000364e-01,-7.821427241545741982e-02,1.549125729001623319e-01,-1.398588580937962234e-01
9.170000000000000373e-01,-1.973998082039105095e-01,6.071362677112786960e-02,-1.423376611027253880e-01
9.180000000000000382e-01,-2.783690531134651591e-01,-3.741948489340356232e-02,-8.565590382366045086e-02
9.190000000000000391e-01,-2.587630039833269668e-01,-1.224310113213714774e-01,-1.415596508108575222e-02
9.200000000000000400e-01,-1.792733857915124740e-01,-1.692382185634804248e-01,6.099005149908506146e-02
9.210000000000000409e-01,-5.308026008634366549e-02,-1.620549125011316316e-01,1.244954781728271065e-01
9.220000000000000417e-01,9.089695092955127342e-02,-1.417867912414982889e-01,1.466280387688730924e-01
9.230000000000000426e-01,2.049912607871200998e-01,-3.787746021285228609e-02,1.487152855865938039e-01
9.240000000000000435e-01,2.611295452169112297e-01,4.561667539317555004e-02,1.006419531329872524e-01
9.250000000000000444e-01,2.379910332301761466e-01,1.170147035381348816e-01,2.026227973810699676e-02
9.260000000000000453e-01,1.476638536553043501e-01,1.568444455507506663e-01,-6.396816991228655713e-02
9.270000000000000462e-01,3.101898086853145664e-02,1.326179994857294431e-01,-1.213927993378498271e-01
9.280000000000000471e-01,-1.067998130423290365e-01,8.657442835110171209e-02,-1.500690664369321026e-01
9.290000000000000480e-01,-1.925012988224443777e-01,2.362194781083796352e-02,-1.561502894897052462e-01
9.300000000000000488e-01,-2.542035674243837695e-01,-3.910666210419551370e-02,-9.214671505119212402e-02
9.310000000000000497e-01,-2.033459375127188440e-01,-7.688889474763146992e-02,-2.416657365980276820e-02
9.320000000000000506e-01,-1.390220617041310891e-01,-9.569715575483891956e-02,8.052776325917312961e-02
9.330000000000000515e-01,-1.672306804945728614e-02,-9.174490477048667658e-02,1.378772730100098765e-01
9.340000000000000524e-01,8.604420194848616532e-02,-5.770902511612534258e-02,1.549615178209797495e-01
9.350000000000000533e-01,1.710991071395533691e-01,-2.913858817630976192e-02,1.573269545236166966e-01
9.360000000000000542e-01,1.935999114528638709e-01,9.781134618223694815e-03,8.546145656781480027e-02
9.370000000000000551e-01,1.750032664440068220e-01,3.580373755309251144e-02,1.392940520604365844e-02
9.379999999999999449e-01,1.085896628126003793e-01,3.475623551136280270e-02,-7.372981619220005112e-02
9.389999999999999458e-01,7.261916800282918263e-03,4.899475349595953932e-02,-1.109720695638985871e-01
9.399999999999999467e-01,-6.754832421628920169e-02,5.985451681142311270e-02,-1.525293154063096790e-01
9.409999999999999476e-01,-1.152699367084418780e-01,5.418801660712745105e-02,-1.320360042171348780e-01
9.419999999999999485e-01,-1.362070108859909923e-01,4.137588466136932208e-02,-8.046320886044809606e-02
9.429999999999999494e-01,-1.428271198596869906e-01,2.672071297892661748e-02,-1.316825326812518480e-02
9.439999999999999503e-01,-7.516252174263987618e-02,4.108040269187944807e-03,5.707462339675480750e-02
9.449999999999999512e-01,-1.251481067908892346e-02,-1.139995534724751701e-02,9.647227443101322186e-02
9.459999999999999520e-01,2.938062037773575899e-02,-3.324600374625203553e-02,1.222376224038006914e-01
9.469999999999999529e-01,5.765452121191384782e-02,-7.576094073597830492e-02,1.131220505174319463e-01
9.479999999999999538e-01,7.200165364412616786e-02,-8.734545644118990593e-02,7.480391138388291228e-02
9.489999999999999547e-01,7.539864662384547500e-02,-8.544602864416694921e-02,-1.244310500436027027e-02
9.499999999999999556e-01,5.468673459510529217e-02,-5.136672405345832360e-02,-5.530523815258733128e-02
9.509999999999999565e-01,7.225895016233431500e-02,-1.628537361598246134e-03,-8.274834522200796849e-02
9.519999999999999574e-01,2.783558480602597515e-02,5.196796918742328797e-02,-9.935712332097083876e-02
9.529999999999999583e-01,8.315093464903220918e-03,1.077786148377935377e-01,-8.234495907808997428e-02
9.539999999999999591e-01,-8.653619095373555822e-03,1.483533185691144896e-01,-6.492468390039805859e-02
9.549999999999999600e-01,-1.758141790246666933e-02,1.276306780600705293e-01,-6.711782557949038872e-03
9.559999999999999609e-01,-6.064818425600632806e-02,9.001912170516121470e-02,2.455751827063464357e-02
9.569999999999999618e-01,-7.900129436243651104e-02,1.697711738148172805e-02,3.466314534020874943e-02
9.579999999999999627e-01,-8.978381425471181065e-02,-6.740180273111487375e-02,5.967657107713976450e-02
9.589999999999999636e-01,-8.141739878408126019e-02,-1.443729958582247730e-01,4.048497544058517889e-02
9.599999999999999645e-01,-5.942361984401391822e-02,-1.923958681307700591e-01,3.895025859749107200e-02
9.609999999999999654e-01,-6.602052378551849336e-03,-1.646574098379357531e-01,2.998895061146077123e-02
9.619999999999999662e-01,3.500187597458953581e-02,-8.333058794638931177e-02,1.996868386634925718e-02
9.629999999999999671e-01,1.265757369020634737e-01,-4.637169132344422760e-03,3.232140345049041956e-03
9.639999999999999680e-01,1.509344619020674960e-01,8.468826761604926479e-02,-5.448761871578991153e-03
9.649999999999999689e-01,1.364223128544247432e-01,1.790227536637831462e-01,-2.452103318264284640e-02
9.659999999999999698e-01,8.412611552654906955e-02,2.019528141981497826e-01,-3.300153693017319340e-02
9.669999999999999707e-01,2.055399597994375660e-02,2.008704598429434385e-01,-2.951036685600287937e-02
9.679999999999999716e-01,-8.190643783265104394e-02,9.641911984236745115e-02,-3.787136586033668789e-02
9.689999999999999725e-01,-1.676598264819668949e-01,-1.207129238696002041e-02,-3.717415151780528726e-02
9.699999999999999734e-01,-2.031242356254776282e-01,-1.313631820687589657e-01,-3.340640902094151737e-02
9.709999999999999742e-01,-1.880930607935469567e-01,-2.081164274038037054e-01,-1.655786617670971031e-03
9.719999999999999751e-01,-1.369564627031497617e-01,-2.147864574989524489e-01,2.915137396008944670e-02
9.729999999999999760e-01,-2.028847197650439013e-02,-1.835651464054194881e-01,4.002091087698702448e-02
9.739999999999999769e-01,9.816363524743142166e-02,-8.286398820897820927e-02,8.379414910159582730e-02
9.749999999999999778e-01,1.926610942501883195e-01,4.424101484635049181e-02,7.929109910734181976e-02
9.759999999999999787e-01,2.499344024760152549e-01,1.401699349027290264e-01,5.936363632744576235e-02
9.769999999999999796e-01,2.331585561840940901e-01,2.046513107940804155e-01,2.709623080251734317e-02
9.779999999999999805e-01,1.434072948920422641e-01,2.186984081301966421e-01,-3.013342184381551797e-02
9.789999999999999813e-01,1.651754238335930922e-02,1.763112525548879428e-01,-8.150451849551593186e-02
9.799999999999999822e-01,-1.338047237884370799e-01,7.128395789749818190e-02,-1.215578266652484196e-01
9.809999999999999831e-01,-2.280420595122926442e-01,-3.830081196201055166e-02,-1.203763608264374757e-01
9.819999999999999840e-01,-2.849001969945524348e-01,-1.330442386843936620e-01,-8.901728534390024317e-02
9.829999999999999849e-01,-2.562264516142300219e-01,-1.963401954527133897e-01,-4.206316028346654412e-02
9.839999999999999858e-01,-1.360480478843119900e-01,-1.904070481227373157e-01,4.533579375153391766e-02
9.849999999999999867e-01,1.365574896773054901e-02,-1.431462455877178241e-01,9.039042193979378303e-02
9.859999999999999876e-01,1.310955563640344435e-01,-5.089994793920882277e-02,1.470867777534510812e-01
9.869999999999999885e-01,2.359257193726933544e-01,4.127766495926262630e-02,1.377829047104091598e-01
9.879999999999999893e-01,2.455299624443365303e-01,1.262726786522967992e-01,9.983899279539736049e-02
9.889999999999999902e-01,2.354540207302427690e-01,1.538794094977334603e-01,1.973642990700254923e-02
9.899999999999999911e-01,1.251886194694061261e-01,1.487087274625855382e-01,-4.925757959184732387e-02
9.909999999999999920e-01,-1.896955957285110378e-02,1.079056739175257296e-01,-1.127496605277242686e-01
9.919999999999999929e-01,-1.576181557609866446e-01,3.600922900417678069e-02,-1.729753093400525632e-01
9.929999999999999938e-01,-2.151520467353477128e-01,-3.951776257517877061e-02,-1.578435581795593901e-01
9.939999999999999947e-01,-2.713579336087527105e-01,-1.059583374232901526e-01,-1.088455188335704787e-01
9.949999999999999956e-01,-1.983251441749940835e-01,-1.126239090726974812e-01,-3.798627717669614962e-02
9.959999999999999964e-01,-1.173302730778577607e-01,-1.175186742591324968e-01,5.318668236943934619e-02
9.969999999999999973e-01,1.632301196594680703e-02,-6.468507174311199925e-02,1.248681637259443922e-01
9.979999999999999982e-01,1.388070881978832605e-01,-2.100819524063538002e-02,1.547568298471846959e-01
9.989999999999999991e-01,2.110394415565257920e-01,1.695180913960746966e-02,1.672856162547151915e-01
1.000000000000000000e+00,2.299489373358563071e-01,6.036369277220700325e-02,1.219378569166810339e-01
1.000999999999999890e+00,1.764008861360438496e-01,8.036452429656074092e-02,3.297268071984139903e-02
1.002000000000000002e+00,8.291913207247779416e-02,6.568166235150622867e-02,-4.577758705774012671e-02
1.002999999999999892e+00,-1.657714246272137815e-02,4.670207305636418782e-02,-1.284190997236170362e-01
1.004000000000000004e+00,-1.128321965389543907e-01,1.600489908852531507e-02,-1.648635406802999859e-01
1.004999999999999893e+00,-1.624455309857492924e-01,1.329784203842850412e-02,-1.592767690324361496e-01
1.006000000000000005e+00,-1.581051684236933486e-01,7.599273000544766628e-03,-9.957310524666848628e-02
1.006999999999999895e+00,-1.311693201339370618e-01,-8.039382778460189838e-03,-4.806136250012345984e-02
1.008000000000000007e+00,-5.761482764278679641e-02,-3.195369317133644332e-02,4.999321912890866693e-02
1.008999999999999897e+00,1.488214427963824131e-02,-3.447974309796923015e-02,9.693368679694509826e-02
1.010000000000000009e+00,7.350132167554779272e-02,-5.160942899378659354e-02,1.431856537122916384e-01
1.010999999999999899e+00,1.001009021819404959e-01,-6.734734249703837328e-02,1.160052008252999978e-01
1.012000000000000011e+00,1.058677124672663949e-01,-3.701713946063101696e-02,8.610948633501959437e-02
1.012999999999999901e+00,8.994172443988433796e-02,-3.218894204240965035e-02,2.116668568000831113e-02
1.014000000000000012e+00,4.157673067116431087e-02,-1.259706387044065568e-02,-5.164843121794837622e-02
1.014999999999999902e+00,1.255116752966271843e-02,4.572647711409257021e-02,-9.707938817202622916e-02
1.016000000000000014e+00,-3.402926611568113120e-03,8.081268033183096333e-02,-1.177433530115017113e-01
1.016999999999999904e+00,-2.882422534863152488e-02,9.342828394503230327e-02,-1.049644932348369614e-01
1.018000000000000016e+00,-5.175150712178792217e-02,9.749243516220423844e-02,-8.550870027412801888e-02
1.018999999999999906e+00,-5.973279352585928598e-02,6.412757224613027662e-02,-1.837427354013016628e-02
1.020000000000000018e+00,-5.069797885850207270e-02,2.190142085988349210e-02,2.692704553655216743e-02
1.020999999999999908e+00,-5.234947953881519123e-02,-5.956899097655340980e-02,5.426191124801485466e-02
1.022000000000000020e+00,-6.077606297361562437e-02,-1.245934119723207389e-01,8.049106947444506499e-02
1.022999999999999909e+00,-3.662145772965064161e-02,-1.524068274795741806e-01,6.779640381395711513e-02
1.024000000000000021e+00,-8.141529851344133858e-03,-1.433417587296020868e-01,6.808498198129155077e-02
1.024999999999999911e+00,3.064620021557477175e-02,-8.932061945135950920e-02,1.502889936742902305e-02
1.026000000000000023e+00,6.739953783013441502e-02,1.918601262963026384e-03,3.287947432926781061e-03
1.026999999999999913e+00,1.002972914488201445e-01,8.817794124666707145e-02,-3.302242410039982201e-02
1.028000000000000025e+00,1.173542816428992386e-01,1.636954512184051469e-01,-5.548900058178998784e-02
1.028999999999999915e+00,9.453558695904980269e-02,1.925200238322324064e-01,-3.831514413478053632e-02
1.030000000000000027e+00,5.280601555559523430e-02,1.598102612376690879e-01,-2.924719376951118166e-02
1.030999999999999917e+00,-1.650932934653267722e-02,8.458512859353693736e-02,-2.926734525235875212e-02
1.032000000000000028e+00,-1.088956325284522048e-01,-4.464387943485793181e-03,-3.209888889541947371e-02
1.032999999999999918e+00,-1.402856172466436790e-01,-1.207042864093207934e-01,6.401080599815970294e-03
1.034000000000000030e+00,-1.857214120047663564e-01,-1.873034695931051485e-01,-8.144619940507259390e-03
1.034999999999999920e+00,-1.505751950173172260e-01,-2.142216270589903382e-01,1.795667174156411958e-02
1.036000000000000032e+00,-8.341157604925224234e-02,-1.866642207611200477e-01,1.779130897364410852e-02
1.036999999999999922e+00,2.278545245372830957e-02,-9.675979678325459521e-02,5.414080823832265188e-02
1.038000000000000034e+00,1.263269890941108586e-01,2.007931138916280514e-02,6.585508708611981232e-02
1.038999999999999924e+00,1.875200108541081601e-01,1.455703968371938606e-01,6.285098934747854194e-02
1.040000000000000036e+00,2.152448698512818004e-01,2.150059303314586778e-01,4.777265840685806370e-02
1.040999999999999925e+00,1.929761890210864583e-01,2.179700361905472783e-01,2.952163048605355861e-02
1.042000000000000037e+00,8.639354433621149187e-02,1.598730696628739567e-01,-2.332759014149433235e-02
1.042999999999999927e+00,-3.042548835050845613e-02,5.445195440299689660e-02,-5.559988123399760285e-02
1.044000000000000039e+00,-1.611254054271885339e-01,-5.525407476927212541e-02,-8.695681342996018637e-02
1.044999999999999929e+00,-2.523785493623942333e-01,-1.248014997134645476e-01,-9.648283390051000386e-02
1.046000000000000041e+00,-2.492599600641721147e-01,-2.052333314996850622e-01,-7.445524302844562514e-02
1.046999999999999931e+00,-2.034563828961629683e-01,-2.088335487287666659e-01,-4.498506845049349279e-02
1.048000000000000043e+00,-8.052673327315730545e-02,-1.511404406574341497e-01,3.821114775471707702e-03
1.048999999999999932e+00,5.276036846780125106e-02,-4.764400505381927858e-02,7.653981837242146424e-02
1.050000000000000044e+00,1.784591794871470960e-01,6.570233952924242615e-02,1.121657965805244322e-01
1.050999999999999934e+00,2.561364264675668467e-01,1.302016513830059341e-01,1.129556294901680469e-01
1.052000000000000046e+00,2.866004008044101270e-01,2.032328655516213445e-01,1.099627279634015631e-01
1.052999999999999936e+00,2.122335820055727684e-01,1.710157801107420883e-01,7.136986237806439148e-02
1.054000000000000048e+00,8.216054363972484509e-02,1.119742792920858931e-01,-2.600616107362060947e-02
1.054999999999999938e+00,-5.899842579868155162e-02,2.176843863696058951e-02,-9.728472553852571258e-02
1.056000000000000050e+00,-1.841408507001211226e-01,-6.161644948312643838e-02,-1.397944756461522997e-01
1.056999999999999940e+00,-2.608747549598185445e-01,-1.082667234078925483e-01,-1.618174952734649230e-01
1.058000000000000052e+00,-2.474130039103895617e-01,-1.521735966803143270e-01,-1.179302605668808290e-01
1.058999999999999941e+00,-1.990808622581087539e-01,-1.377974960666568105e-01,-5.804243380966918331e-02
1.060000000000000053e+00,-7.317379536096461912e-02,-7.116586788438843125e-02,1.849130296821508215e-02
1.060999999999999943e+00,6.079890230720697702e-02,-3.028111780050947097e-02,1.032512848914937664e-01
1.062000000000000055e+00,1.792030611272581453e-01,3.367091635036004865e-02,1.582577706138774409e-01
1.062999999999999945e+00,2.452358808071295471e-01,8.864724601123635805e-02,1.657481151534878072e-01
1.064000000000000057e+00,2.482384798994851094e-01,1.160058036549825033e-01,1.262965949390139064e-01
1.064999999999999947e+00,1.724611722513024747e-01,8.973047603076848844e-02,6.047635974071059739e-02
1.066000000000000059e+00,4.606336044977335509e-02,6.932207734384340792e-02,-2.095123118224420655e-02
1.066999999999999948e+00,-5.015234144497967422e-02,2.965723997648388871e-02,-1.037418687459255723e-01
1.068000000000000060e+00,-1.529488816256419637e-01,-2.514250040142464518e-02,-1.349386530402660322e-01
1.068999999999999950e+00,-2.117515020258567415e-01,-4.529469453316999072e-02,-1.627129159917125589e-01
1.070000000000000062e+00,-1.918732269358044973e-01,-3.754125334368012962e-02,-1.363219682511267739e-01
1.070999999999999952e+00,-1.218934131394037862e-01,-4.120302560605473841e-02,-4.717876219488368467e-02
1.072000000000000064e+00,-3.502150975428026253e-02,-4.332722551969354907e-02,1.724374762270162662e-02
1.072999999999999954e+00,6.838448719090023387e-02,-3.651998637339073234e-02,1.111522756621656366e-01
1.074000000000000066e+00,1.265479227864585166e-01,-2.989280053058974637e-02,1.398954478580355099e-01
1.074999999999999956e+00,1.556071549750354943e-01,-7.409821704835099603e-03,1.559969469108652973e-01
1.076000000000000068e+00,1.391169015573974488e-01,1.141104926504498893e-02,1.063014703056275601e-01
1.076999999999999957e+00,9.905334410398104750e-02,2.246390816233391485e-02,4.891827692732268751e-02
1.078000000000000069e+00,2.933553825720335365e-02,5.051041987713397741e-02,-2.137736091459423518e-02
1.078999999999999959e+00,-3.227284765683120088e-02,6.213172416140770593e-02,-8.607496769887150456e-02
1.080000000000000071e+00,-6.027844691935790866e-02,7.403247324127147644e-02,-1.341290813330693610e-01
1.080999999999999961e+00,-8.588126930944608994e-02,7.287323552994089126e-02,-1.130858344667006188e-01
1.082000000000000073e+00,-8.825423012054009475e-02,5.663950354942506177e-02,-9.877876080474712328e-02
1.082999999999999963e+00,-6.585171495859121205e-02,-3.856509129311806641e-03,-3.183836687298013252e-02
1.084000000000000075e+00,-5.445798597311879430e-02,-5.555984215670369680e-02,1.500862182690229640e-02
1.084999999999999964e+00,-2.953476429517423729e-02,-1.062794054005571504e-01,6.705925047293824492e-02
1.086000000000000076e+00,-4.682631445379064825e-03,-1.300135135628651406e-01,9.564300528624418429e-02
1.086999999999999966e+00,-7.936300983000067061e-03,-1.379224524284805853e-01,1.121313799106802706e-01
1.088000000000000078e+00,3.050758405664517545e-02,-5.829376937767715566e-02,7.710980017390343944e-02
1.088999999999999968e+00,3.926887726702972536e-02,2.649887339104295934e-03,2.428038410765738855e-02
1.090000000000000080e+00,7.971920189764075682e-02,7.316211366929228910e-02,5.214849397366390360e-03
1.090999999999999970e+00,7.166081888557915280e-02,1.399537001919728407e-01,-5.271186509970840484e-02
1.092000000000000082e+00,7.021822296776913941e-02,1.522961670388277844e-01,-5.498219120439993418e-02
1.092999999999999972e+00,4.105428254725432963e-02,1.569511662245892392e-01,-5.612880649077197498e-02
1.094000000000000083e+00,5.597652953393101281e-03,8.850287593291486510e-02,-5.301899243573403309e-02
1.094999999999999973e+00,-5.074336947698183942e-02,9.388864722580663943e-03,-4.435205667584351391e-02
1.096000000000000085e+00,-1.085142913336711729e-01,-9.869621753285701127e-02,-2.238226552936507102e-02
1.096999999999999975e+00,-1.347413092247182476e-01,-1.685643477563915082e-01,-4.452670993622145218e-03
1.098000000000000087e+00,-1.488304442468401378e-01,-1.964141701533786144e-01,4.641095339679955634e-03
1.098999999999999977e+00,-1.213064982187173624e-01,-1.564966158377156524e-01,2.788049374626089955e-02
1.100000000000000089e+00,-4.414414670490496295e-02,-9.787937455133692566e-02,8.033644868803552913e-03
1.100999999999999979e+00,5.593950213245826170e-02,2.047231923000437936e-02,3.562892474345114718e-02
1.102000000000000091e+00,1.416794258891752034e-01,1.237324890264633048e-01,2.127006067636053738e-02
1.102999999999999980e+00,1.925927198169542776e-01,2.090263472564849734e-01,2.639859338264250940e-02
1.104000000000000092e+00,2.117655068479468716e-01,2.213499969334247752e-01,2.676921966844716602e-02
1.104999999999999982e+00,1.563400525941617547e-01,1.680304151015625247e-01,4.111410783960590259e-03
1.106000000000000094e+00,4.511764983613646834e-02,7.060707382139734534e-02,-4.438408700140584855e-03
1.106999999999999984e+00,-7.472831850244114615e-02,-3.938536566205360495e-02,-4.310124111856719620e-02
1.108000000000000096e+00,-1.660311204094153947e-01,-1.395457181026737714e-01,-5.944062141957829476e-02
1.108999999999999986e+00,-2.381498464320706276e-01,-2.262021476837570710e-01,-7.280864696518771217e-02
1.110000000000000098e+00,-2.439477258637849644e-01,-2.228422718913616596e-01,-7.488476043559352813e-02
1.110999999999999988e+00,-1.504200597928410654e-01,-1.567614692663972797e-01,-4.053947993452471088e-02
1.112000000000000099e+00,-3.191789351697128102e-02,-6.118030398269892062e-02,3.446622841581562565e-03
1.112999999999999989e+00,9.732359196795729861e-02,5.733014187901034481e-02,5.900390698790052013e-02
1.114000000000000101e+00,2.067055754434156956e-01,1.439519404052189699e-01,9.411931621780589285e-02
1.114999999999999991e+00,2.724555922426151189e-01,1.943253763781588317e-01,1.100906984362335639e-01
1.116000000000000103e+00,2.457044509826428191e-01,1.852696496654784308e-01,1.084752707189100412e-01
1.116999999999999993e+00,1.721753681456206220e-01,1.273809350450795241e-01,6.887475196134297539e-02
1.118000000000000105e+00,3.155703845050470552e-02,1.496272380326797193e-02,9.336009082174431470e-03
1.118999999999999995e+00,-1.080247085204598112e-01,-6.623676228156255563e-02,-5.938803426130115359e-02
1.120000000000000107e+00,-2.248531059233501994e-01,-1.456505661058041523e-01,-1.164711482427293748e-01
1.120999999999999996e+00,-2.750811752734458882e-01,-1.805441916003949765e-01,-1.459740810779423248e-01
1.122000000000000108e+00,-2.463892366819566970e-01,-1.475538802589146659e-01,-1.374512062870490436e-01
1.122999999999999998e+00,-1.532880075660484065e-01,-1.073246594404857618e-01,-7.602974533101755639e-02
1.124000000000000110e+00,-2.049713525760987060e-02,-2.663683941553139992e-02,-2.125802743037305282e-03
1.125000000000000000e+00,1.184953941519910625e-01,6.472590246591662655e-02,6.631111294356575869e-02
1.125999999999999890e+00,2.271810700085372392e-01,1.077808692432424970e-01,1.389804537846752175e-01
1.127000000000000002e+00,2.677069647204207703e-01,1.219495102684674814e-01,1.522685334944459401e-01
1.127999999999999892e+00,2.428244524535815574e-01,1.222330481109747263e-01,1.451906410863152419e-01
1.129000000000000004e+00,1.329912926861661626e-01,6.762039085846728581e-02,9.177641493997876210e-02
1.129999999999999893e+00,1.231195775171416845e-02,2.278367439430450253e-02,-4.014955484191272753e-03
1.131000000000000005e+00,-1.301186268701668702e-01,-2.100413906345231785e-02,-7.257984184890847734e-02
1.131999999999999895e+00,-2.128108206871162644e-01,-7.758399972920647369e-02,-1.488465881332669272e-01
1.133000000000000007e+00,-2.224214627870242100e-01,-8.154637467958812669e-02,-1.566517952425119375e-01
1.133999999999999897e+00,-2.049850916272128731e-01,-7.647459142902193752e-02,-1.598350040907734193e-01
1.135000000000000009e+00,-9.051176681082258313e-02,-6.144276078198886853e-02,-7.731897435900826621e-02
1.135999999999999899e+00,5.343650378166831319e-03,-9.291409284009750219e-03,-9.565442918318200300e-04
1.137000000000000011e+00,1.129300707047074803e-01,4.730951938781270336e-03,8.263379786507095426e-02
1.137999999999999901e+00,1.647802156704972487e-01,2.492101781500770039e-02,1.435873811477724193e-01
1.139000000000000012e+00,1.792432202798640295e-01,2.627425354571561247e-02,1.648032510756418656e-01
1.139999999999999902e+00,1.427499561528429439e-01,2.853965011292051643e-02,1.520962747358434453e-01
1.141000000000000014e+00,7.020315414285777100e-02,3.994504404192360247e-02,8.663297143175996418e-02
1.141999999999999904e+00,3.382512872806437212e-03,5.477100593908661857e-02,-6.582830258446150350e-03
1.143000000000000016e+00,-7.863274994890852299e-02,4.571168440206370420e-02,-6.980040657148624261e-02
1.143999999999999906e+00,-1.268649675553528977e-01,4.830968985205465888e-02,-1.307514237634208043e-01
1.145000000000000018e+00,-1.204068176681625940e-01,2.306158193754874117e-02,-1.294169441073921845e-01
1.145999999999999908e+00,-9.160010826210102097e-02,-7.294659145121622397e-03,-1.139958456876803278e-01
1.147000000000000020e+00,-6.664255544568049860e-02,-3.890042493491502329e-02,-6.699621554251711242e-02
1.147999999999999909e+00,-2.286037838429133551e-02,-8.209769894374648047e-02,6.047054936848221887e-03
1.149000000000000021e+00,3.129496843979819726e-02,-8.623583514590812960e-02,6.425548632114143344e-02
1.149999999999999911e+00,4.318266688240407492e-02,-8.300500093619238295e-02,1.228706764727790085e-01
1.151000000000000023e+00,4.521693601944088564e-02,-5.926694872917580292e-02,1.205459960781084944e-01
1.151999999999999913e+00,6.529597086722814525e-02,-1.334073468953913752e-03,1.074545227632154876e-01
1.153000000000000025e+00,6.454489188494996754e-02,6.880936423324328366e-02,5.424054488604198448e-02
1.153999999999999915e+00,4.943980548710797535e-02,1.308081798840558252e-01,1.638543365408336866e-02
1.155000000000000027e+00,3.625588754037627204e-02,1.554099296896740978e-01,-5.185547422401986378e-02
1.155999999999999917e+00,2.433473392807235930e-02,1.529491577899625143e-01,-7.644197676012039200e-02
1.157000000000000028e+00,1.727685925339431106e-02,7.170798880532451569e-02,-6.924462654339730294e-02
1.157999999999999918e+00,-3.724322677332938397e-02,-5.143406292647620219e-03,-6.005928206039849726e-02
1.159000000000000030e+00,-6.774462053935774442e-02,-9.253311290867846650e-02,-3.554008107346714324e-02
1.159999999999999920e+00,-9.526601022999123258e-02,-1.717507841575818262e-01,-4.981236728795119303e-04
1.161000000000000032e+00,-1.170393210867557432e-01,-1.873369388229849941e-01,3.450755821091646552e-02
1.161999999999999922e+00,-8.069577170532576949e-02,-1.642323402021972911e-01,3.704340527132984201e-02
1.163000000000000034e+00,-4.158320743773150086e-02,-7.955576282865792215e-02,4.672210613233483689e-02
1.163999999999999924e+00,1.634959986273961177e-02,2.838191009146477303e-02,3.775395585490094047e-02
1.165000000000000036e+00,7.778904558763957700e-02,1.190782357628521748e-01,3.897777574471394252e-02
1.165999999999999925e+00,1.381704683468077677e-01,2.051381100233508337e-01,2.363596443680727674e-02
1.167000000000000037e+00,1.570116009036600924e-01,2.239799048902076650e-01,2.830107571141181333e-02
1.167999999999999927e+00,1.554935765175270712e-01,1.598914121915759323e-01,9.449311682514583213e-03
1.169000000000000039e+00,8.234380062797747035e-02,7.976109180654983311e-02,2.330788243448005548e-03
1.169999999999999929e+00,1.129494091518737885e-02,-3.795377051935863028e-02,1.462711956878009773e-03
1.171000000000000041e+00,-9.591985626695406775e-02,-1.412583257601180420e-01,-3.208725255519957048e-02
1.171999999999999931e+00,-1.858890709763589555e-01,-2.144346352314575876e-01,-4.655013468087230294e-02
1.173000000000000043e+00,-2.207973811371481965e-01,-2.274543521408455560e-01,-3.882590247885248785e-02
1.173999999999999932e+00,-1.947599533198589028e-01,-1.753285980883143858e-01,-5.507081651353658291e-02
1.175000000000000044e+00,-1.095445281145154409e-01,-3.766174114373092158e-02,-2.445422849456393641e-02
1.175999999999999934e+00,2.021647525570490628e-02,6.256581259511591331e-02,2.431026499890462551e-03
1.177000000000000046e+00,1.337875188153309913e-01,1.673180967068042813e-01,3.836532150449855488e-02
1.177999999999999936e+00,2.227844855919672851e-01,1.936258259001592819e-01,6.289720002241482033e-02
1.179000000000000048e+00,2.624125567470478315e-01,2.101429227032251268e-01,9.311343335001132093e-02
1.179999999999999938e+00,2.209144121626585022e-01,1.450362138300546333e-01,8.291754140734999834e-02
1.181000000000000050e+00,1.260569608264203445e-01,3.158662116773370415e-02,6.938988777957093290e-02
