time,acc_x,acc_y,acc_z
0.000000000000000000e+00,2.604006377144142959e-01,1.428908298560934709e-01,2.265898696250152333e-01
1.000000000000000021e-03,2.870890051127165110e-01,2.647247084639448578e-01,1.661488443455294006e-01
2.000000000000000042e-03,5.243130970289943127e-01,5.073745548415874440e-01,2.414889161929950623e-01
3.000000000000000062e-03,8.318941456547276347e-01,7.113853154959991487e-01,4.336559960274065095e-01
4.000000000000000083e-03,1.010638698408670821e+00,7.530769176920198982e-01,5.849697285686769055e-01
5.000000000000000104e-03,9.263785386212185502e-01,5.652621312840202528e-01,6.240846970186932907e-01
6.000000000000000125e-03,5.862343499764853805e-01,2.382165015725355994e-01,5.039933424095567327e-01
7.000000000000000146e-03,1.689478811420208615e-01,-4.745742642604793698e-02,2.725821076894500705e-01
8.000000000000000167e-03,-1.147483852505665064e-01,-1.810975844101249399e-01,4.936305269897772741e-02
8.999999999999999320e-03,-1.625794784824087236e-01,-9.474490737001781127e-02,-7.227431945724770157e-02
1.000000000000000021e-02,-1.777502178936259504e-03,6.151126537956423668e-02,-4.898915586430471758e-02
1.099999999999999936e-02,1.882079947886242111e-01,1.718998099752269970e-01,8.610956452102175307e-02
1.200000000000000025e-02,2.601965694371054516e-01,1.036475676994619705e-01,1.712499819927886524e-01
1.299999999999999940e-02,1.103429673275926615e-01,-1.340562928192107484e-01,1.727094753617144374e-01
1.400000000000000029e-02,-2.100221342860214002e-01,-3.956793411046998221e-01,5.438275075301121642e-02
1.499999999999999944e-02,-4.941443516044147777e-01,-5.150861750060807820e-01,-1.379084490379020866e-01
1.600000000000000033e-02,-5.517790984158794654e-01,-4.423474030020812520e-01,-2.891191185727161606e-01
1.700000000000000122e-02,-3.446618483569700575e-01,-1.575318523098897250e-01,-2.482596458696046948e-01
1.799999999999999864e-02,2.922680407041642822e-02,1.280308763403840699e-01,-1.040884307431025335e-01
1.899999999999999953e-02,3.589850727858747148e-01,2.986779081323833740e-01,1.658273963050134747e-01
2.000000000000000042e-02,4.933115373395123293e-01,2.679248014512159992e-01,3.153405189227030392e-01
2.100000000000000130e-02,3.761236109653307014e-01,7.932550112965569555e-02,3.515907060865383071e-01
2.199999999999999872e-02,1.369558258111223392e-01,-9.317140710436415396e-02,2.484647812418979418e-01
2.299999999999999961e-02,-5.456231443371087342e-02,-1.307928850130535003e-01,1.019768447560189945e-01
2.400000000000000050e-02,-6.676223424297014764e-02,-8.022413249164999337e-04,-1.636951029596064085e-03
2.500000000000000139e-02,1.261377302553363389e-01,2.078104772166833869e-01,2.886381631510731918e-02
2.599999999999999881e-02,3.757002201705347821e-01,3.639527044336363648e-01,1.535326315163573485e-01
2.699999999999999969e-02,5.255708522872827304e-01,3.262778281997500973e-01,2.999743837934579216e-01
2.800000000000000058e-02,4.128337074532741346e-01,6.755465816382308364e-02,3.385838191400726838e-01
2.900000000000000147e-02,5.034465147395017492e-02,-2.739909513444868105e-01,2.394766471575409117e-01
2.999999999999999889e-02,-3.703355372462815431e-01,-5.415406277846933625e-01,1.403255056759573557e-02
3.099999999999999978e-02,-6.614291591318782748e-01,-6.115519013098859036e-01,-2.225005207831746157e-01
3.200000000000000067e-02,-6.878232486151485414e-01,-4.936206626261612218e-01,-3.810446987082607984e-01
3.300000000000000155e-02,-5.393637160804020114e-01,-3.125427606229617128e-01,-3.801556674279204517e-01
3.400000000000000244e-02,-3.144117952177186703e-01,-2.098650248996596357e-01,-2.492584922305966233e-01
3.500000000000000333e-02,-2.156159708815013898e-01,-2.966086140779632396e-01,-1.263532788892316183e-01
3.599999999999999728e-02,-3.315093659279539362e-01,-5.166224484067473144e-01,-8.784080130289721733e-02
3.699999999999999817e-02,-6.247500312519865817e-01,-7.114542047812868475e-01,-1.853525093942239299e-01
3.799999999999999906e-02,-8.501608156756853552e-01,-7.686972548911221725e-01,-3.334371637722005621e-01
3.899999999999999994e-02,-8.773302390006330054e-01,-6.055472660388778738e-01,-4.657039813414157181e-01
4.000000000000000083e-02,-6.577821452277277103e-01,-2.999964267398607110e-01,-4.663287313020587077e-01
4.100000000000000172e-02,-2.662962335579906470e-01,-2.023362229494204967e-02,-3.246022305452440637e-01
4.200000000000000261e-02,6.935085677219166023e-02,1.283545356725270259e-01,-9.168263685246103023e-02
4.299999999999999656e-02,2.126593024851876346e-01,4.009419663778676646e-02,9.538809353826580018e-02
4.399999999999999745e-02,8.569150928185023663e-02,-1.576089607762212186e-01,1.609422062438135570e-01
4.499999999999999833e-02,-1.766718317559714813e-01,-3.355776768338520344e-01,8.628257108847944834e-02
4.599999999999999922e-02,-3.852746328271213772e-01,-3.501869608217367258e-01,-8.647721661118883130e-02
4.700000000000000011e-02,-4.085808953823369394e-01,-2.075635243925762485e-01,-2.197056286694072935e-01
4.800000000000000100e-02,-2.216229490783019618e-01,1.174735542523001885e-02,-2.306327091094993176e-01
4.900000000000000189e-02,1.962579434553092181e-02,1.181598329478792120e-01,-1.191320601519743477e-01
5.000000000000000278e-02,1.194264871591122351e-01,-7.837147511750106738e-04,7.447536022193081834e-03
5.099999999999999672e-02,-4.080132751958130487e-05,-2.735060121130941657e-01,8.515441133092438442e-02
5.199999999999999761e-02,-3.507148045831490757e-01,-5.903800601687979599e-01,9.903906556312578116e-03
5.299999999999999850e-02,-7.460011648036777299e-01,-7.906171343840092680e-01,-2.074724471292125338e-01
5.399999999999999939e-02,-9.993614722664870831e-01,-7.740276567895800763e-01,-4.393503795599006390e-01
5.500000000000000028e-02,-1.015583145044364644e+00,-6.029494408404887373e-01,-6.013274267407648921e-01
5.600000000000000117e-02,-7.876308436935262058e-01,-3.823155135270175364e-01,-6.183768925954465923e-01
5.700000000000000205e-02,-5.211181800508239981e-01,-2.859750750402155761e-01,-4.958729866917837015e-01
5.800000000000000294e-02,-3.836422571144466054e-01,-3.795535625300703875e-01,-3.238616748073108731e-01
5.899999999999999689e-02,-4.526088293754325642e-01,-5.737576500576735405e-01,-2.217477076044805373e-01
5.999999999999999778e-02,-6.793644380079317813e-01,-7.009913820727970979e-01,-2.647642117370919701e-01
6.099999999999999867e-02,-8.780208750362311632e-01,-6.684168157872432126e-01,-3.776022740599702665e-01
6.199999999999999956e-02,-8.632656676221759362e-01,-4.287829119577628578e-01,-5.085388828256632854e-01
6.300000000000000044e-02,-6.067788823449703495e-01,-1.021889486592986174e-01,-5.253072758498622541e-01
6.400000000000000133e-02,-2.147423605886729925e-01,1.642853206814142153e-01,-3.971456550387388873e-01
6.500000000000000222e-02,1.439226570119910564e-01,2.474118609818133641e-01,-1.724476352098047449e-01
6.600000000000000311e-02,2.789978224947232688e-01,1.273494541576913885e-01,4.739382457214356970e-02
6.700000000000000400e-02,1.455298000638339806e-01,-9.809123922248931537e-02,1.587662102401401210e-01
6.800000000000000488e-02,-1.212638648016856197e-01,-2.602964206071955999e-01,1.012230248283180756e-01
6.900000000000000577e-02,-3.441605171576852529e-01,-2.434173797084746294e-01,-5.609083755520351960e-02
7.000000000000000666e-02,-3.821627932605356492e-01,-6.697745206712946153e-02,-2.226002547736314618e-01
7.099999999999999367e-02,-2.292084266351974708e-01,1.142404311340916717e-01,-2.642959237514984627e-01
7.199999999999999456e-02,2.319882907937206862e-02,1.824921390794464193e-01,-2.004679470292637100e-01
7.299999999999999545e-02,1.533734304529504322e-01,4.271252149248641605e-02,-7.640291154586130451e-02
7.399999999999999634e-02,4.020087272983394189e-02,-2.486166230754456308e-01,4.144176280518115790e-02
7.499999999999999722e-02,-2.936726060340505984e-01,-5.148532545657474868e-01,6.365608989545588729e-03
7.599999999999999811e-02,-6.693958875421713861e-01,-6.466987015915555137e-01,-1.617735419908718497e-01
7.699999999999999900e-02,-8.952880288851137180e-01,-5.632801692738078625e-01,-3.855322747916461457e-01
7.799999999999999989e-02,-8.538150746937922531e-01,-3.270727255893877139e-01,-5.473794896832451240e-01
7.900000000000000078e-02,-5.684825659527088515e-01,-8.105252150084045482e-02,-5.768762018908900613e-01
8.000000000000000167e-02,-2.571506843420002797e-01,7.535332614436196855e-03,-4.503098074275571627e-01
8.100000000000000255e-02,-7.355620879967571246e-02,-6.697704796654700699e-02,-2.537082700837479110e-01
8.200000000000000344e-02,-9.958814314557722092e-02,-2.277386304288002983e-01,-1.065246198385171317e-01
8.300000000000000433e-02,-2.778559513368620837e-01,-3.221717980887799926e-01,-6.693121930499427996e-02
8.400000000000000522e-02,-4.553476206036488061e-01,-2.400042299202860274e-01,-1.567006924951372671e-01
8.500000000000000611e-02,-4.164478536931975894e-01,5.101205903242667095e-02,-2.783104704078503966e-01
8.599999999999999312e-02,-1.463978024147929158e-01,3.819777033369156638e-01,-3.204831887178601346e-01
8.699999999999999400e-02,2.527120284633386782e-01,6.004423021712163022e-01,-1.949519218484639660e-01
8.799999999999999489e-02,5.923660544465394473e-01,6.092731190742304292e-01,2.356770754454028116e-02
8.899999999999999578e-02,6.979920772674202967e-01,4.274442349556024645e-01,2.554075302632265454e-01
8.999999999999999667e-02,5.660365869934509409e-01,1.817087966100117691e-01,3.799131435123666023e-01
9.099999999999999756e-02,2.689421837836548645e-01,4.180593642815038508e-02,3.458660951382474535e-01
9.199999999999999845e-02,1.297430733790328784e-02,8.192094365854961369e-02,1.854122906629513123e-01
9.299999999999999933e-02,-4.523333117775567985e-02,2.467815167502971641e-01,2.611579814517044681e-03
9.400000000000000022e-02,1.160167292663407818e-01,4.126415437723133239e-01,-9.363231885272793598e-02
9.500000000000000111e-02,3.423358386117446583e-01,4.321154785043484492e-01,-5.557414398952784107e-02
9.600000000000000200e-02,4.617684403632257850e-01,2.455172886375447949e-01,7.772189114382382913e-02
9.700000000000000289e-02,3.616674009731116746e-01,-4.324644303557153430e-02,1.971993989311224549e-01
9.800000000000000377e-02,2.703854974363682079e-02,-2.862909632527419479e-01,2.081030719535676421e-01
9.900000000000000466e-02,-3.047131138333500355e-01,-3.347957436442324797e-01,7.640458398944183216e-02
1.000000000000000056e-01,-4.988141291774564334e-01,-1.791761751432044969e-01,-1.441133434320045759e-01
1.010000000000000064e-01,-4.090766906085638310e-01,9.666512947394792499e-02,-3.062575672721184472e-01
1.019999999999999934e-01,-1.146008908075046989e-01,3.231196698950312696e-01,-3.382181156152124779e-01
1.029999999999999943e-01,2.242542867239595283e-01,3.994758709098211735e-01,-2.115687135257690310e-01
1.039999999999999952e-01,4.370043203489969996e-01,3.006405255913879304e-01,-1.130516743238935660e-02
1.049999999999999961e-01,4.281658950055463042e-01,1.478176533623010991e-01,1.781700843174833793e-01
1.059999999999999970e-01,2.543158005355745099e-01,7.820331296222543527e-02,2.541512300949714809e-01
1.069999999999999979e-01,8.759262505023489298e-02,2.031736300527635652e-01,1.926933988905757400e-01
1.079999999999999988e-01,1.065372030788469676e-01,4.813804551873304138e-01,8.257083610786890293e-02
1.089999999999999997e-01,3.684405388596492803e-01,7.660030772208092920e-01,1.420395740251460988e-02
1.100000000000000006e-01,7.228000899497049048e-01,9.092996317663425421e-01,8.347596717585377413e-02
1.110000000000000014e-01,1.027195290136670325e+00,8.271948496845463739e-01,2.577513897869477266e-01
1.120000000000000023e-01,1.100670922293094156e+00,5.846405676440006305e-01,4.849972065415125710e-01
1.130000000000000032e-01,9.090885726268825850e-01,3.108095197000435017e-01,6.295131202471802023e-01
1.140000000000000041e-01,5.581102856490230968e-01,1.818789223686828327e-01,6.145527299704132140e-01
1.150000000000000050e-01,2.631621137264413268e-01,2.347830776772469319e-01,4.457290177246122642e-01
1.160000000000000059e-01,1.988466275858316590e-01,3.854521802767315042e-01,2.420453189381194525e-01
1.170000000000000068e-01,3.215528895252081631e-01,5.112176174706380971e-01,1.017979564117902774e-01
1.179999999999999938e-01,5.247301654710080365e-01,4.805184679225021904e-01,9.835510098421114400e-02
1.189999999999999947e-01,6.363690636516061705e-01,2.636631837449075477e-01,1.796938805367005176e-01
1.199999999999999956e-01,5.160640804400348225e-01,-2.345416360914621967e-02,3.163039798874933695e-01
1.209999999999999964e-01,2.027643204320993819e-01,-2.325727173370962797e-01,3.588798052111595860e-01
1.219999999999999973e-01,-1.268921264478783950e-01,-2.159024507551217664e-01,2.630284331728700575e-01
1.229999999999999982e-01,-3.089305226120274139e-01,-2.531496758392437225e-03,6.478321614582957522e-02
1.239999999999999991e-01,-2.012387415115454714e-01,2.878500973370678451e-01,-1.288597590902051948e-01
1.250000000000000000e-01,1.225996061182144103e-01,4.938000521004157206e-01,-1.855344449349383140e-01
1.260000000000000009e-01,4.735543500431769748e-01,5.039952403036511708e-01,-7.923280714368617639e-02
1.270000000000000018e-01,6.936433811130966465e-01,3.675924327119529655e-01,1.333292273984029719e-01
1.280000000000000027e-01,6.483834493284658107e-01,1.978482252341191294e-01,3.371530116938541988e-01
1.290000000000000036e-01,4.655608375297566881e-01,1.367518255696131835e-01,4.466125899070997884e-01
1.300000000000000044e-01,2.668912205087649037e-01,2.826122246673917204e-01,3.984592694458379269e-01
1.310000000000000053e-01,2.553126945533393255e-01,5.417253216892268242e-01,2.842921506598284909e-01
1.320000000000000062e-01,4.620405293792397283e-01,7.717167906490953744e-01,1.784162024595651597e-01
1.330000000000000071e-01,7.894560207676386554e-01,8.190227495320046014e-01,1.900884456719481030e-01
1.340000000000000080e-01,1.051133441807995617e+00,6.513301726008443593e-01,3.232438584240598933e-01
1.350000000000000089e-01,1.065238207865825348e+00,3.302584601781928253e-01,5.184181195461325942e-01
1.360000000000000098e-01,8.086988631359907087e-01,6.696277997306276930e-02,6.526411723376853713e-01
1.370000000000000107e-01,4.147987249130245524e-01,-4.985885731449783004e-02,6.437117256804667509e-01
1.380000000000000115e-01,8.125688661608818086e-02,2.367738964740110155e-02,4.820502238624744251e-01
1.390000000000000124e-01,-4.483547165422255981e-02,1.667223515926720134e-01,2.461876841426836604e-01
1.400000000000000133e-01,6.067764724367023799e-02,2.536402852415778342e-01,5.685942769590769663e-02
1.409999999999999865e-01,2.752893586699236561e-01,1.746478146029104006e-01,-3.576948834348275732e-03
1.419999999999999873e-01,3.633733909470550638e-01,-6.829656608879054736e-02,6.758322811103618932e-02
1.429999999999999882e-01,2.592140098626747879e-01,-3.438263637812956630e-01,1.795035059547102352e-01
1.439999999999999891e-01,-2.518760892593643885e-02,-4.731553208726893556e-01,2.573496675655255195e-01
1.449999999999999900e-01,-3.506778182182067050e-01,-3.988316886650426496e-01,1.946425395514533585e-01
1.459999999999999909e-01,-5.154854087401106177e-01,-1.387653309456680917e-01,2.492500174270625632e-02
1.469999999999999918e-01,-4.065036088644588541e-01,1.536538162983121791e-01,-1.636465404327755446e-01
1.479999999999999927e-01,-8.070283658163471263e-02,3.119080519775996319e-01,-2.541322469703751752e-01
1.489999999999999936e-01,2.900419592720335227e-01,2.771696090854023908e-01,-1.910788193362035481e-01
1.499999999999999944e-01,4.928506678715244838e-01,1.056756944379900615e-01,4.245740264326816962e-03
1.509999999999999953e-01,4.605257552470530813e-01,-5.793638532999024343e-02,2.234189583687689051e-01
1.519999999999999962e-01,2.295995163431835961e-01,-1.016019525318957589e-01,3.506567776139863368e-01
1.529999999999999971e-01,1.987298642184896075e-02,4.766345189867105675e-02,3.474582762556399085e-01
1.539999999999999980e-01,-1.881230293786902499e-02,2.880553894279229143e-01,2.110182371587314698e-01
1.549999999999999989e-01,1.412794947472945928e-01,4.559715314401229791e-01,7.785129660574235944e-02
1.559999999999999998e-01,4.102683826613047202e-01,4.052011482193203507e-01,2.888013707790598739e-02
1.570000000000000007e-01,6.305634893264698837e-01,1.721077855805316636e-01,1.237456083881879332e-01
1.580000000000000016e-01,5.977033048390568704e-01,-1.591060746506386403e-01,2.748804472319571479e-01
1.590000000000000024e-01,3.125672717074239326e-01,-4.184336038682349712e-01,4.055989078035345807e-01
1.600000000000000033e-01,-1.046871421863506402e-01,-4.929616433117358643e-01,3.946320060130773522e-01
1.610000000000000042e-01,-4.522156315885698663e-01,-3.893035338980550542e-01,2.616091077178989699e-01
1.620000000000000051e-01,-5.744894831541084157e-01,-2.206677790540813311e-01,3.849209781901441734e-03
1.630000000000000060e-01,-4.709204823773879833e-01,-1.388116778296595299e-01,-2.127258367016078844e-01
1.640000000000000069e-01,-2.462663504326395025e-01,-2.479342793413258084e-01,-2.937728716853538757e-01
1.650000000000000078e-01,-1.207468407043535558e-01,-4.779786491855817498e-01,-2.546230387222031544e-01
1.660000000000000087e-01,-2.091261936505949826e-01,-7.024810216488550640e-01,-1.369833118631702540e-01
1.670000000000000095e-01,-4.761978122016587989e-01,-7.674759773135885199e-01,-4.047607195050557244e-02
1.680000000000000104e-01,-7.721982037496856188e-01,-6.184160889262847460e-01,-5.353827156391319231e-02
1.690000000000000113e-01,-8.903255876510970390e-01,-3.242847060002030934e-01,-1.943397923683873041e-01
1.700000000000000122e-01,-7.434438266771414838e-01,-2.748916086487378577e-02,-3.824597833614425957e-01
1.710000000000000131e-01,-3.988780997661829919e-01,1.050385417779548941e-01,-4.682825224730930436e-01
1.719999999999999862e-01,-3.200375887476503145e-02,2.999510039048065499e-02,-4.224396144030985734e-01
1.729999999999999871e-01,1.717434099031762140e-01,-1.638307348090692894e-01,-2.396324249821807362e-01
1.739999999999999880e-01,1.471529542820996517e-01,-3.405462878156636508e-01,-1.825854727253620885e-02
1.749999999999999889e-01,-7.986278061437432352e-02,-3.253404264487557151e-01,1.399593704614397749e-01
1.759999999999999898e-01,-3.342073365011112851e-01,-1.600463085897043669e-01,1.554022654853929875e-01
1.769999999999999907e-01,-3.898589973048262602e-01,4.480265606478756046e-02,4.274596525623893667e-02
1.779999999999999916e-01,-2.561888439813012619e-01,1.643621044075921911e-01,-1.234211387101118579e-01
1.789999999999999925e-01,-1.790145363818122911e-03,9.232819353578648747e-02,-1.983501966565174857e-01
1.799999999999999933e-01,1.905633054282974692e-01,-1.985996850572005756e-01,-1.611074468102106916e-01
1.809999999999999942e-01,1.573842909237270216e-01,-5.384241812836424446e-01,-1.830580877455941641e-02
1.819999999999999951e-01,-1.338674776785268583e-01,-7.377454340104484531e-01,1.098991131689538159e-01
1.829999999999999960e-01,-5.619784590188834361e-01,-7.535603964792574327e-01,1.232075435774997590e-01
1.839999999999999969e-01,-8.863923642740902942e-01,-5.776763717847267499e-01,3.674087507683413897e-03
1.849999999999999978e-01,-9.819502775994105592e-01,-3.868519595941743994e-01,-2.266039035151880265e-01
1.859999999999999987e-01,-8.270776447678965804e-01,-3.017384000518958942e-01,-4.642792422087053117e-01
1.869999999999999996e-01,-5.771089370745251523e-01,-4.096011301511491287e-01,-5.788556871513016455e-01
1.880000000000000004e-01,-4.076166291869163238e-01,-6.041553422292980091e-01,-5.402538437412669481e-01
1.890000000000000013e-01,-4.385702323068168540e-01,-7.701681159974547164e-01,-3.970487843606601563e-01
1.900000000000000022e-01,-6.507303116804241672e-01,-7.520622178245459644e-01,-2.624968253601105417e-01
1.910000000000000031e-01,-8.962870334048345100e-01,-5.191148862864519709e-01,-2.214656887790063533e-01
1.920000000000000040e-01,-9.800292140054416290e-01,-1.751476752040104501e-01,-3.166602918990036319e-01
1.930000000000000049e-01,-8.121293701938246956e-01,8.948861886494832718e-02,-4.705501915790069600e-01
1.940000000000000058e-01,-4.237715243536862575e-01,1.802633567643471824e-01,-5.710860874226394435e-01
1.950000000000000067e-01,-3.223011735304416592e-02,5.273173415729250080e-02,-5.253219979931570416e-01
1.960000000000000075e-01,1.739615290903195888e-01,-1.528799086923872397e-01,-3.688107818017413164e-01
1.970000000000000084e-01,1.392851568665805784e-01,-2.901240439526658887e-01,-1.164485069867810529e-01
1.980000000000000093e-01,-9.377422581673164337e-02,-2.609179197655859261e-01,7.522184277028194643e-02
1.990000000000000102e-01,-3.415922164236886993e-01,-8.113124090816804801e-02,1.237549187077774671e-01
2.000000000000000111e-01,-4.315254510486793427e-01,1.240022131971309366e-01,2.030999610223171992e-02
2.010000000000000120e-01,-2.866874936690800291e-01,1.842109795184784238e-01,-1.348486362471044975e-01
2.020000000000000129e-01,-3.719521684528743349e-02,4.781612356223940985e-02,-2.609810209390812652e-01
2.030000000000000138e-01,1.217026323266111737e-01,-2.401158528033919271e-01,-2.604917067772224426e-01
2.039999999999999869e-01,1.011672784492642085e-01,-5.237135453484875747e-01,-1.398927108482815596e-01
2.049999999999999878e-01,-1.638494706149868640e-01,-6.752934418799413363e-01,-1.047339181873807416e-02
2.059999999999999887e-01,-5.637456538197477274e-01,-6.115823874998397303e-01,5.368844824822489870e-02
2.069999999999999896e-01,-8.554446296212865342e-01,-3.751909389477592893e-01,-2.824869954037457012e-02
2.079999999999999905e-01,-9.150693586602745011e-01,-1.538237400037945624e-01,-2.493813662900560280e-01
2.089999999999999913e-01,-7.196181413477494848e-01,-7.556792394326959650e-02,-4.712391769577761735e-01
2.099999999999999922e-01,-4.281660628450784101e-01,-1.703131614755941659e-01,-5.877680955508418625e-01
2.109999999999999931e-01,-1.897831348624761938e-01,-3.313921560941276989e-01,-5.549380226943876337e-01
2.119999999999999940e-01,-1.648373233938366100e-01,-4.452641088951088677e-01,-4.002086843030236429e-01
2.129999999999999949e-01,-3.581641798566077006e-01,-3.652725209040285081e-01,-2.328543594478662826e-01
2.139999999999999958e-01,-5.539132710941934157e-01,-7.737723645427911634e-02,-1.244826793195432102e-01
2.149999999999999967e-01,-6.083177836122437565e-01,2.625314882855067089e-01,-1.521235311384263600e-01
2.159999999999999976e-01,-3.926250545674465076e-01,4.853744706349261695e-01,-2.771815021925211897e-01
2.169999999999999984e-01,-9.749483949819318443e-03,5.176632239914573663e-01,-3.778949441879043136e-01
2.179999999999999993e-01,3.857569131853363364e-01,3.519623149236958404e-01,-3.690314744591196572e-01
2.190000000000000002e-01,5.908179538406669318e-01,1.204040647163976546e-01,-2.093504321031106619e-01
2.200000000000000011e-01,5.367558228440587609e-01,6.767500437296262647e-03,2.596479456716591777e-02
2.210000000000000020e-01,2.810676570086843018e-01,5.209310439599818682e-02,2.384081098498382345e-01
2.220000000000000029e-01,1.648963681612422918e-02,2.354282951570465243e-01,3.304002359970458769e-01
2.230000000000000038e-01,-1.016525052692978381e-01,4.093537929500451478e-01,2.395192097584784852e-01
2.240000000000000047e-01,1.395930723961693980e-02,4.383099592320394144e-01,8.527885312039004684e-02
2.250000000000000056e-01,2.487145085643613085e-01,2.526956750465985113e-01,-6.813697708373067652e-02
2.260000000000000064e-01,4.301527670149634108e-01,-4.685482793802697721e-02,-1.100355066955175654e-01
2.270000000000000073e-01,4.032953499104910966e-01,-3.163991174855525501e-01,-9.333512710643929525e-03
2.280000000000000082e-01,1.395494551804292160e-01,-3.832079438545248906e-01,1.252178306161860488e-01
2.290000000000000091e-01,-2.485777424711925754e-01,-2.207620049834362608e-01,2.057767090307589253e-01
2.300000000000000100e-01,-5.182951231560779526e-01,1.994908794168872082e-02,1.576061059517625262e-01
2.310000000000000109e-01,-5.476638718835145081e-01,2.583035079205839857e-01,-2.261497159639437940e-02
2.320000000000000118e-01,-3.089517339942562391e-01,3.093179289256625664e-01,-2.276865863701594550e-01
2.330000000000000127e-01,3.780464118566404658e-02,1.923215276979809985e-01,-3.721902695039798759e-01
2.340000000000000135e-01,2.769318484132661795e-01,4.009310670688517181e-02,-3.460950220358126050e-01
2.349999999999999867e-01,3.165046882491427960e-01,-2.130570995708268300e-02,-2.076502859009589086e-01
2.359999999999999876e-01,1.715503507563278240e-01,1.124505004806778813e-01,2.801511862342355962e-03
2.369999999999999885e-01,-1.309187195306321314e-02,4.013767910489991486e-01,1.509524939152720735e-01
2.379999999999999893e-01,-4.058872704991903224e-02,7.022158362215215055e-01,1.665096967193690491e-01
2.389999999999999902e-01,1.392362226848541940e-01,8.749635902864468795e-01,6.671949490573525487e-02
2.399999999999999911e-01,5.205409646337771923e-01,8.043154331877099272e-01,-3.882164057085563114e-02
2.409999999999999920e-01,8.798227866675371045e-01,5.795044197051777424e-01,-5.502200419795530428e-02
2.419999999999999929e-01,1.046030604227680794e+00,3.306500359125255639e-01,6.801470681660193307e-02
2.429999999999999938e-01,9.531845550853654814e-01,2.040812265222115007e-01,2.895370309895853311e-01
2.439999999999999947e-01,6.427374253750363087e-01,2.735837295862335039e-01,5.111202706069598589e-01
2.449999999999999956e-01,3.458757945563882275e-01,4.451505249824478372e-01,5.884049105206570207e-01
2.459999999999999964e-01,2.116732945344338146e-01,5.688968347707170636e-01,5.465091897527917242e-01
2.469999999999999973e-01,2.966898098192639610e-01,5.337644942946181414e-01,3.511578247588317270e-01
2.479999999999999982e-01,5.088893606552269411e-01,3.057540855775044419e-01,1.748760880052196154e-01
2.489999999999999991e-01,6.695398926550985008e-01,3.550246941597327410e-03,9.091610586409963612e-02
2.500000000000000000e-01,6.195342503927807609e-01,-2.151432966802875879e-01,1.384010374333458360e-01
2.510000000000000009e-01,3.512096986562910916e-01,-2.207824262310843777e-01,2.722974697645038078e-01
2.520000000000000018e-01,-2.729248857147048221e-02,-1.407141319622068690e-02,3.624299468681796421e-01
2.530000000000000027e-01,-2.786428040369884340e-01,2.511284993853961089e-01,3.429050392835534811e-01
2.540000000000000036e-01,-2.719969499933377333e-01,4.529115697882315494e-01,1.916336140426066759e-01
2.550000000000000044e-01,-3.522362156556287094e-02,4.755671686455232305e-01,-2.313550714416897497e-02
2.560000000000000053e-01,3.335350090640202270e-01,3.382639801789127376e-01,-1.706374163404023314e-01
2.570000000000000062e-01,5.957472432943828888e-01,1.649686815498732639e-01,-1.777385311716586924e-01
2.580000000000000071e-01,6.275658038607107025e-01,1.411135826784897795e-01,-5.005136016291923673e-02
2.590000000000000080e-01,4.772649886594782509e-01,2.705337467068144597e-01,1.799125898759925402e-01
2.600000000000000089e-01,2.772154621949952102e-01,5.541986826760195717e-01,3.510711696017594918e-01
2.610000000000000098e-01,1.960247793738293387e-01,8.067099672432086477e-01,3.991281158937851625e-01
2.620000000000000107e-01,3.672499661486549605e-01,8.738695168444133854e-01,3.114313503640936398e-01
2.630000000000000115e-01,6.975192710078916836e-01,7.218688160069767212e-01,1.884962304864402083e-01
2.640000000000000124e-01,1.005105266185151391e+00,4.332206031302974214e-01,1.434282274277035862e-01
2.650000000000000133e-01,1.123782189306804735e+00,1.560662804698216832e-01,2.236645902271472974e-01
2.660000000000000142e-01,9.684742870118269176e-01,5.152533287882491569e-02,3.898763152254994258e-01
2.670000000000000151e-01,6.221631417863081603e-01,1.216465009894582006e-01,6.010343462714546892e-01
2.680000000000000160e-01,2.562484884373440464e-01,2.787601765450531399e-01,6.882088891030060385e-01
2.690000000000000169e-01,9.525824652301184692e-02,3.507911789124084634e-01,6.254800894305563297e-01
2.700000000000000178e-01,1.442374773346618011e-01,2.729182622969391070e-01,4.300618748163256844e-01
2.710000000000000187e-01,3.387007147111745775e-01,2.304290054859262776e-02,2.083414994375560603e-01
2.720000000000000195e-01,4.839822949239181438e-01,-2.629296753690134603e-01,6.966335575948437442e-02
2.730000000000000204e-01,4.321384841843899927e-01,-4.229486038361202627e-01,8.487088131689575488e-02
2.740000000000000213e-01,1.643751088236815316e-01,-3.723289101440139803e-01,1.826361560966947017e-01
2.750000000000000222e-01,-1.946590387363575925e-01,-1.040803849778023232e-01,2.911013766791752388e-01
2.760000000000000231e-01,-4.282559904055718847e-01,1.754097420227987703e-01,3.044657861273468158e-01
2.770000000000000240e-01,-4.332675752245860878e-01,3.271764991827778024e-01,1.682110309324080233e-01
2.780000000000000249e-01,-1.711936826070064865e-01,2.902485084157342965e-01,-3.129790756651529282e-02
2.790000000000000258e-01,2.068619224102823118e-01,1.200537264205542715e-01,-1.872956742755572945e-01
2.800000000000000266e-01,4.763707850454015347e-01,-3.664703974933140179e-02,-2.342513396835928796e-01
2.810000000000000275e-01,5.013493257164791661e-01,-6.449105650366022957e-02,-1.058044812185737482e-01
2.819999999999999729e-01,3.312348855484681942e-01,9.352064383264611924e-02,9.565891839424486842e-02
2.829999999999999738e-01,1.014069760485419580e-01,3.388102284486145810e-01,2.805839851228217885e-01
2.839999999999999747e-01,1.483825994582290688e-03,5.323505623034616718e-01,3.708715206318475843e-01
2.849999999999999756e-01,1.373763352052192466e-01,5.219779570443617844e-01,3.006516504222144781e-01
2.859999999999999765e-01,4.049437010550234195e-01,2.860493047406941214e-01,1.689247804796520092e-01
2.869999999999999774e-01,6.766783174702547532e-01,-4.651468438418310952e-02,6.986339885695370955e-02
2.879999999999999782e-01,7.547943518370839877e-01,-3.032786293671541067e-01,8.097819601027698988e-02
2.889999999999999791e-01,5.569739197500096495e-01,-3.769693637436269951e-01,2.151689982329382245e-01
2.899999999999999800e-01,1.709622099202690870e-01,-2.859532522563630885e-01,3.993991171683999863e-01
2.909999999999999809e-01,-2.192706989829513176e-01,-1.035827449281552376e-01,5.062105983639046958e-01
2.919999999999999818e-01,-4.079732407176567821e-01,-6.215660263662485530e-02,4.377993854056096978e-01
2.929999999999999827e-01,-3.741767551205663622e-01,-1.762717688165326979e-01,2.467421984947908709e-01
2.939999999999999836e-01,-1.691961829038267084e-01,-4.147531039029856426e-01,-2.045457194775678750e-03
2.949999999999999845e-01,-2.526288136776893081e-02,-6.607149308950569511e-01,-1.908789444982217087e-01
2.959999999999999853e-01,-6.077322532987581433e-02,-7.555253431024709920e-01,-2.185751030107870030e-01
2.969999999999999862e-01,-3.070328696804612290e-01,-6.061883632795075361e-01,-1.404650481751247015e-01
2.979999999999999871e-01,-6.338892275268871446e-01,-3.174386615679742896e-01,-1.672546322779257244e-02
2.989999999999999880e-01,-8.344449755102968380e-01,-4.164672323979366764e-02,3.409014404934405940e-02
2.999999999999999889e-01,-7.957083016884158866e-01,8.595052439224343255e-02,-4.605805658600425900e-02
3.009999999999999898e-01,-5.005734049175185607e-01,1.212152214697946595e-02,-2.262050296808982564e-01
3.019999999999999907e-01,-1.205381756062696846e-01,-1.715755281508498931e-01,-4.023690166284100145e-01
3.029999999999999916e-01,1.538639114370137229e-01,-3.177082776962663058e-01,-4.529869833720977512e-01
3.039999999999999925e-01,1.863071778611466445e-01,-3.064567350821555403e-01,-3.627455914707511386e-01
3.049999999999999933e-01,-1.777831201029738545e-03,-1.426425849076036756e-01,-1.458897562794737313e-01
3.059999999999999942e-01,-2.272203298420617246e-01,9.213521263630096436e-02,6.248208186122688329e-02
3.069999999999999951e-01,-3.584440163074511521e-01,2.208215249369050170e-01,1.684987663906532540e-01
3.079999999999999960e-01,-2.736963697354550806e-01,1.355730458957280504e-01,1.409648732648831615e-01
3.089999999999999969e-01,-5.427164703773212397e-03,-1.185679174512954681e-01,-1.615004656448709025e-02
3.099999999999999978e-01,2.404808026047784708e-01,-4.747729279323679719e-01,-1.398859380742568936e-01
3.109999999999999987e-01,2.854206404510435946e-01,-6.767833603879801485e-01,-1.610172430449285652e-01
3.119999999999999996e-01,7.712934156461270785e-02,-7.008494093976367356e-01,-7.126285399130251330e-02
3.130000000000000004e-01,-3.223391125133142077e-01,-5.364179852246785396e-01,7.127689968223224759e-02
3.140000000000000013e-01,-7.005622489545013654e-01,-3.705851835671941652e-01,2.026423524721888692e-01
3.150000000000000022e-01,-8.803159370436147713e-01,-3.017716404290790022e-01,1.720561396801427168e-01
3.160000000000000031e-01,-8.191114152195896336e-01,-4.248105028295313113e-01,-4.815133961989535860e-03
3.170000000000000040e-01,-5.912830646476795460e-01,-6.412351587879532300e-01,-2.565591560393060688e-01
3.180000000000000049e-01,-3.967171838189614275e-01,-8.073814558578339406e-01,-4.570636283933812161e-01
3.190000000000000058e-01,-3.959712292408829049e-01,-8.177111726607820819e-01,-5.216670686783506650e-01
3.200000000000000067e-01,-5.955851812673508272e-01,-6.109998871348528704e-01,-4.372638474851473500e-01
3.210000000000000075e-01,-8.710904807327839450e-01,-2.777484193582519523e-01,-3.139342194372106154e-01
3.220000000000000084e-01,-1.032236990316232950e+00,-2.692505900806729108e-03,-2.072370698886195628e-01
3.230000000000000093e-01,-9.552975212170176089e-01,1.030690413892883656e-01,-2.372748878628777036e-01
3.240000000000000102e-01,-6.215418889992750939e-01,-7.332779123033260869e-03,-3.895825267605487197e-01
3.250000000000000111e-01,-2.215227478311987963e-01,-1.906113929500826421e-01,-5.358253438790241407e-01
3.260000000000000120e-01,6.653756703645413717e-02,-3.244862976207632532e-01,-6.060455786940929235e-01
3.270000000000000129e-01,1.015166992768760101e-01,-2.905603112309907976e-01,-5.214647138388864844e-01
3.280000000000000138e-01,-8.194078374284802235e-02,-9.550864912653191097e-02,-3.098036294021818127e-01
3.290000000000000147e-01,-3.214317249366260287e-01,1.157351168170757255e-01,-7.319467162068346577e-02
3.300000000000000155e-01,-4.454582872731925880e-01,1.906331933072472340e-01,5.522597687806952288e-02
3.310000000000000164e-01,-3.646158433050502023e-01,5.978901299936710545e-02,6.935724495845498050e-02
3.320000000000000173e-01,-1.089674855280650945e-01,-2.351114200395691689e-01,-6.964347723305304438e-02
3.330000000000000182e-01,1.122118264181749397e-01,-5.455587855238276385e-01,-2.099870401846730406e-01
3.340000000000000191e-01,1.724351583201061966e-01,-6.805892355396911952e-01,-2.915691006366804006e-01
3.350000000000000200e-01,-5.381917667938512090e-02,-6.304150171269553571e-01,-2.164959052673510742e-01
3.360000000000000209e-01,-4.331717675208624496e-01,-4.236845800228294379e-01,-6.144613762407958452e-02
3.370000000000000218e-01,-7.922319540009142846e-01,-2.149320568784550967e-01,5.880910964359388482e-02
3.380000000000000226e-01,-9.365634420776846047e-01,-1.521319153386499201e-01,5.182221620323368416e-02
3.390000000000000235e-01,-8.229088780911086864e-01,-2.659066240012317728e-01,-8.655480015800758042e-02
3.400000000000000244e-01,-5.541032535561229988e-01,-4.361179645930276516e-01,-3.164026264931303345e-01
3.410000000000000253e-01,-3.157085670074173955e-01,-5.587168420601807961e-01,-5.297480051118144129e-01
3.420000000000000262e-01,-2.680370963246144767e-01,-4.733177233547991580e-01,-6.052939695623156258e-01
3.430000000000000271e-01,-4.034624633926666704e-01,-1.970181688868768433e-01,-5.220371373634702383e-01
3.439999999999999725e-01,-6.179663553184850944e-01,1.280460794483651021e-01,-3.655259609145099509e-01
3.449999999999999734e-01,-7.528479253536977112e-01,3.823585558651697025e-01,-2.197428357931713871e-01
3.459999999999999742e-01,-6.204227643444256701e-01,4.108508850417218472e-01,-1.715585072997757032e-01
3.469999999999999751e-01,-2.821878268039590409e-01,2.646357765223437686e-01,-2.778893227721826453e-01
3.479999999999999760e-01,1.349102276622775598e-01,7.128094439490054168e-02,-3.866454811754689858e-01
3.489999999999999769e-01,4.322781235804314948e-01,-4.853816238292236324e-02,-4.691945888919588081e-01
3.499999999999999778e-01,4.602895843064133685e-01,2.689391184315103461e-02,-4.082020600873454974e-01
3.509999999999999787e-01,2.676761300160102608e-01,2.295690729646244210e-01,-2.052798047402947246e-01
3.519999999999999796e-01,-1.404700225833731535e-03,3.913043960294875778e-01,4.120394057316308783e-02
3.529999999999999805e-01,-1.291876935294762330e-01,4.116867025360701482e-01,2.213737190523127341e-01
3.539999999999999813e-01,-7.364654930232067409e-02,2.399858259558375062e-01,2.446193554321295927e-01
3.549999999999999822e-01,1.544467518024437713e-01,-5.948838516495964096e-02,1.203060542775083730e-01
3.559999999999999831e-01,3.915839953756894420e-01,-3.372023818181512644e-01,-2.453335701135710145e-02
3.569999999999999840e-01,4.151393182790690251e-01,-4.022904555847710562e-01,-1.316755836427028203e-01
3.579999999999999849e-01,2.070062937215718935e-01,-2.880890571268404643e-01,-1.130596317084991698e-01
3.589999999999999858e-01,-1.603373242345957350e-01,-2.774162925452335407e-02,2.173928709709202836e-02
3.599999999999999867e-01,-4.936397043538502949e-01,1.718482064748537430e-01,1.606741090989066423e-01
3.609999999999999876e-01,-6.030155728940188586e-01,2.208351121522026672e-01,1.864411389603946312e-01
3.619999999999999885e-01,-4.691319948874714818e-01,1.102339606934438915e-01,8.099764496162950578e-02
3.629999999999999893e-01,-1.494457544899799317e-01,-6.395307312850496972e-02,-1.201877615883781003e-01
3.639999999999999902e-01,1.317855911237965083e-01,-1.300648650719885557e-01,-3.345227765158206301e-01
3.649999999999999911e-01,2.312495349716830184e-01,1.924861043273997860e-02,-4.215099756331252556e-01
3.659999999999999920e-01,1.049616082322680777e-01,3.131213150405361412e-01,-3.446851725906561748e-01
3.669999999999999929e-01,-1.097348457708977043e-01,6.343841960235702127e-01,-1.859103596821419790e-01
3.679999999999999938e-01,-1.986369514851563101e-01,7.899131389503835088e-01,1.490516538975624090e-02
3.689999999999999947e-01,-8.994957262309927204e-02,7.648058239281804171e-01,8.755978664821463531e-02
3.699999999999999956e-01,2.729036624598699112e-01,5.493893298311015583e-01,5.141690789040235382e-02
3.709999999999999964e-01,6.789117506954387427e-01,3.329125050453670132e-01,-5.565339435784021072e-02
3.719999999999999973e-01,9.404499169931990199e-01,2.233863306855944364e-01,-1.443370216814426621e-01
3.729999999999999982e-01,9.455068825315164904e-01,2.858419747480360762e-01,-1.062208405489958457e-01
3.739999999999999991e-01,7.099378399156081043e-01,4.633316444430214953e-01,7.915825272633696119e-02
3.750000000000000000e-01,3.922424866145764466e-01,6.023817108815953114e-01,3.161572897847412800e-01
3.760000000000000009e-01,2.279284504749957696e-01,5.544556120438207669e-01,4.973869307048181532e-01
3.770000000000000018e-01,2.671520996855999419e-01,3.408026969936857054e-01,5.332387512534145779e-01
3.780000000000000027e-01,4.676250929991570549e-01,3.409089868718284677e-02,4.325171117548339272e-01
3.790000000000000036e-01,6.580183238605333829e-01,-1.885811259442938259e-01,2.567923483771608617e-01
3.800000000000000044e-01,6.997810008032027129e-01,-2.167242588763549360e-01,1.129244547404036347e-01
3.810000000000000053e-01,4.681431035161291998e-01,-2.669050423468818239e-02,8.522924273670354212e-02
3.820000000000000062e-01,1.002124441798833421e-01,2.399874650044621360e-01,1.854023631040168929e-01
3.830000000000000071e-01,-2.087985359059620627e-01,4.239797692001000540e-01,3.304469346194807144e-01
3.840000000000000080e-01,-3.232147316879468990e-01,4.395135012340363745e-01,3.804152037767413175e-01
3.850000000000000089e-01,-1.526655027953129351e-01,3.000111102869527646e-01,3.187411411116476967e-01
3.860000000000000098e-01,1.829578227738667962e-01,1.381660115065778405e-01,1.131728707681411566e-01
3.870000000000000107e-01,4.746520493501805160e-01,9.563939306921329098e-02,-1.023210440805924770e-01
3.880000000000000115e-01,5.813236900436931087e-01,2.656410986388126894e-01,-2.088045453694615805e-01
3.890000000000000124e-01,4.682469136809540577e-01,5.402732912788311692e-01,-1.616972491601574580e-01
3.900000000000000133e-01,2.511633299938101360e-01,8.153898141440825142e-01,-1.140490161402447911e-03
3.910000000000000142e-01,1.449926752343536351e-01,8.969699447606790388e-01,2.174233377779490051e-01
3.920000000000000151e-01,2.482620905276653467e-01,7.693640253510151128e-01,3.343724442468177238e-01
3.930000000000000160e-01,5.678771253832309851e-01,4.920505346261319635e-01,3.243262487758110657e-01
3.940000000000000169e-01,9.249748918134792497e-01,2.393264850028319068e-01,2.264432217035785289e-01
3.950000000000000178e-01,1.151639262219465110e+00,1.425460110531697744e-01,1.187973475017699704e-01
3.960000000000000187e-01,1.093727216955518555e+00,2.171912209777208114e-01,9.593538967352241431e-02
3.970000000000000195e-01,8.069503166955201978e-01,3.785305461978256125e-01,2.428283777480524375e-01
3.980000000000000204e-01,4.451433311519868430e-01,4.598919726013345755e-01,4.506568242814305569e-01
3.990000000000000213e-01,2.159591859338622077e-01,3.590536027454078738e-01,6.393864589362711071e-01
4.000000000000000222e-01,2.154317605499648791e-01,1.051389637383719766e-01,6.909318344623961439e-01
4.010000000000000231e-01,3.927679786803755513e-01,-1.926646736490112422e-01,5.829897926637019889e-01
4.020000000000000240e-01,5.755903102181414432e-01,-3.660414478655753534e-01,3.743351008593960305e-01
4.030000000000000249e-01,5.721556522973328951e-01,-3.160824571357044865e-01,1.980691739176678179e-01
4.040000000000000258e-01,3.570046156059004105e-01,-9.729109607223464240e-02,1.200197034236463872e-01
4.050000000000000266e-01,-1.851928561084622768e-02,1.749928291701580985e-01,1.674877972983996599e-01
4.060000000000000275e-01,-3.250902567394947096e-01,3.323703111818271383e-01,2.890756599100577917e-01
4.069999999999999729e-01,-4.022992213323317023e-01,3.059170473827426684e-01,3.647608645797908999e-01
4.079999999999999738e-01,-2.180694338854136383e-01,1.331685023578511318e-01,3.056152343332533827e-01
4.089999999999999747e-01,1.217653866475495311e-01,-2.505385881407998921e-02,1.506761918740361361e-01
4.099999999999999756e-01,4.072997595293493811e-01,-4.128131371588128484e-02,-7.187332968995839566e-02
4.109999999999999765e-01,5.277248589606861051e-01,1.300921315133508616e-01,-1.896530541895684041e-01
4.119999999999999774e-01,3.994865556945437213e-01,4.012508790303853656e-01,-1.864161531011469253e-01
4.129999999999999782e-01,1.701437558956426510e-01,5.949672782466680632e-01,-3.333128818298374679e-02
4.139999999999999791e-01,3.962462540394070393e-02,5.960608154060286212e-01,1.829430471119119772e-01
4.149999999999999800e-01,1.055723046263145060e-01,3.969486051759966161e-01,3.461637852808186477e-01
4.159999999999999809e-01,3.745250779177332068e-01,6.732866059027876882e-02,3.511236890726298077e-01
4.169999999999999818e-01,6.920154714646195027e-01,-1.964174652585720104e-01,2.542504576250763093e-01
4.179999999999999827e-01,8.613865210774122039e-01,-2.712941610007786331e-01,1.227342436622352734e-01
4.189999999999999836e-01,7.556032272188035748e-01,-1.643561877318666653e-01,6.052601112084914775e-02
4.199999999999999845e-01,4.155971447493532756e-01,-1.483708095049013354e-02,1.508085172930112294e-01
4.209999999999999853e-01,3.233765815996501869e-02,4.257214211715392577e-02,3.286418624003234479e-01
4.219999999999999862e-01,-2.221954061913185841e-01,-9.023381544364270090e-02,5.015611783277602598e-01
4.229999999999999871e-01,-2.577267987757797529e-01,-3.422770704491083227e-01,5.611510058940127887e-01
4.239999999999999880e-01,-8.457043572695195632e-02,-6.026674023648068701e-01,4.567420909322223443e-01
4.249999999999999889e-01,8.175412074271294627e-02,-7.185154513816927047e-01,2.357618795592474059e-01
4.259999999999999898e-01,1.056098826164231369e-01,-5.916911844452146241e-01,8.352984219061009713e-03
4.269999999999999907e-01,-1.186450603887459626e-01,-3.284835476507870222e-01,-1.169274170224514769e-01
4.279999999999999916e-01,-4.483215413748568023e-01,-4.639029701955823398e-02,-9.920845333402585065e-02
4.289999999999999925e-01,-7.390685464244879377e-01,7.776085377828562128e-02,-1.949444141099947311e-03
4.299999999999999933e-01,-7.858030207954264101e-01,7.600673321538382356e-03,9.864218086538585617e-02
4.309999999999999942e-01,-5.868459937255139369e-01,-1.734606333299283654e-01,1.005796398720232854e-01
4.319999999999999951e-01,-2.225938049502393101e-01,-3.134652994759816735e-01,-5.718255648094851956e-02
4.329999999999999960e-01,9.035484083406343514e-02,-2.931537056902163707e-01,-2.495116211014218877e-01
4.339999999999999969e-01,1.934664010336732409e-01,-9.600720910470257607e-02,-4.092472932993671542e-01
4.349999999999999978e-01,7.161982834427174649e-02,1.329588778971545482e-01,-4.236841765724262965e-01
4.359999999999999987e-01,-1.640156517619781318e-01,2.720615435088647449e-01,-2.697864205898107270e-01
4.369999999999999996e-01,-3.173978948875171291e-01,2.109465661843120399e-01,-4.832179848823452140e-02
4.380000000000000004e-01,-2.780393283527089476e-01,-3.920059890091057153e-02,1.262202967604606485e-01
4.390000000000000013e-01,-2.673403136157069884e-02,-3.851745934330075838e-01,1.739570563423784022e-01
4.400000000000000022e-01,2.517814108475194268e-01,-5.955751903383441626e-01,9.466742047211637590e-02
4.410000000000000031e-01,3.933569854635031171e-01,-6.272871311946225381e-01,-5.274575584184871407e-02
4.420000000000000040e-01,2.611858988776940005e-01,-4.837906327034344200e-01,-1.462207606705480945e-01
4.430000000000000049e-01,-8.127831179476653622e-02,-3.202266183936863242e-01,-1.098216353095256559e-01
4.440000000000000058e-01,-4.870186990045033970e-01,-2.769837303404662499e-01,4.221057922361194648e-02
4.450000000000000067e-01,-7.545082472439438304e-01,-4.051215993911020385e-01,1.974651772040471875e-01
4.460000000000000075e-01,-7.616181119126018695e-01,-6.426444310973594698e-01,2.667273919494714818e-01
4.470000000000000084e-01,-5.688341770236587935e-01,-8.381512771222229263e-01,1.795131871315064076e-01
4.480000000000000093e-01,-3.670859975666479480e-01,-8.571793413895927305e-01,-2.880505945050948480e-02
4.490000000000000102e-01,-3.224041270315216035e-01,-6.550712090534835941e-01,-2.761819912467583515e-01
4.500000000000000111e-01,-4.925486705568849488e-01,-3.372064015908897705e-01,-4.318188748463987481e-01
4.510000000000000120e-01,-7.977121335337584718e-01,-6.191446014684976601e-02,-4.304790883993790396e-01
4.520000000000000129e-01,-1.023064274090853321e+00,3.121940655682971244e-02,-3.332800089904556784e-01
4.530000000000000138e-01,-1.047529696056167747e+00,-7.296113737391218823e-02,-2.065250419633440360e-01
4.540000000000000147e-01,-7.816318591482639411e-01,-2.600608890367716586e-01,-1.698724664205870927e-01
4.550000000000000155e-01,-3.867445831848894122e-01,-3.703271107219335279e-01,-2.686949181844383028e-01
4.560000000000000164e-01,-5.937346897308669325e-02,-3.166651823034929425e-01,-4.299118635219487117e-01
4.570000000000000173e-01,5.705255394558723242e-02,-1.083858554783233424e-01,-5.982578509624828511e-01
4.580000000000000182e-01,-6.069263353919227694e-02,1.095526672106410110e-01,-5.908785287487839932e-01
4.590000000000000191e-01,-2.981252069110870706e-01,1.961380564640406166e-01,-4.780582702507307769e-01
4.600000000000000200e-01,-4.716115474163631305e-01,5.559495505821695355e-02,-2.359049126807918340e-01
4.610000000000000209e-01,-4.286147093651124229e-01,-2.260561125873445931e-01,-2.659282329496227143e-02
4.620000000000000218e-01,-1.946615271205598408e-01,-5.195091756230753033e-01,6.149880465788595818e-02
4.630000000000000226e-01,8.840872459259795091e-02,-6.761739651677549645e-01,5.903448741458579806e-03
4.640000000000000235e-01,2.037416739748903471e-01,-6.303375201746689305e-01,-1.448972352855102119e-01
4.650000000000000244e-01,8.063738695056285599e-02,-4.366510494891201466e-01,-2.668605418269117679e-01
4.660000000000000253e-01,-2.919262262884145254e-01,-2.471277441404202135e-01,-2.630869188944024994e-01
4.670000000000000262e-01,-6.686086559122074169e-01,-2.116946916542969404e-01,-1.527739161360219255e-01
4.680000000000000271e-01,-9.047186319686972844e-01,-3.317022191250416085e-01,1.077201331472164500e-02
4.689999999999999725e-01,-8.767281830588112834e-01,-5.365067101346751022e-01,9.895495085837807681e-02
4.699999999999999734e-01,-6.521311774523161908e-01,-6.778154216982573699e-01,6.855503370879714731e-02
4.709999999999999742e-01,-4.052621583168546926e-01,-5.936121187665449606e-01,-1.393980476298695981e-01
4.719999999999999751e-01,-3.136306440654383909e-01,-3.219411284600324219e-01,-3.677448855800540817e-01
4.729999999999999760e-01,-4.338073315464002766e-01,2.616983309934856061e-02,-5.567711916056287125e-01
4.739999999999999769e-01,-6.662528510216674249e-01,2.702522974883349027e-01,-5.688978057704414670e-01
4.749999999999999778e-01,-8.616974826630716677e-01,3.189598568403221868e-01,-4.649772582725970604e-01
4.759999999999999787e-01,-8.219118545197219294e-01,1.913966710906149227e-01,-3.180829474656338696e-01
4.769999999999999796e-01,-5.449426964561728814e-01,-1.749365879386156897e-02,-2.042624194112599156e-01
4.779999999999999805e-01,-1.280725669856069282e-01,-1.056465956693826702e-01,-2.467645610374045173e-01
4.789999999999999813e-01,2.354309208758783301e-01,-3.293271115079901556e-02,-3.821642766976586225e-01
4.799999999999999822e-01,3.656414689593383560e-01,1.859805675563600547e-01,-5.038950904550293375e-01
4.809999999999999831e-01,2.228169709112556296e-01,3.793684610129310908e-01,-5.332715397256457823e-01
4.819999999999999840e-01,-1.430703583509013860e-02,4.017888236288972292e-01,-4.093461308685551470e-01
4.829999999999999849e-01,-1.938049652657341804e-01,2.299254283300573021e-01,-1.772479125599870087e-01
4.839999999999999858e-01,-1.758919596409339314e-01,-7.364513705608535798e-02,5.758907006796951805e-02
4.849999999999999867e-01,4.377941997544800706e-02,-3.404883596852918970e-01,1.907533587238441353e-01
4.859999999999999876e-01,3.085283971912718970e-01,-4.325073735975872857e-01,1.438808401791233371e-01
4.869999999999999885e-01,4.127273791225508082e-01,-3.308005570678451135e-01,7.549752374659618286e-03
4.879999999999999893e-01,2.848047897550165519e-01,-9.657208701117284133e-02,-1.295230196964453351e-01
4.889999999999999902e-01,-6.295840807998435984e-02,1.152352743677804853e-01,-1.674156083452466304e-01
4.899999999999999911e-01,-4.288103626164955218e-01,1.408575960016311690e-01,-7.785848594188712890e-02
4.909999999999999920e-01,-6.307613917874851373e-01,1.869431384791427758e-02,7.123290116351828349e-02
4.919999999999999929e-01,-5.819459763329214441e-01,-1.700091959612491654e-01,1.772551746847335075e-01
4.929999999999999938e-01,-3.232373063456406848e-01,-2.433379509026526166e-01,1.618642129718116662e-01
4.939999999999999947e-01,-2.566423007566451253e-02,-9.314684602273071157e-02,7.245368356033495515e-05
4.949999999999999956e-01,1.070795132821699969e-01,2.001417565279952071e-01,-2.255117509477076454e-01
4.959999999999999964e-01,3.475496860334486432e-02,5.220156667813943274e-01,-3.983958579811280876e-01
4.969999999999999973e-01,-1.697910654080234394e-01,7.184037966498765249e-01,-4.495562575151156315e-01
4.979999999999999982e-01,-3.333395549761724586e-01,6.920087039191534783e-01,-3.248365323072456290e-01
4.989999999999999991e-01,-2.678472855324876556e-01,5.021849055868793377e-01,-1.441649186779981884e-01
5.000000000000000000e-01,6.487913535965002948e-05,2.832408750447069079e-01,-8.288084202808625178e-03
5.010000000000000009e-01,4.272841491319183116e-01,2.099624767029663330e-01,2.134994108177601380e-02
5.020000000000000018e-01,7.693831668832498138e-01,2.917103044311069593e-01,-8.286527675273702709e-02
5.030000000000000027e-01,8.680675318129558171e-01,4.860006068143337132e-01,-1.993718492132302567e-01
5.040000000000000036e-01,7.194491449404815109e-01,6.388821068060459574e-01,-2.483976096082127494e-01
5.050000000000000044e-01,4.327573874208213711e-01,5.944374093283352201e-01,-1.319180075542088770e-01
5.060000000000000053e-01,2.304691876928503524e-01,3.603692669027714901e-01,8.020535205726632422e-02
5.070000000000000062e-01,2.212004637032383147e-01,6.923120285823532172e-02,3.219883206250468977e-01
5.080000000000000071e-01,4.034619402244717379e-01,-1.929723879215357041e-01,4.665649090468819704e-01
5.090000000000000080e-01,6.309210814130116196e-01,-2.088202732692267527e-01,4.848946182612585698e-01
5.100000000000000089e-01,7.230517178683223412e-01,-4.728463360290233175e-02,3.205886552584344962e-01
5.110000000000000098e-01,5.856400236837491224e-01,2.130248438583800252e-01,1.594132902475677849e-01
5.120000000000000107e-01,2.376953389005040940e-01,3.822851273814356632e-01,6.833283978209669929e-02
5.130000000000000115e-01,-1.181145820133896601e-01,3.944675651136071992e-01,1.076652911015444775e-01
5.140000000000000124e-01,-3.143070454059248009e-01,2.502779212640413586e-01,2.353492606457810721e-01
5.150000000000000133e-01,-2.366983888143677772e-01,7.854825440668244951e-02,3.587863590969282424e-01
5.160000000000000142e-01,3.935804869071379830e-02,4.945818733515307958e-02,3.742102034693237100e-01
5.170000000000000151e-01,3.475279241603484448e-01,2.190324337300379176e-01,2.427137319462489007e-01
5.180000000000000160e-01,5.150318170177501376e-01,5.263582311454486629e-01,3.049659430211434236e-02
5.190000000000000169e-01,4.442216407530849009e-01,7.794312174137502103e-01,-1.737950335046105077e-01
5.200000000000000178e-01,2.301283244205230283e-01,9.158534717553699078e-01,-2.334027382081712010e-01
5.210000000000000187e-01,8.998441580633810555e-02,8.024314096939775265e-01,-1.335589662674213085e-01
5.220000000000000195e-01,1.232297382024415966e-01,5.417815220829020895e-01,5.607909450719320704e-02
5.230000000000000204e-01,3.871048369468773065e-01,2.979911662805698191e-01,2.274703345579470182e-01
5.240000000000000213e-01,7.752405035334049010e-01,2.221001490224545072e-01,2.940185366601642536e-01
5.250000000000000222e-01,1.082117943990589914e+00,3.018762822720996164e-01,2.335207477895228922e-01
5.260000000000000231e-01,1.126382225389256142e+00,4.745133368296849397e-01,1.098858015274708777e-01
5.270000000000000240e-01,9.277933903170620944e-01,5.519188540762921535e-01,3.609317265745845549e-02
5.280000000000000249e-01,6.054066412262077979e-01,4.621538840811770799e-01,9.365950154536654970e-02
5.290000000000000258e-01,3.291987569621699916e-01,1.900933170167145025e-01,2.710647067804053401e-01
5.300000000000000266e-01,2.848113298990859188e-01,-1.280685371653980942e-01,5.109176952268950078e-01
5.310000000000000275e-01,4.280671313049354554e-01,-3.026490406216325035e-01,6.717724650719443247e-01
5.320000000000000284e-01,6.209632746278143101e-01,-2.800107529352250380e-01,6.637001221083332902e-01
5.330000000000000293e-01,6.991527603403925317e-01,-6.013623515419166954e-02,5.257077262466575140e-01
5.340000000000000302e-01,5.456225715464687598e-01,2.031663697379244848e-01,3.207817047482119377e-01
5.350000000000000311e-01,1.899004379306867829e-01,3.560745257552047627e-01,1.817193437887441310e-01
5.360000000000000320e-01,-1.699487357591213665e-01,3.051464670274178226e-01,1.643942540401419350e-01
5.370000000000000329e-01,-3.587304136271357025e-01,1.409879133178979504e-01,2.732893572008124883e-01
5.380000000000000338e-01,-2.640955522125849608e-01,-1.652287417826092675e-02,3.739357269434043785e-01
5.390000000000000346e-01,3.689454842668368761e-02,-3.335401685211063921e-02,4.161627397765403913e-01
5.400000000000000355e-01,3.514551920015929198e-01,1.553387897773947368e-01,3.201805954285898426e-01
5.410000000000000364e-01,5.066762885287016127e-01,4.344455303543785507e-01,9.308230195830224929e-02
5.420000000000000373e-01,4.433382412073924028e-01,6.610413895062241529e-01,-1.078480148988977122e-01
5.430000000000000382e-01,2.285615996506926151e-01,6.681584533335103160e-01,-1.964905076408128282e-01
5.440000000000000391e-01,5.233658954479050024e-02,4.768367386685304909e-01,-1.373210196693568363e-01
5.450000000000000400e-01,7.824588911908993138e-02,1.751293252683670809e-01,4.549851193072594613e-02
5.460000000000000409e-01,3.191852980526427297e-01,-6.449642356391163678e-02,2.433864148268705951e-01
5.470000000000000417e-01,6.652957297346283605e-01,-1.380496223155348035e-01,3.538708834566702266e-01
5.480000000000000426e-01,9.040492822786492244e-01,-4.339802989476775064e-02,3.069351095857613121e-01
5.490000000000000435e-01,9.027599048902046341e-01,1.105750640725205458e-01,1.909631499660303933e-01
5.500000000000000444e-01,6.531161309538724424e-01,1.719771179808367023e-01,8.378829915763168212e-02
5.510000000000000453e-01,2.701640398250629294e-01,1.824754109483877826e-02,7.581946966083169537e-02
5.520000000000000462e-01,-2.703654773572986697e-02,-2.641581916892020154e-01,2.273744139010074605e-01
5.530000000000000471e-01,-9.568101429334564811e-02,-5.295759121826798532e-01,4.315109159088939550e-01
5.540000000000000480e-01,6.353147237343111271e-03,-6.575010409843589088e-01,5.769003834530911368e-01
5.550000000000000488e-01,1.912265507333722192e-01,-5.663983222514222815e-01,5.901589950780973259e-01
5.560000000000000497e-01,2.512093170728929570e-01,-2.808822039467613330e-01,4.300800007366727407e-01
5.570000000000000506e-01,8.469872233753293622e-02,-2.344779587186287054e-02,2.162108615568827108e-01
5.580000000000000515e-01,-2.427144886307605609e-01,7.926930070231416603e-02,2.995662435070426191e-02
5.590000000000000524e-01,-5.900046654502083543e-01,1.742481072326964447e-02,-4.782897310129034102e-02
5.600000000000000533e-01,-7.434844620535117077e-01,-1.679388534630390228e-01,2.233995464053564403e-02
5.610000000000000542e-01,-6.213582607235180744e-01,-3.072439590233519424e-01,1.428429443012988187e-01
5.620000000000000551e-01,-3.005601733194668834e-01,-2.666868346337964435e-01,1.933851729070103498e-01
5.629999999999999449e-01,3.928566171479312003e-02,-8.243155925478838630e-02,1.117842428392698123e-01
5.639999999999999458e-01,2.061373276807052235e-01,1.806293635018668686e-01,-6.704465437339418576e-02
5.649999999999999467e-01,1.412102424810298684e-01,3.360092633429281328e-01,-2.836880972223174702e-01
5.659999999999999476e-01,-8.166113593507509649e-02,2.815869853972230441e-01,-3.904175191868904937e-01
5.669999999999999485e-01,-2.620523927726641777e-01,1.247528695884749309e-02,-3.491532858854903831e-01
5.679999999999999494e-01,-2.706955466580587277e-01,-2.924613969825619608e-01,-1.636685226997092457e-01
5.689999999999999503e-01,-5.526396598275886557e-02,-5.087307517717654104e-01,5.317570114386528657e-02
5.699999999999999512e-01,2.523634205050256929e-01,-5.344745052775755623e-01,1.794332934297580839e-01
5.709999999999999520e-01,4.544744086304897124e-01,-4.070856648296047875e-01,1.737374258424526641e-01
5.719999999999999529e-01,4.304633996136923990e-01,-2.497768279234322264e-01,5.164748467273825444e-02
5.729999999999999538e-01,1.487817960671599382e-01,-2.234168736183019810e-01,-6.993238648373331645e-02
5.739999999999999547e-01,-2.600424734918193592e-01,-3.761752655809643131e-01,-1.304132008368233675e-01
5.749999999999999556e-01,-5.674833624086909056e-01,-6.262428579026977360e-01,-3.040712762299054364e-02
5.759999999999999565e-01,-6.545991940406299392e-01,-8.455681254229218125e-01,1.470426339650471037e-01
5.769999999999999574e-01,-5.262489190867354338e-01,-8.798266709080614367e-01,2.986241754177770824e-01
5.779999999999999583e-01,-3.289594403334421546e-01,-6.964734069354279189e-01,3.078576864742811892e-01
5.789999999999999591e-01,-2.281808124274686544e-01,-3.755037611643696205e-01,1.844009931633390498e-01
5.799999999999999600e-01,-3.592706600363905212e-01,-1.043277477001201825e-01,-5.378573670897775216e-02
5.809999999999999609e-01,-6.636764226256696153e-01,-2.550224539798175497e-02,-2.707864743249137618e-01
5.819999999999999618e-01,-9.675374217559206125e-01,-1.317636824803498918e-01,-3.715101516355265310e-01
5.829999999999999627e-01,-1.075675939885955223e+00,-2.988896658149955976e-01,-3.255837286788398899e-01
5.839999999999999636e-01,-9.144231384172080146e-01,-4.077951511387019057e-01,-2.048786926476224846e-01
5.849999999999999645e-01,-5.660161933702863024e-01,-3.485223522615568115e-01,-1.298435270668088226e-01
5.859999999999999654e-01,-1.926921443473574302e-01,-1.285246828188638668e-01,-1.410453836546989026e-01
5.869999999999999662e-01,-4.685472188613115999e-03,1.116366034314018457e-01,-2.968592167091381184e-01
5.879999999999999671e-01,-5.207171616464947167e-02,2.094565460325517325e-01,-4.777369750754060229e-01
5.889999999999999680e-01,-2.809772601797947966e-01,9.298727874897506906e-02,-5.961169464917802641e-01
5.899999999999999689e-01,-4.624097778983035645e-01,-2.002850957491176531e-01,-5.678053969032059722e-01
5.909999999999999698e-01,-4.809459575808463505e-01,-4.980741369821123921e-01,-3.989580561553919269e-01
5.919999999999999707e-01,-2.826723011083466797e-01,-6.665933038404052713e-01,-1.699868232441054117e-01
5.929999999999999716e-01,2.009290535313682999e-02,-6.203094905623253164e-01,-1.695540446160051984e-03
5.939999999999999725e-01,2.309840690336925628e-01,-4.576717873822306326e-01,3.393194259598255463e-02
5.949999999999999734e-01,1.723437039988283404e-01,-2.783224104298239743e-01,-6.900967487721793026e-02
5.959999999999999742e-01,-1.209122123075219851e-01,-2.371797898205819655e-01,-2.149167643774488323e-01
5.969999999999999751e-01,-5.163031170919417656e-01,-3.949807165112007024e-01,-2.755803031999149444e-01
5.979999999999999760e-01,-8.166896445376999880e-01,-6.124662947080936615e-01,-2.153832044888023267e-01
5.989999999999999769e-01,-8.898543485819793153e-01,-7.545378878927022637e-01,-6.467055472871013899e-02
5.999999999999999778e-01,-7.250645587758309807e-01,-7.011270406686536116e-01,8.252551220095737106e-02
6.009999999999999787e-01,-4.758822551663436373e-01,-4.358042479049557549e-01,1.410969505055048867e-01
6.019999999999999796e-01,-3.534936117955586599e-01,-8.700228435303093699e-02,1.703632220100094810e-02
6.029999999999999805e-01,-4.230354374323540556e-01,1.630436350438351500e-01,-2.034939958736006749e-01
6.039999999999999813e-01,-6.802105700649390130e-01,2.224403119188994582e-01,-4.362820679125629653e-01
6.049999999999999822e-01,-8.998181541471867995e-01,9.311048438935883020e-02,-5.501700547824076581e-01
6.059999999999999831e-01,-9.839903463303075748e-01,-1.016573617376383826e-01,-5.204034085038383717e-01
6.069999999999999840e-01,-7.711459695159016414e-01,-1.832448459455690293e-01,-3.906614123948062844e-01
6.079999999999999849e-01,-3.697940941879698240e-01,-7.727352584875819830e-02,-2.468458070769519730e-01
6.089999999999999858e-01,1.381668499752526473e-02,1.416311074016665117e-01,-2.262640024775496861e-01
6.099999999999999867e-01,2.253457583831125766e-01,3.529081097292464109e-01,-3.191934789954202212e-01
6.109999999999999876e-01,1.688203176748203360e-01,3.945376648397533326e-01,-4.758013384426874604e-01
6.119999999999999885e-01,-3.326745671338542099e-02,2.133785925800811833e-01,-5.852605524804178616e-01
6.129999999999999893e-01,-2.435804304271927678e-01,-8.339465217166144861e-02,-5.741983721839180044e-01
6.139999999999999902e-01,-2.693518620743207137e-01,-3.575277747093228431e-01,-4.016209660132259440e-01
6.149999999999999911e-01,-8.573222480086974129e-02,-4.719652656894394172e-01,-1.561771524384948095e-01
6.159999999999999920e-01,2.078073312818509155e-01,-3.609346884102562769e-01,5.170866157248951711e-02
6.169999999999999929e-01,3.870153542207256936e-01,-1.462204795594415074e-01,1.254355739168593886e-01
6.179999999999999938e-01,3.355132423205877679e-01,4.194168561425645758e-02,5.073569161901902297e-02
6.189999999999999947e-01,3.602037591097322772e-02,6.304656235561666155e-02,-9.636603162033895165e-02
6.199999999999999956e-01,-3.464288975388626346e-01,-8.257345250738651332e-02,-1.927867608363884044e-01
6.209999999999999964e-01,-6.294095601197523537e-01,-2.786215242814248372e-01,-1.841750542895132514e-01
6.219999999999999973e-01,-6.667023543065619950e-01,-3.416828450936326145e-01,-4.795904748920955252e-02
6.229999999999999982e-01,-4.667796899323361504e-01,-2.254678142161694876e-01,1.140020045731440779e-01
6.239999999999999991e-01,-1.851466651312083933e-01,8.493715353512421018e-02,1.759599011283292935e-01
6.250000000000000000e-01,-1.353163347602683942e-03,4.139946603538038339e-01,1.122002178210882439e-01
6.260000000000000009e-01,-3.114361584302572164e-02,6.191086133555706583e-01,-1.019216734863625101e-01
6.270000000000000018e-01,-2.491661706316850022e-01,6.217880101554964511e-01,-3.142088077401841706e-01
6.280000000000000027e-01,-4.450830847403751123e-01,4.483947429384120831e-01,-4.505977779698995267e-01
6.290000000000000036e-01,-4.752036652139579043e-01,2.415368510569431970e-01,-4.403944103106157693e-01
6.300000000000000044e-01,-2.457164941578067752e-01,1.840981307761508645e-01,-2.980162098377832636e-01
6.310000000000000053e-01,1.457593118231521323e-01,2.843873405622288630e-01,-1.264555686112016075e-01
6.320000000000000062e-01,5.492322017822036662e-01,4.830371229638526498e-01,-3.954617304187792864e-02
6.330000000000000071e-01,7.479529949987727688e-01,6.431115913314359167e-01,-8.497281035754809808e-02
6.340000000000000080e-01,6.822298195826657086e-01,5.959632264436567350e-01,-1.979070994137409056e-01
6.350000000000000089e-01,4.293317034187212333e-01,3.824766366224637282e-01,-3.029831977058440318e-01
6.360000000000000098e-01,1.975426924608807699e-01,6.956416590140225564e-02,-3.161668357860598633e-01
6.370000000000000107e-01,1.549188357371002744e-01,-1.670233400229972354e-01,-1.523476933209584327e-01
6.380000000000000115e-01,3.129874536729834733e-01,-1.986616677854271540e-01,7.482707224796496248e-02
6.390000000000000124e-01,5.671472001475053037e-01,-5.511196733261353176e-02,3.183383329402951212e-01
6.400000000000000133e-01,7.331895973807741607e-01,1.869811784177227154e-01,4.109692022769635411e-01
6.410000000000000142e-01,6.579163720299694429e-01,3.514291588491635365e-01,3.611389950981142571e-01
6.420000000000000151e-01,3.507526989871215251e-01,3.444493911736874470e-01,2.069502068210833656e-01
6.430000000000000160e-01,-3.106090369136085480e-02,1.916034945277921842e-01,6.467096540113534409e-02
6.440000000000000169e-01,-3.087425243360312765e-01,-8.083333028973031060e-04,4.658554813960087693e-02
6.450000000000000178e-01,-3.224330852985154428e-01,-2.102176189491363617e-02,1.341754956787042374e-01
6.460000000000000187e-01,-9.361713913610703042e-02,1.610595491045760108e-01,2.761946236696024015e-01
6.470000000000000195e-01,2.059097420797261213e-01,4.578004141756867873e-01,3.779969745719883867e-01
6.480000000000000204e-01,4.042844317808166332e-01,7.669187802065758897e-01,3.302460529540532375e-01
6.490000000000000213e-01,4.047533666153381726e-01,8.809309025492133571e-01,1.558882258034974544e-01
6.500000000000000222e-01,2.056662808021410827e-01,8.053715623083473885e-01,-7.453733648336019479e-02
6.510000000000000231e-01,6.212951813602609306e-03,5.502719226010569509e-01,-2.259022661546506716e-01
6.520000000000000240e-01,-1.937318577955498416e-02,3.481988035201600828e-01,-2.448016392324859902e-01
6.530000000000000249e-01,2.024023908700569863e-01,2.677660081523711710e-01,-1.029811883962375441e-01
6.540000000000000258e-01,5.889884555835807056e-01,3.624359236209916957e-01,8.541919862721690515e-02
6.550000000000000266e-01,9.544337805502359773e-01,5.448165186507243352e-01,2.172114637748132626e-01
6.560000000000000275e-01,1.121050821874443937e+00,6.216803877059857708e-01,2.259322888782398786e-01
6.570000000000000284e-01,9.919358388047141428e-01,5.313810454352886348e-01,1.220591404890701837e-01
6.580000000000000293e-01,7.047112633195024012e-01,2.698534042246128473e-01,9.015252098082657956e-03
6.590000000000000302e-01,4.338307608939547255e-01,-4.651235865678904347e-02,-2.891623416844376834e-02
6.600000000000000311e-01,3.215870752894766094e-01,-2.436832856263823066e-01,1.055110226767919518e-01
6.610000000000000320e-01,4.504694545301790032e-01,-2.372074563023930938e-01,3.216500925636274211e-01
6.620000000000000329e-01,6.529435397954406195e-01,-2.938324943386664070e-02,5.452000712537158345e-01
6.630000000000000338e-01,7.978506577934145749e-01,2.207112541497590619e-01,6.540524387338768619e-01
6.640000000000000346e-01,6.929396804608102256e-01,3.561151418080136244e-01,6.021778415040774934e-01
6.650000000000000355e-01,3.841659675035855037e-01,3.080672102096527198e-01,4.275110755395318263e-01
6.660000000000000364e-01,-1.498955777580602937e-02,1.380438410715417175e-01,2.656328512415511711e-01
6.670000000000000373e-01,-2.676894706823061409e-01,-2.598101822940617617e-02,1.864864885044738574e-01
6.680000000000000382e-01,-2.719609683333520933e-01,-1.760001721753657808e-02,2.240630150013768473e-01
6.690000000000000391e-01,-4.940778992065215924e-02,1.833053363132411961e-01,3.456090158752231911e-01
6.700000000000000400e-01,2.930981948947873894e-01,4.526147104903144869e-01,4.466226373914717329e-01
6.710000000000000409e-01,4.821894136761185057e-01,7.074695990830275338e-01,4.337182047204783397e-01
6.720000000000000417e-01,4.779279707582761993e-01,7.317478439991871308e-01,2.811599269788730981e-01
6.730000000000000426e-01,2.872564292341851511e-01,5.557903411112736780e-01,4.441689667766979960e-02
6.740000000000000435e-01,7.685941492163542166e-02,2.725967833251549122e-01,-1.395681714772920856e-01
6.750000000000000444e-01,3.515088437188686188e-02,4.269827169787176330e-02,-1.797168725783552246e-01
6.760000000000000453e-01,2.340949895769767752e-01,-1.350665876399320849e-02,-4.833872182633652814e-02
6.770000000000000462e-01,5.801264088044816303e-01,1.015431713428313620e-01,1.265733981620398296e-01
6.780000000000000471e-01,8.989547299393951807e-01,2.344199543451773449e-01,2.855034284415060575e-01
6.790000000000000480e-01,9.927350347297206890e-01,2.589858427495140281e-01,3.346000432213138698e-01
6.800000000000000488e-01,8.467520788875070314e-01,1.254568154025208215e-01,2.412459050937843241e-01
6.810000000000000497e-01,4.937340960342267437e-01,-1.702591416515091827e-01,1.192426107733078888e-01
6.820000000000000506e-01,1.700695885404420460e-01,-4.470802924945942447e-01,6.256028990685413849e-02
6.830000000000000515e-01,1.789352788168674033e-02,-5.856233870204990977e-01,1.263611335211438924e-01
6.840000000000000524e-01,1.107014582242613621e-01,-5.033264799468631923e-01,3.218225087928434647e-01
6.850000000000000533e-01,2.864146304629988649e-01,-2.622557600070851147e-01,5.136547054431030990e-01
6.860000000000000542e-01,4.007309412953276029e-01,-1.035393652405960929e-02,6.278641499709043394e-01
6.870000000000000551e-01,3.019021822505253971e-01,9.771565179144263424e-02,5.852917383892906056e-01
6.879999999999999449e-01,1.029143100154630191e-04,3.123782893796500648e-02,4.091209631985985307e-01
6.889999999999999458e-01,-3.888339462386193879e-01,-1.484229200360253909e-01,2.058314498202092335e-01
6.899999999999999467e-01,-6.414097426433115201e-01,-2.884554053710320365e-01,5.799766199406050649e-02
6.909999999999999476e-01,-6.139249218944198283e-01,-2.569539185623881949e-01,4.199341526879404873e-02
6.919999999999999485e-01,-3.631465427602630358e-01,-3.921728905121960040e-02,1.576247348562952455e-01
6.929999999999999494e-01,-2.838158793373548802e-02,2.247876415653631277e-01,2.473092438186048625e-01
6.939999999999999503e-01,1.945853180846993657e-01,3.930162439310799782e-01,2.542504466268115659e-01
6.949999999999999512e-01,2.062707890464367255e-01,3.530233475573413826e-01,1.132824238810838935e-01
6.959999999999999520e-01,1.203535428705153690e-02,1.093914072234260099e-01,-7.629205519623098730e-02
6.969999999999999529e-01,-2.105403426987437765e-01,-1.999615163497794612e-01,-2.863143195270648755e-01
6.979999999999999538e-01,-2.543600794447780644e-01,-4.163953873460208843e-01,-3.399371108441954226e-01
6.989999999999999547e-01,-9.673032391063650370e-02,-4.457674952969489235e-01,-2.634235024781444445e-01
6.999999999999999556e-01,2.120098649080831288e-01,-3.131393926411952244e-01,-6.519743226099303235e-02
7.009999999999999565e-01,4.959523907655453145e-01,-1.578051252413177619e-01,1.264678152339031858e-01
7.019999999999999574e-01,5.738017428161243938e-01,-1.316137747292216997e-01,2.073149115668294629e-01
7.029999999999999583e-01,3.698036556641761674e-01,-3.127850722210960832e-01,1.302745191143185599e-01
7.039999999999999591e-01,-1.790572102042609082e-02,-5.938810946606144503e-01,4.788664043008918243e-03
7.049999999999999600e-01,-3.615393052083044623e-01,-8.205069495254051493e-01,-8.372892722847746771e-02
7.059999999999999609e-01,-5.217869625434190528e-01,-8.767638591777460189e-01,-7.979004202612990926e-02
7.069999999999999618e-01,-4.434553518949314044e-01,-7.037271722096817284e-01,7.400604296313779973e-02
7.079999999999999627e-01,-2.530219490385013370e-01,-4.088514777749544526e-01,2.588096852972983641e-01
7.089999999999999636e-01,-1.277787043722145022e-01,-1.574109190455895146e-01,3.822914336298982030e-01
7.099999999999999645e-01,-2.101339415561033486e-01,-7.340942836165897933e-02,3.440182363635276297e-01
7.109999999999999654e-01,-4.958791262924290288e-01,-1.706813996362261943e-01,1.692129506842084130e-01
7.119999999999999662e-01,-8.453558306960787805e-01,-3.508182844565398417e-01,-6.270079068797974886e-02
7.129999999999999671e-01,-1.037066621858428350e+00,-4.313269574071303958e-01,-2.221277099658414966e-01
7.139999999999999680e-01,-9.784442732951589283e-01,-3.679128653141174876e-01,-2.895726774065514597e-01
7.149999999999999689e-01,-6.937090448148700572e-01,-1.360820883154536809e-01,-2.064134932467766581e-01
7.159999999999999698e-01,-3.110074154515333200e-01,1.083441113200741407e-01,-9.114680829078451729e-02
7.169999999999999707e-01,-6.294440505885294523e-02,2.265759656448845527e-01,-4.601458877596768804e-02
7.179999999999999716e-01,-4.580608611413702208e-02,1.159965196511118790e-01,-1.473255486478867726e-01
7.189999999999999725e-01,-2.386601939992565868e-01,-1.622593454541040869e-01,-3.269115245085223442e-01
7.199999999999999734e-01,-4.529827193900451965e-01,-4.619580619695420332e-01,-5.096953217104736034e-01
7.209999999999999742e-01,-5.155622608147972796e-01,-6.167964076331534651e-01,-5.869803899620212873e-01
7.219999999999999751e-01,-3.491464708632642799e-01,-5.950204030110641806e-01,-5.084158511075324016e-01
7.229999999999999760e-01,-5.091624069578031681e-02,-4.163665846570846485e-01,-3.161740467991878689e-01
7.239999999999999769e-01,2.034213971202891991e-01,-2.727967749510260553e-01,-9.599151547833736919e-02
7.249999999999999778e-01,2.532931380588264725e-01,-2.689461118418290941e-01,2.349390803035905639e-02
7.259999999999999787e-01,4.569618693071567095e-02,-4.170940165319471649e-01,-1.373181317279317283e-02
7.269999999999999796e-01,-3.529684029703146209e-01,-6.594312335378583745e-01,-1.348012697316571806e-01
7.279999999999999805e-01,-7.040541836388134467e-01,-8.183334835354504344e-01,-2.555360417929825601e-01
7.289999999999999813e-01,-8.340206523883471057e-01,-7.822648194293807533e-01,-2.833969896614119688e-01
7.299999999999999822e-01,-7.400790394275416073e-01,-5.260784981323306519e-01,-1.639515011328838145e-01
7.309999999999999831e-01,-5.169068325755473703e-01,-1.931217294799772444e-01,2.269790495064773900e-02
7.319999999999999840e-01,-3.536835348973840776e-01,5.681366116766777691e-02,1.417642375818052025e-01
7.329999999999999849e-01,-3.899601150315153419e-01,1.048483027746035939e-01,1.524635365110672269e-01
7.339999999999999858e-01,-6.223886600496977284e-01,-6.069162622614971206e-03,-9.209712097020037944e-03
7.349999999999999867e-01,-9.173616810610454309e-01,-1.796264646678761012e-01,-2.485421079269933275e-01
7.359999999999999876e-01,-1.061772897538534544e+00,-2.662633817783159884e-01,-4.362431595006122653e-01
7.369999999999999885e-01,-9.459563484417332635e-01,-1.365039939236888933e-01,-5.234308456579089830e-01
7.379999999999999893e-01,-6.172151216911045957e-01,8.674858645231682541e-02,-4.440187796465540626e-01
7.389999999999999902e-01,-1.965341318241195234e-01,3.144786262950324818e-01,-3.105167164493301546e-01
7.399999999999999911e-01,7.652531055768523049e-02,3.727607207185820726e-01,-2.322259186146612142e-01
7.409999999999999920e-01,1.089991467383009949e-01,2.187541651043491686e-01,-2.390500914065138149e-01
7.419999999999999929e-01,-7.641143758967847144e-02,-1.035356655622202415e-01,-3.961701618423462690e-01
7.429999999999999938e-01,-2.920628744785948583e-01,-3.587820297450621809e-01,-5.559214832535852580e-01
7.439999999999999947e-01,-3.556401440621405619e-01,-4.897426226664177706e-01,-6.507380084286037425e-01
7.449999999999999956e-01,-2.190601528293679157e-01,-3.786303965149420137e-01,-5.800314843275217180e-01
7.459999999999999964e-01,8.240955615677043877e-02,-1.669907558353794785e-01,-3.690160451448313284e-01
7.469999999999999973e-01,3.268217604688579692e-01,-1.180985148026288123e-02,-1.241547223333910044e-01
7.479999999999999982e-01,3.684459154977427486e-01,-1.343287611054921719e-02,3.831853444875134296e-02
7.489999999999999991e-01,1.438107056122876204e-01,-1.752103727656469101e-01,5.433493301823510979e-02
7.500000000000000000e-01,-2.463957949226708577e-01,-3.761119765107280299e-01,-6.402131824939447102e-02
7.510000000000000009e-01,-5.885862587574215432e-01,-4.622511886191063568e-01,-1.885048091751502786e-01
7.520000000000000018e-01,-7.049727620028927166e-01,-3.326480502807785400e-01,-2.450753694481685174e-01
7.530000000000000027e-01,-5.694700250816634446e-01,-3.366010646341524581e-02,-1.584783848522670624e-01
7.540000000000000036e-01,-3.002298029860195894e-01,3.055268008743924346e-01,-4.759353419823937788e-03
7.550000000000000044e-01,-9.145961582838441073e-02,5.235496357462537942e-01,1.584560656944161983e-01
7.560000000000000053e-01,-8.938092524258656191e-02,5.248357611747141993e-01,1.763941322757890395e-01
7.570000000000000062e-01,-2.909601767841170639e-01,3.490200063246815532e-01,5.396310498133854300e-02
7.580000000000000071e-01,-5.228627822574601902e-01,1.827363370319885494e-01,-1.797659687502062564e-01
7.590000000000000080e-01,-6.289700672869799059e-01,1.215657887264052495e-01,-3.796308551726455538e-01
7.600000000000000089e-01,-4.776728981610378622e-01,2.408620241711197651e-01,-4.801933370525653388e-01
7.610000000000000098e-01,-1.172797091355051446e-01,4.589948749741979972e-01,-4.135584699529494257e-01
7.620000000000000107e-01,2.894273209356818533e-01,6.384184848513755339e-01,-2.610517868723792323e-01
7.630000000000000115e-01,5.789310024754170669e-01,6.218364563189650029e-01,-1.227596441131474231e-01
7.640000000000000124e-01,5.947386353721025865e-01,3.843481661753029854e-01,-9.928545030145048689e-02
7.650000000000000133e-01,4.121894165011100175e-01,8.183501893909896074e-02,-1.812890313009067056e-01
7.660000000000000142e-01,1.655743825177733997e-01,-1.574999916882358630e-01,-3.368239796813090603e-01
7.670000000000000151e-01,7.186441326791290218e-02,-2.080618016069370191e-01,-4.240777519766825154e-01
7.680000000000000160e-01,2.037928158262176936e-01,-7.789321222767849051e-02,-3.666225565332447700e-01
7.690000000000000169e-01,4.504524100497839800e-01,1.596343830938719011e-01,-1.669105818748516656e-01
7.700000000000000178e-01,6.815827900779507509e-01,2.981605652453058197e-01,9.955819146529769348e-02
7.710000000000000187e-01,6.886658212063000439e-01,2.931267411611787610e-01,2.811101766660457080e-01
7.720000000000000195e-01,4.595836424905827000e-01,1.239937880018438660e-01,3.456032514012277734e-01
7.730000000000000204e-01,8.143721426579816902e-02,-4.398340965142049502e-02,2.390931044393864169e-01
7.740000000000000213e-01,-2.474631783040029398e-01,-9.283854716909913096e-02,9.320397839921346073e-02
7.750000000000000222e-01,-3.489372160393993672e-01,9.261519814756000168e-02,2.896019482143529639e-03
7.760000000000000231e-01,-2.125682801960347978e-01,4.017487582072081231e-01,2.905648213481808531e-02
7.770000000000000240e-01,6.911994564067977520e-02,6.984186785090724658e-01,1.670123660915596442e-01
7.780000000000000249e-01,3.051273847074646439e-01,8.404134872512806220e-01,3.177288983471092676e-01
7.790000000000000258e-01,3.366596008200918311e-01,7.735686386320311803e-01,3.797529006520096728e-01
7.800000000000000266e-01,1.707744752216467654e-01,5.565989623202935999e-01,2.779245826431962496e-01
7.810000000000000275e-01,-3.773083319955707754e-02,3.666676052523438201e-01,6.505230504446510298e-02
7.820000000000000284e-01,-1.444809690478366659e-01,3.046498046843071350e-01,-1.595536180726185860e-01
7.830000000000000293e-01,2.149618989880664952e-02,4.179200448558332281e-01,-2.798974297674007294e-01
7.840000000000000302e-01,3.691541577947365371e-01,6.021968181645038776e-01,-2.267837578685825972e-01
7.850000000000000311e-01,7.700609404810878633e-01,7.065470522834101930e-01,-6.513141559369407807e-02
7.860000000000000320e-01,1.020925078678395659e+00,6.200599688327784742e-01,1.137860552708468975e-01
7.870000000000000329e-01,1.007984297271400598e+00,3.452314681020673404e-01,1.876485903425697821e-01
7.880000000000000338e-01,7.723705214579499323e-01,1.567742125075647155e-02,1.338310137881187634e-01
7.890000000000000346e-01,4.819206614568611324e-01,-1.863639908123551348e-01,6.560022828750476436e-04
7.900000000000000355e-01,3.609105152142854100e-01,-1.838530969326404030e-01,-9.638451538658884821e-02
7.910000000000000364e-01,4.337611677934573029e-01,1.166786289207929692e-02,-6.988930074961029193e-02
7.920000000000000373e-01,6.542213978031007349e-01,2.340077160147698565e-01,9.791254350933192852e-02
7.930000000000000382e-01,8.346075614942860543e-01,3.689086621633909102e-01,3.447815463685789394e-01
7.940000000000000391e-01,8.383223623621245402e-01,3.097031457240413399e-01,5.452303179603557037e-01
7.950000000000000400e-01,5.548045075588504682e-01,1.224150446062419878e-01,6.219989604941509320e-01
7.960000000000000409e-01,1.639751553867710987e-01,-2.688989768546553097e-02,5.270348755233599247e-01
7.970000000000000417e-01,-1.648710432407677895e-01,-2.731663093738325235e-02,3.569208880918881555e-01
7.980000000000000426e-01,-2.480752186014558436e-01,1.681494903636732985e-01,2.226432961762341289e-01
7.990000000000000435e-01,-1.010723776358847387e-01,4.688158210184699137e-01,1.974528949735861461e-01
8.000000000000000444e-01,2.016347005264964576e-01,7.164947498171456708e-01,2.959289653391708463e-01
8.010000000000000453e-01,4.482398237559695464e-01,7.711164595058569438e-01,4.341088606036087594e-01
8.020000000000000462e-01,4.874014575784427761e-01,6.216191061778358895e-01,5.057124009714391022e-01
8.030000000000000471e-01,3.239967193165373405e-01,3.448521252475014731e-01,4.331319340143190422e-01
8.040000000000000480e-01,1.079631964874136485e-01,1.407372700954866995e-01,2.268429015154345141e-01
8.050000000000000488e-01,1.917022633361801343e-05,7.472665865360589299e-02,-1.742871278325516284e-03
8.060000000000000497e-01,1.359121279128631676e-01,2.013251099209868999e-01,-1.456276267291894411e-01
8.070000000000000506e-01,4.681023429868542141e-01,3.512529099950623679e-01,-1.304785221975672260e-01
8.080000000000000515e-01,8.415055020288743082e-01,3.877047775045014966e-01,1.282862714860905605e-02
8.090000000000000524e-01,1.044014274157820443e+00,2.364789992533535556e-01,2.045963018672399825e-01
8.100000000000000533e-01,9.698628385379194361e-01,-5.359338226919314191e-02,3.024328760370310065e-01
8.110000000000000542e-01,6.865018093900726592e-01,-3.554469284928539197e-01,2.916233758621393224e-01
8.120000000000000551e-01,3.437010492983020860e-01,-5.260832939605561975e-01,1.721700711437940123e-01
8.129999999999999449e-01,1.520643837585582969e-01,-4.468200115460073119e-01,6.648176510189059141e-02
8.139999999999999458e-01,1.926635382553252007e-01,-2.186457100206352089e-01,5.502144085342424579e-02
8.149999999999999467e-01,3.770701257298251785e-01,2.510023927568912766e-02,1.655765680775080906e-01
8.159999999999999476e-01,5.246341136066365873e-01,1.185029535235485876e-01,3.980447296628812914e-01
8.169999999999999485e-01,5.052727866527727540e-01,3.624594328368761081e-02,5.954946372952613087e-01
8.179999999999999494e-01,2.259090936523847626e-01,-1.462103893224175333e-01,6.383914074256098470e-01
8.189999999999999503e-01,-1.609806701870275247e-01,-2.791521722785522130e-01,5.729233632114362207e-01
8.199999999999999512e-01,-4.863580688642943906e-01,-2.519590692397691845e-01,3.686498868644281224e-01
8.209999999999999520e-01,-5.631220255159722354e-01,-1.994964370629273565e-02,1.893841636977233178e-01
8.219999999999999529e-01,-3.826116368791810940e-01,2.676799172522741355e-01,1.082930311273327950e-01
8.229999999999999538e-01,-6.921586403869241233e-02,4.433909052799791528e-01,1.476575184199334645e-01
8.239999999999999547e-01,1.920604866145774192e-01,4.255701549141504003e-01,2.683213744524359234e-01
8.249999999999999556e-01,2.414684024196968593e-01,1.852681557745957386e-01,3.578153467458415338e-01
8.259999999999999565e-01,8.435489640456041160e-02,-1.005917500196482073e-01,3.030109474368761768e-01
8.269999999999999574e-01,-1.418756088321672104e-01,-3.157532471691084641e-01,1.155585512320195379e-01
8.279999999999999583e-01,-2.631996488282102864e-01,-3.399995325722817707e-01,-1.149972053415204698e-01
8.289999999999999591e-01,-1.426310377258926676e-01,-1.974300249753468406e-01,-2.833115766041117700e-01
8.299999999999999600e-01,1.662633032990836479e-01,-6.461233872595967265e-02,-2.884751145363166347e-01
8.309999999999999609e-01,4.968811311359396243e-01,-6.066520720449696674e-02,-1.649436380542060321e-01
8.319999999999999618e-01,6.609949647123778416e-01,-2.325936056773913185e-01,3.057625894129807620e-02
8.329999999999999627e-01,5.471649228934835074e-01,-5.336189267179470841e-01,1.760915862534527809e-01
8.339999999999999636e-01,2.112823621511759897e-01,-7.745973461304611618e-01,2.046528188621892785e-01
8.349999999999999645e-01,-1.447068588259990962e-01,-8.561070536594150848e-01,1.011014456748097895e-01
8.359999999999999654e-01,-3.601688536888928427e-01,-7.154901096489939549e-01,-2.646662400839521617e-02
8.369999999999999662e-01,-3.437531129257580531e-01,-4.257058341783473976e-01,-8.013212053074131314e-02
8.379999999999999671e-01,-1.845421825671990923e-01,-1.713107219031165807e-01,-7.460708152976239238e-03
8.389999999999999680e-01,-2.390969145598341450e-02,-1.026697791663113563e-01,1.656965711510529626e-01
8.399999999999999689e-01,-4.200617413974913616e-02,-2.052100409599297293e-01,3.715034546383539360e-01
8.409999999999999698e-01,-2.997119365920875023e-01,-3.772875182897603152e-01,4.389094909025729185e-01
8.419999999999999707e-01,-6.591002349281553929e-01,-4.649403030278688176e-01,3.589844639219528233e-01
8.429999999999999716e-01,-9.362515066643491979e-01,-3.685100108141040054e-01,1.617506967885616875e-01
8.439999999999999725e-01,-9.940649927389135776e-01,-1.447010800529943964e-01,-6.271994598379952712e-02
8.449999999999999734e-01,-7.897651055999886927e-01,1.181055449028343279e-01,-1.807169894246733466e-01
8.459999999999999742e-01,-4.115514711106303403e-01,2.450354479423212939e-01,-1.735163624022260653e-01
8.469999999999999751e-01,-1.370895418737739235e-01,1.407208294506958057e-01,-7.468670380875654102e-02
8.479999999999999760e-01,-6.378091736810242995e-02,-1.139551395476527534e-01,9.541721884984331881e-03
8.489999999999999769e-01,-1.886272497725724195e-01,-4.229240221501713859e-01,6.421139948806858788e-03
8.499999999999999778e-01,-4.170686338823301753e-01,-5.829541134775253486e-01,-1.363580105800379361e-01
8.509999999999999787e-01,-5.150263080436709995e-01,-5.540295171222671122e-01,-3.680905084761144086e-01
8.519999999999999796e-01,-4.285249870369841618e-01,-4.011570544060845123e-01,-5.319130810455354741e-01
8.529999999999999805e-01,-1.445889243332767471e-01,-2.497490159805475785e-01,-5.596424729930139508e-01
8.539999999999999813e-01,1.754010351454191319e-01,-2.574971072904336244e-01,-4.266054908004935919e-01
8.549999999999999822e-01,3.206579703178904506e-01,-4.263396085739180053e-01,-2.113166028581021927e-01
8.559999999999999831e-01,1.821342442426839847e-01,-6.810902722521472441e-01,-3.641680396269631609e-02
8.569999999999999840e-01,-1.538183623471612305e-01,-8.591776521341969453e-01,1.673804600234801709e-02
8.579999999999999849e-01,-5.397415389735238378e-01,-8.481831057827258213e-01,-6.990653650451625345e-02
8.589999999999999858e-01,-7.371389751755665909e-01,-6.164942456495924317e-01,-1.921906986100984371e-01
8.599999999999999867e-01,-7.287995001850104959e-01,-2.943567965922221363e-01,-2.972137770290284586e-01
8.609999999999999876e-01,-5.431252860909348001e-01,-5.361328094624760038e-02,-2.461612616718282243e-01
8.619999999999999885e-01,-3.488987825338502602e-01,7.588723964736184512e-03,-8.066342908205945128e-02
8.629999999999999893e-01,-3.322675937709472227e-01,-1.009722318288526072e-01,1.038496797413976103e-01
8.639999999999999902e-01,-5.266506367911055753e-01,-2.704781787768650858e-01,2.056461107953297951e-01
8.649999999999999911e-01,-8.680505586652292882e-01,-3.361202991146696184e-01,1.344103236008945823e-01
8.659999999999999920e-01,-1.096951216190866774e+00,-2.156828975017857086e-01,-5.157499340811178695e-02
8.669999999999999929e-01,-1.091082379621733933e+00,3.931445313609147063e-02,-2.741678446140828895e-01
8.679999999999999938e-01,-8.007138619371724220e-01,2.806793770880719463e-01,-4.400004844634547441e-01
8.689999999999999947e-01,-4.141532290742349631e-01,3.508931767389277812e-01,-4.557056983111584803e-01
8.699999999999999956e-01,-8.812028451832719378e-02,1.854063261920026462e-01,-3.484982519801146372e-01
8.709999999999999964e-01,7.329637150261502851e-03,-9.555617290293388910e-02,-2.360050274088998090e-01
8.719999999999999973e-01,-1.185259276232029924e-01,-3.809098546385966677e-01,-1.911546297957856244e-01
8.729999999999999982e-01,-3.281406786227644146e-01,-4.819033727415996671e-01,-2.751365529913588071e-01
8.739999999999999991e-01,-4.413569273171216722e-01,-4.033856141808342399e-01,-4.692520499180444782e-01
8.750000000000000000e-01,-3.462210122028072101e-01,-2.021585834851196140e-01,-6.381945498641712344e-01
8.760000000000000009e-01,-6.562408605520492211e-02,-7.583129596446272491e-02,-6.726766442801744850e-01
8.770000000000000018e-01,2.352450227435993191e-01,-6.976929640087521645e-02,-5.500629177486435761e-01
8.780000000000000027e-01,3.609831394903106894e-01,-2.368275429568836854e-01,-3.252577080155786282e-01
8.790000000000000036e-01,2.221251917197041570e-01,-4.611670509561879849e-01,-9.794173918305999760e-02
8.800000000000000044e-01,-1.386955722130397139e-01,-5.665547979533266387e-01,8.347985237419220175e-03
8.810000000000000053e-01,-5.035571375655535364e-01,-4.456397711289404318e-01,-3.183461087199389999e-02
8.820000000000000062e-01,-7.028512042993697584e-01,-1.602416867004552159e-01,-1.660618145294746606e-01
8.830000000000000071e-01,-6.501548168279903672e-01,1.668950456742206989e-01,-2.686119016402031545e-01
8.840000000000000080e-01,-4.297785963081963145e-01,3.982857515476249111e-01,-2.617694705914117570e-01
8.850000000000000089e-01,-1.982914317993341724e-01,4.080341811346456793e-01,-1.428022489550645757e-01
8.860000000000000098e-01,-1.329101104472349693e-01,2.609521256912096798e-01,5.448527983600497115e-02
8.870000000000000107e-01,-3.114349852410921993e-01,9.775244615328111675e-02,1.735771228109720676e-01
8.880000000000000115e-01,-5.634364198960888359e-01,5.903656540486715287e-02,1.390423517820010835e-01
8.890000000000000124e-01,-7.501528787110267604e-01,1.843755372924037739e-01,-2.419125213744703976e-02
8.900000000000000133e-01,-6.959595652099807017e-01,4.263226098910121165e-01,-2.636562707003982653e-01
8.910000000000000142e-01,-4.007153629404892614e-01,6.153685473763131908e-01,-4.258556498287899839e-01
8.920000000000000151e-01,2.203643851936880338e-02,6.080512799512797217e-01,-4.647584066303167005e-01
8.930000000000000160e-01,3.707614832822467843e-01,3.927726406149581462e-01,-3.800523518472002649e-01
8.940000000000000169e-01,4.781110225591630458e-01,9.137681445428584570e-02,-2.206947348677849863e-01
8.950000000000000178e-01,3.381554595195513935e-01,-1.587728523980373729e-01,-1.269097166386302933e-01
8.960000000000000187e-01,1.176550400791840090e-01,-2.332580740175069500e-01,-1.709489002939507396e-01
8.970000000000000195e-01,-1.308964364715830934e-02,-8.155927688316395863e-02,-2.906161789796214978e-01
8.980000000000000204e-01,6.869289377757864523e-02,1.235595993221293570e-01,-4.426360497883813916e-01
8.990000000000000213e-01,3.146820235996915516e-01,2.612830617573179692e-01,-4.943486136237936757e-01
9.000000000000000222e-01,5.937950694817478725e-01,2.307823081594280457e-01,-3.704028506967482204e-01
9.010000000000000231e-01,7.038052048689500406e-01,6.206213592043335892e-02,-1.468191375991139691e-01
9.020000000000000240e-01,5.451981640090226566e-01,-1.214681825399762799e-01,9.882025726247627151e-02
9.030000000000000249e-01,1.930955069816339409e-01,-1.702945403617029951e-01,2.483036991099859814e-01
9.040000000000000258e-01,-1.786502654523350886e-01,5.263005953792744725e-03,2.276126834177371605e-01
9.050000000000000266e-01,-3.692950836465933029e-01,3.185362440490436264e-01,1.122163065673680571e-01
9.060000000000000275e-01,-2.986995248218264898e-01,6.194666180788115373e-01,-9.100976928985999442e-03
9.070000000000000284e-01,-5.261228585492659648e-02,7.897470801107430161e-01,-4.264832296501028241e-02
9.080000000000000293e-01,1.987029923712009538e-01,7.230467353151446286e-01,4.623145322460821272e-02
9.090000000000000302e-01,2.820372835147388901e-01,5.415721270163668111e-01,2.112241013596939943e-01
9.100000000000000311e-01,1.482540534367748353e-01,3.324925009341077597e-01,3.445861711796054938e-01
9.110000000000000320e-01,-8.564092740085078870e-02,3.204267487975249185e-01,3.437901798396477693e-01
9.120000000000000329e-01,-2.419929857513708205e-01,4.428717246125411511e-01,1.949761943259712138e-01
9.130000000000000338e-01,-1.762392504364930779e-01,6.428461135935629178e-01,-3.091971322893356452e-02
9.140000000000000346e-01,1.284323721638288562e-01,7.539187743193682678e-01,-2.080589096363154589e-01
9.150000000000000355e-01,5.572119187497015513e-01,6.779634191788309616e-01,-2.887193729876086357e-01
9.160000000000000364e-01,8.804959779687007160e-01,3.919484965712159430e-01,-2.041669911980417695e-01
9.170000000000000373e-01,9.577518621089178286e-01,9.120531972472593896e-02,-3.798358325447625389e-02
9.180000000000000382e-01,7.893508121577370584e-01,-1.398527327145169807e-01,9.050181211684053817e-02
9.190000000000000391e-01,5.267098254435919058e-01,-1.357515382391649428e-01,1.251327628903653177e-01
9.200000000000000400e-01,3.541311600520112846e-01,1.642718664181888263e-02,1.165718080910013894e-02
9.210000000000000409e-01,3.930787124357065232e-01,2.666118808688706099e-01,-1.079179968134265505e-01
9.220000000000000417e-01,6.111121625126646473e-01,3.687240167778771394e-01,-1.805142958501135819e-01
9.230000000000000426e-01,8.399381754769832398e-01,3.028534056437149347e-01,-9.958490652727833292e-02
9.240000000000000435e-01,9.228874543880916104e-01,1.136654488518668987e-01,1.394745712306215135e-01
9.250000000000000444e-01,7.113441385898354730e-01,-4.408989762691885306e-02,3.719463022146585196e-01
9.260000000000000453e-01,3.406195838305181578e-01,-4.192944106764016909e-02,5.350365157365579716e-01
9.270000000000000462e-01,-1.908522585505617597e-02,1.598874900521132514e-01,5.424880711816345569e-01
9.280000000000000471e-01,-2.212177935843785137e-01,4.707687016703775984e-01,4.263209144573368303e-01
9.290000000000000480e-01,-1.303080981643011671e-01,7.366995869397697794e-01,2.762270374490473079e-01
9.300000000000000488e-01,1.252481807846516637e-01,7.964648310993718283e-01,1.902031229193861250e-01
9.310000000000000497e-01,3.957640283361631983e-01,6.740434996914801413e-01,2.209215643885958924e-01
9.320000000000000506e-01,4.779497692532649333e-01,4.132986800240604497e-01,3.534882130967114677e-01
9.330000000000000515e-01,3.637303206811615119e-01,2.095274237531875861e-01,4.809153085579921938e-01
9.340000000000000524e-01,1.311291828961555217e-01,1.742251123316125305e-01,5.049671847694976456e-01
9.350000000000000533e-01,-1.943903452200050272e-02,3.040340695294882489e-01,3.758483266915368382e-01
9.360000000000000542e-01,3.139674664137035581e-02,4.543537600321839731e-01,1.502585131190658230e-01
9.370000000000000551e-01,3.346448324201409807e-01,5.085547967873614850e-01,-5.184281974131290521e-02
9.379999999999999449e-01,7.219174433319563988e-01,3.555261348595104010e-01,-1.473847898545972146e-01
9.389999999999999458e-01,9.889295664327983904e-01,5.430607237397809539e-02,-8.078504071891937088e-02
9.399999999999999467e-01,1.041201771806550047e+00,-2.594906679288196960e-01,8.553479181109546747e-02
9.409999999999999476e-01,8.224105933329520779e-01,-4.278268895710892195e-01,2.502272111347605965e-01
9.419999999999999485e-01,5.129361425407913400e-01,-3.756770586664497924e-01,2.993509144629960539e-01
9.429999999999999494e-01,2.902267758391514629e-01,-1.678059686544382534e-01,2.260248937074786635e-01
9.439999999999999503e-01,2.675691258790348082e-01,5.385200702849224363e-02,1.016729131635777938e-01
9.449999999999999512e-01,4.443639559746752066e-01,1.444837686119000431e-01,6.691161399925562442e-03
9.459999999999999520e-01,6.359046469557163572e-01,6.026485284714667295e-02,5.162752341105462939e-02
9.469999999999999529e-01,6.703051764966053705e-01,-1.356606850180785973e-01,2.265650249523349646e-01
9.479999999999999538e-01,4.688041507042348122e-01,-2.625446290804487881e-01,4.524033032157486756e-01
9.489999999999999547e-01,8.085508513091234362e-02,-2.155263883271130165e-01,6.299464472404885385e-01
9.499999999999999556e-01,-2.944256399103248878e-01,-8.592828454617255354e-04,6.475959193918251477e-01
9.509999999999999565e-01,-4.805071564724341382e-01,3.061635747018961462e-01,5.248396058261486363e-01
9.519999999999999574e-01,-3.904520842270181036e-01,4.882199101564960730e-01,3.302936489830720079e-01
9.529999999999999583e-01,-1.159680174643237943e-01,4.878260087321499294e-01,1.873266285380776330e-01
9.539999999999999591e-01,1.605757011512174981e-01,2.582585294092853978e-01,1.727073356862868503e-01
9.549999999999999600e-01,2.840814629752787535e-01,-6.989235142798754484e-03,2.739610526889146858e-01
9.559999999999999609e-01,1.682332963723997266e-01,-2.147912125998505395e-01,3.811463068423425193e-01
9.569999999999999618e-01,-7.691495704578694970e-02,-2.206456939204023970e-01,4.261409924679709360e-01
9.579999999999999627e-01,-2.270841324713080422e-01,-9.070453876677696259e-02,3.151688246465357279e-01
9.589999999999999636e-01,-1.819983160962425350e-01,4.597482594621045415e-02,9.252816516553054316e-02
9.599999999999999645e-01,1.035989815759981308e-01,5.096407663563403551e-02,-1.249164065304767257e-01
9.609999999999999654e-01,4.559886344448041973e-01,-1.316554006871658300e-01,-2.660259051551036036e-01
9.619999999999999662e-01,7.014707752393642970e-01,-4.359853811760303621e-01,-2.156350320612613614e-01
9.629999999999999671e-01,6.969044961839868657e-01,-7.104245748174510267e-01,-5.260856250332766187e-02
9.639999999999999680e-01,4.368953502880733586e-01,-7.986982347628068801e-01,1.417409789892945804e-01
9.649999999999999689e-01,7.345782610162490678e-02,-6.736897760775952815e-01,2.225944980014004093e-01
9.659999999999999698e-01,-1.894303601012677918e-01,-4.078853366358321519e-01,1.800274838849140469e-01
9.669999999999999707e-01,-2.383085886417469212e-01,-1.764674058631821030e-01,4.464850021868540381e-02
9.679999999999999716e-01,-8.828818796273465996e-02,-1.274075244029835019e-01,-6.954577670609971007e-02
9.689999999999999725e-01,9.398327301148622082e-02,-2.157658101626987457e-01,-7.067149326058896897e-02
9.699999999999999734e-01,1.269886691072418250e-01,-3.950011792153653722e-01,7.796809102850059403e-02
9.709999999999999742e-01,-7.813597023585981682e-02,-4.838426781668028753e-01,2.776578272530869640e-01
9.719999999999999751e-01,-4.360084962060092328e-01,-4.111377219138352412e-01,4.484536966726358487e-01
9.729999999999999760e-01,-7.950614763917054351e-01,-1.475632094029053210e-01,4.800988268283979399e-01
9.739999999999999769e-01,-9.388564485651043068e-01,1.128477471217920469e-01,3.564058442944847416e-01
9.749999999999999778e-01,-8.235011549460979907e-01,2.542585095182508526e-01,1.498918128525248694e-01
9.759999999999999787e-01,-5.000890287942928447e-01,1.877334270344243883e-01,-4.726600931163490310e-02
9.769999999999999796e-01,-1.858869753781691725e-01,-6.928010397076957150e-02,-1.047626868557133689e-01
9.779999999999999805e-01,-6.273708379164256999e-02,-3.559453872998987189e-01,-5.050514195591414290e-02
9.789999999999999813e-01,-1.413268495070601483e-01,-5.124256134527798157e-01,6.828315482220062571e-02
9.799999999999999822e-01,-3.640086947782610882e-01,-5.077708262538056516e-01,1.168260551104249589e-01
9.809999999999999831e-01,-5.328972254941465314e-01,-3.580039030538992861e-01,4.133035442085336575e-02
9.819999999999999840e-01,-4.864779865484050725e-01,-2.118719243298214927e-01,-1.455132876527333585e-01
9.829999999999999849e-01,-2.290662981532317066e-01,-2.247915761587085948e-01,-3.749618503640637646e-01
9.839999999999999858e-01,1.193500779486350860e-01,-4.255066265857665453e-01,-5.186290727324416316e-01
9.849999999999999867e-01,3.466005261098732970e-01,-6.938888628342075870e-01,-4.915975023412180733e-01
9.859999999999999876e-01,3.124455659353901904e-01,-8.986732349103380146e-01,-3.394971774989058999e-01
9.869999999999999885e-01,2.777348483306154442e-02,-8.879481271978555412e-01,-1.362331819309322012e-01
9.879999999999999893e-01,-3.594022073677784479e-01,-6.663345872913849499e-01,1.625928859276849336e-03
9.889999999999999902e-01,-6.245881049343220415e-01,-3.615154080373150780e-01,-1.183164933043689623e-02
9.899999999999999911e-01,-6.728516488587770183e-01,-1.271082421252504313e-01,-1.112307886053888889e-01
9.909999999999999920e-01,-5.145304003370194668e-01,-8.743924950779184690e-02,-2.359545568904413415e-01
9.919999999999999929e-01,-3.201390866856519968e-01,-1.855833172728199310e-01,-2.770703707918196756e-01
9.929999999999999938e-01,-2.519701231331747393e-01,-3.431210481920606847e-01,-1.945860067511149816e-01
9.939999999999999947e-01,-4.299295612535748434e-01,-4.061278319227797362e-01,1.468340971579613907e-02
9.949999999999999956e-01,-7.444976530521463243e-01,-2.669476880762369220e-01,1.926253890625838072e-01
9.959999999999999964e-01,-1.061410956715641118e+00,-1.480915098033817358e-02,2.434057610548343575e-01
9.969999999999999973e-01,-1.139097826426367366e+00,2.303000615055668943e-01,1.313347468179041633e-01
9.979999999999999982e-01,-9.733571757395751423e-01,3.365965166832093347e-01,-8.263968750671404906e-02
9.989999999999999991e-01,-6.096698365138362163e-01,1.854279741822423277e-01,-2.927244117759195685e-01
1.000000000000000000e+00,-2.597250400837785578e-01,-1.127556550958578319e-01,-4.040361545265273024e-01
1.000999999999999890e+00,-9.060451307288946987e-02,-3.777202610359186585e-01,-3.676744269215596050e-01
1.002000000000000002e+00,-1.508404823757768520e-01,-4.907449362585235009e-01,-2.426146567365904116e-01
1.002999999999999892e+00,-3.543294700035745093e-01,-4.166470940129693434e-01,-1.592526794747252117e-01
1.004000000000000004e+00,-5.206620143942140011e-01,-2.360676748852565399e-01,-1.799585711502143526e-01
1.004999999999999893e+00,-4.749346077401899180e-01,-8.589234637624439117e-02,-3.333737656972043939e-01
1.006000000000000005e+00,-2.032596824374485744e-01,-1.098415802680389602e-01,-5.251556186363968148e-01
1.006999999999999895e+00,1.198339401140139510e-01,-2.967275791408912067e-01,-6.564157966264971833e-01
1.008000000000000007e+00,3.327877739127649837e-01,-5.349551396261555958e-01,-6.519480573260385547e-01
1.008999999999999897e+00,2.747792364099493345e-01,-6.525377024011399518e-01,-4.796603887772029617e-01
1.010000000000000009e+00,-4.609412229866834999e-03,-5.548177867869661384e-01,-2.719728509870626976e-01
1.010999999999999899e+00,-3.864164563425320220e-01,-2.835955404772115274e-01,-9.725609395279027902e-02
1.012000000000000011e+00,-6.477252633684774663e-01,4.759718273576443726e-02,-4.023167754141553781e-02
1.012999999999999901e+00,-6.849463155335879794e-01,2.849629188201278085e-01,-1.344791991267373366e-01
1.014000000000000012e+00,-5.007119001445421436e-01,2.945181717998018867e-01,-2.580685272867832003e-01
1.014999999999999902e+00,-2.672765141078790596e-01,1.400820193834656224e-01,-3.296071514046362561e-01
1.016000000000000014e+00,-1.758361241914836726e-01,-2.497673228357507984e-03,-2.514244862306204698e-01
1.016999999999999904e+00,-3.056505232974601749e-01,-2.495644657879926565e-02,-8.293264481374956754e-02
1.018000000000000016e+00,-5.582722365518086871e-01,1.252405175693035722e-01,8.291567366123733795e-02
1.018999999999999906e+00,-8.290035794583016093e-01,3.815097411348505330e-01,1.743655153485204612e-01
1.020000000000000018e+00,-8.639563912391916567e-01,5.747336904984821082e-01,9.528962436264078184e-02
1.020999999999999908e+00,-6.433990959810544918e-01,5.839647384743044123e-01,-1.078792339833413300e-01
1.022000000000000020e+00,-2.527153834641827079e-01,3.917368955975800704e-01,-3.134412417220183711e-01
1.022999999999999909e+00,1.372826349365221799e-01,6.613887170036047980e-02,-4.574222931688974869e-01
1.024000000000000021e+00,3.112276365186651406e-01,-1.726940006980583753e-01,-4.401635312474690420e-01
1.024999999999999911e+00,2.558046909900414945e-01,-2.365200000368325728e-01,-3.154903668047473464e-01
1.026000000000000023e+00,4.562407834058501699e-02,-1.048148666999412781e-01,-1.906968846383660099e-01
1.026999999999999913e+00,-1.090829381198689524e-01,1.111747621324721824e-01,-1.492240117393089927e-01
1.028000000000000025e+00,-5.955755316544839029e-02,2.204840283517967847e-01,-2.555719302748750699e-01
1.028999999999999915e+00,1.582104324253846839e-01,1.841647792450718801e-01,-4.101519297504010453e-01
1.030000000000000027e+00,4.660446474391631289e-01,-6.600537338610443791e-04,-5.492646122616191562e-01
1.030999999999999917e+00,6.614036238320294414e-01,-2.022954120990622662e-01,-5.415673456028191612e-01
1.032000000000000028e+00,5.829136068774692925e-01,-2.578569287779057806e-01,-3.769679908356133313e-01
1.032999999999999918e+00,2.847672515648729807e-01,-9.602637837568411827e-02,-1.475170389458629328e-01
1.034000000000000030e+00,-8.927796672582584414e-02,2.242635040023897020e-01,8.770956132993065757e-02
1.034999999999999920e+00,-3.564842967829768838e-01,5.405691403542347562e-01,1.776804341715035318e-01
1.036000000000000032e+00,-3.625389760088777447e-01,7.027715962123765037e-01,1.058106158941641423e-01
1.036999999999999922e+00,-1.590217785846294030e-01,6.538249360614789563e-01,-1.976673768148341087e-02
1.038000000000000034e+00,8.519532009239612347e-02,4.822975288636238145e-01,-9.714781105236049152e-02
1.038999999999999924e+00,2.099634835665818156e-01,3.157703444514292079e-01,-8.065339725830855677e-02
1.040000000000000036e+00,1.238767332029601792e-01,2.921317911892351571e-01,5.367272751385718244e-02
1.040999999999999925e+00,-1.192146925614726155e-01,4.422648188932508662e-01,2.349559501753407664e-01
1.042000000000000037e+00,-3.236928202588270631e-01,6.645140427334534916e-01,3.370399142455009489e-01
1.042999999999999927e+00,-3.372368958818053319e-01,7.948974137440959487e-01,2.935793934556479301e-01
1.044000000000000039e+00,-1.072691459240483342e-01,7.150589862394353124e-01,9.473973380847244830e-02
1.044999999999999929e+00,3.072796222955812007e-01,4.482684185023710355e-01,-1.315543407438872492e-01
1.046000000000000041e+00,6.798972075623485045e-01,1.366314471884214343e-01,-2.810915533300220037e-01
1.046999999999999931e+00,8.592722842049405063e-01,-9.208289972216524011e-02,-2.758209717253102267e-01
1.048000000000000043e+00,7.759000440372925134e-01,-9.193047953236066494e-02,-1.645607458708304716e-01
1.048999999999999932e+00,5.315151406421777525e-01,4.931459520064929158e-02,-5.298085106317440215e-04
1.050000000000000044e+00,3.294781012845813262e-01,2.683400449882580863e-01,9.062142337307933782e-02
1.050999999999999934e+00,3.332071283025795916e-01,3.693030130568394909e-01,3.755047329247136051e-02
1.052000000000000046e+00,5.316545491348088071e-01,2.950778392589471499e-01,-1.112118179166070031e-01
1.052999999999999936e+00,7.897041388394139272e-01,9.415662552774572980e-02,-2.325407541305621051e-01
1.054000000000000048e+00,9.430976779469008031e-01,-7.970162164204816491e-02,-2.479483585295237935e-01
1.054999999999999938e+00,8.530052506330276785e-01,-8.388349744318419898e-02,-1.030319199547667791e-01
1.056000000000000050e+00,5.191066971729412227e-01,1.177330466651024671e-01,1.310894840009158013e-01
1.056999999999999940e+00,1.155036378316125767e-01,4.542794827312067185e-01,3.612514841757166750e-01
1.058000000000000052e+00,-1.418960306640034696e-01,7.199520759804413084e-01,4.784737731840366659e-01
1.058999999999999941e+00,-1.628756571352279747e-01,7.975564284426385209e-01,4.438724849925630433e-01
1.060000000000000053e+00,6.022696510029836026e-02,6.848790160287766549e-01,3.087990319175403786e-01
1.060999999999999943e+00,3.260101755226002540e-01,4.439818686918423074e-01,1.909369191217639150e-01
1.062000000000000055e+00,4.618599601693123002e-01,2.679927490425437209e-01,1.623599430963813539e-01
1.062999999999999945e+00,3.969210889322683511e-01,2.443509218118375403e-01,2.451136465325235436e-01
1.064000000000000057e+00,1.695090240842448970e-01,3.841877741029318671e-01,4.243864061261474752e-01
1.064999999999999947e+00,-3.824033601532127180e-02,5.686117430398633932e-01,5.202362457298930210e-01
1.066000000000000059e+00,-6.364396270232357267e-02,6.246243631874039970e-01,4.886629655341130918e-01
1.066999999999999948e+00,1.779871290295128861e-01,4.634515404602104760e-01,3.194454064369692259e-01
1.068000000000000060e+00,5.746357545938880484e-01,1.653264190974252090e-01,8.672839445018028226e-02
1.068999999999999950e+00,9.234354048486818067e-01,-1.572383305101034412e-01,-9.846974933812148445e-02
1.070000000000000062e+00,1.049360456561062138e+00,-3.444673332305675517e-01,-1.271392950648329301e-01
1.070999999999999952e+00,9.191878580458604509e-01,-2.949212606605457476e-01,-3.212277140235414441e-02
1.072000000000000064e+00,6.394201958223209026e-01,-1.025731316708667351e-01,1.468004764714862798e-01
1.072999999999999954e+00,3.760766721858304074e-01,1.105013317457106958e-01,2.656276532746132402e-01
1.074000000000000066e+00,3.351771664496301373e-01,1.933547283445800624e-01,2.712716981220421597e-01
1.074999999999999956e+00,4.795194754578643304e-01,8.017622207295464765e-02,1.506328177862915341e-01
1.076000000000000068e+00,6.995819136905256919e-01,-1.241039166023536339e-01,1.470291834158337155e-02
1.076999999999999957e+00,8.003456807939389739e-01,-2.526946606640683712e-01,-3.886647608746551102e-02
1.078000000000000069e+00,6.807843410407220519e-01,-2.107156093361833848e-01,8.157580573718392625e-02
1.078999999999999959e+00,3.306784305023774406e-01,2.926646385709918974e-02,2.891346654503894609e-01
1.080000000000000071e+00,-8.541507413307701524e-02,3.177102396765840719e-01,5.005384678005022625e-01
1.080999999999999961e+00,-3.483795259652507914e-01,5.266671752163699649e-01,6.315522987321268156e-01
1.082000000000000073e+00,-3.443663747967391497e-01,5.294467967291687227e-01,6.108473123172165620e-01
1.082999999999999963e+00,-1.208077710731066817e-01,3.454475029681285947e-01,4.732261129820873879e-01
1.084000000000000075e+00,1.538450878556715806e-01,5.681859623334858250e-02,2.992471059973598746e-01
1.084999999999999964e+00,3.181327884508103887e-01,-1.115672996761947616e-01,2.071328834749159853e-01
1.086000000000000076e+00,2.363821613007287548e-01,-1.105227201013420923e-01,2.497001191394967734e-01
1.086999999999999966e+00,2.533882904924418880e-02,1.628799624970248341e-02,3.630906959347064977e-01
1.088000000000000078e+00,-1.832561200470660956e-01,1.533183493017462318e-01,4.840313225511448381e-01
1.088999999999999968e+00,-2.119155648092818089e-01,1.741444927347228500e-01,4.664061895322547113e-01
1.090000000000000080e+00,1.398930634065427385e-02,-2.616343493458134217e-02,3.075404561163185280e-01
1.090999999999999970e+00,3.902906189167050233e-01,-3.402470292116864803e-01,7.562583500690524263e-02
1.092000000000000082e+00,7.204293297119521711e-01,-6.267890922007001153e-01,-1.240203789913718185e-01
1.092999999999999972e+00,7.979888437361061237e-01,-7.306353597298961278e-01,-2.045496524134252092e-01
1.094000000000000083e+00,6.188726947043932114e-01,-6.328911678348860814e-01,-1.240793496512287986e-01
1.094999999999999973e+00,2.933067577668845294e-01,-3.870595405751868778e-01,6.882132940902982443e-02
1.096000000000000085e+00,-4.824216252640250828e-03,-1.661488923921897454e-01,1.935710237605447748e-01
1.096999999999999975e+00,-1.021808540132800036e-01,-1.115586985638561124e-01,2.303168977667662543e-01
1.098000000000000087e+00,-1.224784191412412251e-02,-2.273222425997500906e-01,1.423520556706710793e-01
1.098999999999999977e+00,2.129155430010223060e-01,-4.100318544506154628e-01,-7.257123700035289157e-03
1.100000000000000089e+00,2.974711830152104719e-01,-5.071752388923097543e-01,-7.445056931344909423e-02
1.100999999999999979e+00,1.370703961106408963e-01,-4.181896950548619762e-01,-1.561827270869233994e-02
1.102000000000000091e+00,-1.985202112054665347e-01,-1.656695869679185029e-01,1.617188351459485918e-01
1.102999999999999980e+00,-5.884419510441838419e-01,1.189859517826845070e-01,3.824256870364076688e-01
1.104000000000000092e+00,-8.299440448587919184e-01,2.797149630666001530e-01,5.109966846236559945e-01
1.104999999999999982e+00,-8.117928428843237398e-01,2.100392700789864286e-01,5.077593069085544197e-01
1.106000000000000094e+00,-5.648260187055940129e-01,-3.315078347968847955e-02,3.371954698603260581e-01
1.106999999999999984e+00,-2.291840640810863805e-01,-2.982262209493649063e-01,1.380230290585396091e-01
1.108000000000000096e+00,-4.632985054806116471e-02,-4.734883410253472591e-01,-6.420683623122034819e-03
1.108999999999999986e+00,-9.833024284621746935e-02,-4.342730735225666661e-01,-1.858366284044698363e-02
1.110000000000000098e+00,-3.164860387992182722e-01,-2.828792387419535315e-01,8.206307126144361808e-02
1.110999999999999988e+00,-5.085108587431090843e-01,-1.460779650862237267e-01,1.929309209955599180e-01
1.112000000000000099e+00,-5.174561648702739047e-01,-1.727771150848511073e-01,1.971146192173982292e-01
1.112999999999999989e+00,-3.149806695936356871e-01,-3.827181207945078434e-01,5.394161359278587531e-02
1.114000000000000101e+00,3.165917439902822539e-02,-6.730698957323775211e-01,-1.597517521411928876e-01
1.114999999999999991e+00,3.345896839781505872e-01,-8.873417851480578378e-01,-3.769596941142895896e-01
1.116000000000000103e+00,3.956308871522823956e-01,-9.042004499528509820e-01,-4.687796332453726955e-01
1.116999999999999993e+00,1.930363067057793147e-01,-7.015072585773688418e-01,-3.890580906809268935e-01
1.118000000000000105e+00,-1.604179744520020934e-01,-4.234515971589739580e-01,-2.232866444717349352e-01
1.118999999999999995e+00,-4.707392468168625221e-01,-1.986940838917926888e-01,-3.063864062623292833e-02
1.120000000000000107e+00,-5.817347138448401012e-01,-1.461251317802246263e-01,2.827988963280756579e-02
1.120999999999999996e+00,-4.733218459262399924e-01,-2.610715578451738850e-01,-3.798757358320720146e-02
1.122000000000000108e+00,-2.563855316745874968e-01,-4.334762944678490770e-01,-1.629778649986194650e-01
1.122999999999999998e+00,-1.770433832634193405e-01,-4.750525838118513366e-01,-2.540711748000785142e-01
1.124000000000000110e+00,-2.900954793281975697e-01,-3.398506362126366698e-01,-2.519457767814778371e-01
1.125000000000000000e+00,-6.035879308905227614e-01,-6.413039127827194208e-02,-8.846903271753328579e-02
1.125999999999999890e+00,-9.629434079335912333e-01,1.958746557962371126e-01,1.202036250621204561e-01
1.127000000000000002e+00,-1.160427434222424337e+00,2.830192074390494028e-01,2.604567023806494408e-01
1.127999999999999892e+00,-1.069345312949485871e+00,1.547111536340842197e-01,2.560419864339730789e-01
1.129000000000000004e+00,-7.781819698208610747e-01,-1.109711440732677606e-01,1.119355940503905522e-01
1.129999999999999893e+00,-4.087948227112555011e-01,-3.810258941541141975e-01,-1.222530634563959440e-01
1.131000000000000005e+00,-1.803221956610447652e-01,-4.873087739898476212e-01,-2.900290343463925447e-01
1.131999999999999895e+00,-1.932057389836515648e-01,-4.125161806548558463e-01,-3.325182358573497976e-01
1.133000000000000007e+00,-3.808629458800896206e-01,-2.340965219945809195e-01,-2.450714067005982377e-01
1.133999999999999897e+00,-5.614528768415546489e-01,-9.305086595320194442e-02,-1.501831379803041933e-01
1.135000000000000009e+00,-5.743951570103603688e-01,-1.422620174922933911e-01,-9.624303151295501846e-02
1.135999999999999899e+00,-3.544759020945438821e-01,-3.456712529786857835e-01,-1.809245176133359445e-01
1.137000000000000011e+00,-1.740165923854625207e-02,-5.978580368572442572e-01,-3.760789568035969310e-01
1.137999999999999901e+00,2.485840172522238434e-01,-7.294158892128014271e-01,-5.732029951874472173e-01
1.139000000000000012e+00,3.140998955938368309e-01,-6.624938097312924601e-01,-6.657333350928320570e-01
1.139999999999999902e+00,9.251998092237562199e-02,-3.876014937735701715e-01,-6.239142193878105536e-01
1.141000000000000014e+00,-2.578225675683821771e-01,-5.125821944671122427e-02,-4.338572221206082324e-01
1.141999999999999904e+00,-5.745033930152095847e-01,1.478869823989582000e-01,-2.107320851835473019e-01
1.143000000000000016e+00,-6.824800487706390584e-01,1.673125485454192152e-01,-9.158379721298205711e-02
1.143999999999999906e+00,-5.486856083717830401e-01,3.064808916101491310e-02,-1.079873775496644206e-01
1.145000000000000018e+00,-3.255636676256075113e-01,-1.084714078905132661e-01,-2.211651564481204035e-01
1.145999999999999908e+00,-1.873690973609462573e-01,-1.160667791086841122e-01,-3.228658938750894603e-01
1.147000000000000020e+00,-2.657328059559660449e-01,4.087783400986637339e-02,-3.460074412276710198e-01
1.147999999999999909e+00,-5.423546213451954090e-01,3.198148726330003466e-01,-2.122583710289990544e-01
1.149000000000000021e+00,-8.432513466843573058e-01,5.264071580370596193e-01,-2.204202168151064151e-02
1.149999999999999911e+00,-9.798591832938395862e-01,5.519190552102071212e-01,1.340009021541358203e-01
1.151000000000000023e+00,-8.642910068673514967e-01,3.711329196964505694e-01,1.706732195667217122e-01
1.151999999999999913e+00,-4.934146811252169140e-01,7.717272172189326707e-02,3.417885048121292041e-02
1.153000000000000025e+00,-9.855469725428643579e-02,-1.700602610872929132e-01,-1.882898350583874225e-01
1.153999999999999915e+00,1.559681694555397347e-01,-2.322427095623289806e-01,-3.795104703714370920e-01
1.155000000000000027e+00,1.426328371888510027e-01,-1.156646450266979875e-01,-4.492794383692436111e-01
1.155999999999999917e+00,-2.287029786817097732e-02,8.071411590678945203e-02,-3.783790215270546042e-01
1.157000000000000028e+00,-1.981970417383101535e-01,2.058226349691108514e-01,-2.462759396904735942e-01
1.157999999999999918e+00,-2.066049343246040004e-01,1.372876308184392824e-01,-1.567759570729935770e-01
1.159000000000000030e+00,-9.201193851854144387e-03,-5.447456436140777486e-02,-1.916029016401578355e-01
1.159999999999999920e+00,3.176746720268806556e-01,-2.755145759760990742e-01,-3.296785167570021602e-01
1.161000000000000032e+00,5.733476384289262207e-01,-3.448389389024666407e-01,-5.165219316032041430e-01
1.161999999999999922e+00,5.960181559333957990e-01,-1.820922349055314193e-01,-6.156689139569581082e-01
1.163000000000000034e+00,3.719825350785495588e-01,1.178459195412329408e-01,-5.523810731089228154e-01
1.163999999999999924e+00,-5.333981432235811171e-03,4.358631827770818590e-01,-3.565639142674775774e-01
1.165000000000000036e+00,-3.161890723769763545e-01,6.149653007441900909e-01,-1.132441520858396555e-01
1.165999999999999925e+00,-4.094967701091092316e-01,5.791426375898871548e-01,5.222968988969532711e-02
1.167000000000000037e+00,-2.721664217699795718e-01,4.065231503350375530e-01,6.823965229272296873e-02
1.167999999999999927e+00,-1.917303316943731045e-02,2.498168364121006457e-01,-1.195159175261376397e-02
1.169000000000000039e+00,1.500194405672733711e-01,2.512829344412708110e-01,-1.371210402263755845e-01
1.169999999999999929e+00,1.012081594578049248e-01,4.287694792540467925e-01,-1.678477331600218281e-01
1.171000000000000041e+00,-1.290998768298772803e-01,6.566748598648545210e-01,-8.431774415912671183e-02
1.171999999999999931e+00,-3.939935198261138583e-01,7.967692310097759245e-01,9.133301323693401863e-02
1.173000000000000043e+00,-5.013704798522623518e-01,7.464036517643605206e-01,2.537235098281688250e-01
1.173999999999999932e+00,-3.252203134428466313e-01,5.015377538060288298e-01,3.191973782932941983e-01
1.175000000000000044e+00,4.657348873048715310e-02,1.734776336970021426e-01,2.098127655265868696e-01
1.175999999999999934e+00,4.527315886657290456e-01,-4.518816688500618128e-02,-9.537245746568459581e-03
1.177000000000000046e+00,6.961337530234212867e-01,-7.145699310388238523e-02,-2.153714590757806469e-01
1.177999999999999936e+00,7.028966649074559481e-01,8.287444972357774220e-02,-3.129306819435834219e-01
1.179000000000000048e+00,5.031891899957885439e-01,2.836024604638052171e-01,-2.725796190851985101e-01
1.179999999999999938e+00,3.056547470086466989e-01,3.608240070302123348e-01,-1.214501500852762511e-01
