time,acc_x,acc_y,acc_z
0.000000000000000000e+00,2.874701157104013471e-02,-3.953642727223388720e-02,6.024709572833031324e-02
1.000000000000000021e-03,-1.842907082402434667e-03,-7.765184410573308660e-02,3.472314483363659471e-02
2.000000000000000042e-03,-7.020109356337854434e-02,-8.417118400388529098e-02,3.154611647358217686e-03
3.000000000000000062e-03,-1.320234948979844558e-01,-1.404535695331212142e-01,-4.820284832700880151e-02
4.000000000000000083e-03,-1.109169412101158880e-01,-1.638467813132635231e-01,-3.332836450637569059e-02
5.000000000000000104e-03,-1.469376804903454181e-01,-1.812555440837643750e-01,-6.758157327377233015e-02
6.000000000000000125e-03,-1.698826366906521224e-01,-1.360714371388556387e-01,-8.739796489746047559e-02
7.000000000000000146e-03,-1.599789124483924074e-01,-1.487386228658680309e-01,-9.192880897053229416e-02
8.000000000000000167e-03,-1.934078696606788550e-01,-1.606465633579328700e-01,-1.253047666544202798e-01
8.999999999999999320e-03,-2.072864966930758057e-01,-1.763511942004263033e-01,-1.552741387845344712e-01
1.000000000000000021e-02,-2.056344692661584705e-01,-1.171665436998489546e-01,-1.095310019311470928e-01
1.099999999999999936e-02,-1.772252417035324878e-01,-1.133776700309605534e-01,-1.256127636464585973e-01
1.200000000000000025e-02,-1.711098363037278081e-01,-6.039770967138060470e-02,-1.116578991465134868e-01
1.299999999999999940e-02,-1.188502495956488270e-01,-8.298323290704105737e-02,-1.038765675163236535e-01
1.400000000000000029e-02,-7.891664389527400236e-02,-3.039247232418543915e-02,-1.296095476170800731e-01
1.499999999999999944e-02,-7.732985940108531853e-02,-3.164352487358482180e-02,-7.846514606717111540e-02
1.600000000000000033e-02,-4.324207811361743814e-02,5.177430625362842292e-02,-5.345715808433193494e-02
1.700000000000000122e-02,-2.520746363831209355e-02,4.776927788650197487e-02,-4.873677547311153213e-02
1.799999999999999864e-02,3.350817003970780333e-02,5.197796273279539636e-02,-1.181679119834348930e-02
1.899999999999999953e-02,7.049351540371262548e-02,9.774298764110558868e-02,8.542894081087024777e-03
2.000000000000000042e-02,7.891085210784407056e-02,1.180418912572542695e-01,4.375879149351018932e-02
2.100000000000000130e-02,1.353916320187941447e-01,1.551181970900402940e-01,3.410699964290597741e-02
2.199999999999999872e-02,1.516503678806842281e-01,1.645701945344573425e-01,3.703555370356299836e-02
2.299999999999999961e-02,1.738006874302299998e-01,1.547035891048132716e-01,8.669910296248974080e-02
2.400000000000000050e-02,2.097646748429181918e-01,1.763868879915986010e-01,9.478929648508953310e-02
2.500000000000000139e-02,1.863082349126415349e-01,1.519338808783577133e-01,1.066345296631199951e-01
2.599999999999999881e-02,1.893437364481427299e-01,1.230751227117882624e-01,1.104652568161769988e-01
2.699999999999999969e-02,1.888861329898135766e-01,1.363209105565882651e-01,1.240606638195723976e-01
2.800000000000000058e-02,1.978416435321623257e-01,1.018045890621572386e-01,1.558026279638845546e-01
2.900000000000000147e-02,1.721723756823081153e-01,9.935032057419115881e-02,1.167118145241016758e-01
2.999999999999999889e-02,1.262004293192469928e-01,5.793124596766319884e-02,1.223271769390900654e-01
3.099999999999999978e-02,1.054209263201725671e-01,3.715535238432671888e-02,1.018406472331979673e-01
3.200000000000000067e-02,9.706206747960856307e-02,-1.130351426212104597e-02,4.262678154349149040e-02
3.300000000000000155e-02,4.180143228492957247e-02,-2.040499874779418826e-02,7.129914320099613179e-02
3.400000000000000244e-02,-1.744392182187574220e-02,-8.141835335221613013e-02,4.119357380973039107e-02
3.500000000000000333e-02,-6.240404477270401068e-02,-8.604631213961091984e-02,-2.757716166822319834e-02
3.599999999999999728e-02,-9.871348359785575566e-02,-1.071382350880271811e-01,-5.536048145237579786e-03
3.699999999999999817e-02,-1.094225839902301378e-01,-1.425121719527083219e-01,-1.236134353374477093e-02
3.799999999999999906e-02,-1.372295134291395269e-01,-1.473336743957747164e-01,-6.509720074164550285e-02
3.899999999999999994e-02,-1.458249067666406440e-01,-1.448322139199296477e-01,-7.170924662935049265e-02
4.000000000000000083e-02,-2.000790173420677609e-01,-1.704115074532359109e-01,-7.683020687981391428e-02
4.100000000000000172e-02,-1.899378060072869912e-01,-1.605857305572427063e-01,-9.684397853259878175e-02
4.200000000000000261e-02,-2.132270589968304486e-01,-1.599197923294527479e-01,-1.010962184567367333e-01
4.299999999999999656e-02,-2.202906608653864839e-01,-1.602222001749608604e-01,-1.090725695141519375e-01
4.399999999999999745e-02,-2.257910171040272973e-01,-8.317468199562245978e-02,-1.438140806913075498e-01
4.499999999999999833e-02,-1.565437676485904317e-01,-6.311528041450489845e-02,-1.124060174276088342e-01
4.599999999999999922e-02,-1.415757627265132601e-01,-8.638906672906365714e-02,-1.186357579382053551e-01
4.700000000000000011e-02,-1.132695606944806171e-01,-5.261534632329240013e-02,-8.761394189466112370e-02
4.800000000000000100e-02,-7.792950580081488277e-02,-2.345295245089316222e-02,-1.322541109838954732e-01
4.900000000000000189e-02,-4.533775326232407366e-02,1.957482083920062191e-02,-8.267127225115304678e-02
5.000000000000000278e-02,-9.144655718877531952e-03,3.322738934770856634e-02,-4.432110995504039835e-02
5.099999999999999672e-02,2.351520657202206890e-02,7.620192145254796323e-02,-3.297644927536533960e-02
5.199999999999999761e-02,6.953148205335459020e-02,1.038952771032650435e-01,-4.215980613548998140e-02
5.299999999999999850e-02,6.407146777887515188e-02,1.170015372670845377e-01,2.493694006796662310e-02
5.399999999999999939e-02,1.082959046889043347e-01,1.459374811529333127e-01,2.588470346677076983e-02
5.500000000000000028e-02,1.704151335797908506e-01,1.798079832949536494e-01,6.253039664228859928e-02
5.600000000000000117e-02,1.614621989629915766e-01,1.363805875662278677e-01,9.827031695741066109e-02
5.700000000000000205e-02,1.942603189431865163e-01,1.473762050995797712e-01,9.295843264683990859e-02
5.800000000000000294e-02,1.944124675941923674e-01,1.557513566064810395e-01,1.180875292355711148e-01
5.899999999999999689e-02,2.143867312852759943e-01,1.485395716791508558e-01,1.167553972235869375e-01
5.999999999999999778e-02,2.222482299640850256e-01,1.457116935246700606e-01,1.552387562343996441e-01
6.099999999999999867e-02,1.805176447881314816e-01,1.205743131520156386e-01,1.380813226335792510e-01
6.199999999999999956e-02,1.675218506449875910e-01,1.061710462761878276e-01,1.152852127905133889e-01
6.300000000000000044e-02,1.084119596912593991e-01,4.690053442681619417e-02,1.111367832539417316e-01
6.400000000000000133e-02,8.688936185268898715e-02,2.770351590323874222e-02,8.635029133115097733e-02
6.500000000000000222e-02,5.772565080279539601e-02,-3.014550199017386727e-03,9.167726037304868569e-02
6.600000000000000311e-02,3.792898606867745048e-02,-3.989629477937484819e-02,5.186848350389450246e-02
6.700000000000000400e-02,1.329003790316293614e-02,-7.624467016066767411e-02,4.176400834329528633e-02
6.800000000000000488e-02,-3.320618247211363366e-02,-1.175246668138991701e-01,2.614841027002295926e-02
6.900000000000000577e-02,-1.007518159144359382e-01,-1.179626571753627368e-01,-2.214337072485586793e-03
7.000000000000000666e-02,-1.461694246706404243e-01,-1.358175663928712085e-01,-4.436930870999480914e-02
7.099999999999999367e-02,-1.416153542028553425e-01,-1.231911865441593507e-01,-1.892379137390211297e-02
7.199999999999999456e-02,-1.657625780720168862e-01,-1.733847191494096718e-01,-4.623569564443386071e-02
7.299999999999999545e-02,-1.839352774056967621e-01,-1.584940840392267680e-01,-6.943707103597729358e-02
7.399999999999999634e-02,-1.990715397954188337e-01,-1.741292235515327080e-01,-8.490727581671758672e-02
7.499999999999999722e-02,-1.571201482170176966e-01,-1.534138013908034337e-01,-1.095781535348787639e-01
7.599999999999999811e-02,-1.940637261044655115e-01,-1.487553428569853009e-01,-1.046357012469655151e-01
7.699999999999999900e-02,-1.950214051753131617e-01,-1.100598295554847394e-01,-1.163303569988972941e-01
7.799999999999999989e-02,-1.960796688283193978e-01,-1.105571243884669180e-01,-1.146720734966028277e-01
7.900000000000000078e-02,-1.484827980949375570e-01,-4.275998491767928067e-02,-1.195362090943172528e-01
8.000000000000000167e-02,-1.171668419787343790e-01,-3.166961862538135442e-02,-1.196139795590230731e-01
8.100000000000000255e-02,-1.065239936483135808e-01,-2.149142811922172963e-02,-1.007755987547520604e-01
8.200000000000000344e-02,-4.527218388979625113e-02,1.696604273300187510e-02,-8.197230145885765762e-02
8.300000000000000433e-02,-2.296481225885595168e-02,6.590364104279558544e-02,-7.392124845656949939e-02
8.400000000000000522e-02,1.807093209348097432e-02,7.647649762384259309e-02,-1.729104781034527388e-02
8.500000000000000611e-02,6.562403369285843557e-02,1.327764828872217695e-01,-3.019607319700815667e-02
8.599999999999999312e-02,7.784622797368943858e-02,1.594201902232839085e-01,2.160181441893102225e-02
8.699999999999999400e-02,1.028503011981511256e-01,1.622871079779839021e-01,9.610759802495530066e-03
8.799999999999999489e-02,1.724146981715661553e-01,1.542229926421873620e-01,3.725676762618572446e-02
8.899999999999999578e-02,1.709126888845031167e-01,1.623749410958384709e-01,8.207412132598468357e-02
8.999999999999999667e-02,2.009353490051049018e-01,1.588172139041385822e-01,1.049295358805086287e-01
9.099999999999999756e-02,1.976342112959325603e-01,1.231512942445123632e-01,8.278538823230534305e-02
9.199999999999999845e-02,2.083583766505079649e-01,1.211275339119334965e-01,1.130231442828724259e-01
9.299999999999999933e-02,1.833732519788192628e-01,1.248955942935955354e-01,1.036168724664784102e-01
9.400000000000000022e-02,1.814498765524176771e-01,8.920873446433230658e-02,1.172506208885731455e-01
9.500000000000000111e-02,1.366379817495061710e-01,6.558584003383227667e-02,9.271235353790759082e-02
9.600000000000000200e-02,1.451198433789790965e-01,4.254856360744885269e-02,1.217319645954248464e-01
9.700000000000000289e-02,1.462930336699971301e-01,-8.150070318373092357e-03,1.246180827599267793e-01
9.800000000000000377e-02,8.321008428551951441e-02,-8.648331252621044296e-03,9.710256788205567924e-02
9.900000000000000466e-02,2.964238768731887810e-02,-6.344389995317151199e-02,9.663304135655288729e-02
1.000000000000000056e-01,4.473055785837832068e-05,-7.906129760895463932e-02,3.238183224564198520e-02
1.010000000000000064e-01,-6.326743666099648999e-02,-7.982073648149277945e-02,2.782028411999754036e-02
1.019999999999999934e-01,-7.972515236196223154e-02,-1.412452050531668446e-01,-2.282912051602576514e-02
1.029999999999999943e-01,-1.388323787935809295e-01,-1.322217634020468324e-01,-1.264171032575840854e-02
1.039999999999999952e-01,-1.467175989182553375e-01,-1.458153883756660163e-01,-3.455725734180196008e-03
1.049999999999999961e-01,-1.345847268430618027e-01,-1.492808406309454328e-01,-3.656466280906606886e-02
1.059999999999999970e-01,-1.719980055495710924e-01,-1.521275120960342842e-01,-5.450823234569866088e-02
1.069999999999999979e-01,-2.215503073400406087e-01,-1.471522145523503355e-01,-1.325001642258218371e-01
1.079999999999999988e-01,-2.239273911080869039e-01,-1.320764674215846313e-01,-9.586801518772702924e-02
1.089999999999999997e-01,-2.272407612404542532e-01,-1.452104545520054024e-01,-1.311275572426914282e-01
1.100000000000000006e-01,-2.034388560231086551e-01,-1.233987140602880034e-01,-1.061190736105910026e-01
1.110000000000000014e-01,-1.963326836680136245e-01,-9.346995889366536969e-02,-1.175419413149459968e-01
1.120000000000000023e-01,-1.452338856221578878e-01,-6.072289111598368899e-02,-1.134269037500421906e-01
1.130000000000000032e-01,-1.395590215319394978e-01,-4.120016874896437198e-03,-1.389478693843105850e-01
1.140000000000000041e-01,-7.634997524854390816e-02,-1.155291636563256924e-02,-9.572001382069672548e-02
1.150000000000000050e-01,-6.596199152061524296e-02,3.461732263544396726e-02,-8.545063036534766843e-02
1.160000000000000059e-01,-3.720364716650437914e-02,5.176834044488493047e-02,-8.081534685753211100e-02
1.170000000000000068e-01,2.388430187141395850e-02,9.630827385404733265e-02,-6.833604561820671996e-02
1.179999999999999938e-01,4.006791880574832321e-02,8.566728740827853072e-02,-4.789724143954664920e-02
1.189999999999999947e-01,8.062057062859098733e-02,1.121678209886665945e-01,5.462987236230423121e-03
1.199999999999999956e-01,1.345602729668006758e-01,1.450614672393695237e-01,1.398741009510999327e-02
1.209999999999999964e-01,1.637624955044947594e-01,1.657051052019031800e-01,5.059114048704353023e-02
1.219999999999999973e-01,1.408980346528697913e-01,1.650438314592171662e-01,6.584343714507834289e-02
1.229999999999999982e-01,1.925400002056177340e-01,1.761359274520049034e-01,7.491687956486679789e-02
1.239999999999999991e-01,2.199584415344174870e-01,1.602162774920842525e-01,8.413907225041072913e-02
1.250000000000000000e-01,1.922631437141246735e-01,1.411874510643658098e-01,8.856920829161306352e-02
1.260000000000000009e-01,1.832944045679021638e-01,1.308187021731200828e-01,9.359664343998477798e-02
1.270000000000000018e-01,1.690791708246383307e-01,8.701729794768604809e-02,1.223543091489222162e-01
1.280000000000000027e-01,1.803115041949564790e-01,3.960376597805070203e-02,9.708444678845565279e-02
1.290000000000000036e-01,1.585545214582539664e-01,3.084199666817005747e-02,1.290797850569875560e-01
1.300000000000000044e-01,1.153324053137373129e-01,4.116641862899488719e-02,1.017451265570434304e-01
1.310000000000000053e-01,9.731559317173707480e-02,-1.127834018532143656e-02,1.148954828669880440e-01
1.320000000000000062e-01,5.356359588624733797e-02,-6.369479389401523639e-02,1.083070522103267708e-01
1.330000000000000071e-01,5.202608791166643543e-03,-7.461107396819618987e-02,7.577959759001502704e-02
1.340000000000000080e-01,3.841779758441268584e-03,-1.281578737592146966e-01,4.059048007785833606e-02
1.350000000000000089e-01,-5.744847818919857768e-02,-1.097398737453731815e-01,4.225205103737317974e-02
1.360000000000000098e-01,-9.832668212768257143e-02,-1.461469402609201496e-01,-3.236639539654321586e-03
1.370000000000000107e-01,-1.117672409302998826e-01,-1.552189226814343348e-01,5.241021981234822782e-03
1.380000000000000115e-01,-1.753997868561931184e-01,-1.511220277371142506e-01,-2.952096617070074092e-02
1.390000000000000124e-01,-1.672019185468840707e-01,-1.797383708328015584e-01,-7.485578583329156876e-02
1.400000000000000133e-01,-1.745570509390067249e-01,-1.662757113464747305e-01,-6.930764282570556212e-02
1.409999999999999865e-01,-2.147793478585139637e-01,-1.104717734849093441e-01,-1.148824514841245703e-01
1.419999999999999873e-01,-1.834378158808672998e-01,-1.571592471596205132e-01,-1.001762576460226845e-01
1.429999999999999882e-01,-1.980025135300568506e-01,-1.158381596714488926e-01,-9.963129042633998844e-02
1.439999999999999891e-01,-1.814885880513184002e-01,-6.710730457753168177e-02,-1.286823410917179999e-01
1.449999999999999900e-01,-1.643487283556027689e-01,-3.907025261639093111e-02,-1.292250276527292518e-01
1.459999999999999909e-01,-1.588556201924226363e-01,-1.354920897166354658e-02,-1.279128820617898565e-01
1.469999999999999918e-01,-1.226411996931274090e-01,1.748843022010080836e-02,-1.013925260590073651e-01
1.479999999999999927e-01,-6.265150645808149898e-02,3.077310108260857685e-02,-1.228125315700584336e-01
1.489999999999999936e-01,-5.896436222013874684e-02,7.277023464536888642e-02,-9.860779327211512124e-02
1.499999999999999944e-01,6.872094239288617165e-03,8.293143099246785832e-02,-7.646293916448132499e-02
1.509999999999999953e-01,4.032780722035419346e-02,1.478219131777067374e-01,-5.649402631344631331e-02
1.519999999999999962e-01,9.982876833427774266e-02,1.244548958253550441e-01,-3.326415979774456633e-02
1.529999999999999971e-01,1.065304809925221585e-01,1.594252839225709928e-01,4.258204509846801739e-03
1.539999999999999980e-01,1.305304132299456854e-01,1.422941177458779405e-01,3.946635127164359325e-02
1.549999999999999989e-01,1.656954687170900387e-01,1.674271034198314412e-01,2.653445246607206640e-02
1.559999999999999998e-01,1.699949437246651152e-01,1.670689703701588591e-01,8.450748869169828759e-02
1.570000000000000007e-01,2.076605952006996270e-01,1.434803601196097400e-01,9.782287819525842254e-02
1.580000000000000016e-01,1.768752107272860696e-01,1.471514716811476164e-01,8.694473994661831850e-02
1.590000000000000024e-01,1.944547272498708124e-01,9.418216607650363448e-02,1.183630808528114003e-01
1.600000000000000033e-01,1.590610472560108346e-01,8.058611678345935225e-02,1.026754633010260320e-01
1.610000000000000042e-01,2.077732585189664138e-01,1.022433520514556826e-01,1.219489766666654595e-01
1.620000000000000051e-01,1.457808023986181256e-01,5.127418166271938138e-02,9.993528105019218455e-02
1.630000000000000060e-01,1.205931706348490617e-01,-7.635775062272100698e-03,1.134873370031565659e-01
1.640000000000000069e-01,1.144578941572945152e-01,-4.825028296743080064e-02,1.188053578920278686e-01
1.650000000000000078e-01,4.477643842800593105e-02,-6.602027353066651505e-02,9.379264353088581641e-02
1.660000000000000087e-01,4.277248252536749312e-02,-9.974562607146154891e-02,8.912983683938822954e-02
1.670000000000000095e-01,-8.627002807973087675e-03,-1.045377995661389142e-01,4.103073150999718421e-02
1.680000000000000104e-01,-6.442302196815655191e-02,-1.230786244060465273e-01,3.916273095821687367e-02
1.690000000000000113e-01,-9.307497443006503002e-02,-1.514427357158660281e-01,4.074016037222304154e-02
1.700000000000000122e-01,-1.272573032062715159e-01,-1.687033100023856980e-01,7.927266742207488698e-03
1.710000000000000131e-01,-1.615989244336601960e-01,-1.862900531844870200e-01,-4.542469997738751795e-04
1.719999999999999862e-01,-1.881163230745116766e-01,-1.584232903674877846e-01,-4.931660681834317689e-02
1.729999999999999871e-01,-2.003560817082752910e-01,-1.660633175797892602e-01,-5.448663821419874598e-02
1.739999999999999880e-01,-2.080871083412621503e-01,-1.300014488172124838e-01,-7.362986202272349401e-02
1.749999999999999889e-01,-2.179993124615001721e-01,-1.133280136696540180e-01,-9.213307122784432368e-02
1.759999999999999898e-01,-2.183818868498108856e-01,-1.028268456790778634e-01,-1.075272169642136344e-01
1.769999999999999907e-01,-1.716444453986641083e-01,-8.832837513545392649e-02,-1.468478683795216011e-01
1.779999999999999916e-01,-1.865699517303023580e-01,-3.982045903585103991e-02,-1.220587052970899117e-01
1.789999999999999925e-01,-1.490060181985890242e-01,-3.097807450976013122e-02,-9.631825777718357184e-02
1.799999999999999933e-01,-1.260845136916717291e-01,4.086765654004313394e-03,-1.110596880670691594e-01
1.809999999999999942e-01,-5.257607102066771260e-02,2.450616618982575518e-02,-9.337470140089708381e-02
1.819999999999999951e-01,-2.643455009594618613e-02,8.003026094410838065e-02,-1.083958470749451092e-01
1.829999999999999960e-01,-1.785458389385189554e-02,9.840155401092125220e-02,-6.461161950425947653e-02
1.839999999999999969e-01,1.857795432623205595e-02,1.179405214323024226e-01,-6.244724473152637317e-02
1.849999999999999978e-01,7.145020974422135185e-02,1.264339637138518213e-01,-1.703099462867460265e-02
1.859999999999999987e-01,1.437256940713391995e-01,1.208449715030572441e-01,3.117336609390636282e-02
1.869999999999999996e-01,1.707597605801554896e-01,1.154077955391405313e-01,1.622330205176342188e-02
1.880000000000000004e-01,1.714905121746290173e-01,1.570421706031672193e-01,4.163026365379014077e-02
1.890000000000000013e-01,1.883793032784435995e-01,1.478396967574572007e-01,2.707304740102336668e-02
1.900000000000000022e-01,1.592799815533673391e-01,1.567541015975050245e-01,9.832434711576662489e-02
1.910000000000000031e-01,1.859899074279253717e-01,1.007516511302760792e-01,6.755164273146527232e-02
1.920000000000000040e-01,2.280686897092455978e-01,1.105817827622061350e-01,1.154352938392991523e-01
1.930000000000000049e-01,1.839716009474333946e-01,9.746450531700888431e-02,7.769440465268831475e-02
1.940000000000000058e-01,1.915042287813200073e-01,8.130252674021835879e-02,1.349765211633474071e-01
1.950000000000000067e-01,1.604289266865310537e-01,5.681787773498311184e-02,1.434490913776087229e-01
1.960000000000000075e-01,1.349800557190438677e-01,1.090407729861458778e-02,1.355837627868907713e-01
1.970000000000000084e-01,1.063610331157250760e-01,-1.109022078222145213e-02,1.101312091511659208e-01
1.980000000000000093e-01,4.717405781898877104e-02,-9.723524281595645122e-03,9.678382431187654289e-02
1.990000000000000102e-01,3.032347644720605195e-02,-5.272120066820672191e-02,1.057818112169009311e-01
2.000000000000000111e-01,-5.409629123844647558e-02,-1.010126165928333514e-01,9.919362357856047197e-02
2.010000000000000120e-01,-1.965417315741796456e-02,-1.454279172511187823e-01,5.449407616296662177e-02
2.020000000000000129e-01,-7.820999200921154026e-02,-1.298411156768975727e-01,4.349770944018831881e-02
2.030000000000000138e-01,-1.283089938116068474e-01,-1.675959082994762095e-01,-1.398398394446911464e-03
2.039999999999999869e-01,-1.281375828272989514e-01,-1.643804504053278104e-01,-1.804658784491032855e-02
2.049999999999999878e-01,-1.813175455781113610e-01,-1.486378741940210524e-01,-4.555998918405792381e-02
2.059999999999999887e-01,-2.018215107873704006e-01,-1.877943183501983027e-01,-8.447036069884659992e-02
2.069999999999999896e-01,-1.966512260648762001e-01,-1.426679610931568531e-01,-8.089227615535898863e-02
2.079999999999999905e-01,-1.581327686837853408e-01,-1.192412064393059551e-01,-1.235635101408692205e-01
2.089999999999999913e-01,-1.928527225135267531e-01,-1.043970588689842743e-01,-7.602803315321585154e-02
2.099999999999999922e-01,-1.763103790601081300e-01,-7.340069838859013263e-02,-1.196459265205585404e-01
2.109999999999999931e-01,-1.804603916985600409e-01,-2.709609386542724541e-02,-1.523860844852150120e-01
2.119999999999999940e-01,-1.074720512221663538e-01,-3.050522245917114406e-02,-1.249107093091065407e-01
2.129999999999999949e-01,-1.336791583628344493e-01,5.154049947217799812e-03,-1.070525537147488243e-01
2.139999999999999958e-01,-1.078113767832410697e-01,5.831734375294440192e-02,-9.163262624604094631e-02
2.149999999999999967e-01,-3.316706384103338540e-02,6.199991640814452032e-02,-1.167054655019781756e-01
2.159999999999999976e-01,2.254798158001821914e-02,1.054815009638618017e-01,-9.567302115074509394e-02
2.169999999999999984e-01,6.037477250209798488e-03,1.198485373096504908e-01,-5.875454940822782274e-02
2.179999999999999993e-01,5.339801307125868757e-02,1.557012426602505106e-01,-3.657680363071594276e-02
2.190000000000000002e-01,1.117100607679380186e-01,1.620472846302583592e-01,-3.799911851423463244e-02
2.200000000000000011e-01,1.155321550241880102e-01,2.152701528907794981e-01,-1.639353407877583435e-02
2.210000000000000020e-01,1.703686676819882173e-01,1.616657168136595712e-01,1.951225108116111384e-02
2.220000000000000029e-01,1.683892452430577891e-01,1.458879843980052382e-01,4.344927373617477745e-02
2.230000000000000038e-01,1.714156941005235413e-01,1.567114462667339725e-01,6.144973600086620774e-02
2.240000000000000047e-01,2.359668947356252100e-01,1.206634241849170591e-01,1.106026073042174485e-01
2.250000000000000056e-01,1.873097563958301126e-01,1.209317683963184176e-01,8.510163758536484768e-02
2.260000000000000064e-01,1.864790517337337750e-01,8.015170418165022681e-02,1.140952145432619080e-01
2.270000000000000073e-01,1.971280391534429577e-01,7.979616369633772688e-02,1.344689396726694575e-01
2.280000000000000082e-01,1.546814169004088191e-01,3.513693608859558282e-02,1.479873253386339294e-01
2.290000000000000091e-01,1.140928365900975017e-01,3.198560422842311977e-03,1.013786366937695915e-01
2.300000000000000100e-01,1.122248428239361467e-01,-3.856230772995671019e-02,1.132200577003052988e-01
2.310000000000000109e-01,7.723414811841435024e-02,-5.915978521527127248e-02,9.984415804627989888e-02
2.320000000000000118e-01,3.757652176615322581e-02,-1.091578157080115019e-01,8.723935777541824699e-02
2.330000000000000127e-01,-4.221812935089215395e-03,-1.140920382599137639e-01,1.030373223469014665e-01
2.340000000000000135e-01,-4.252108812789311826e-02,-1.572236464113573040e-01,4.923412653052283705e-02
2.349999999999999867e-01,-8.072305115963775146e-02,-1.698738624194870983e-01,4.771139155783058611e-02
2.359999999999999876e-01,-1.327984815205527080e-01,-1.221566819350299593e-01,3.065717969304040252e-02
2.369999999999999885e-01,-1.290306178488175026e-01,-2.019899212023326396e-01,2.520820384507455828e-03
2.379999999999999893e-01,-1.718041213737085959e-01,-1.905817377828097348e-01,-1.510927535013611989e-02
2.389999999999999902e-01,-1.676291133208372697e-01,-1.429111822993686665e-01,-5.564658707948828831e-02
2.399999999999999911e-01,-2.008758524023773195e-01,-1.424347113727005842e-01,-4.549472215048213503e-02
2.409999999999999920e-01,-1.947789753809323066e-01,-1.372787918849347477e-01,-8.033957188130544380e-02
2.419999999999999929e-01,-1.986606760484566636e-01,-9.668355712057123685e-02,-1.282904765079105336e-01
2.429999999999999938e-01,-2.076168669753856444e-01,-6.849755260377302091e-02,-1.354967419175853172e-01
2.439999999999999947e-01,-1.620696006155001034e-01,-3.724294303447959337e-02,-1.079864622226924253e-01
2.449999999999999956e-01,-1.488906309822999596e-01,-2.335737648878825554e-02,-1.180471900639016025e-01
2.459999999999999964e-01,-1.270934119519030181e-01,5.263480991563284500e-02,-1.377037941884931005e-01
2.469999999999999973e-01,-7.763471404233099338e-02,4.468222412949857808e-02,-8.318206178501560966e-02
2.479999999999999982e-01,-4.423587662742385629e-02,7.379981128418680592e-02,-1.031184331353005856e-01
2.489999999999999991e-01,-1.119751954442854865e-02,1.165684710741184404e-01,-8.809382172005394973e-02
2.500000000000000000e-01,1.263919681087687097e-02,1.236845538725238197e-01,-6.378913477409373090e-02
2.510000000000000009e-01,4.475469737961432215e-02,1.424897081028758949e-01,-2.163021890105103553e-02
2.520000000000000018e-01,1.100763776341767142e-01,1.407086096374845774e-01,-6.653039305272827331e-02
2.530000000000000027e-01,1.362498409279480072e-01,1.250812985157151169e-01,-3.212710617574170840e-02
2.540000000000000036e-01,1.640574660804045570e-01,1.364854519653561638e-01,-1.613736958499090157e-03
2.550000000000000044e-01,1.867448077264093065e-01,1.558574433164163775e-01,3.992185760551899415e-02
2.560000000000000053e-01,1.680550116686428674e-01,1.389956209927797059e-01,6.806050751461703574e-02
2.570000000000000062e-01,2.120330638282155455e-01,1.174573597828734439e-01,8.252909398705157717e-02
2.580000000000000071e-01,1.966333680203729561e-01,1.096126557426214676e-01,1.043769020489858923e-01
2.590000000000000080e-01,1.933209803557440210e-01,7.318533859281599330e-02,1.111938824701566991e-01
2.600000000000000089e-01,2.208940945637390130e-01,4.953476098378481463e-02,9.047285609530254791e-02
2.610000000000000098e-01,1.577580225650344059e-01,5.032575546207618961e-02,1.130283532279236086e-01
2.620000000000000107e-01,1.278093528529497813e-01,-6.231527184009091544e-03,1.075506179227469078e-01
2.630000000000000115e-01,1.180973979400334328e-01,-6.046249417813196608e-02,1.319482643751113127e-01
2.640000000000000124e-01,8.476607746112896358e-02,-7.152944291830333479e-02,9.435526528835097571e-02
2.650000000000000133e-01,4.925484409029379229e-02,-9.634509452255841933e-02,1.138580038220543961e-01
2.660000000000000142e-01,-2.183828750416871856e-02,-1.132545209272803888e-01,1.042169249057462999e-01
2.670000000000000151e-01,-4.852369159782730923e-02,-1.289237095539128020e-01,5.306475915348185524e-02
2.680000000000000160e-01,-8.738440707199968127e-02,-1.606808251104835661e-01,3.764286619915074850e-02
2.690000000000000169e-01,-1.092111644199058873e-01,-1.385345500744805947e-01,2.524759281146396819e-02
2.700000000000000178e-01,-1.356164853296284722e-01,-1.635871981364225847e-01,3.058250635541434961e-02
2.710000000000000187e-01,-1.988497137518343005e-01,-1.593911251922975336e-01,-8.742677430418416967e-03
2.720000000000000195e-01,-1.913028184969877976e-01,-1.466755989008134975e-01,-2.232337242800870591e-02
2.730000000000000204e-01,-1.846880347096626351e-01,-1.209097875916004677e-01,-3.954948909378899063e-02
2.740000000000000213e-01,-2.281411830896630799e-01,-7.228451242421833622e-02,-6.719534843454044726e-02
2.750000000000000222e-01,-2.184545391647581269e-01,-9.310594813993150476e-02,-1.110302676961252150e-01
2.760000000000000231e-01,-2.299214534854649716e-01,-6.921250512855361969e-02,-9.480600495069545219e-02
2.770000000000000240e-01,-1.761361659781317535e-01,-4.594841484572618345e-02,-1.015215901580409225e-01
2.780000000000000249e-01,-1.802403152589776292e-01,-5.189224961815530959e-03,-1.258191453243727720e-01
2.790000000000000258e-01,-1.474820524284151946e-01,3.732869340693344834e-02,-1.113824978902731577e-01
2.800000000000000266e-01,-1.089036606312994565e-01,6.607817222119138911e-02,-1.312288677576516627e-01
2.810000000000000275e-01,-7.407205139382309900e-02,8.029521146591533931e-02,-1.510363184565119976e-01
2.819999999999999729e-01,-8.246980613217923597e-03,1.081917841629435051e-01,-7.866483102156356100e-02
2.829999999999999738e-01,2.365190488299323893e-02,1.299303056867345263e-01,-9.513534035399179301e-02
2.839999999999999747e-01,5.140652166301307169e-02,1.391021233290937464e-01,-3.864135282399954602e-02
2.849999999999999756e-01,1.061465055811219166e-01,1.561844230523089794e-01,-3.807468472959417427e-02
2.859999999999999765e-01,1.159442753485154104e-01,1.606895901747248667e-01,-1.931384335090243279e-02
2.869999999999999774e-01,1.616571768273349363e-01,1.621987619253650592e-01,1.070484806184900627e-02
2.879999999999999782e-01,1.872313603594758791e-01,1.678746944968550758e-01,2.846686572828937764e-02
2.889999999999999791e-01,2.047010009988079748e-01,1.585593144149362588e-01,4.352221737986822908e-02
2.899999999999999800e-01,1.834736138142369077e-01,1.066261333929297422e-01,6.385680908550757373e-02
2.909999999999999809e-01,1.871577579857514051e-01,1.018617423884041751e-01,9.954955445937044289e-02
2.919999999999999818e-01,2.075146807585830089e-01,8.712235205623780621e-02,8.985497608688790272e-02
2.929999999999999827e-01,1.627881545316029188e-01,5.168406689044437868e-02,1.201761629394979547e-01
2.939999999999999836e-01,1.498612397512777417e-01,3.541694314428293217e-02,1.131873417701935863e-01
2.949999999999999845e-01,1.797233349687541726e-01,-3.291707080630301100e-03,1.224189401575578595e-01
2.959999999999999853e-01,1.040503546968234855e-01,-3.477386510250593532e-02,1.097385509083504129e-01
2.969999999999999862e-01,9.545472967050568081e-02,-6.749586888081889058e-02,1.167177058646611532e-01
2.979999999999999871e-01,2.638729143171044192e-02,-1.034404909421853674e-01,9.857882388346922431e-02
2.989999999999999880e-01,2.655909882811876427e-02,-1.125434889640632985e-01,8.819813396317734144e-02
2.999999999999999889e-01,-2.966307893295334203e-02,-1.514677774885879735e-01,7.500915396210498798e-02
3.009999999999999898e-01,-3.692989483662221378e-02,-1.289106059279900296e-01,7.570586600129118604e-02
3.019999999999999907e-01,-1.089027676963505303e-01,-1.707362264437763955e-01,1.923503696974133634e-02
3.029999999999999916e-01,-1.300036678485408659e-01,-1.662194743155571974e-01,1.616446001666821744e-02
3.039999999999999925e-01,-1.482257896206157777e-01,-1.581054064671537640e-01,-1.063980034455551567e-02
3.049999999999999933e-01,-1.701472644952438107e-01,-1.486325315097857536e-01,-1.489982913163827478e-02
3.059999999999999942e-01,-1.995431118423190986e-01,-1.521628247918395127e-01,-4.449690123613761483e-02
3.069999999999999951e-01,-1.964088934053512259e-01,-9.240183251121196484e-02,-6.563405903733660063e-02
3.079999999999999960e-01,-2.281845632078609576e-01,-8.346151751853610190e-02,-6.838927078382515956e-02
3.089999999999999969e-01,-1.939899118360161323e-01,-8.353121322261829185e-02,-1.264201218530412729e-01
3.099999999999999978e-01,-1.805719002645387872e-01,-2.295179044467189622e-02,-1.020370460247294192e-01
3.109999999999999987e-01,-1.572528507250130214e-01,-1.645231722349404721e-02,-1.213710453397219974e-01
3.119999999999999996e-01,-1.526189869832853541e-01,2.301466931035061475e-02,-1.078699902894389717e-01
3.130000000000000004e-01,-9.845568778123434117e-02,4.991732051894031547e-02,-1.058844276312257832e-01
3.140000000000000013e-01,-7.222797546490444809e-02,1.037797818664419891e-01,-1.363110108228285933e-01
3.150000000000000022e-01,-5.259024315555962947e-02,1.462093283509509345e-01,-1.014587283281341568e-01
3.160000000000000031e-01,-3.950456870319882761e-03,1.504421290832199387e-01,-9.654156045667802721e-02
3.170000000000000040e-01,5.973475375241330682e-02,1.609402829388990597e-01,-7.615527353436939151e-02
3.180000000000000049e-01,1.014510372030500429e-01,1.488963892829812674e-01,-5.804324319786240138e-02
3.190000000000000058e-01,1.293959426737756324e-01,1.605219584445973235e-01,-4.109262160211875348e-02
3.200000000000000067e-01,1.621499197060015940e-01,1.705804827634315735e-01,7.984890468430483335e-03
3.210000000000000075e-01,1.977236851764867243e-01,1.506483394214693516e-01,6.342563343782217818e-03
3.220000000000000084e-01,1.989487129845232960e-01,1.498038582377881067e-01,2.145716044913832318e-02
3.230000000000000093e-01,2.131710588851227495e-01,1.549446896876610635e-01,6.053034322258411121e-02
3.240000000000000102e-01,2.159504987415170885e-01,1.071480600801376359e-01,9.485256823945896476e-02
3.250000000000000111e-01,1.951212474248751327e-01,6.893783279693152521e-02,6.632953203798774844e-02
3.260000000000000120e-01,1.807076647131997393e-01,1.702677756771657155e-02,1.288139995352058920e-01
3.270000000000000129e-01,1.702330874290854112e-01,3.343416609461334621e-02,1.303239503634507634e-01
3.280000000000000138e-01,1.186188025228329113e-01,-1.828147765731051588e-02,1.356211144482770692e-01
3.290000000000000147e-01,1.096488739465249773e-01,-4.813019866031031935e-02,1.347331567063335955e-01
3.300000000000000155e-01,9.219060916197177602e-02,-9.127458297887233729e-02,1.297944610903731810e-01
3.310000000000000164e-01,2.255032561653541254e-02,-9.374141500574026398e-02,1.234103301997947072e-01
3.320000000000000173e-01,1.678247110894239350e-02,-1.294698398940004602e-01,1.368841184382187659e-01
3.330000000000000182e-01,-2.515731135010410360e-02,-1.515723019760878143e-01,9.815964718428674129e-02
3.340000000000000191e-01,-5.563549118831511570e-02,-1.365458127191725712e-01,9.884176635193624161e-02
3.350000000000000200e-01,-1.280147495583012773e-01,-1.368999033531624332e-01,4.727299206088151490e-02
3.360000000000000209e-01,-1.119701224063013867e-01,-1.311709544904249569e-01,5.118743461281969470e-02
3.370000000000000218e-01,-1.392786245828325220e-01,-1.734350193024211950e-01,2.717914478562602140e-02
3.380000000000000226e-01,-1.760902514641980166e-01,-1.368636949779192535e-01,-3.819036141780010607e-02
3.390000000000000235e-01,-1.840998063060767798e-01,-1.468151651327680995e-01,-2.060583898406522993e-02
3.400000000000000244e-01,-1.926837463501097081e-01,-1.215898009257936618e-01,-8.520815247437397988e-02
3.410000000000000253e-01,-2.219883455321972621e-01,-5.300175112455995236e-02,-6.075765631363103103e-02
3.420000000000000262e-01,-2.211642951342479568e-01,-7.192097048994698649e-02,-9.400481609924087045e-02
3.430000000000000271e-01,-1.731413414275703166e-01,-6.629773943824625315e-02,-1.007023715495722616e-01
3.439999999999999725e-01,-1.879763087604164329e-01,3.362429816368573982e-03,-1.338791932545438657e-01
3.449999999999999734e-01,-1.636501257927387709e-01,1.255194343724818154e-02,-1.067474591640220072e-01
3.459999999999999742e-01,-9.442477388641452862e-02,5.341771599861518810e-02,-1.275626499579420037e-01
3.469999999999999751e-01,-7.396123799433977630e-02,8.854280442526130113e-02,-1.151596058648741705e-01
3.479999999999999760e-01,-4.499391246575569492e-02,1.304050933636396459e-01,-1.162021750227980321e-01
3.489999999999999769e-01,-9.250854745863565116e-04,1.572005062277795351e-01,-1.286214804007253798e-01
3.499999999999999778e-01,3.286445660560399773e-02,1.434296000948622474e-01,-5.225494001945170386e-02
3.509999999999999787e-01,8.576946607978727655e-02,1.589794761835787995e-01,-4.916322338085929444e-02
3.519999999999999796e-01,1.150857794186757183e-01,1.634542907216559315e-01,-7.120799839807062659e-02
3.529999999999999805e-01,1.633021744510861073e-01,1.671466181987397992e-01,-8.815261996344598422e-03
3.539999999999999813e-01,1.606878161111327252e-01,1.505583711509246858e-01,-3.975917506397599020e-03
3.549999999999999822e-01,1.647550025993237688e-01,1.471888934020017803e-01,4.870765132011662529e-02
3.559999999999999831e-01,2.043804808673492512e-01,1.409258860028803351e-01,2.307551337783743384e-02
3.569999999999999840e-01,2.003702449685771103e-01,8.724714916215253746e-02,5.856018711506763563e-02
3.579999999999999849e-01,1.858518344861721794e-01,8.502947910053930414e-02,6.046266500504263869e-02
3.589999999999999858e-01,2.117181021927979634e-01,5.695997326504206870e-02,1.114793907243189636e-01
3.599999999999999867e-01,1.901412909007607621e-01,6.598853719276711119e-03,7.429446225391793390e-02
3.609999999999999876e-01,1.582870475848001113e-01,-1.752945611934783252e-02,1.339097650594163469e-01
3.619999999999999885e-01,9.597526081066062864e-02,-6.177446831195119309e-02,1.290169676188843428e-01
3.629999999999999893e-01,8.789802541957383863e-02,-9.554275739906790965e-02,1.187279089661049669e-01
3.639999999999999902e-01,6.066201035336188374e-02,-1.147807215005117037e-01,1.318682979495791330e-01
3.649999999999999911e-01,1.172485319721267277e-03,-1.352738762688212026e-01,1.120082277483479549e-01
3.659999999999999920e-01,-4.342395198721318676e-03,-1.537286055929621698e-01,9.813366143222862492e-02
3.669999999999999929e-01,-6.183705453595417928e-02,-1.357740333310314407e-01,6.440639499983115412e-02
3.679999999999999938e-01,-9.780877924808779877e-02,-1.775710958862745104e-01,3.022789749775383131e-02
3.689999999999999947e-01,-1.258129471060225324e-01,-1.681529044059003886e-01,6.529334313259536893e-02
3.699999999999999956e-01,-1.416600021992446279e-01,-1.524937352420257519e-01,1.807660746107440583e-02
3.709999999999999964e-01,-1.596517228289011103e-01,-1.491357309364292061e-01,-1.309799788671481974e-02
3.719999999999999973e-01,-1.928718092433571729e-01,-1.228256919510526540e-01,-5.633927084799480317e-03
3.729999999999999982e-01,-2.020165543887178783e-01,-1.108585471117022880e-01,-7.114100197140729720e-02
3.739999999999999991e-01,-2.121314439334860413e-01,-8.927582500525108045e-02,-7.801328472500844435e-02
3.750000000000000000e-01,-2.155726138161602745e-01,-8.794348323949513491e-02,-9.469608350099664729e-02
3.760000000000000009e-01,-1.712981545710616782e-01,-2.124126030992947237e-02,-1.267089146875777783e-01
3.770000000000000018e-01,-1.591891060177795525e-01,-2.545230332936874659e-02,-1.008787473095799775e-01
3.780000000000000027e-01,-1.358614990004425038e-01,7.329354409586164021e-02,-8.756485889417246760e-02
3.790000000000000036e-01,-9.654161025502787374e-02,9.283418115023556183e-02,-1.092604360909422007e-01
3.800000000000000044e-01,-9.113494837546903815e-02,7.988204358653182291e-02,-1.028497446241432994e-01
3.810000000000000053e-01,-8.452725467704942652e-02,1.059384800259819820e-01,-1.040938037006145372e-01
3.820000000000000062e-01,-1.244486329926326913e-02,1.223821970139515602e-01,-9.853712885782729691e-02
3.830000000000000071e-01,3.912777401655916087e-02,1.440909161803253791e-01,-1.129773179645632841e-01
3.840000000000000080e-01,7.703166439866716841e-02,1.488162165592353814e-01,-7.037092469083910951e-02
3.850000000000000089e-01,8.665920747879263253e-02,1.731503457450261629e-01,-6.982082257942982817e-02
3.860000000000000098e-01,1.326485686858441260e-01,1.700416932847899631e-01,-3.214721313486459953e-02
3.870000000000000107e-01,1.854638067524700396e-01,1.608487777789444906e-01,-1.319398427101527854e-02
3.880000000000000115e-01,1.819422654078033663e-01,1.439717411543872949e-01,-4.164522316569956376e-03
3.890000000000000124e-01,1.679013391039633207e-01,1.157980637083548953e-01,3.768322707149405343e-02
3.900000000000000133e-01,1.816236356652512485e-01,7.562322644121215187e-02,4.764546916142248234e-02
3.910000000000000142e-01,1.985921974977601645e-01,4.117745825122245268e-02,7.040730147250734428e-02
3.920000000000000151e-01,1.921070817356230753e-01,-3.095327199329224281e-03,9.719519315681532379e-02
3.930000000000000160e-01,2.089247536932409000e-01,-2.905711061693570883e-03,1.251857907023057326e-01
3.940000000000000169e-01,1.582983448877505472e-01,-1.043513262480586304e-02,1.200177877986011860e-01
3.950000000000000178e-01,1.330822047383923012e-01,-5.932367866605192663e-02,1.399323893188945955e-01
3.960000000000000187e-01,9.557790177654226782e-02,-7.864018738840120037e-02,1.177636047456698393e-01
3.970000000000000195e-01,8.338444041503680071e-02,-9.869693254507619362e-02,1.442288508797685276e-01
3.980000000000000204e-01,6.604709890507150238e-02,-1.275857055561367692e-01,1.283517429372612317e-01
3.990000000000000213e-01,-9.470559210448582094e-03,-1.636178757852644050e-01,1.150517948209498903e-01
4.000000000000000222e-01,-3.513011418835695898e-02,-1.506127652449201215e-01,8.868095347206789159e-02
4.010000000000000231e-01,-8.701629654769311994e-02,-1.508884074234291273e-01,1.048132217860320570e-01
4.020000000000000240e-01,-1.091283021632084432e-01,-1.659553871836307315e-01,4.301531474893794532e-02
4.030000000000000249e-01,-1.179956083031525327e-01,-1.463334771005040114e-01,1.303264506257533102e-02
4.040000000000000258e-01,-1.793386899014464408e-01,-1.397515325188513069e-01,-1.069719683409060297e-02
4.050000000000000266e-01,-1.779440126772404152e-01,-8.766059391625095898e-02,-7.070862528392878738e-03
4.060000000000000275e-01,-1.920669835272540149e-01,-1.080903432412534809e-01,-6.702577024377125159e-02
4.069999999999999729e-01,-2.158662453449969043e-01,-7.043522611404511025e-02,-6.253465070948131810e-02
4.079999999999999738e-01,-1.746125159919440506e-01,-6.485073907860251785e-02,-5.412603667011393893e-02
4.089999999999999747e-01,-1.606354782700316897e-01,-3.496576593496950047e-02,-1.375991401190319874e-01
4.099999999999999756e-01,-1.948494512952488877e-01,-2.548947761481747121e-02,-7.467446199999488998e-02
4.109999999999999765e-01,-1.657043852137796147e-01,3.614374472640892455e-02,-9.443213747784595657e-02
4.119999999999999774e-01,-1.191520453160729714e-01,7.502056354892031043e-02,-1.246624266994061925e-01
4.129999999999999782e-01,-7.886886397583933728e-02,9.497520653027605175e-02,-1.220128079621442402e-01
4.139999999999999791e-01,-4.152626234354380580e-02,1.165749076717746691e-01,-1.119150207218466281e-01
4.149999999999999800e-01,-7.727878971510995440e-03,1.408736576971026944e-01,-1.025771936791990135e-01
4.159999999999999809e-01,-4.430654611019104253e-03,1.794271749181275410e-01,-9.730539091944745422e-02
4.169999999999999818e-01,5.742790624549621442e-02,1.452108257318018292e-01,-1.007631872359174841e-01
4.179999999999999827e-01,9.755787365490274643e-02,1.638537570346283445e-01,-6.978433957512697461e-02
4.189999999999999836e-01,1.267537468399790590e-01,1.780987933308493254e-01,-3.837647339047540324e-02
4.199999999999999845e-01,1.349136756865737252e-01,1.437602709026214454e-01,-4.850445080445384832e-02
4.209999999999999853e-01,1.731766521816885396e-01,1.473130045339357541e-01,-2.181875710293612949e-02
4.219999999999999862e-01,2.089893537075523944e-01,1.049293406482355723e-01,1.993354142143502136e-02
4.229999999999999871e-01,2.208240675537897213e-01,7.293275780085330118e-02,1.666032912473616040e-02
4.239999999999999880e-01,2.295524191201957220e-01,5.585673859757504800e-02,5.868205704413375495e-02
4.249999999999999889e-01,1.960431925960305077e-01,9.849242656628422882e-03,6.881243584259445767e-02
4.259999999999999898e-01,1.728443822512843175e-01,-2.345446615145644221e-03,8.986475662775254836e-02
4.269999999999999907e-01,1.664388354106454693e-01,-9.754147207954909707e-03,8.382659677772055784e-02
4.279999999999999916e-01,1.486702558428405485e-01,-9.729719318569957087e-02,1.337128040921566063e-01
4.289999999999999925e-01,1.178351029209891015e-01,-7.718515670740253021e-02,1.049006317778703179e-01
4.299999999999999933e-01,4.160114242279375901e-02,-1.089449131014616212e-01,9.453419490097209055e-02
4.309999999999999942e-01,3.874284243055164251e-02,-1.532107151651638799e-01,1.227029204345806979e-01
4.319999999999999951e-01,-3.369981508901102180e-02,-1.155581855449038242e-01,1.028835294737410477e-01
4.329999999999999960e-01,-1.145631513638956274e-02,-1.541868919218470635e-01,1.116525289305024815e-01
4.339999999999999969e-01,-8.567140713768940652e-02,-1.443030928273792979e-01,5.342885505886380004e-02
4.349999999999999978e-01,-1.189022373817364142e-01,-1.728174172231767003e-01,8.745959500627151217e-02
4.359999999999999987e-01,-1.397582442495056698e-01,-1.723082507747963066e-01,2.998213389598837486e-02
4.369999999999999996e-01,-1.676348853391131655e-01,-1.408592139071278282e-01,2.089214869297003480e-02
4.380000000000000004e-01,-1.901534201474002483e-01,-9.680635782782388843e-02,3.233368382781011993e-04
4.390000000000000013e-01,-2.317597104842719913e-01,-7.904875073018209630e-02,-2.358609902120535964e-02
4.400000000000000022e-01,-1.848773250855172412e-01,-9.057259741889811533e-02,-5.850880138842084327e-02
4.410000000000000031e-01,-1.798833339527000919e-01,-6.392219325366454985e-02,-6.801042890820041542e-02
4.420000000000000040e-01,-2.072745940037968859e-01,-4.735249934542595102e-02,-7.864970437788044999e-02
4.430000000000000049e-01,-1.911315628171323666e-01,2.368522625102938151e-02,-1.034748264000996260e-01
4.440000000000000058e-01,-1.683976615519341413e-01,3.763430055375063810e-02,-1.015658374088514587e-01
4.450000000000000067e-01,-1.082254351467160369e-01,6.570556597913575214e-02,-1.125968299277780166e-01
4.460000000000000075e-01,-7.966878738057942000e-02,1.043745999397373975e-01,-1.076763054349139798e-01
4.470000000000000084e-01,-8.070560438681440019e-02,1.579360869024291347e-01,-1.107182698869175475e-01
4.480000000000000093e-01,-1.963980059762612806e-02,1.294941871500103758e-01,-1.099897439733198978e-01
4.490000000000000102e-01,2.246759278978447891e-02,1.569249247689131488e-01,-1.027740941941702874e-01
4.500000000000000111e-01,6.298185419422108744e-02,1.646816473896798860e-01,-7.896561321898051822e-02
4.510000000000000120e-01,9.110374378371392801e-02,1.811479813384790638e-01,-1.044238418657090495e-01
4.520000000000000129e-01,1.114136936446681880e-01,1.499532468944570207e-01,-4.275693964423615823e-02
4.530000000000000138e-01,1.532720043704474400e-01,1.597930417676991510e-01,-5.878428386927498500e-02
4.540000000000000147e-01,1.919438118949562122e-01,1.353758723766385896e-01,-3.446828002589549106e-02
4.550000000000000155e-01,2.086804569685518640e-01,1.009785787624688375e-01,2.356559056077019154e-03
4.560000000000000164e-01,1.973957368142542357e-01,8.494573600461820251e-02,2.969732172514216555e-03
4.570000000000000173e-01,2.069218940640255300e-01,5.888729780635659772e-02,3.709837837829458446e-02
4.580000000000000182e-01,1.858872905995884450e-01,1.121412553011129354e-02,5.731318143556771855e-02
4.590000000000000191e-01,2.091546781194839333e-01,1.591702602658746218e-02,6.828377344678161764e-02
4.600000000000000200e-01,1.952511809875497606e-01,-5.187667413254404974e-02,1.163726812566457519e-01
4.610000000000000209e-01,1.624155693063674133e-01,-5.200089907524557686e-02,1.279263355998045137e-01
4.620000000000000218e-01,1.247884304892984964e-01,-6.668947697724880719e-02,1.507329170965417686e-01
4.630000000000000226e-01,7.043568756027501765e-02,-1.025790153880992428e-01,1.106766559111179854e-01
4.640000000000000235e-01,6.877626231696494508e-02,-1.206590186959299316e-01,1.530789076502369062e-01
4.650000000000000244e-01,1.887478827925473737e-02,-1.809719574403905462e-01,1.333888427266867183e-01
4.660000000000000253e-01,-2.642571801439873302e-02,-1.808245714116829550e-01,1.031804305260037719e-01
4.670000000000000262e-01,-7.611210537575932578e-02,-1.650558938427619804e-01,1.310182973399808826e-01
4.680000000000000271e-01,-1.137606698381121995e-01,-1.524280324810097231e-01,5.761987573563121662e-02
4.689999999999999725e-01,-1.340030748272699190e-01,-1.266730183798837339e-01,7.807330301583474685e-02
4.699999999999999734e-01,-1.548054031432350708e-01,-1.168884779922919476e-01,1.234887133803152896e-02
4.709999999999999742e-01,-1.636826318321522311e-01,-1.399509898235803129e-01,2.365895549700818001e-02
4.719999999999999751e-01,-2.022886799305424199e-01,-1.316854747736244668e-01,-1.009181561712970548e-02
4.729999999999999760e-01,-2.312008054152010772e-01,-5.374739059501852656e-02,-6.083406270614782722e-03
4.739999999999999769e-01,-2.204945968582644189e-01,-3.713490423447249333e-02,-2.809299959126457594e-02
4.749999999999999778e-01,-2.245931432185636345e-01,-9.360075848529235409e-03,-8.631670370895096200e-02
4.759999999999999787e-01,-1.702431053821156504e-01,1.528765490332261064e-02,-7.772027241030647626e-02
4.769999999999999796e-01,-1.525865834034703661e-01,5.035164182493993140e-02,-9.397113920939403897e-02
4.779999999999999805e-01,-1.318460050194371069e-01,7.464254116560219143e-02,-1.122145399260406212e-01
4.789999999999999813e-01,-1.042925501994337867e-01,1.106313059463338300e-01,-1.286344440459111227e-01
4.799999999999999822e-01,-5.655353731664071459e-02,1.159902258401837166e-01,-1.267904094012470839e-01
4.809999999999999831e-01,-3.751419028432124297e-02,1.529462740060096304e-01,-1.011443863380653563e-01
4.819999999999999840e-01,3.375941566139030459e-02,1.713193149468175136e-01,-1.187409681916287985e-01
4.829999999999999849e-01,4.846489241077890642e-02,1.713476401193312348e-01,-9.280343779944523475e-02
4.839999999999999858e-01,1.136137363796018429e-01,1.677224395849362393e-01,-9.724173377396300166e-02
4.849999999999999867e-01,1.100022470915677092e-01,1.570786456792136188e-01,-7.469478119512913683e-02
4.859999999999999876e-01,1.455708592574535831e-01,1.286398727585349455e-01,-5.753795373270029212e-02
4.869999999999999885e-01,1.848054602640295807e-01,1.045464415790555573e-01,-5.203209304198305046e-02
4.879999999999999893e-01,2.105889079961563992e-01,8.271197208749597740e-02,9.857458938027731377e-03
4.889999999999999902e-01,2.119642188211059708e-01,8.515860643335233793e-02,2.550171136600574637e-02
4.899999999999999911e-01,2.182156805654524856e-01,6.710967630500770664e-02,-7.441737228254086990e-03
4.909999999999999920e-01,1.931044905583188254e-01,3.697305725995059245e-02,9.396442490008603821e-02
4.919999999999999929e-01,1.688091367047152291e-01,-6.537074961934830107e-04,6.004959089419525248e-02
4.929999999999999938e-01,1.728522243482384646e-01,-4.242309281515613956e-02,1.109838306293561561e-01
4.939999999999999947e-01,1.388044657963607431e-01,-7.291253820705832778e-02,1.084519973940576143e-01
4.949999999999999956e-01,1.093813804943178786e-01,-8.642558880894332662e-02,9.469419970652186158e-02
4.959999999999999964e-01,1.029686783341227096e-01,-1.290469201069274208e-01,1.089690033570983319e-01
4.969999999999999973e-01,5.405527339447567525e-02,-1.400401960848542959e-01,1.233984755487990276e-01
4.979999999999999982e-01,2.352180025878551628e-02,-1.587582964435860500e-01,1.440521145985158569e-01
4.989999999999999991e-01,-6.624592309492789710e-02,-1.400384202549608270e-01,1.094070207466044942e-01
5.000000000000000000e-01,-6.357032332888060133e-02,-1.323382511430154784e-01,1.372109958212811565e-01
5.010000000000000009e-01,-9.868313798566456796e-02,-1.743143676003796050e-01,7.792877568782750897e-02
5.020000000000000018e-01,-1.432858094070034449e-01,-1.461825995786063537e-01,5.868598124779989683e-02
5.030000000000000027e-01,-1.740889173331488793e-01,-1.330991922093594237e-01,4.532738397974761524e-02
5.040000000000000036e-01,-1.938437529484924038e-01,-8.657608095632615686e-02,2.751237874707348693e-02
5.050000000000000044e-01,-1.964421708675868072e-01,-1.009013329915484924e-01,1.274069535832829912e-02
5.060000000000000053e-01,-1.946912978053532417e-01,-4.507418112673679950e-02,-4.488266305611603169e-02
5.070000000000000062e-01,-1.930852989899035643e-01,-4.763202743115930310e-02,-5.685860515737893583e-02
5.080000000000000071e-01,-2.095963767519503917e-01,-3.135595346338440614e-02,-6.735127643356758620e-02
5.090000000000000080e-01,-1.702508653227079449e-01,-3.398662358891979063e-04,-7.954196645298390600e-02
5.100000000000000089e-01,-1.838503040577290915e-01,3.797222658120328470e-02,-1.149114501218018308e-01
5.110000000000000098e-01,-1.241128790378515645e-01,8.677003283109559206e-02,-1.244066133900138815e-01
5.120000000000000107e-01,-1.160646859918754437e-01,1.112279883496063160e-01,-1.202986073429223590e-01
5.130000000000000115e-01,-1.141148621909348349e-01,1.184418103417631540e-01,-1.578174441862675581e-01
5.140000000000000124e-01,1.219510364686674127e-02,1.455582256037515620e-01,-9.847812907562195073e-02
5.150000000000000133e-01,6.182774670559861366e-03,1.344154441556850432e-01,-1.175981583459964064e-01
5.160000000000000142e-01,2.898919617430561341e-02,1.464822676641238941e-01,-1.200611124388183404e-01
5.170000000000000151e-01,8.245725102078425850e-02,1.440734405259450346e-01,-7.873446925379580519e-02
5.180000000000000160e-01,1.228291975114591122e-01,1.476567882830126799e-01,-9.579442986827117756e-02
5.190000000000000169e-01,1.599259786935144922e-01,1.479062243356200623e-01,-5.841210897389920165e-02
5.200000000000000178e-01,1.449100815644447371e-01,1.238827854468768641e-01,-3.743722082938075180e-02
5.210000000000000187e-01,1.790437284611744728e-01,1.210017364189987649e-01,-1.246141633918631045e-02
5.220000000000000195e-01,2.019645142813350780e-01,8.083241639281656121e-02,-9.896626845634957188e-05
5.230000000000000204e-01,1.786456651301150111e-01,5.740825500047509050e-02,-3.652633368214632578e-03
5.240000000000000213e-01,2.164406743812515022e-01,2.228249067892856122e-02,2.541984408590124145e-02
5.250000000000000222e-01,1.974416242674824629e-01,-5.494522357892879343e-03,7.821578392888577091e-02
5.260000000000000231e-01,1.599994413511981739e-01,-3.765808846112260466e-02,7.258849351804114169e-02
5.270000000000000240e-01,2.033137713771861477e-01,-7.742918428306493073e-02,1.226597592786154156e-01
5.280000000000000249e-01,1.424262157700387221e-01,-9.255651590988452082e-02,1.057658471448205545e-01
5.290000000000000258e-01,1.136954975586225991e-01,-1.194657326926197444e-01,1.046272986530674826e-01
5.300000000000000266e-01,5.928918422104458019e-02,-1.257863867059099416e-01,1.070542869071998832e-01
5.310000000000000275e-01,2.967587422261581953e-02,-1.710515140652763277e-01,1.269100509354996187e-01
5.320000000000000284e-01,-1.599838095009586264e-02,-1.510738050573694202e-01,1.048242373189756799e-01
5.330000000000000293e-01,-3.695954149126149529e-02,-1.754685903410768688e-01,1.004171647232921516e-01
5.340000000000000302e-01,-9.093345630149765602e-02,-1.242394855311400315e-01,9.093144624157130373e-02
5.350000000000000311e-01,-1.062625120338428625e-01,-1.319599235385522928e-01,6.622359232730475054e-02
5.360000000000000320e-01,-1.671419584126103974e-01,-1.362825086607998004e-01,7.147585645362289353e-02
5.370000000000000329e-01,-1.786050657195696889e-01,-1.222779315787124038e-01,2.871682772722951651e-02
5.380000000000000338e-01,-1.610738655416528442e-01,-1.064626572613394107e-01,1.294799593953942576e-02
5.390000000000000346e-01,-1.945432082919004435e-01,-5.938342375342071933e-02,-1.560136644288533927e-03
5.400000000000000355e-01,-2.458301707346631226e-01,-2.265623295309832433e-02,-5.865163124999283467e-02
5.410000000000000364e-01,-1.910233093739127919e-01,-3.236881811462070241e-02,-5.031725294606190224e-02
5.420000000000000373e-01,-1.860290170136429944e-01,1.586232538205002360e-02,-5.072726396457447745e-02
5.430000000000000382e-01,-1.663759253454935028e-01,5.888025427946393803e-02,-1.077425387095185122e-01
5.440000000000000391e-01,-1.329393357484550120e-01,9.415495759880720961e-02,-7.614740910854585210e-02
5.450000000000000400e-01,-1.097256893017378165e-01,8.959891886245673065e-02,-1.193910385859476425e-01
5.460000000000000409e-01,-1.049862594968605511e-01,1.251210824006486755e-01,-1.267962504317097228e-01
5.470000000000000417e-01,-6.006802551851728872e-02,1.435511970321196873e-01,-1.379599054363470079e-01
5.480000000000000426e-01,-7.144025203325726943e-03,1.372915313089401457e-01,-1.122016922664130917e-01
5.490000000000000435e-01,1.807097012097334809e-02,1.952756970677921311e-01,-1.058840107013816756e-01
5.500000000000000444e-01,6.765251887236423123e-02,1.965731577804879227e-01,-1.132190977398893905e-01
5.510000000000000453e-01,1.036202340051945031e-01,1.609163283704679037e-01,-1.189092806063556940e-01
5.520000000000000462e-01,1.158153010481365736e-01,1.439759457594563252e-01,-6.689781952784072672e-02
5.530000000000000471e-01,1.593754061158373925e-01,1.220850568855863794e-01,-4.481932040685793900e-02
5.540000000000000480e-01,1.648487912079216189e-01,9.734237660848191198e-02,-2.008122080525786071e-02
5.550000000000000488e-01,2.093395376893108228e-01,7.805358305370184435e-02,2.414837307771960668e-03
5.560000000000000497e-01,2.043237897880227361e-01,5.885591493457650869e-02,2.658401706636671913e-02
5.570000000000000506e-01,1.821025450626946873e-01,1.170163251630613327e-02,5.097322711675916079e-02
5.580000000000000515e-01,2.262552523047653419e-01,-1.565994586020069343e-02,2.608681985115705523e-02
5.590000000000000524e-01,1.783493795518538427e-01,-6.104853169379539923e-02,9.859593907292284187e-02
5.600000000000000533e-01,1.357019610916543328e-01,-7.092632850449268056e-02,8.426408612407706999e-02
5.610000000000000542e-01,1.273721268207358426e-01,-1.073252234686652151e-01,9.175459109232636523e-02
5.620000000000000551e-01,1.097592684311790995e-01,-1.235090061303341785e-01,1.334655647195466810e-01
5.629999999999999449e-01,6.288234677831083808e-02,-1.227085005788132455e-01,1.206833074775428005e-01
5.639999999999999458e-01,1.929342816265443294e-02,-1.496697662077065838e-01,1.206161491202867031e-01
5.649999999999999467e-01,-4.272125758988578464e-02,-1.603083913359180657e-01,1.272607658383488327e-01
5.659999999999999476e-01,-5.745019221365932349e-02,-1.692322417229783771e-01,7.851032599910806598e-02
5.669999999999999485e-01,-8.625209549697999967e-02,-1.560662039501977127e-01,8.543222682495159315e-02
5.679999999999999494e-01,-1.289673684840430268e-01,-1.490993553696051410e-01,9.667296508290222634e-02
5.689999999999999503e-01,-1.486698267078934987e-01,-1.344700811012622121e-01,7.582403256438845218e-02
5.699999999999999512e-01,-1.857107008893815192e-01,-9.635038763599544642e-02,4.670867574565668728e-02
5.709999999999999520e-01,-1.899397233019931852e-01,-9.553655395965912622e-02,3.021393224839896349e-02
5.719999999999999529e-01,-1.628458716230457570e-01,-8.390695488069087327e-02,4.689344649286020239e-02
5.729999999999999538e-01,-2.024755725213076563e-01,-2.601156212746925933e-02,-8.875493676721262284e-03
5.739999999999999547e-01,-1.711727912737262547e-01,-1.474536314914371565e-02,-5.952434555971150565e-02
5.749999999999999556e-01,-1.920566726934495594e-01,3.349332395031633797e-02,-9.134857254570689922e-02
5.759999999999999565e-01,-1.839160103007911051e-01,3.850590783612362067e-02,-8.071408890229622712e-02
5.769999999999999574e-01,-1.721844547289310967e-01,8.622185934412067432e-02,-8.174948344148606771e-02
5.779999999999999583e-01,-1.094611385483235944e-01,1.192018263830203068e-01,-1.032151445274325785e-01
5.789999999999999591e-01,-9.115458268103301953e-02,1.300228455144508410e-01,-1.373437556825948258e-01
5.799999999999999600e-01,-5.284505943062187128e-02,1.725677396694996479e-01,-1.046101023280473774e-01
5.809999999999999609e-01,1.249677302392096165e-02,1.551190674881517406e-01,-9.332934199837976397e-02
5.819999999999999618e-01,2.918366280341365415e-02,1.843159334535648675e-01,-1.399694269138893055e-01
5.829999999999999627e-01,5.643931188643896285e-02,1.756767263837617221e-01,-1.092537076942047131e-01
5.839999999999999636e-01,7.967627503987724513e-02,1.555802225398631999e-01,-1.073711928344443234e-01
5.849999999999999645e-01,1.226266364051806779e-01,1.500574336869092140e-01,-6.075705573483752842e-02
5.859999999999999654e-01,1.540940895967357616e-01,1.292381587464139225e-01,-8.374475605201937845e-02
5.869999999999999662e-01,1.560421874580807111e-01,1.129870541492055680e-01,-2.227069893304583700e-02
5.879999999999999671e-01,2.062053726063661219e-01,8.623318415629428746e-02,-1.781638722783515996e-02
5.889999999999999680e-01,1.919669475974547790e-01,4.738726204881242576e-02,-1.702863733614547528e-02
5.899999999999999689e-01,1.989072954783670522e-01,1.596760187596399719e-02,4.554124861435984717e-03
5.909999999999999698e-01,1.997669561843865293e-01,-4.079714743271601468e-02,5.297195648219384795e-02
5.919999999999999707e-01,1.659958530388913334e-01,-4.304266397550397111e-02,7.331131280041018605e-02
5.929999999999999716e-01,1.782194044156571455e-01,-3.747099012839615745e-02,9.454162081559246145e-02
5.939999999999999725e-01,1.263202658894390373e-01,-1.029421179754866633e-01,1.135583423551124738e-01
5.949999999999999734e-01,5.486421191506286876e-02,-1.239975035936695807e-01,9.116240749164372659e-02
5.959999999999999742e-01,6.944380226606952644e-02,-1.476344706026047338e-01,1.176074116129427888e-01
5.969999999999999751e-01,1.438442304549821839e-02,-1.723185245990700998e-01,1.342445935218355146e-01
5.979999999999999760e-01,-8.721397981890678663e-03,-1.522893537549728504e-01,1.318551427331612624e-01
5.989999999999999769e-01,-5.137028696528618543e-02,-1.691135059722970180e-01,1.298787284966175515e-01
5.999999999999999778e-01,-9.283023719696907594e-02,-1.296262988057947652e-01,6.894553127277701365e-02
6.009999999999999787e-01,-1.072276419470170605e-01,-1.069223969544971925e-01,9.246163643284460720e-02
6.019999999999999796e-01,-1.703155289645508497e-01,-1.031979449428036960e-01,9.496978420840986035e-02
6.029999999999999805e-01,-1.792230376806953906e-01,-9.509610626025941094e-02,3.932041726843413937e-02
6.039999999999999813e-01,-1.702138366696059890e-01,-7.548387849343306255e-02,4.210338942590057670e-02
6.049999999999999822e-01,-1.985194989949837507e-01,-6.140109608108799966e-02,-2.128149900037992759e-02
6.059999999999999831e-01,-2.123904840831015717e-01,-4.885252704014322184e-02,-2.053694352191144656e-02
6.069999999999999840e-01,-2.191610051818454752e-01,2.477396362976176658e-02,-1.835980065910383652e-02
6.079999999999999849e-01,-2.138323803033219117e-01,4.345476259035633421e-02,-6.684762371494884503e-02
6.089999999999999858e-01,-1.865082386568563677e-01,7.700698099821452758e-02,-9.636718151095553797e-02
6.099999999999999867e-01,-1.532819799731272581e-01,8.359873245868867930e-02,-1.122667378733420152e-01
6.109999999999999876e-01,-1.341093110966094515e-01,1.222929248981336758e-01,-9.232501873290503702e-02
6.119999999999999885e-01,-7.197376612516553918e-02,1.456183249326575280e-01,-1.054025142655912461e-01
6.129999999999999893e-01,-6.118009913818322348e-02,1.415562551714496242e-01,-1.120753870563214044e-01
6.139999999999999902e-01,-4.314171707109675652e-02,1.765360134928354308e-01,-1.303345894059804166e-01
6.149999999999999911e-01,4.206291974992915766e-02,1.193354412207519172e-01,-1.095085930795251378e-01
6.159999999999999920e-01,6.499425429260603793e-02,1.578263084845085706e-01,-1.128115638755038119e-01
6.169999999999999929e-01,1.000102822061595398e-01,1.573516509217268988e-01,-8.140243581553459340e-02
6.179999999999999938e-01,1.190866373157674213e-01,1.455633729003415755e-01,-9.745521392122237503e-02
6.189999999999999947e-01,1.665773503445614201e-01,1.298594829504305104e-01,-5.568551588895566395e-02
6.199999999999999956e-01,1.579165602682369718e-01,1.016671998413299777e-01,-3.426457668009347257e-02
6.209999999999999964e-01,2.191098074643951787e-01,3.162952784630701508e-02,-3.109508218078097311e-02
6.219999999999999973e-01,1.845316493667628066e-01,3.986069939790837929e-02,-1.304199440965935625e-02
6.229999999999999982e-01,2.349214998697997381e-01,-1.862974035290223401e-02,5.094316421936685019e-02
6.239999999999999991e-01,1.748850829454818290e-01,-2.491241489359760641e-02,3.976893562690270861e-02
6.250000000000000000e-01,1.941415598978628032e-01,-4.337412367465316720e-02,6.970938421866902657e-02
6.260000000000000009e-01,1.899479636259192028e-01,-1.085068097480172272e-01,8.640125112636305726e-02
6.270000000000000018e-01,1.468156253405422107e-01,-9.235393696614228876e-02,9.319450424060109206e-02
6.280000000000000027e-01,1.054563800335334839e-01,-1.539409987979721839e-01,9.659666475918302075e-02
6.290000000000000036e-01,7.584785224384768543e-02,-1.405846128828371899e-01,1.342106867943218262e-01
6.300000000000000044e-01,3.125414602233649725e-02,-1.205653829828019497e-01,1.163111519325992355e-01
6.310000000000000053e-01,1.909879307819588312e-02,-1.389963036020895881e-01,1.208362412212186793e-01
6.320000000000000062e-01,-4.561807987542486342e-02,-1.558459007696109400e-01,1.153970252384168560e-01
6.330000000000000071e-01,-8.952475598349508845e-02,-1.456702412460157692e-01,1.166215307401637785e-01
6.340000000000000080e-01,-1.236296761072579325e-01,-1.796928071578412223e-01,9.004841119507145386e-02
6.350000000000000089e-01,-1.660604296519664347e-01,-1.115560162602483862e-01,7.495465817827413890e-02
6.360000000000000098e-01,-1.819391814118812845e-01,-1.120873271976141478e-01,7.472249168202031722e-02
6.370000000000000107e-01,-1.782610389728345734e-01,-6.506139866608365296e-02,3.975738454664527050e-02
6.380000000000000115e-01,-1.780233694790556986e-01,-7.159197535233217946e-02,3.159391846794161463e-02
6.390000000000000124e-01,-1.985183580287466221e-01,-2.120094249321076083e-02,2.947750078989114578e-03
6.400000000000000133e-01,-2.176078930224246977e-01,9.242985665407009443e-03,-3.497800001437813278e-02
6.410000000000000142e-01,-1.675164834286545223e-01,3.959448792406926321e-02,-1.828560151150582583e-02
6.420000000000000151e-01,-1.787390720168162694e-01,7.422667924255649252e-02,-7.280757811209026542e-02
6.430000000000000160e-01,-1.366731591903591336e-01,8.212721381460004466e-02,-7.354882849222646457e-02
6.440000000000000169e-01,-1.561542701442799053e-01,1.074957226437317087e-01,-8.809456423567368910e-02
6.450000000000000178e-01,-6.333638568279353898e-02,1.482650742812489097e-01,-1.359169696056459764e-01
6.460000000000000187e-01,-5.319767520894244650e-02,1.584914538172938758e-01,-1.141440626824534177e-01
6.470000000000000195e-01,-5.625960937945559924e-03,1.900595527648232252e-01,-1.635834630267607170e-01
6.480000000000000204e-01,1.203904162585012899e-02,1.447176321797941367e-01,-1.242284842366007669e-01
6.490000000000000213e-01,8.166383136183257008e-02,1.498396368490141073e-01,-1.092921858070872720e-01
6.500000000000000222e-01,9.841494034473832753e-02,1.513047992124632868e-01,-9.368378376739669444e-02
6.510000000000000231e-01,9.733711917479417886e-02,1.435516347588744190e-01,-6.456595106016822794e-02
6.520000000000000240e-01,1.491895924369855686e-01,1.309876242011077663e-01,-7.536115855449529444e-02
6.530000000000000249e-01,1.838269665067034930e-01,9.965181108284001943e-02,-7.487197324182164049e-02
6.540000000000000258e-01,1.867967313552867104e-01,6.902973609770411689e-02,-5.589570144314785771e-02
6.550000000000000266e-01,1.727739128268785951e-01,4.389157053753665189e-02,-3.147877358838888084e-02
6.560000000000000275e-01,2.081392678579548627e-01,2.378947819699219965e-02,3.039048832270088273e-03
6.570000000000000284e-01,2.182995964782037668e-01,9.739959326766963604e-03,3.112511230353905145e-02
6.580000000000000293e-01,1.650993292725633499e-01,-5.665147689037842993e-02,5.875398148458203101e-02
6.590000000000000302e-01,1.495919031004608324e-01,-1.046238381182146432e-01,6.416369946044973849e-02
6.600000000000000311e-01,1.322307406267306529e-01,-1.020157829376754782e-01,4.565441448220079745e-02
6.610000000000000320e-01,1.188255454553850954e-01,-1.074990192407654782e-01,1.016577988941290284e-01
6.620000000000000329e-01,1.009299094207392056e-01,-1.354693244943903085e-01,1.267598778909050650e-01
6.630000000000000338e-01,4.815442705622401814e-02,-1.601201058090676588e-01,1.209664984258957687e-01
6.640000000000000346e-01,2.734772418121811030e-02,-1.213442015149526348e-01,1.364896875391449216e-01
6.650000000000000355e-01,-2.338813491939901318e-02,-1.506031211035129547e-01,1.248530162538283583e-01
6.660000000000000364e-01,-6.397678067404435898e-02,-1.501399830441304817e-01,1.057567220213559700e-01
6.670000000000000373e-01,-1.024059694366689643e-01,-1.677351163487976748e-01,9.845739165869292486e-02
6.680000000000000382e-01,-1.451803341238361855e-01,-1.310966438429286007e-01,1.067470323585707342e-01
6.690000000000000391e-01,-1.777780509858668812e-01,-9.127430694066900052e-02,8.565689011940506858e-02
6.700000000000000400e-01,-1.755879190575032056e-01,-8.370300612706241261e-02,4.766381070687748106e-02
6.710000000000000409e-01,-1.753423754574424120e-01,-4.979439235355336002e-02,3.649771020160855195e-02
6.720000000000000417e-01,-1.955329773590917530e-01,-3.290471638870991200e-02,-1.812999862544805926e-02
6.730000000000000426e-01,-1.864703028375560012e-01,2.391162777916223947e-02,-4.367903268579495686e-03
6.740000000000000435e-01,-1.876950112590345388e-01,3.742043533490492513e-02,-5.918700977636284083e-02
6.750000000000000444e-01,-2.160141161162711099e-01,6.807738500862459130e-02,-6.236936785082329571e-02
6.760000000000000453e-01,-1.524755128274126459e-01,1.233291303543108675e-01,-8.438312733672330423e-02
6.770000000000000462e-01,-1.432617945448962371e-01,1.308836198191626887e-01,-1.065207724887030222e-01
6.780000000000000471e-01,-9.140940925961316132e-02,1.394920776166051202e-01,-8.112889572047310427e-02
6.790000000000000480e-01,-6.452796049079477514e-02,1.302531690458564040e-01,-1.014779582052260515e-01
6.800000000000000488e-01,-2.944707330357711206e-02,1.773904650161808039e-01,-1.179806287939834941e-01
6.810000000000000497e-01,-2.248235549279758300e-04,1.780113263133162871e-01,-1.196551515340485844e-01
6.820000000000000506e-01,1.787668744843845178e-02,1.572049563188386567e-01,-1.205502420536155167e-01
6.830000000000000515e-01,8.714995757813773225e-02,1.739073559514903722e-01,-8.367776929354014959e-02
6.840000000000000524e-01,1.241308219242497346e-01,1.405047208629846001e-01,-1.033949420760207211e-01
6.850000000000000533e-01,1.373038283334049869e-01,1.290016039734806219e-01,-6.902933872124956960e-02
6.860000000000000542e-01,1.772475606731636066e-01,8.181934053563533205e-02,-5.099919575421666545e-02
6.870000000000000551e-01,1.902744918085527703e-01,7.827982551605155992e-02,-5.927658807346598835e-02
6.879999999999999449e-01,1.817855944269617940e-01,3.117736653599443783e-02,-3.845561413205128565e-02
6.889999999999999458e-01,2.170247481563342129e-01,8.272942289462618948e-03,-1.440621777663184631e-02
6.899999999999999467e-01,1.870078112407899396e-01,-6.058534662568723639e-02,5.846058057062152730e-02
6.909999999999999476e-01,1.966490497347357924e-01,-7.768831105609511067e-02,3.882139097773221886e-02
6.919999999999999485e-01,1.422345033695813221e-01,-1.014950603913791771e-01,5.269075601611456633e-02
6.929999999999999494e-01,1.399134314321820727e-01,-1.510323430591820892e-01,9.477593073186110773e-02
6.939999999999999503e-01,1.200970300617496822e-01,-1.421657899363799882e-01,8.932358737297034501e-02
6.949999999999999512e-01,8.115849790479633119e-02,-1.644473070389513292e-01,1.050619657370864268e-01
6.959999999999999520e-01,5.227740070341033857e-02,-1.448289804881505438e-01,1.341998920847226884e-01
6.969999999999999529e-01,2.812977593758349271e-02,-1.781833469453053265e-01,1.367263635779187581e-01
6.979999999999999538e-01,-3.006831558693355902e-02,-1.641411277553819770e-01,1.246569750473216637e-01
6.989999999999999547e-01,-3.931838168354653135e-02,-1.545475067922432444e-01,1.497485058956711523e-01
6.999999999999999556e-01,-1.026341484330631632e-01,-1.571905667600732581e-01,1.035744999759756618e-01
7.009999999999999565e-01,-1.013394690032681233e-01,-1.240447692040129585e-01,9.511531389400659786e-02
7.019999999999999574e-01,-1.412345179156384023e-01,-9.790793316332370433e-02,1.004582976356394874e-01
7.029999999999999583e-01,-1.597351363818328707e-01,-5.425073838098747048e-02,5.924794117302739638e-02
7.039999999999999591e-01,-2.088835260394545645e-01,-3.394944569767591874e-02,4.640620312549114529e-02
7.049999999999999600e-01,-2.037618187621871024e-01,-9.911857391678612766e-03,3.617769214426584667e-02
7.059999999999999609e-01,-1.812337777051316323e-01,1.871946239800257455e-02,-8.467617878235965054e-03
7.069999999999999618e-01,-2.038828275459843575e-01,2.383511447887128390e-02,-3.977429940617600163e-02
7.079999999999999627e-01,-1.801839552670723987e-01,7.386187956738878013e-02,-4.135570422218964176e-02
7.089999999999999636e-01,-1.838225252614620053e-01,1.151033620349102837e-01,-6.995680962319829332e-02
7.099999999999999645e-01,-1.579770791694502519e-01,1.321999596567259572e-01,-8.335711831041123232e-02
7.109999999999999654e-01,-1.134443130877083733e-01,1.664000494836134769e-01,-1.247660651639425217e-01
7.119999999999999662e-01,-7.071671911602883664e-02,1.779894239005433976e-01,-1.005970839234927028e-01
7.129999999999999671e-01,-6.428252368320451493e-02,1.457483182688175394e-01,-1.034458263785617282e-01
7.139999999999999680e-01,-4.211687290197991922e-03,1.641040435599915581e-01,-1.142708802012409181e-01
7.149999999999999689e-01,3.371321851094745414e-02,1.703459372013740869e-01,-1.299671362795878082e-01
7.159999999999999698e-01,7.660320987105441459e-02,1.583758979015993662e-01,-1.069733237921395991e-01
7.169999999999999707e-01,1.084547598992178646e-01,1.304057272320604255e-01,-1.300521728328229432e-01
7.179999999999999716e-01,1.543550432974715170e-01,1.124417949282352780e-01,-9.477937406362725581e-02
7.189999999999999725e-01,1.807673474179880835e-01,8.825372383550116051e-02,-1.112423622192664774e-01
7.199999999999999734e-01,1.953816391324563750e-01,6.483301744270382472e-02,-6.458140015744419371e-02
7.209999999999999742e-01,1.825860870910317735e-01,2.012637192935017201e-03,-7.186759046861661282e-02
7.219999999999999751e-01,2.108488742158232676e-01,-2.518502458149849896e-02,-3.710409190640726745e-02
7.229999999999999760e-01,2.150797330162344534e-01,-5.054153122160894712e-02,-2.293369962488977024e-02
7.239999999999999769e-01,2.092970392493478105e-01,-1.007178757709148165e-01,-6.206452472325069136e-03
7.249999999999999778e-01,1.902303461749989821e-01,-8.840022069789492398e-02,6.406126943907834714e-02
7.259999999999999787e-01,1.767899743207143881e-01,-1.161266150243639717e-01,4.810105402519552348e-02
7.269999999999999796e-01,1.154598322000762595e-01,-1.673764381481816499e-01,4.926436553163521942e-02
7.279999999999999805e-01,7.357788928660351224e-02,-1.330026035696996733e-01,7.250683171822699946e-02
7.289999999999999813e-01,8.578564984312840591e-02,-1.796185553918849542e-01,1.125073869307308128e-01
7.299999999999999822e-01,2.501903848693116245e-02,-1.654438238466895139e-01,1.062283623834674867e-01
7.309999999999999831e-01,1.959147184326965208e-04,-1.705643639901113229e-01,1.293313331275277311e-01
7.319999999999999840e-01,-5.882661642786751743e-02,-1.351676192745728255e-01,1.499637570861545866e-01
7.329999999999999849e-01,-9.098374878571402480e-02,-1.301157198377935198e-01,1.359839716318884395e-01
7.339999999999999858e-01,-1.408741147447069852e-01,-9.514886081591941713e-02,1.059313308717569485e-01
7.349999999999999867e-01,-1.628970652498430149e-01,-8.287232205947391017e-02,9.663998865009275352e-02
7.359999999999999876e-01,-1.858159349447644770e-01,-4.949137053384887464e-02,8.286289851905782877e-02
7.369999999999999885e-01,-1.771139977061884085e-01,-2.106268344062234982e-02,8.527803321012811244e-02
7.379999999999999893e-01,-2.029323117456167669e-01,5.847050495602321672e-03,4.358066516770440352e-02
7.389999999999999902e-01,-2.022748708508242677e-01,3.424829652993260920e-03,-1.600361488555834821e-02
7.399999999999999911e-01,-1.733025880115352246e-01,4.621378900730152561e-02,-6.733547126479157152e-02
7.409999999999999920e-01,-1.794277573600954467e-01,6.174317855236349101e-02,-2.885380546005687774e-02
7.419999999999999929e-01,-1.707456636542597495e-01,1.101603485937429489e-01,-6.372403964466565041e-02
7.429999999999999938e-01,-1.495044594959697992e-01,1.150604743395012147e-01,-8.293953708665227631e-02
7.439999999999999947e-01,-1.360795881206789404e-01,1.389480731550926940e-01,-1.056919657235548399e-01
7.449999999999999956e-01,-9.980297897955810182e-02,1.463953568706282682e-01,-1.171527328422792003e-01
7.459999999999999964e-01,-5.173419260360700989e-02,1.519584064162216863e-01,-1.285591500302958323e-01
7.469999999999999973e-01,-1.854454988580885077e-03,1.265834478901492477e-01,-1.423629710112900570e-01
7.479999999999999982e-01,2.778368577235791961e-02,1.574565057339367968e-01,-9.444211515558383063e-02
7.489999999999999991e-01,5.201013475819323689e-02,1.426460210400861961e-01,-1.152978042440768874e-01
7.500000000000000000e-01,1.260539739525014524e-01,1.484870548304480509e-01,-1.395179222387715468e-01
7.510000000000000009e-01,1.245004521872922348e-01,9.233806476820773101e-02,-9.168037848475164842e-02
7.520000000000000018e-01,1.506459084333039156e-01,7.312222860338665753e-02,-6.403593782691106850e-02
7.530000000000000027e-01,2.079952653967456766e-01,2.108448666326768334e-02,-9.827023966449660586e-02
7.540000000000000036e-01,1.978001978239533332e-01,1.138912446396622875e-02,-5.472274452297862940e-02
7.550000000000000044e-01,1.862544725580509153e-01,-2.506111421829525926e-02,-4.192672561331801939e-02
7.560000000000000053e-01,2.274510138284945027e-01,-4.531099697427228706e-02,-2.663158495564329001e-02
7.570000000000000062e-01,2.068385839946911275e-01,-7.856467608206195441e-02,2.686815888458855134e-02
7.580000000000000071e-01,1.868169171123043870e-01,-8.684649439756654543e-02,5.203190207415416685e-02
7.590000000000000080e-01,1.558111807884129674e-01,-8.790393759393327899e-02,7.270980472204779943e-02
7.600000000000000089e-01,1.573741631314668765e-01,-1.517925450250620922e-01,8.502891260717211630e-02
7.610000000000000098e-01,9.822141521983816792e-02,-1.705511156700026676e-01,7.088831641197933242e-02
7.620000000000000107e-01,1.026410179876958845e-01,-1.799928117470372957e-01,8.178342918294330410e-02
7.630000000000000115e-01,3.989928048615985073e-02,-1.931389940348998413e-01,1.068996519498589398e-01
7.640000000000000124e-01,-3.638667960621672776e-02,-1.532604823563463725e-01,1.181337107666464853e-01
7.650000000000000133e-01,-5.111048575370681635e-02,-1.608307304361175083e-01,1.520507665733659142e-01
7.660000000000000142e-01,-8.708067511207412403e-02,-1.549763965942868582e-01,1.186169332196946175e-01
7.670000000000000151e-01,-8.947104758165928817e-02,-1.075113776487027217e-01,1.127963720439557477e-01
7.680000000000000160e-01,-1.624015775467483047e-01,-1.207119680627516262e-01,1.073184110269529840e-01
7.690000000000000169e-01,-1.637685134555857958e-01,-7.161027354998815431e-02,7.833483096231376452e-02
7.700000000000000178e-01,-1.500309270558168595e-01,-3.042163961903710662e-02,7.670773390956880933e-02
7.710000000000000187e-01,-1.992780567727059637e-01,-2.202631643439219994e-02,3.899226541418594760e-02
7.720000000000000195e-01,-2.176530148435597278e-01,4.491724731713490903e-02,2.749256527118041152e-02
7.730000000000000204e-01,-1.931291400240882916e-01,5.651334746344547494e-02,3.524773078167062201e-02
7.740000000000000213e-01,-1.766140954518547468e-01,6.327590916269928978e-02,-4.203079549318975913e-03
7.750000000000000222e-01,-1.772912100191441076e-01,1.085285573971295353e-01,-2.356082098960731938e-02
7.760000000000000231e-01,-1.105449079586453692e-01,1.340555035725655431e-01,-4.383691182138253067e-02
7.770000000000000240e-01,-1.083698650088074228e-01,1.441292185812222126e-01,-5.655959052358840167e-02
7.780000000000000249e-01,-1.134697602032779945e-01,1.856913268723308363e-01,-1.281431769391675746e-01
7.790000000000000258e-01,-8.170196137061572217e-02,1.758593963815480443e-01,-1.142089203755908278e-01
7.800000000000000266e-01,-6.113458226223601917e-03,1.451951115039545881e-01,-1.065896912524820078e-01
7.810000000000000275e-01,6.951882915435280905e-03,1.539207241066425091e-01,-1.441963359629023500e-01
7.820000000000000284e-01,6.690258251022436486e-02,1.858093668281142474e-01,-1.341602138951734080e-01
7.830000000000000293e-01,1.229214689902944219e-01,9.455671227778277010e-02,-1.391949854659406127e-01
7.840000000000000302e-01,9.322512252149918466e-02,8.833416333548582688e-02,-9.663619401323539360e-02
7.850000000000000311e-01,1.709727173535887379e-01,7.122189864371543389e-02,-1.118293479031540749e-01
7.860000000000000320e-01,1.938050226772247142e-01,2.550458122485857806e-02,-8.578286744138817477e-02
7.870000000000000329e-01,1.741134861057624106e-01,5.373074509239898072e-02,-7.412567686673672551e-02
7.880000000000000338e-01,1.881598880163871113e-01,-2.530853206308137857e-02,-4.931403685035667950e-02
7.890000000000000346e-01,2.042195138751517203e-01,-3.991703969541058467e-02,-7.353298752501381819e-03
7.900000000000000355e-01,2.320124512545909123e-01,-7.384432952905836678e-02,5.151572254226900911e-03
7.910000000000000364e-01,1.380687799843720587e-01,-9.229115578750417270e-02,7.722013713147009122e-03
7.920000000000000373e-01,1.493854726178907022e-01,-1.091976502580524477e-01,6.650420650436525416e-02
7.930000000000000382e-01,1.192489076050476243e-01,-1.343885115460345114e-01,8.778073148341752896e-02
7.940000000000000391e-01,1.009987717621930875e-01,-1.505273834704440872e-01,9.326295250689423111e-02
7.950000000000000400e-01,5.941844847397757118e-02,-1.868537599493445833e-01,9.390519443032170621e-02
7.960000000000000409e-01,3.352415414420707035e-02,-1.528262505648554370e-01,9.428566348763427196e-02
7.970000000000000417e-01,1.466415877268621368e-02,-1.568564442570159478e-01,1.106893741425491601e-01
7.980000000000000426e-01,-1.618408678901476268e-03,-1.627300287556211200e-01,9.085104799151297317e-02
7.990000000000000435e-01,-4.460135876134449506e-02,-1.643287967018795537e-01,1.479196704264293394e-01
8.000000000000000444e-01,-1.162659305142882404e-01,-9.718029132791282387e-02,1.027146408882634865e-01
8.010000000000000453e-01,-1.515841302037225780e-01,-7.639888215193051113e-02,1.107920581244453417e-01
8.020000000000000462e-01,-1.744980424708593159e-01,-8.365510231751394077e-02,9.014463013609400055e-02
8.030000000000000471e-01,-1.766187697587862093e-01,-7.696154247285630357e-02,8.279384529125814740e-02
8.040000000000000480e-01,-1.900560026943090008e-01,6.929039722104465317e-03,6.945841564010298008e-02
8.050000000000000488e-01,-2.243488577719545962e-01,2.147176613207913906e-02,1.854466428388824514e-02
8.060000000000000497e-01,-2.288203921515247485e-01,1.977411942144228010e-02,1.726763355184302712e-02
8.070000000000000506e-01,-1.974661828876919656e-01,1.217486816658385762e-01,2.709173806322190750e-02
8.080000000000000515e-01,-2.008308970522067194e-01,1.066495195841259541e-01,-3.810618891791151680e-02
8.090000000000000524e-01,-1.552997461190734896e-01,1.161517634413220673e-01,-5.022895447446165673e-02
8.100000000000000533e-01,-1.276103223588319624e-01,1.664493246566449702e-01,-8.107758286116997781e-02
8.110000000000000542e-01,-7.566374340137700660e-02,1.575037843768080648e-01,-8.685449723567181812e-02
8.120000000000000551e-01,-6.189977190271691437e-02,1.528531862123212182e-01,-1.001632865091424685e-01
8.129999999999999449e-01,7.619545620152856722e-04,1.731513886590924090e-01,-1.171535947423659046e-01
8.139999999999999458e-01,4.029958586449616798e-02,1.811690499051381853e-01,-8.678198751727433935e-02
8.149999999999999467e-01,2.732400143782992563e-02,1.576932374098612699e-01,-1.333403144671667928e-01
8.159999999999999476e-01,1.007246551827233882e-01,1.111286970945131181e-01,-1.081694306149165036e-01
8.169999999999999485e-01,1.585784197304691279e-01,1.011817641741362545e-01,-1.207668360134093871e-01
8.179999999999999494e-01,1.526770327974630581e-01,8.689854310370995205e-02,-1.043676287491924620e-01
8.189999999999999503e-01,1.482807071850861802e-01,5.960484450914682597e-02,-6.432644518786254095e-02
8.199999999999999512e-01,1.634501864325538234e-01,3.128593913874919835e-02,-5.186737410032269541e-02
8.209999999999999520e-01,1.962272592883706479e-01,-8.036010789676290456e-05,-6.520834340901984771e-02
8.219999999999999529e-01,1.899707300998344783e-01,-4.804103281188511210e-02,-4.238580194881332031e-02
8.229999999999999538e-01,1.874404492378452525e-01,-6.941590503388045397e-02,-5.194583619144150025e-03
8.239999999999999547e-01,2.075647153351422303e-01,-9.501371878803699378e-02,4.764684832059151547e-03
8.249999999999999556e-01,2.143976927482995620e-01,-1.563075268851883415e-01,4.691324170419602230e-02
8.259999999999999565e-01,1.428080791893732437e-01,-1.546831941313140946e-01,3.802990256938371810e-02
8.269999999999999574e-01,8.608997713315354183e-02,-1.299204896137969856e-01,5.950628719691809787e-02
8.279999999999999583e-01,6.112351109766984980e-02,-1.606547483656159125e-01,6.601330204463282114e-02
8.289999999999999591e-01,4.318423113848245121e-02,-1.606089361982715458e-01,9.575480739966232835e-02
8.299999999999999600e-01,7.075189045037327991e-03,-1.542605151370029237e-01,1.233085118082627024e-01
8.309999999999999609e-01,-2.736927562077508952e-02,-1.446215588797686857e-01,1.298773305679996326e-01
8.319999999999999618e-01,-4.519708931947753749e-02,-1.269254020500939772e-01,1.410410512861439425e-01
8.329999999999999627e-01,-9.085056828867656142e-02,-9.370934596677601980e-02,1.073222217381629706e-01
8.339999999999999636e-01,-1.252885273469760419e-01,-8.706474682365525353e-02,9.880247907023320675e-02
8.349999999999999645e-01,-1.705007224597333837e-01,-6.916082480168761482e-02,8.728627690042134457e-02
8.359999999999999654e-01,-1.717992570003303021e-01,-1.881403182780494454e-02,1.030806061607602714e-01
8.369999999999999662e-01,-2.002429128818037640e-01,-9.758127357758760237e-03,5.981702620496073125e-02
8.379999999999999671e-01,-1.961301356226142212e-01,4.139458462247570802e-02,4.712372233170867425e-02
8.389999999999999680e-01,-2.193697150092007442e-01,4.364256535072694870e-02,2.618055562451716833e-02
8.399999999999999689e-01,-2.002272923845940245e-01,9.901960381678875933e-02,2.347532348395275220e-02
8.409999999999999698e-01,-1.917582470983764942e-01,1.222764103623965731e-01,-1.901321744340294176e-02
8.419999999999999707e-01,-1.696272546456153718e-01,1.287162096068597272e-01,-3.272430597691606408e-02
8.429999999999999716e-01,-1.330053980889830401e-01,1.548970566340636679e-01,-6.728667778986802128e-02
8.439999999999999725e-01,-1.272231572503899899e-01,1.493698543776586507e-01,-5.755385816351270278e-02
8.449999999999999734e-01,-4.067565147482857246e-02,1.519798637198206126e-01,-1.085735910247083297e-01
8.459999999999999742e-01,-2.097527959236556577e-02,1.628292386898602673e-01,-9.480208576837181877e-02
8.469999999999999751e-01,9.368985387093119524e-03,1.401444035077669403e-01,-1.172715295249334294e-01
8.479999999999999760e-01,1.007312695720101459e-02,1.365269183604874148e-01,-9.751656386568542667e-02
8.489999999999999769e-01,8.311690905698207454e-02,1.257747959462597043e-01,-1.270796861307164904e-01
8.499999999999999778e-01,1.274811934363200283e-01,1.093392965927194177e-01,-1.283845916875827053e-01
8.509999999999999787e-01,1.552024619557163809e-01,6.303751809815300033e-02,-1.354584670695432591e-01
8.519999999999999796e-01,1.535152235659399123e-01,2.361202811221378012e-02,-1.011232219744974264e-01
8.529999999999999805e-01,1.829288855043926798e-01,1.360944505390500499e-02,-7.987141175135756277e-02
8.539999999999999813e-01,2.040901867651220836e-01,-3.140118137254627878e-02,-6.512233268968084521e-02
8.549999999999999822e-01,2.142332577685616413e-01,-4.468615726538621019e-02,-6.874534562642233004e-02
8.559999999999999831e-01,2.169290334245301544e-01,-5.952694798447428354e-02,-3.265007609902732116e-02
8.569999999999999840e-01,1.756566165253400646e-01,-1.139773529171770883e-01,2.716973642367218576e-03
8.579999999999999849e-01,1.591538031659900099e-01,-1.383710059163086592e-01,2.066375676607810213e-02
8.589999999999999858e-01,1.518377604457003260e-01,-1.444163327257389218e-01,6.497933304898470541e-02
8.599999999999999867e-01,1.235419558177623528e-01,-1.541951729718829545e-01,6.483243195196491948e-02
8.609999999999999876e-01,1.054612965225149579e-01,-1.473078581453229896e-01,9.216883959468448462e-02
8.619999999999999885e-01,5.248901813246096421e-02,-1.394711428285814181e-01,8.658936217953680514e-02
8.629999999999999893e-01,2.999808154228248910e-02,-1.576139728708841337e-01,9.029905694942674810e-02
8.639999999999999902e-01,-1.258481350988443007e-02,-1.201900439536149751e-01,1.176033180341583412e-01
8.649999999999999911e-01,-6.370504113996892925e-02,-1.306152039215791871e-01,1.336128277586484114e-01
8.659999999999999920e-01,-7.250334051295913296e-02,-9.451460305348571844e-02,1.410973430237405513e-01
8.669999999999999929e-01,-1.204663112413716236e-01,-8.378577431082795401e-02,6.539469210215863304e-02
8.679999999999999938e-01,-1.433099030879480262e-01,-5.163403763073850378e-02,1.187306623842393077e-01
8.689999999999999947e-01,-1.652707822456802034e-01,-4.277596403784842197e-03,1.127643552009653660e-01
8.699999999999999956e-01,-2.108154004051558394e-01,6.037014368960588913e-03,1.016130607711920042e-01
8.709999999999999964e-01,-1.913536337178367297e-01,6.811354379316859886e-02,5.657844155232723965e-02
8.719999999999999973e-01,-1.997221943246955400e-01,7.546155049658716252e-02,5.382513351645956678e-02
8.729999999999999982e-01,-2.170626112907046157e-01,1.003473242481431882e-01,3.039475317796656861e-02
8.739999999999999991e-01,-1.925436939016433313e-01,1.551418259364205909e-01,-1.779137166646815524e-02
8.750000000000000000e-01,-1.642914016141283073e-01,1.245823508929595064e-01,-1.753146582945191989e-02
8.760000000000000009e-01,-1.463524064284449644e-01,1.423340041921378196e-01,-4.242556381346463540e-02
8.770000000000000018e-01,-1.036573946123818257e-01,1.346755177875400555e-01,-4.658422537505328698e-02
8.780000000000000027e-01,-8.663804071015950015e-02,1.905860662786021675e-01,-1.097765210972443672e-01
8.790000000000000036e-01,-2.706031739913995413e-02,1.714529137469939790e-01,-1.069485030208017495e-01
8.800000000000000044e-01,1.584565574712451866e-02,1.564203449258650125e-01,-1.294297371312853884e-01
8.810000000000000053e-01,4.402611880665327493e-02,1.102785487653068081e-01,-1.211878565369033933e-01
8.820000000000000062e-01,6.690068547708173663e-02,1.239939574481012385e-01,-1.248317556913284276e-01
8.830000000000000071e-01,7.283528220288108812e-02,9.071840155280622153e-02,-1.216306157084342671e-01
8.840000000000000080e-01,1.378263323983499045e-01,8.084419935074899088e-02,-1.144576145036490383e-01
8.850000000000000089e-01,1.955952796650940462e-01,6.653909771805462114e-02,-9.585712224239661960e-02
8.860000000000000098e-01,1.778479445426581762e-01,-1.433197230386349177e-02,-9.711047461352720345e-02
8.870000000000000107e-01,1.985751745802777912e-01,-2.881985641323367084e-02,-4.930567666060831772e-02
8.880000000000000115e-01,1.900556500778272373e-01,-6.309138914285779276e-02,-6.058942768674620283e-02
8.890000000000000124e-01,2.123165021822163157e-01,-9.452891476328234566e-02,-8.326761901415095576e-03
8.900000000000000133e-01,2.015650971540628167e-01,-1.146926688595787808e-01,-1.633743229367302235e-02
8.910000000000000142e-01,1.680908488885670127e-01,-1.170826698674190813e-01,-2.737947907875258602e-02
8.920000000000000151e-01,1.589491312489903774e-01,-1.636603790254768931e-01,1.342482454224207776e-02
8.930000000000000160e-01,1.340305331509622222e-01,-1.644911851550490134e-01,4.493619834338649643e-02
8.940000000000000169e-01,7.599099391903570144e-02,-1.719298045436097044e-01,7.624628143466904984e-02
8.950000000000000178e-01,4.782584426592830645e-02,-1.856806162848926856e-01,7.197903592514683091e-02
8.960000000000000187e-01,1.278546064588062525e-02,-1.529140947609856915e-01,1.044314306370687784e-01
8.970000000000000195e-01,2.027684616123388850e-02,-1.403947734033586803e-01,1.080894695546403828e-01
8.980000000000000204e-01,-6.073993857279670616e-02,-1.428518778544503876e-01,1.359127039751601707e-01
8.990000000000000213e-01,-1.132722822467125690e-01,-8.436177491141289009e-02,1.451662890376510806e-01
9.000000000000000222e-01,-1.237964294925670283e-01,-7.693489960564528496e-02,1.176877175967884770e-01
9.010000000000000231e-01,-1.579001348879079947e-01,-2.308017893679191121e-02,1.070775375227754761e-01
9.020000000000000240e-01,-1.604632544959800344e-01,-6.817174690536803583e-03,1.281905461258147083e-01
9.030000000000000249e-01,-1.747740658797862501e-01,3.308081238892904979e-02,1.080447755929951903e-01
9.040000000000000258e-01,-2.170534291646519787e-01,3.866941797286657656e-02,5.159778113251686782e-02
9.050000000000000266e-01,-2.047339769449171010e-01,9.668122636551830518e-02,2.103508703920779765e-02
9.060000000000000275e-01,-1.736718695471788920e-01,9.646133282442136136e-02,2.560780425212429851e-02
9.070000000000000284e-01,-1.758995541631126203e-01,1.212058555555559081e-01,2.770363260028091065e-02
9.080000000000000293e-01,-1.874865215250264561e-01,1.502242752009113336e-01,-3.821989931696331139e-02
9.090000000000000302e-01,-1.188936814080260584e-01,1.558571554585541918e-01,-3.382351249557048745e-02
9.100000000000000311e-01,-1.393176095089306288e-01,1.585929493924443934e-01,-4.898069408674651792e-02
9.110000000000000320e-01,-9.542935883251951745e-02,1.542042936966806499e-01,-5.859639667599146617e-02
9.120000000000000329e-01,-5.846659147057144124e-02,1.636242479013900464e-01,-8.633324829852455362e-02
9.130000000000000338e-01,6.300584755893482922e-03,1.298831637332020783e-01,-1.277584500828248537e-01
9.140000000000000346e-01,1.635811942287506565e-02,1.308568814014887116e-01,-1.177070831535372147e-01
9.150000000000000355e-01,9.264665749175561571e-02,8.309631807598995279e-02,-1.136317118163423373e-01
9.160000000000000364e-01,9.256840888681737434e-02,1.115146528424936501e-01,-1.430473695215507268e-01
9.170000000000000373e-01,1.332195470587826946e-01,6.338222423210805589e-02,-1.112952055577025312e-01
9.180000000000000382e-01,1.639973104215932120e-01,2.544460112977878913e-02,-9.628709791351619529e-02
9.190000000000000391e-01,1.850798632090556450e-01,-2.655604010416467379e-03,-1.004951580916742110e-01
9.200000000000000400e-01,2.062639809726900253e-01,-5.116751361054671515e-02,-3.425662696701828325e-02
9.210000000000000409e-01,1.955321199857024128e-01,-6.304410101221170903e-02,-9.639429470328217398e-02
9.220000000000000417e-01,2.404163731116966962e-01,-8.768641747466636438e-02,-7.044010520261673181e-02
9.230000000000000426e-01,1.800496629452308373e-01,-9.706031667422199138e-02,-1.780883529587942021e-02
9.240000000000000435e-01,1.912323617104431939e-01,-1.206160442910525488e-01,-3.408760857834845087e-03
9.250000000000000444e-01,1.551597988917600701e-01,-1.369377588633081955e-01,8.247816283811739563e-03
9.260000000000000453e-01,1.369158412523926449e-01,-1.584470413335260786e-01,5.577529103657199311e-02
9.270000000000000462e-01,1.323386023165238345e-01,-1.735443949303736855e-01,5.175812083369971811e-02
9.280000000000000471e-01,8.610162314156180607e-02,-1.457697422464292181e-01,6.099234972564208240e-02
9.290000000000000480e-01,2.200435497427565695e-02,-1.577345791883249249e-01,6.483509975620305177e-02
9.300000000000000488e-01,-2.474420480071752235e-02,-1.384041585666878349e-01,1.308413722403971857e-01
9.310000000000000497e-01,-3.986923015796456360e-02,-1.235595992782092395e-01,1.193670975481587182e-01
9.320000000000000506e-01,-9.626727692949269000e-02,-7.146703034262311127e-02,1.142176588068685578e-01
9.330000000000000515e-01,-1.437124527299568355e-01,-7.819799888774435492e-02,1.228046583839614847e-01
9.340000000000000524e-01,-1.462663639635429780e-01,2.290494288482339269e-03,1.224513327277016728e-01
9.350000000000000533e-01,-1.561852024233799929e-01,-1.145102368250236480e-02,1.264946771191079733e-01
9.360000000000000542e-01,-2.185113704410194257e-01,-6.940156833556175749e-03,8.284293684389761048e-02
9.370000000000000551e-01,-1.881469392159611231e-01,7.911809647323979344e-02,8.626976922878863696e-02
9.379999999999999449e-01,-1.889328335392690128e-01,6.804260574170173381e-02,4.435408683201415986e-02
9.389999999999999458e-01,-2.165338954885178691e-01,9.200361136250667649e-02,5.197572209669440446e-02
9.399999999999999467e-01,-2.207234350005922996e-01,1.449544724702355458e-01,2.149813533863611723e-02
9.409999999999999476e-01,-1.818126961106908135e-01,1.019786561130422847e-01,-2.992031676117419201e-02
9.419999999999999485e-01,-1.397817984227548993e-01,1.583787702037242062e-01,-2.005689277401230888e-02
9.429999999999999494e-01,-1.622553452051610501e-01,1.385639171417787363e-01,-4.552260921504223262e-02
9.439999999999999503e-01,-9.301080859397124756e-02,1.752679679224616038e-01,-5.546440382651176421e-02
9.449999999999999512e-01,-7.083636515685452772e-02,1.783993567544655823e-01,-8.368584214699459345e-02
9.459999999999999520e-01,-5.254441090633102038e-03,1.416192123415311865e-01,-1.018586139578660371e-01
9.469999999999999529e-01,2.615185505598409052e-02,1.492381617923383419e-01,-9.154340818463482798e-02
9.479999999999999538e-01,5.453886630584959400e-02,1.101784660165036900e-01,-1.342447445419260588e-01
9.489999999999999547e-01,1.008167299687845603e-01,8.928887893308437573e-02,-1.527166074937135465e-01
9.499999999999999556e-01,1.219591226942454004e-01,4.342928804255031389e-02,-9.942478777011674873e-02
9.509999999999999565e-01,1.734898119274387029e-01,-1.929440603057595979e-03,-1.062920687820328031e-01
9.519999999999999574e-01,1.954925837493959317e-01,-5.042907387621822779e-03,-1.050303277253091111e-01
9.529999999999999583e-01,2.023697147301281862e-01,-4.797147347384492916e-02,-7.885284269869899387e-02
9.539999999999999591e-01,2.244133373965292721e-01,-7.787681547715305519e-02,-8.052660062859284817e-02
9.549999999999999600e-01,1.776782741296973056e-01,-6.995029463380990353e-02,-4.498096561166779056e-02
9.559999999999999609e-01,1.691369617358538802e-01,-9.919613898003633301e-02,-2.143823393273164984e-02
9.569999999999999618e-01,1.864746635911330441e-01,-1.461990999869295094e-01,-4.385497087099417268e-02
9.579999999999999627e-01,1.550563259137012206e-01,-1.381327876629146745e-01,3.843466522652834449e-03
9.589999999999999636e-01,1.384716394264131067e-01,-1.516619037830935490e-01,1.076284052366147451e-02
9.599999999999999645e-01,1.264276795102904083e-01,-1.596526622849216981e-01,8.342796249079859061e-02
9.609999999999999654e-01,9.478433530150350006e-02,-1.703897798017296183e-01,6.916546008046736693e-02
9.619999999999999662e-01,2.649530231738084565e-02,-1.388925048845162935e-01,1.023335453684527663e-01
9.629999999999999671e-01,4.478345083513025383e-03,-1.271803813693346552e-01,8.466175638798845160e-02
9.639999999999999680e-01,-4.419144222595589033e-02,-1.217277211691344119e-01,1.132782284108004717e-01
9.649999999999999689e-01,-8.280749629294749392e-02,-9.978055815910506776e-02,1.210998674567450445e-01
9.659999999999999698e-01,-1.192890079913128121e-01,-5.497272158149812266e-02,1.315120775010686638e-01
9.669999999999999707e-01,-1.358730432104806318e-01,-6.510472225552460523e-02,9.772268598938203821e-02
9.679999999999999716e-01,-1.462360400914403946e-01,2.277333438711919098e-03,1.042230485793882860e-01
9.689999999999999725e-01,-1.969907042976016265e-01,2.115032315598656260e-02,7.635497745146180293e-02
9.699999999999999734e-01,-1.791584377694544206e-01,3.977285826789423578e-02,8.698973565609753600e-02
9.709999999999999742e-01,-1.923724273752610847e-01,1.035028809529681265e-01,8.466350549827020289e-02
9.719999999999999751e-01,-1.944222172183785458e-01,8.184609490096089734e-02,6.134675651569553023e-02
9.729999999999999760e-01,-1.789361009362762100e-01,1.202019105916953962e-01,-4.230116026644598331e-04
9.739999999999999769e-01,-1.825194274382728465e-01,1.501607442114573365e-01,-1.939366725539456299e-02
9.749999999999999778e-01,-1.299382390762621187e-01,1.463997096470973369e-01,-3.790230966788405310e-03
9.759999999999999787e-01,-1.596027842471980651e-01,1.579421507836977212e-01,-9.315541676294289766e-03
9.769999999999999796e-01,-9.311525546207233273e-02,1.442965744026875885e-01,-5.777505373969609587e-02
9.779999999999999805e-01,-7.492185394558266431e-02,1.362946586334670140e-01,-1.000115910895388455e-01
9.789999999999999813e-01,-2.713647855259763292e-02,1.384672969954508503e-01,-7.913064619695646396e-02
9.799999999999999822e-01,1.627820627856363736e-02,1.236269229308534640e-01,-8.446834954006228469e-02
9.809999999999999831e-01,5.823832778965920554e-02,9.621104991054102440e-02,-1.230217614401363374e-01
9.819999999999999840e-01,8.670330325469902122e-02,1.361997482394649295e-01,-1.457234231490616150e-01
9.829999999999999849e-01,1.318463471300803935e-01,5.848220715764147759e-02,-1.465381566262212165e-01
9.839999999999999858e-01,1.504152639656351209e-01,9.345860705572573562e-03,-1.163163822106031836e-01
9.849999999999999867e-01,1.630205224824467503e-01,-3.080642327550105544e-02,-9.817840269328932667e-02
9.859999999999999876e-01,1.884018013023681937e-01,-4.078174576247300953e-02,-8.513323623126184403e-02
9.869999999999999885e-01,1.818143244863575925e-01,-8.165117857491344111e-02,-9.031651244963224967e-02
9.879999999999999893e-01,2.125501555565996181e-01,-9.775538992433892294e-02,-7.533424859940761331e-02
9.889999999999999902e-01,1.883386691161834103e-01,-9.523071994758651460e-02,-5.352797896668259198e-02
9.899999999999999911e-01,1.831811168375284682e-01,-1.373531517697583193e-01,-1.602555807926078768e-02
9.909999999999999920e-01,1.362351359292674480e-01,-1.655889814486629641e-01,-1.793283296298246732e-02
9.919999999999999929e-01,1.609057120595522028e-01,-1.447062945105474507e-01,3.089505312330373399e-02
9.929999999999999938e-01,9.985581580877046781e-02,-1.664196187605515853e-01,4.661208946371846185e-02
9.939999999999999947e-01,1.068415533145631729e-01,-1.630418487093176216e-01,7.680910320693221105e-02
9.949999999999999956e-01,5.189869967468639655e-02,-1.609386373627798295e-01,5.052673512178537663e-02
9.959999999999999964e-01,2.097135337016473727e-02,-8.995069960940642317e-02,1.066648179276003805e-01
9.969999999999999973e-01,-1.482323147370950313e-02,-1.041623046528933061e-01,1.251273240722129698e-01
9.979999999999999982e-01,-3.370279128568493682e-02,-1.208231078925827429e-01,8.870220032296829982e-02
9.989999999999999991e-01,-1.249513157960755599e-01,-6.760488735445888131e-02,1.404106323816359803e-01
1.000000000000000000e+00,-1.324006556507979215e-01,-5.891651723548974040e-02,1.286172080112188976e-01
1.000999999999999890e+00,-1.779526869357463958e-01,2.766679691924137530e-03,1.027688829671899451e-01
1.002000000000000002e+00,-1.734342469479288884e-01,3.340442038695567994e-02,1.266106831006792721e-01
1.002999999999999892e+00,-2.179119525780313371e-01,8.770070411586948500e-02,1.223212785202584113e-01
1.004000000000000004e+00,-1.929930656755808882e-01,1.058701177705333452e-01,8.746287653459582090e-02
1.004999999999999893e+00,-1.812365190048541297e-01,1.121924800757443386e-01,7.494044433524450766e-02
1.006000000000000005e+00,-1.920890041541630511e-01,1.046460733719969116e-01,3.156776520794642160e-02
1.006999999999999895e+00,-2.105202267397415505e-01,1.754910324246313491e-01,-3.058032204712471391e-03
1.008000000000000007e+00,-1.567586864095321109e-01,1.407017856735555128e-01,-2.408596405731757914e-02
1.008999999999999897e+00,-1.270253701440505201e-01,1.589515033683696621e-01,-5.686553892955099193e-02
1.010000000000000009e+00,-1.195196765865297328e-01,1.844533707340589301e-01,-3.295473132818395323e-02
1.010999999999999899e+00,-4.573226737060535896e-02,1.390186184119695245e-01,-8.333584584091377478e-02
1.012000000000000011e+00,-3.352663191079081895e-02,1.558128897861251472e-01,-9.695870913174800543e-02
1.012999999999999901e+00,9.077701529235600308e-03,1.397606105628508011e-01,-8.671458454400463034e-02
1.014000000000000012e+00,1.154884623226369936e-03,9.887752557536004516e-02,-1.134236299667621684e-01
1.014999999999999902e+00,9.490868847628769478e-02,8.566325957325776619e-02,-1.320471091662373253e-01
1.016000000000000014e+00,1.431089919837163771e-01,7.177418151931430623e-02,-1.386598385629858321e-01
1.016999999999999904e+00,1.387117089981452778e-01,6.015610325193319896e-02,-9.928803964077256849e-02
1.018000000000000016e+00,1.632826728336707056e-01,-1.159570132856071155e-02,-9.398938866969375194e-02
1.018999999999999906e+00,1.931355904971479576e-01,-5.372668245850830727e-03,-1.076495207149087419e-01
1.020000000000000018e+00,2.460471124115823638e-01,-7.706084346524960660e-02,-7.693333582821190730e-02
1.020999999999999908e+00,2.194133744939043285e-01,-9.372621012800316787e-02,-6.996283638623163048e-02
1.022000000000000020e+00,2.160457178493019881e-01,-1.126216417964733957e-01,-9.292497402420756003e-02
1.022999999999999909e+00,1.813387427378327921e-01,-1.422623167202573258e-01,-3.021722789812578136e-02
1.024000000000000021e+00,1.670758702939370288e-01,-1.646442204752215088e-01,1.169602166292452346e-02
1.024999999999999911e+00,1.501723560833319315e-01,-1.709229253649028057e-01,1.414847875316775118e-02
1.026000000000000023e+00,1.601646858929585415e-01,-1.671352948754974421e-01,2.323345023056970493e-02
1.026999999999999913e+00,1.147219783300594403e-01,-1.801081167233436198e-01,6.099106094675658257e-02
1.028000000000000025e+00,4.512189251154538616e-02,-1.551801111311353898e-01,9.261758500454908560e-02
1.028999999999999915e+00,2.354606857901588284e-03,-1.354503712296591666e-01,6.537000820553655334e-02
1.030000000000000027e+00,-3.829634000326299914e-02,-1.051696874693018313e-01,1.392012479379632628e-01
1.030999999999999917e+00,-7.230093247738317297e-02,-6.571892289300260148e-02,1.015851119460993296e-01
1.032000000000000028e+00,-6.879149978621521000e-02,-3.926997456787548885e-02,9.659238061747286996e-02
1.032999999999999918e+00,-1.271495413097482596e-01,-1.843146483876342834e-02,1.195181691216034570e-01
1.034000000000000030e+00,-1.500743224958509814e-01,4.631305188627352944e-04,1.312470240892465723e-01
1.034999999999999920e+00,-1.954265245235728699e-01,3.791543428045911907e-02,1.251255331652226244e-01
1.036000000000000032e+00,-1.905136984998723471e-01,6.836441255376544957e-02,9.088576594127828479e-02
1.036999999999999922e+00,-1.919500229188102480e-01,9.027541873686649454e-02,9.874897275626194626e-02
1.038000000000000034e+00,-2.083120209694295788e-01,1.224655529839666218e-01,7.091008161947424948e-02
1.038999999999999924e+00,-1.647035717399231991e-01,1.288617443500543192e-01,5.909344710149785213e-02
1.040000000000000036e+00,-1.811581931623123531e-01,1.806403106530405089e-01,6.116704701972871389e-02
1.040999999999999925e+00,-1.582735236247319599e-01,1.653082200854188444e-01,4.469382190265699245e-02
1.042000000000000037e+00,-1.522050284732297809e-01,1.631842153335645584e-01,-1.859869689700910031e-02
1.042999999999999927e+00,-1.162285580968110132e-01,1.957540132443886804e-01,-2.112648521437831065e-02
1.044000000000000039e+00,-6.431135103568462463e-02,1.479705492162572411e-01,-7.148289286425035804e-02
1.044999999999999929e+00,-1.893552011109711497e-02,1.470638248505343193e-01,-8.852328350970656290e-02
1.046000000000000041e+00,9.002925889236870066e-03,1.213718258268344508e-01,-7.839004331393380209e-02
1.046999999999999931e+00,6.046367765154569973e-02,1.247999659916406573e-01,-9.893948537746784233e-02
1.048000000000000043e+00,7.384132600398320145e-02,1.004416113031489644e-01,-1.102615537041369276e-01
1.048999999999999932e+00,9.102299818919319663e-02,4.903907020833900288e-02,-1.178129718444744095e-01
1.050000000000000044e+00,1.579307081322639528e-01,4.800575349521488816e-02,-1.020997498037864437e-01
1.050999999999999934e+00,1.377824335353635965e-01,-6.083539061844760870e-03,-1.189203106905855761e-01
1.052000000000000046e+00,1.988565072863367200e-01,-5.461798129126652079e-02,-9.876555238132724013e-02
1.052999999999999936e+00,1.654982694842849766e-01,-7.772813641049627909e-02,-1.128308032144847289e-01
1.054000000000000048e+00,2.101439245403248779e-01,-1.377489045343475438e-01,-9.135036094824501574e-02
1.054999999999999938e+00,1.904147300594958014e-01,-1.158800186389928738e-01,-4.669676953302159123e-02
1.056000000000000050e+00,2.028193025153483264e-01,-1.180813479115506437e-01,-2.571481843653226212e-02
1.056999999999999940e+00,1.817710806760028663e-01,-1.475886997494520181e-01,-3.862842364163028303e-03
1.058000000000000052e+00,1.651593184418775617e-01,-1.723141155364710519e-01,4.569587767080133742e-03
1.058999999999999941e+00,1.210705698580845785e-01,-1.630435097520791243e-01,1.576701240928927300e-02
1.060000000000000053e+00,7.653506819330532784e-02,-1.518518581534702705e-01,5.428940424083558008e-02
1.060999999999999943e+00,5.201488753288664030e-02,-1.349732744484891389e-01,6.647759681403118959e-02
1.062000000000000055e+00,3.722978522117176801e-03,-1.278531291619907917e-01,6.449690116871209522e-02
1.062999999999999945e+00,-4.218481948230628359e-02,-1.036753988414668426e-01,1.161022929093731559e-01
1.064000000000000057e+00,-8.382397999036739211e-02,-7.060755801721260716e-02,8.365095727112945023e-02
1.064999999999999947e+00,-9.075177828314691386e-02,-6.829327199935236736e-02,8.735154158268104707e-02
1.066000000000000059e+00,-1.400161291539340214e-01,-9.310062720908207287e-03,9.953345103780612824e-02
1.066999999999999948e+00,-1.504662524671567525e-01,1.369115321376334141e-02,1.155831132431793251e-01
1.068000000000000060e+00,-1.834366501528325311e-01,4.917633494604738142e-02,1.369707373822054985e-01
1.068999999999999950e+00,-2.000626759356659845e-01,8.243693271569871306e-02,1.461069211890247410e-01
1.070000000000000062e+00,-1.994528653267544360e-01,1.165084305372772744e-01,8.368166139116146873e-02
1.070999999999999952e+00,-2.099973682187261381e-01,1.090334214617979941e-01,7.829505814573087252e-02
1.072000000000000064e+00,-2.044776048357422604e-01,1.185082893403501675e-01,6.355562488811936084e-02
1.072999999999999954e+00,-1.723433896480442984e-01,1.253006072917156877e-01,8.414312302926200970e-02
1.074000000000000066e+00,-1.802611470696220963e-01,1.789552611194247245e-01,2.439032404238583931e-02
1.074999999999999956e+00,-1.444520418555438612e-01,1.752519177883792856e-01,-6.404459353498268351e-03
1.076000000000000068e+00,-1.004423755492499237e-01,1.823066293939694937e-01,-2.649278705560441025e-02
1.076999999999999957e+00,-7.138537335841478593e-02,1.266272106011945009e-01,-2.983868936152960297e-02
1.078000000000000069e+00,-6.355708518026222109e-02,1.147986397314726681e-01,-8.179835312240445189e-02
1.078999999999999959e+00,1.147620061149846014e-02,1.199385586988526153e-01,-7.306409637858074513e-02
1.080000000000000071e+00,1.132540550801098417e-02,8.383901981007303716e-02,-1.073519397372909717e-01
1.080999999999999961e+00,6.342745838917226986e-02,6.838712066658698963e-02,-1.207184288058767430e-01
1.082000000000000073e+00,1.196461186011326117e-01,2.019402689739764264e-02,-6.997613214074011045e-02
1.082999999999999963e+00,1.218212513891280685e-01,1.830949361255582164e-02,-1.160461069091556219e-01
1.084000000000000075e+00,1.840360246583312431e-01,-6.269149270321758283e-02,-1.305023097508054564e-01
1.084999999999999964e+00,1.888732495532887967e-01,-5.363284744837165663e-02,-1.249122104125551525e-01
1.086000000000000076e+00,1.983712164126073541e-01,-7.997349934804853788e-02,-9.795133776593491215e-02
1.086999999999999966e+00,1.987049711518051320e-01,-1.147886574055214381e-01,-4.935138424764475007e-02
1.088000000000000078e+00,2.035129543478657599e-01,-1.120775940051008113e-01,-7.407770466230657880e-02
1.088999999999999968e+00,1.906085481823669436e-01,-1.333260376119727308e-01,-6.999468101578243395e-02
1.090000000000000080e+00,1.836075175919408553e-01,-1.652451768068848026e-01,-1.322283326446028508e-02
1.090999999999999970e+00,1.510829823639178449e-01,-1.950150844729786892e-01,-3.007860760054068688e-02
1.092000000000000082e+00,1.595295091747648553e-01,-1.551233171107246900e-01,2.173497453481724670e-02
1.092999999999999972e+00,1.402830408273741392e-01,-1.501684542842400549e-01,3.589233354182360530e-02
1.094000000000000083e+00,8.730890931662543819e-02,-1.403512237943873309e-01,6.369584497329687511e-02
1.094999999999999973e+00,1.602676771666261199e-02,-1.028021238489476297e-01,3.366470586957923811e-02
1.096000000000000085e+00,-1.327080290700437086e-02,-1.170578640194411685e-01,8.677659035769441642e-02
1.096999999999999975e+00,-6.413365600927364851e-02,-6.620650659061577681e-02,8.143451688957209500e-02
1.098000000000000087e+00,-6.942758823589431638e-02,-2.536720534067261196e-02,1.499930682799015258e-01
1.098999999999999977e+00,-1.093097609690976552e-01,-3.689445767223953343e-02,1.324588342076074843e-01
1.100000000000000089e+00,-1.361038441409000987e-01,2.264930801975483313e-02,1.301084714698197142e-01
1.100999999999999979e+00,-1.733769150962722050e-01,3.404018703970244919e-02,1.117520495927502716e-01
1.102000000000000091e+00,-1.873978519553577970e-01,8.670053402604717407e-02,1.266947923995400682e-01
1.102999999999999980e+00,-1.919801000479094688e-01,1.206500528891796403e-01,9.870332599248850258e-02
1.104000000000000092e+00,-1.996983235402556012e-01,1.137422526045280685e-01,1.129509887994063766e-01
1.104999999999999982e+00,-1.828226342964534012e-01,1.363679031362166616e-01,5.058718167452394554e-02
1.106000000000000094e+00,-1.948457044716923880e-01,1.610315924356663653e-01,5.337868709272274026e-02
1.106999999999999984e+00,-1.758568538344936483e-01,1.916214345486104420e-01,2.013623032560500972e-02
1.108000000000000096e+00,-1.375589431603763957e-01,1.876723822832803978e-01,-8.329701672027189224e-03
1.108999999999999986e+00,-1.451152848782045479e-01,1.653931043457817496e-01,9.245126605273391515e-03
1.110000000000000098e+00,-9.346187952864895565e-02,1.580920178779550711e-01,-9.804061443178630278e-03
1.110999999999999988e+00,-5.779598478170697162e-02,1.404198259840331031e-01,-5.405168060682183362e-02
1.112000000000000099e+00,-2.080325612045855199e-02,9.345869608686481478e-02,-9.551101499952124874e-02
1.112999999999999989e+00,2.377612175907262149e-02,9.230724662562643512e-02,-1.022054608694777933e-01
1.114000000000000101e+00,5.810701945910129451e-02,4.055661223351807870e-02,-1.145147108223391330e-01
1.114999999999999991e+00,8.449230837704617414e-02,3.934989396464178002e-02,-1.058473887885690579e-01
1.116000000000000103e+00,1.331355512694295251e-01,1.115109451779880412e-02,-1.143738872829134223e-01
1.116999999999999993e+00,1.540833902279299672e-01,-3.155771804532901681e-02,-1.245661929565153730e-01
1.118000000000000105e+00,1.642479874627216230e-01,-5.694451496184878281e-02,-1.121216791478376051e-01
1.118999999999999995e+00,1.901114778965217467e-01,-5.760149286051293588e-02,-9.683899177892386911e-02
1.120000000000000107e+00,2.137687843744389138e-01,-1.177972942109570265e-01,-6.938021483504386300e-02
1.120999999999999996e+00,2.060080500962491734e-01,-1.387034260651734963e-01,-9.049529818640224266e-02
1.122000000000000108e+00,1.953519411615882440e-01,-1.575008441112989988e-01,-1.080138816423989179e-01
1.122999999999999998e+00,1.498238018832546981e-01,-1.645681677364010387e-01,-6.830805636814955839e-02
1.124000000000000110e+00,1.746458701197727836e-01,-1.688338446843262453e-01,-1.217439134561693233e-02
1.125000000000000000e+00,1.488860691680258808e-01,-1.368998343365739057e-01,1.880391169782031887e-03
1.125999999999999890e+00,1.309506953797456297e-01,-1.741303343775480184e-01,1.751177483492271508e-02
1.127000000000000002e+00,8.064617200559170973e-02,-1.624159248536210243e-01,5.791418316485070356e-02
1.127999999999999892e+00,1.599471315990429535e-02,-1.094730681194164001e-01,7.307921247078170979e-02
1.129000000000000004e+00,1.370207412113477047e-03,-1.515105929490890013e-01,5.064982869031392498e-02
1.129999999999999893e+00,-5.022620906455301654e-02,-5.363403879899792531e-02,8.515775862050553591e-02
1.131000000000000005e+00,-9.476754591699766694e-02,-4.850431026565686643e-02,1.138386075926931668e-01
1.131999999999999895e+00,-1.305751383666148291e-01,3.600106408152187448e-03,1.149607517897276443e-01
1.133000000000000007e+00,-1.513901067338138950e-01,1.491805567469120172e-02,9.621466789976171330e-02
1.133999999999999897e+00,-1.514602905077361839e-01,2.716560726819548452e-02,1.317675468169790531e-01
1.135000000000000009e+00,-1.801858976357337272e-01,6.534604086137076051e-02,1.036306783122042802e-01
1.135999999999999899e+00,-2.182963273608703458e-01,9.386057563965231887e-02,1.296019994396531705e-01
1.137000000000000011e+00,-2.285940845135676913e-01,1.084483289376850373e-01,1.063348287095893518e-01
1.137999999999999901e+00,-1.918324047896187712e-01,1.276311098889656159e-01,7.969529163525744531e-02
1.139000000000000012e+00,-1.886101984225896366e-01,1.614069813420570820e-01,7.310280649312135559e-02
1.139999999999999902e+00,-1.845091226839201126e-01,1.693828271139788400e-01,2.382367155239526607e-02
1.141000000000000014e+00,-1.412105016237273913e-01,1.640235214367068151e-01,1.955072297593144631e-02
1.141999999999999904e+00,-9.916220898141087092e-02,1.456839983084891044e-01,3.243905773499363571e-02
1.143000000000000016e+00,-1.088299324938032109e-01,1.445392825399117731e-01,-9.459789154188612964e-03
1.143999999999999906e+00,-3.947897388728412171e-02,1.383559360216835288e-01,-1.542774617507453212e-02
1.145000000000000018e+00,5.396151193048218976e-03,1.304651600247469234e-01,-6.611600560220663725e-02
1.145999999999999908e+00,5.555737988519492652e-03,8.099326501085742092e-02,-8.563899652250180072e-02
1.147000000000000020e+00,6.056644306161377417e-02,6.888833279079133176e-02,-1.004504585105908121e-01
1.147999999999999909e+00,1.006074859120055370e-01,4.867303163809087729e-02,-1.091416934142519363e-01
1.149000000000000021e+00,1.279757946068673935e-01,5.425623283840178002e-02,-1.185645312878757934e-01
1.149999999999999911e+00,1.554035448887113591e-01,-6.151621952734726527e-03,-1.236336842618396270e-01
1.151000000000000023e+00,1.742319055476993783e-01,-6.019846827232691600e-02,-1.045381385217091230e-01
1.151999999999999913e+00,1.987865916605338068e-01,-9.805002214620636702e-02,-1.212996090835654905e-01
1.153000000000000025e+00,2.295057035308423199e-01,-1.109825913430147193e-01,-1.347968274864561333e-01
1.153999999999999915e+00,1.991903722412768363e-01,-1.276164798271902934e-01,-9.278702949951335432e-02
1.155000000000000027e+00,1.837568969221113901e-01,-1.361724841741477898e-01,-9.590638486761697556e-02
1.155999999999999917e+00,1.867745806211822956e-01,-1.581584171916262660e-01,-6.972057051114990966e-02
1.157000000000000028e+00,1.508062887305205713e-01,-1.599966176801385642e-01,-2.561020633905450317e-02
1.157999999999999918e+00,1.544044161914824853e-01,-1.795355019278778996e-01,1.732629583496952605e-02
1.159000000000000030e+00,1.055449595120402789e-01,-1.828837059745926918e-01,1.488934407690666907e-02
1.159999999999999920e+00,8.170046524460455872e-02,-1.574670101932053035e-01,3.822318116126215831e-02
1.161000000000000032e+00,2.778154391128341560e-02,-1.116221433212311320e-01,2.561640858313012775e-02
1.161999999999999922e+00,-1.175682163230915012e-02,-1.241526119055776922e-01,9.232975422510347752e-02
1.163000000000000034e+00,-3.017958404259225152e-02,-8.146105089018476630e-02,8.029177918152843874e-02
1.163999999999999924e+00,-9.842540628100669708e-02,-3.485047274777631349e-02,1.095297487378628781e-01
1.165000000000000036e+00,-1.032390248268359179e-01,-1.232072505423774042e-02,1.199975886415891174e-01
1.165999999999999925e+00,-1.288099480697798838e-01,5.615770495456099722e-03,1.027428082044468671e-01
1.167000000000000037e+00,-1.395351077086426084e-01,3.298218545790797263e-02,1.483321818867832376e-01
1.167999999999999927e+00,-1.995222330811562694e-01,8.047599869377100590e-02,1.335204783363187486e-01
1.169000000000000039e+00,-1.598269649562982786e-01,1.042200130268711306e-01,1.273147301175518997e-01
1.169999999999999929e+00,-2.027498466566313995e-01,1.273768373346466087e-01,1.045390840448015973e-01
1.171000000000000041e+00,-2.354525828322190373e-01,1.400251858118880532e-01,6.645214818188538430e-02
1.171999999999999931e+00,-1.794102753225559899e-01,1.643600243500623059e-01,8.330284422236158837e-02
1.173000000000000043e+00,-1.740243000215339897e-01,1.634980028110006034e-01,5.598758608120385505e-02
1.173999999999999932e+00,-1.837346616899684648e-01,1.535168470931311258e-01,5.504734554057670592e-02
1.175000000000000044e+00,-1.512084436774864538e-01,1.562046910818290502e-01,2.284577164728715873e-02
1.175999999999999934e+00,-9.108876274479124624e-02,1.612925104974814172e-01,-2.448459218628524017e-02
1.177000000000000046e+00,-6.169782144187067885e-02,1.293794194896221994e-01,-1.506391222726423222e-02
1.177999999999999936e+00,-2.568718342054591985e-02,1.152354657732103244e-01,-7.503405472555836619e-02
1.179000000000000048e+00,1.641529757555623692e-02,6.167486322774593660e-02,-8.304887554557556506e-02
1.179999999999999938e+00,4.508872051757450983e-02,6.231162246394255505e-02,-9.958259120387683017e-02
