time,acc_x,acc_y,acc_z
0.000000000000000000e+00,9.107116162267651915e-02,5.767032719216745595e-02,1.020829261277954592e-01
1.000000000000000021e-03,1.424120420484025207e-01,5.760870342163917912e-02,5.805707468026530954e-02
2.000000000000000042e-03,2.259604139096767217e-01,1.593786816351442925e-01,1.115426166801142954e-01
3.000000000000000062e-03,2.278777141606584122e-01,1.696649691365675616e-01,1.707977184897411238e-01
4.000000000000000083e-03,1.611893967373673742e-01,2.416540591539828239e-02,1.287478470300301436e-01
5.000000000000000104e-03,-8.312991762531797557e-02,-1.328490900910801464e-01,-7.609754408849932032e-03
6.000000000000000125e-03,-1.969651175335904725e-01,-2.215618368518708914e-01,-1.096055040138516484e-01
7.000000000000000146e-03,-2.387612700309399982e-01,-1.525233189116554089e-01,-1.297230076037677593e-01
8.000000000000000167e-03,-1.059692610164550131e-01,-1.035205650174883529e-01,-1.016208321001602077e-01
8.999999999999999320e-03,-6.438474469546336121e-02,-1.273394935707208853e-01,-3.871836920685048367e-02
1.000000000000000021e-02,-1.893756345361637672e-01,-1.686374015968003792e-01,-4.860879278425113414e-02
1.099999999999999936e-02,-3.402462711517704186e-01,-3.464969553073927178e-01,-1.235558117417150104e-01
1.200000000000000025e-02,-3.881911414176534847e-01,-2.479937920761164372e-01,-2.703346871286816389e-01
1.299999999999999940e-02,-2.849564895074702120e-01,-1.370999076640660452e-01,-1.862584250263257246e-01
1.400000000000000029e-02,-3.649237385766630759e-02,-1.696787234846328790e-02,-7.516791017802913755e-02
1.499999999999999944e-02,5.245029907298011385e-02,4.556228835254551724e-05,-3.739421463334571122e-02
1.600000000000000033e-02,-3.373432831133405668e-02,-5.730399169913325680e-02,1.044197537198303209e-02
1.700000000000000122e-02,-8.981623098680061035e-02,-4.533800355557642686e-02,-3.920103807072772978e-02
1.799999999999999864e-02,-6.911587206941276901e-03,3.540160513294258321e-02,-6.503531155363007077e-02
1.899999999999999953e-02,1.404959721404347162e-01,2.291134435753615917e-01,2.223454761637261648e-03
2.000000000000000042e-02,3.382109247078441405e-01,3.069596527993468937e-01,1.128777951094138837e-01
2.100000000000000130e-02,3.487613802990012224e-01,2.391098314393811652e-01,2.296872599388668224e-01
2.199999999999999872e-02,2.339027614383438758e-01,1.102073801735729830e-01,1.801345783307888027e-01
2.299999999999999961e-02,1.150178567246841060e-01,4.742706935967861553e-02,1.209013276610049759e-01
2.400000000000000050e-02,1.258145033308705474e-01,1.784640854535670951e-01,8.191627917490290622e-02
2.500000000000000139e-02,2.979241188899698911e-01,2.674874186102483842e-01,1.101358519243593181e-01
2.599999999999999881e-02,2.983136832416939943e-01,2.099692724514770070e-01,1.825844936559615495e-01
2.699999999999999969e-02,1.990276979948358838e-01,3.926284558559538923e-02,1.837044784690368693e-01
2.800000000000000058e-02,3.130043938921153387e-03,-9.285604529010554886e-02,1.123378080215985120e-01
2.900000000000000147e-02,-1.937527913937303337e-01,-1.661983512596957313e-01,-2.209812317716994615e-02
2.999999999999999889e-02,-1.761792161660202805e-01,-1.094379018417688532e-01,-7.863107132098810792e-02
3.099999999999999978e-02,-7.919037165236712805e-02,-6.999507649503491913e-02,-6.847815912877293354e-02
3.200000000000000067e-02,-5.662414831792927927e-02,-1.439436291437854176e-01,1.129560913897089715e-02
3.300000000000000155e-02,-2.072716955589272714e-01,-2.446790718544814836e-01,-1.210105903156650543e-02
3.400000000000000244e-02,-3.690130007398169099e-01,-3.024537118820200821e-01,-9.983487986541790538e-02
3.500000000000000333e-02,-4.121393152507742408e-01,-2.231835060809216342e-01,-2.109528866885940213e-01
3.599999999999999728e-02,-3.229060003179825555e-01,-8.678624319887599803e-02,-2.305541688275943024e-01
3.699999999999999817e-02,-1.200688792714081909e-01,4.653524242145159855e-03,-1.384055530379325605e-01
3.799999999999999906e-02,2.855207005954530069e-03,-2.239609894015098454e-02,-6.278854837541562872e-02
3.899999999999999994e-02,-9.416003773120328046e-02,-1.070977403659382765e-01,-1.198168373973335088e-02
4.000000000000000083e-02,-1.575739480147827776e-01,-1.035388402075593794e-01,-1.016695385669759422e-01
4.100000000000000172e-02,-1.490943006286215289e-01,5.182021310790688173e-02,-1.254304169993930851e-01
4.200000000000000261e-02,8.311240583831247530e-02,2.334999265561363557e-01,-7.109465400401847324e-02
4.299999999999999656e-02,3.027633582882835461e-01,2.805219803863652772e-01,7.364629575472628198e-02
4.399999999999999745e-02,3.090710995199077993e-01,1.751828906920453177e-01,1.702883794113680127e-01
4.499999999999999833e-02,2.466031469845948731e-01,8.213207509093142789e-02,1.917436692576052759e-01
4.599999999999999922e-02,1.048470170299373311e-01,9.977438387785092511e-02,1.099899241073221817e-01
4.700000000000000011e-02,1.106729176099382206e-01,2.006456448190269692e-01,8.045980197901479725e-02
4.800000000000000100e-02,3.066883764130869938e-01,2.658110110486781030e-01,8.325743597605607393e-02
4.900000000000000189e-02,4.088352214024794096e-01,2.110745788274349111e-01,1.753560911602145556e-01
5.000000000000000278e-02,2.607424449904578445e-01,2.345023644527341466e-02,2.276541357151166400e-01
5.099999999999999672e-02,3.969089382179970954e-02,-1.130427837288211640e-01,1.664396069151932445e-01
5.199999999999999761e-02,-1.211145910108956530e-01,-1.089623328704859700e-01,-9.259035069547510641e-03
5.299999999999999850e-02,-1.050609153936748474e-01,-7.975149574736781558e-03,-4.895408832699824075e-02
5.399999999999999939e-02,2.223337073360351357e-03,-7.323076217962916357e-03,-7.681862691027850631e-02
5.500000000000000028e-02,-7.893264337131123895e-03,-1.166791045274395144e-01,1.924385210036062485e-02
5.600000000000000117e-02,-1.459544726479914956e-01,-2.754591756668642866e-01,5.813441445990041694e-03
5.700000000000000205e-02,-3.527143079202568199e-01,-3.272595756960340330e-01,-1.131966144312303302e-01
5.800000000000000294e-02,-4.146511478998372024e-01,-2.440701585091466785e-01,-1.888308508077748138e-01
5.899999999999999689e-02,-2.989359305721955851e-01,-6.774936990138737125e-02,-2.488999824351534329e-01
5.999999999999999778e-02,-1.532650460375809820e-01,-6.345770560008073824e-02,-1.552655306962860693e-01
6.099999999999999867e-02,-8.901150039114623380e-02,-7.933751358367614748e-02,-6.847233012293615917e-02
6.199999999999999956e-02,-1.197873740733285536e-01,-1.615958210111950455e-01,-3.476282544554976095e-02
6.300000000000000044e-02,-2.092567635203650689e-01,-1.233695166902731288e-01,-9.668444119065595921e-02
6.400000000000000133e-02,-1.443977547522268812e-01,8.110793843310296417e-03,-1.550636932410512092e-01
6.500000000000000222e-02,3.419815665707899577e-02,2.203208943188710023e-01,-1.348775300206105643e-01
6.600000000000000311e-02,2.332050310515341729e-01,2.113255718675499106e-01,2.189637863688657232e-02
6.700000000000000400e-02,2.673101686148011691e-01,1.589377177376278261e-01,1.315276132658457775e-01
6.800000000000000488e-02,1.457774449310950682e-01,6.567933929694534656e-02,1.424069146288307608e-01
6.900000000000000577e-02,6.799051009464081308e-02,1.261826763358706582e-01,1.101250897026622017e-01
7.000000000000000666e-02,1.724572195923546047e-01,2.721762418752702861e-01,3.906450112673592878e-02
7.099999999999999367e-02,3.210880064867741024e-01,2.994847867099146854e-01,4.568604379580823438e-02
7.199999999999999456e-02,4.059258086678583788e-01,2.013951690831569385e-01,1.647021343047354869e-01
7.299999999999999545e-02,2.764728509615154706e-01,3.143820397652410947e-02,2.340717053670024195e-01
7.399999999999999634e-02,8.775493586834041959e-02,-8.185672085730039127e-02,1.849735580412067426e-01
7.499999999999999722e-02,-7.920673252080448479e-02,-3.984531067205090982e-02,7.380337582803246643e-02
7.599999999999999811e-02,-4.812443346185306392e-02,2.389111485893151421e-02,-4.624704976471203256e-04
7.699999999999999900e-02,8.382931182499933631e-02,1.073642977854870860e-02,-4.486647446284473817e-02
7.799999999999999989e-02,6.930216824011027621e-02,-1.274900320068690085e-01,7.249259252254990071e-02
7.900000000000000078e-02,-1.393257033691158997e-01,-2.692785811748292235e-01,6.522173059371584591e-02
8.000000000000000167e-02,-3.149172264368230723e-01,-3.110946442509820997e-01,-9.359063501871624918e-03
8.100000000000000255e-02,-3.714482683447635214e-01,-2.103060359949167346e-01,-1.757158594856508271e-01
8.200000000000000344e-02,-3.046229718866135805e-01,-8.344162123489773375e-02,-2.278416113649158470e-01
8.300000000000000433e-02,-1.491487762461598532e-01,-8.817197191921853638e-02,-2.229946349091783131e-01
8.400000000000000522e-02,-7.219981777233025477e-02,-1.780787758798545173e-01,-1.013199937552141799e-01
8.500000000000000611e-02,-2.055551782445561027e-01,-2.251185344001871147e-01,-1.028844950811752396e-01
8.599999999999999312e-02,-2.940360192775221537e-01,-8.620347999368255243e-02,-7.256992799308481512e-02
8.699999999999999400e-02,-2.271522220374771195e-01,7.374227836474903097e-02,-1.777938572237409420e-01
8.799999999999999489e-02,-1.305223685853298260e-02,1.790034846618665243e-01,-1.602039426582857473e-01
8.899999999999999578e-02,1.774978006187100665e-01,1.905604502128069866e-01,-3.885339630764705204e-02
8.999999999999999667e-02,2.209509313965359045e-01,6.708817048648611781e-02,8.721829822339861871e-02
9.099999999999999756e-02,1.243687599702864993e-01,6.740155895588742507e-02,1.136894746222918001e-01
9.199999999999999845e-02,7.160483015491561631e-02,1.490470017790379853e-01,6.992321108799262608e-02
9.299999999999999933e-02,1.366940719686998706e-01,2.875683610543636193e-01,2.225607288031481151e-03
9.400000000000000022e-02,3.153960698096331949e-01,3.011735407254977348e-01,7.077050105065443852e-02
9.500000000000000111e-02,4.043910977046789035e-01,2.160995776248555433e-01,1.285741582398972904e-01
9.600000000000000200e-02,2.917100571533605136e-01,2.408793330013069348e-02,2.603833425017907932e-01
9.700000000000000289e-02,1.098785886053777611e-01,6.912739977328921995e-03,2.369437881808705570e-01
9.800000000000000377e-02,7.347613195428105357e-03,-1.752178851551799196e-04,1.378247944713572593e-01
9.900000000000000466e-02,1.086317088847589193e-02,4.393329493310732525e-02,3.513912333603073229e-03
1.000000000000000056e-01,1.059973392104581191e-01,5.206056513161872075e-03,2.220258174332626760e-02
1.010000000000000064e-01,6.176423100614435863e-02,-1.387156730045495945e-01,5.135462355063143136e-02
1.019999999999999934e-01,-9.657371862200520019e-02,-3.059520399266719148e-01,8.956783882267047026e-02
1.029999999999999943e-01,-2.749183570819055955e-01,-2.698657182805494492e-01,-3.438556489498122972e-04
1.039999999999999952e-01,-3.575846646860531552e-01,-2.078672293889413103e-01,-1.043342795891829405e-01
1.049999999999999961e-01,-2.514440570631633620e-01,-8.469428104880005748e-02,-2.377243090951151883e-01
1.059999999999999970e-01,-1.150134731090713403e-01,-1.082925322711511956e-01,-1.380542592877382346e-01
1.069999999999999979e-01,-7.176786182989594587e-02,-2.197942146059140289e-01,-1.266451752253770491e-01
1.079999999999999988e-01,-2.623222850245677251e-01,-2.315707095158965334e-01,-8.196986394677217846e-02
1.089999999999999997e-01,-3.099661075986324676e-01,-1.224689281854512285e-01,-1.141781172084275625e-01
1.100000000000000006e-01,-2.444806092352836968e-01,6.126954735212944425e-02,-1.840731081919732559e-01
1.110000000000000014e-01,-6.947828883109156972e-02,1.693946556742323972e-01,-1.842504997164558789e-01
1.120000000000000023e-01,1.014200144110243146e-01,1.397481344816411952e-01,-1.437701490337291999e-01
1.130000000000000032e-01,1.217146781951933682e-01,5.538276583895317823e-02,1.114915384165980020e-03
1.140000000000000041e-01,8.259446270932693790e-02,4.398809845184736139e-02,9.156668262255995838e-02
1.150000000000000050e-01,2.441461474091537534e-02,2.210636329786381526e-01,5.333622823881218472e-02
1.160000000000000059e-01,1.121999980908583716e-01,3.404737856251625061e-01,2.187536594818480619e-04
1.170000000000000068e-01,2.883626292551782488e-01,2.949018865923341282e-01,2.073314977918885513e-02
1.179999999999999938e-01,4.064698926629942699e-01,1.693118425054331300e-01,1.351207405114015214e-01
1.189999999999999947e-01,3.410388110402208794e-01,3.807379016773491942e-02,2.508416497604894491e-01
1.199999999999999956e-01,1.440467941345517922e-01,2.595537884947278842e-02,2.221074306397613218e-01
1.209999999999999964e-01,4.962934884301166416e-02,8.382526168642270847e-02,1.414776054269185068e-01
1.219999999999999973e-01,9.324833278433770911e-02,1.454578901369570909e-01,5.150559170178393292e-02
1.229999999999999982e-01,1.793473816194219861e-01,2.707851076187635722e-02,3.886756993143120065e-02
1.239999999999999991e-01,1.326300993650287585e-01,-1.392573824259007997e-01,6.091711434828664395e-02
1.250000000000000000e-01,-3.376632418654763879e-02,-3.056983230066502299e-01,1.320142518683583288e-01
1.260000000000000009e-01,-2.064112970565154248e-01,-2.081682872605488677e-01,3.269430076845626643e-02
1.270000000000000018e-01,-2.888067468478799915e-01,-1.155152699133933231e-01,-7.342105488683887959e-02
1.280000000000000027e-01,-2.293482445769458589e-01,-9.824571331621288761e-02,-1.227900176186947218e-01
1.290000000000000036e-01,-9.748239377606043865e-02,-1.834045546486430811e-01,-1.461477032502081497e-01
1.300000000000000044e-01,-1.275369956994613641e-01,-2.763122391072460049e-01,-1.269119389193257563e-01
1.310000000000000053e-01,-2.393050131469537101e-01,-2.724627531183639872e-01,-4.490214288802193976e-02
1.320000000000000062e-01,-3.583080303964575331e-01,-1.148654138470543151e-01,-1.162239366613664615e-01
1.330000000000000071e-01,-2.965141859012525583e-01,3.334525373474685889e-02,-1.872319815528042386e-01
1.340000000000000080e-01,-1.366996668741353449e-01,1.000493002067507770e-01,-2.353223713366471570e-01
1.350000000000000089e-01,7.979317771121717529e-02,2.892004608453650066e-02,-1.747040324765201935e-01
1.360000000000000098e-01,8.886228611410851297e-02,-3.426658019211745176e-02,-3.819484640395536673e-02
1.370000000000000107e-01,2.306457532401118629e-02,9.594019116624832866e-02,5.873813695136669011e-02
1.380000000000000115e-01,1.588463353965872266e-02,1.992978309443225182e-01,6.446646398210973197e-03
1.390000000000000124e-01,1.385706429847807231e-01,3.033087410622979929e-01,-1.598843630253214340e-02
1.400000000000000133e-01,3.209714559421125157e-01,3.011576749811580855e-01,-3.442868165302547662e-02
1.409999999999999865e-01,3.828832711867181660e-01,1.366814824173869514e-01,7.810009619098436107e-02
1.419999999999999873e-01,3.032392509105024114e-01,8.286772488925568669e-02,2.026997693870153661e-01
1.429999999999999882e-01,1.376452589549902461e-01,5.071300440438928497e-02,2.547659960015181135e-01
1.439999999999999891e-01,7.884241385709508942e-02,1.684547577096701942e-01,1.741689918129838421e-01
1.449999999999999900e-01,1.753103566198525309e-01,1.617446324235130573e-01,7.774921914193355654e-02
1.459999999999999909e-01,2.842488918791238883e-01,4.575045762688721013e-02,6.718345959778630749e-02
1.469999999999999918e-01,2.272307883828031949e-01,-1.580858759199416375e-01,9.960295867497959144e-02
1.479999999999999927e-01,2.597679636152527838e-02,-2.468728710600781306e-01,1.806269897824523407e-01
1.489999999999999936e-01,-1.492750161821820298e-01,-1.471085505745420297e-01,1.121147725740020973e-01
1.499999999999999944e-01,-2.552009694748540447e-01,-6.467594727604715488e-02,3.383690722441707113e-03
1.509999999999999953e-01,-1.952071671015623011e-01,-9.964239012681685992e-02,-9.539789851211651073e-02
1.519999999999999962e-01,-1.126884246048905636e-01,-2.361163290720712238e-01,-1.172403964187976599e-01
1.529999999999999971e-01,-1.593204552543063812e-01,-3.184119242779355208e-01,-9.787734323204469455e-02
1.539999999999999980e-01,-3.080974616249479436e-01,-2.746383113653161345e-01,-4.233453411141696598e-02
1.549999999999999989e-01,-3.950470137670334947e-01,-1.187813349691140136e-01,-3.516599434347644770e-02
1.559999999999999998e-01,-2.955514752141992774e-01,2.622491952000761961e-02,-1.826716563454504894e-01
1.570000000000000007e-01,-1.559366117416772224e-01,4.791555748131633152e-02,-2.437303375673972039e-01
1.580000000000000016e-01,4.831111358441066150e-02,-3.470226126473872214e-02,-1.816417853928808668e-01
1.590000000000000024e-01,4.772068499378352702e-02,-3.942159413294616527e-02,-1.043711356053107081e-01
1.600000000000000033e-01,-9.915121515265568064e-02,5.255394582639114076e-02,-2.878914516815332669e-02
1.610000000000000042e-01,-7.563247989965231344e-02,2.421136728140952099e-01,-6.924409930216744420e-05
1.620000000000000051e-01,6.846816303187897024e-02,2.838307947631227846e-01,-6.779908844224501185e-02
1.630000000000000060e-01,2.730544583802519965e-01,2.477706392431197613e-01,-7.197919869166716222e-02
1.640000000000000069e-01,3.839245361852620109e-01,1.427720292681039782e-01,-3.361758260772055706e-03
1.650000000000000078e-01,3.044516241928554856e-01,7.584925795767838430e-02,1.286422784954640020e-01
1.660000000000000087e-01,1.567960146647977004e-01,1.256625607276120882e-01,2.592877434874097942e-01
1.670000000000000095e-01,1.193128664762258123e-01,2.235619921554445055e-01,1.660398156156789318e-01
1.680000000000000104e-01,2.088775841011755174e-01,1.770703079542943759e-01,6.344796617520970239e-02
1.690000000000000113e-01,2.751010638884980875e-01,4.194340344703976348e-02,1.000298970779068403e-01
1.700000000000000122e-01,2.538546211757251592e-01,-1.510670413500854181e-01,1.171712434869029845e-01
1.710000000000000131e-01,6.371746936059111133e-02,-1.793119402765459836e-01,1.807441196081565060e-01
1.719999999999999862e-01,-1.384587281985829033e-01,-1.073174922860717084e-01,1.992403843777749151e-01
1.729999999999999871e-01,-1.765511312300065139e-01,-6.930575307065685309e-02,7.114833404943751716e-02
1.739999999999999880e-01,-1.006406789572007882e-01,-1.170107738786144713e-01,-2.828730541362709308e-02
1.749999999999999889e-01,-2.785811860642146975e-02,-2.677875399332080297e-01,-1.348395747244146570e-01
1.759999999999999898e-01,-1.124940147487319825e-01,-3.632023757702907418e-01,-4.862666469962592664e-02
1.769999999999999907e-01,-3.137925843589299268e-01,-2.381777439777355010e-01,-2.798667120681475051e-02
1.779999999999999916e-01,-3.818989440266271629e-01,-9.200329689607071593e-02,-6.831058794578503957e-02
1.789999999999999925e-01,-3.757332497098063162e-01,-7.202602073656401947e-03,-1.050549108106079987e-01
1.799999999999999933e-01,-1.520401026216604556e-01,2.566247052047340195e-03,-2.260016683367193080e-01
1.809999999999999942e-01,-3.618522525925652045e-02,-1.046829035482439441e-01,-2.367968837820391137e-01
1.819999999999999951e-01,-2.277307430157943582e-02,-8.152024844606088616e-02,-1.492771890012411506e-01
1.829999999999999960e-01,-1.424610213713967399e-01,8.604723776026612647e-02,-4.650532271049592770e-02
1.839999999999999969e-01,-1.449979376544581200e-01,2.435073536188845089e-01,-7.304963464619257385e-03
1.849999999999999978e-01,1.504163022238490417e-02,2.560367666002725251e-01,-7.850857565718424858e-02
1.859999999999999987e-01,2.529056763774705785e-01,2.349592092004405830e-01,-9.469709795212401249e-02
1.869999999999999996e-01,3.094700778591734647e-01,6.370447798233049019e-02,-3.203033558759747074e-02
1.880000000000000004e-01,2.548290252285735358e-01,6.214391334621655744e-02,1.003852500285766364e-01
1.890000000000000013e-01,1.108649526631370480e-01,2.136220705585576696e-01,1.785320617949391897e-01
1.900000000000000022e-01,8.186563282595984981e-02,2.737384776483091642e-01,1.991942120465691191e-01
1.910000000000000031e-01,2.191601271990970823e-01,1.871553033445395309e-01,8.164145101847589125e-02
1.920000000000000040e-01,3.334737062822563658e-01,1.717770426449058072e-02,7.977366483876971448e-02
1.930000000000000049e-01,3.107698544960753040e-01,-1.002004217621187410e-01,1.268305079479618291e-01
1.940000000000000058e-01,1.068428767564484350e-01,-1.033075065284530247e-01,1.931616229960994580e-01
1.950000000000000067e-01,-8.715128349200305935e-02,-3.397113586629422338e-02,1.942500957682589680e-01
1.960000000000000075e-01,-1.135165560368601029e-01,-2.652164701300005738e-03,1.278013438654425071e-01
1.970000000000000084e-01,-4.319647081749036083e-02,-1.561837124528979437e-01,2.039510034617147277e-02
1.980000000000000093e-01,2.777499267662216637e-02,-2.858317043881072328e-01,-8.967082171759602205e-02
1.990000000000000102e-01,-8.565277101705372209e-02,-3.354496573637824608e-01,-4.114308655192047692e-02
2.000000000000000111e-01,-2.707292258214916703e-01,-2.338384432729585238e-01,-2.444682533674264954e-02
2.010000000000000120e-01,-4.285500777571529252e-01,-7.712628639031998690e-02,-3.420223511769919511e-02
2.020000000000000129e-01,-3.379901656725838310e-01,-1.149054794970356778e-02,-1.140108466744380877e-01
2.030000000000000138e-01,-1.861119364786023855e-01,-5.169253461426986246e-02,-2.181244372638763418e-01
2.039999999999999869e-01,-4.964940005698695313e-02,-1.664500763364211988e-01,-2.321341976679723307e-01
2.049999999999999878e-01,-1.315079540385182821e-01,-8.749015191877126951e-02,-1.420046709485541792e-01
2.059999999999999887e-01,-1.486308438142642796e-01,6.717277637140176005e-02,-7.310598324417126592e-02
2.069999999999999896e-01,-1.883775499849612012e-01,2.350501869408671562e-01,-3.053972050922310749e-02
2.079999999999999905e-01,-2.169368737825780324e-02,2.263496984804902745e-01,-1.031029288495109442e-01
2.089999999999999913e-01,1.822580466934617671e-01,1.568581529868060820e-01,-1.448574602809080680e-01
2.099999999999999922e-01,2.820715344924498713e-01,1.200813775753000051e-01,-9.425051101009808419e-02
2.109999999999999931e-01,2.540172828134593108e-01,1.167262219000377438e-01,4.934662570049971886e-03
2.119999999999999940e-01,9.514930665339228766e-02,2.528468488688358495e-01,1.391783604970149024e-01
2.129999999999999949e-01,1.229010362513719562e-01,3.232588618112238188e-01,1.321053105122906024e-01
2.139999999999999958e-01,2.487450670635505678e-01,2.360735124963763698e-01,9.099222904430845360e-02
2.149999999999999967e-01,3.960319899798124266e-01,4.719647412463143232e-02,3.426740472012993616e-02
2.159999999999999976e-01,3.519593293900649122e-01,-1.103801308917396057e-01,1.025757542217353852e-01
2.169999999999999984e-01,1.895146305165998080e-01,-3.547231739145566970e-02,1.830458054931338452e-01
2.179999999999999993e-01,-3.869292652618425143e-02,2.040853395284277991e-02,2.435196255496601403e-01
2.190000000000000002e-01,-6.437847805299583281e-02,-4.782402888411925457e-03,1.464187256973123741e-01
2.200000000000000011e-01,2.118547070578571598e-02,-1.504349442648413582e-01,7.237726978435463088e-02
2.210000000000000020e-01,7.822039399108679514e-02,-2.644778653671246427e-01,-2.264057933310274426e-02
2.220000000000000029e-01,-6.616605064641735423e-02,-3.136730683087882166e-01,-1.802708000841973801e-02
2.230000000000000038e-01,-2.360236865508213433e-01,-1.885644956598439004e-01,2.905185899476722677e-02
2.240000000000000047e-01,-3.743821782730426539e-01,-9.319264056374404470e-02,-1.704814745323651043e-02
2.250000000000000056e-01,-3.369537226932950991e-01,-5.581393491957926251e-02,-8.061003582668345435e-02
2.260000000000000064e-01,-1.681287502403726319e-01,-1.731866798319353917e-01,-1.701016872052485418e-01
2.270000000000000073e-01,-1.003205220614636489e-01,-2.083512568478135263e-01,-2.158805945141751004e-01
2.280000000000000082e-01,-1.627886578291817821e-01,-1.198398277194639844e-01,-1.827771476915989457e-01
2.290000000000000091e-01,-2.957508598799073463e-01,7.776538751986744602e-02,-6.159067937749170690e-02
2.300000000000000100e-01,-2.319493127583197034e-01,1.800243534356534003e-01,-5.901473391003553282e-02
2.310000000000000109e-01,-8.341593211142740716e-02,1.990711984921462174e-01,-1.330427210321683262e-01
2.320000000000000118e-01,1.666326379983339434e-01,9.184854524846745860e-02,-1.901326989046019378e-01
2.330000000000000127e-01,2.411624152759642148e-01,6.349032933275267077e-02,-1.147782586273511235e-01
2.340000000000000135e-01,2.015650744202461819e-01,1.414846123164801017e-01,-4.965881044713205822e-02
2.349999999999999867e-01,7.620050222705415655e-02,3.039290530943421498e-01,8.422777802150027693e-02
2.359999999999999876e-01,9.999264648649060228e-02,3.061417224639714219e-01,1.141742048050529146e-01
2.369999999999999885e-01,2.355105268843351862e-01,1.926198028473949109e-01,6.391629485393478249e-02
2.379999999999999893e-01,3.404609226154881041e-01,-1.040392253912283439e-02,6.225613035252677147e-02
2.389999999999999902e-01,3.401836069691069331e-01,-2.170337368760225441e-02,6.277319469435446719e-02
2.399999999999999911e-01,1.887828222240215403e-01,6.852400546215582644e-02,1.969201942985592535e-01
2.409999999999999920e-01,3.378891927047438654e-02,6.757474895628960698e-02,2.423781308865154971e-01
2.419999999999999929e-01,-4.564051133232104561e-03,2.845564376797655309e-02,2.259288340707222287e-01
2.429999999999999938e-01,9.310784797044294181e-02,-1.337385131140205186e-01,1.107143711221871690e-01
2.439999999999999947e-01,1.233194072232097066e-01,-3.015703664280433016e-01,2.722422779929262529e-02
2.449999999999999956e-01,2.672058569614144119e-02,-2.542599475825230715e-01,3.204838208985928607e-03
2.459999999999999964e-01,-2.194902143048531318e-01,-1.673796962323610416e-01,5.286911418377059774e-02
2.469999999999999973e-01,-3.247024125560331043e-01,-9.503078967265650434e-02,8.747033232574147332e-02
2.479999999999999982e-01,-2.865585214317924456e-01,-1.173842956515800257e-01,8.245106341002610465e-05
2.489999999999999991e-01,-1.908618244519835749e-01,-2.479297101346510657e-01,-1.298345992591633524e-01
2.500000000000000000e-01,-1.190450449406402628e-01,-2.078731352784533026e-01,-2.099547736042391421e-01
2.510000000000000009e-01,-2.190312091613074441e-01,-1.257031023134518866e-01,-1.909263358569276425e-01
2.520000000000000018e-01,-3.018726101820684016e-01,5.399186103074556098e-02,-9.868058004854499132e-02
2.530000000000000027e-01,-2.852702931399400121e-01,1.738860343607496750e-01,-4.277487914023255650e-02
2.540000000000000036e-01,-1.466121548238307482e-01,1.030386707858915174e-01,-1.323480523524487029e-01
2.550000000000000044e-01,8.506519049150715328e-02,-1.786194110937069706e-03,-1.890602749008028771e-01
2.560000000000000053e-01,1.365470625513751923e-01,7.509330982133269328e-02,-1.573445848214115594e-01
2.570000000000000062e-01,1.512991197995435522e-01,1.925002912461523386e-01,-5.936144598155491253e-02
2.580000000000000071e-01,3.244200045351541828e-02,3.196969623989747711e-01,5.269781462232382002e-02
2.590000000000000080e-01,7.774064434761356057e-02,3.052870038738168534e-01,1.225739204835236684e-01
2.600000000000000089e-01,2.482477077234630514e-01,1.915255436828828262e-01,5.970768586769684833e-02
2.610000000000000098e-01,3.825860542363509476e-01,2.521367794341877397e-02,3.193073866380861242e-02
2.620000000000000107e-01,3.705230814844620579e-01,1.627802559106482014e-02,3.193892317386671370e-02
2.630000000000000115e-01,2.429747954531453480e-01,1.239873658970267051e-01,1.066638522773311060e-01
2.640000000000000124e-01,7.734938367855863361e-02,1.382722196095090839e-01,2.399740091464017400e-01
2.650000000000000133e-01,4.905855923726352985e-02,3.018242969077312987e-02,2.425149609123734284e-01
2.660000000000000142e-01,1.348415410523861879e-01,-1.864322894412926424e-01,1.358083448609098409e-01
2.670000000000000151e-01,1.862844978649425554e-01,-2.255415168917770108e-01,4.755571635925755214e-02
2.680000000000000160e-01,4.618369875913600625e-02,-1.921379695519533637e-01,2.691432752507914167e-02
2.690000000000000169e-01,-1.995419223636551165e-01,-9.940469803612375643e-02,1.168693422515455493e-01
2.700000000000000178e-01,-2.859299144692333261e-01,-5.639023410797074087e-02,1.131535576516380925e-01
2.710000000000000187e-01,-2.977195320312738813e-01,-1.810964464764873993e-01,2.412348468812549121e-02
2.720000000000000195e-01,-1.574679150449792009e-01,-2.868910301008148478e-01,-7.321604878456305920e-02
2.730000000000000204e-01,-1.083141708310417645e-01,-2.282626557490125552e-01,-1.930624445820518509e-01
2.740000000000000213e-01,-2.115988842159687855e-01,-1.156020341200433010e-01,-1.713619511484038016e-01
2.750000000000000222e-01,-3.352008256531989749e-01,5.197337042773633731e-02,-1.186506113099759230e-01
2.760000000000000231e-01,-3.464033265636838888e-01,9.196105240178779894e-02,-5.223177752226861037e-02
2.770000000000000240e-01,-2.157655138785229409e-01,4.174046287979669284e-02,-7.133919800114112142e-02
2.780000000000000249e-01,4.226237211963553009e-02,1.163392589170414134e-03,-1.922983110717098321e-01
2.790000000000000258e-01,8.792950721521407276e-02,8.266222586096276526e-02,-2.287395066217534634e-01
2.800000000000000266e-01,6.875723546226311655e-02,2.250186096726647933e-01,-1.106240453477055630e-01
2.810000000000000275e-01,-1.013317120664984292e-02,3.306807236294710961e-01,2.777446300801711485e-03
2.819999999999999729e-01,5.150938834944338712e-02,2.617954666650052498e-01,4.055754602136323050e-02
2.829999999999999738e-01,2.409001430635138719e-01,1.361514908206190588e-01,4.455689634379198655e-02
2.839999999999999747e-01,4.106426980862832865e-01,4.838015556151072094e-02,-2.759193037895643283e-02
2.849999999999999756e-01,3.755648378927061715e-01,1.154709421422386167e-01,-7.437141840781401336e-02
2.859999999999999765e-01,2.284222778456408698e-01,1.406853081709701636e-01,1.028402686503700619e-01
2.869999999999999774e-01,5.510222716635392731e-02,1.551382912243500223e-01,2.132451094324242236e-01
2.879999999999999782e-01,1.013975127017548716e-01,1.078917767383598576e-02,2.120766972406966655e-01
2.889999999999999791e-01,2.542888170798927594e-01,-1.423873561384126907e-01,1.481080114536614534e-01
2.899999999999999800e-01,2.159893826916110815e-01,-2.120701609651534092e-01,5.969146075729444417e-02
2.909999999999999809e-01,1.117212212238107016e-01,-1.634093019589065165e-01,6.863458953625876935e-02
2.919999999999999818e-01,-9.909956150399548691e-02,-7.866584648643176747e-02,1.191697431892174419e-01
2.929999999999999827e-01,-2.667448762289301167e-01,-1.174204478888888487e-01,1.533935864883512468e-01
2.939999999999999836e-01,-2.303012748028350765e-01,-2.034231689809060939e-01,9.928842844601297457e-02
2.949999999999999845e-01,-1.171368277632432314e-01,-3.383130532447374827e-01,-3.591278232121202733e-03
2.959999999999999853e-01,-1.073879211808164980e-01,-2.846493109510376818e-01,-1.420566677784427245e-01
2.969999999999999862e-01,-2.333559895469232981e-01,-1.346105021428951609e-01,-1.256357524299019923e-01
2.979999999999999871e-01,-3.760407717798899818e-01,1.760660788093376672e-02,-8.031999267294988309e-02
2.989999999999999880e-01,-3.576087798193139378e-01,2.188928122871262524e-02,-3.719202729824685333e-02
2.999999999999999889e-01,-2.116914726973100347e-01,-5.031931329788039836e-02,-1.026714220015451234e-01
3.009999999999999898e-01,-1.891462974109412234e-02,-2.603244354891402074e-02,-2.018182890713876576e-01
3.019999999999999907e-01,4.627904404021804252e-02,5.252858273654055499e-02,-2.214002819255856680e-01
3.029999999999999916e-01,7.653029768277953674e-06,2.452048734108231709e-01,-1.741371352784279736e-01
3.039999999999999925e-01,-1.260329986780685807e-01,3.087557375229227352e-01,-6.857852972489064669e-02
3.049999999999999933e-01,-2.742340275780543596e-02,2.533686963039382678e-01,3.344682676353263190e-03
3.059999999999999942e-01,1.898672841089844021e-01,1.130849327932411663e-01,-1.043252535251738833e-02
3.069999999999999951e-01,3.664201240977852936e-01,9.483666435732264477e-02,-8.517500062946704864e-02
3.079999999999999960e-01,3.586604302785473264e-01,1.201381074743778782e-01,-4.890274136674527261e-02
3.089999999999999969e-01,2.133785858815526459e-01,2.134289436249864613e-01,5.420544062359198417e-02
3.099999999999999978e-01,1.236678599755240693e-01,1.940773679876271196e-01,1.895301421791938945e-01
3.109999999999999987e-01,1.584849715293147887e-01,2.640274396699880677e-02,2.223392526326076202e-01
3.119999999999999996e-01,2.654070089029748059e-01,-1.558355687132821077e-01,1.858466185946413551e-01
3.130000000000000004e-01,2.973586725309724788e-01,-1.825354162129974867e-01,6.482869889412180842e-02
3.140000000000000013e-01,1.691246527595118010e-01,-1.161534810441762211e-01,8.435338439885693707e-02
3.150000000000000022e-01,-9.818298226757325720e-02,-6.126494122845056040e-02,1.089409755840445998e-01
3.160000000000000031e-01,-2.185649854307588069e-01,-1.027178541767001796e-01,2.002154016727112629e-01
3.170000000000000040e-01,-1.416480296243080861e-01,-2.770541821046312303e-01,1.629376360335605955e-01
3.180000000000000049e-01,-8.358459820897885806e-02,-3.240266846927221667e-01,3.329740392882749034e-02
3.190000000000000058e-01,-9.521237339505712882e-02,-2.241734265045947638e-01,-8.808053771725979364e-02
3.200000000000000067e-01,-2.281017985114228153e-01,-1.303740230647068843e-01,-1.124839251202014029e-01
3.210000000000000075e-01,-3.577791187847530474e-01,-7.917125426625310283e-03,-5.931129921719158898e-02
3.220000000000000084e-01,-3.824375432679572029e-01,2.307365418488752790e-03,1.322649634032653336e-02
3.230000000000000093e-01,-2.524219093582919515e-01,-7.622739335758027535e-02,-6.671284298137576674e-02
3.240000000000000102e-01,-5.750500309198753462e-02,-8.180903589086989391e-02,-1.721443337604998680e-01
3.250000000000000111e-01,2.806697427334760298e-02,6.944332659856411460e-02,-2.747848161824146263e-01
3.260000000000000120e-01,-9.014571879701410717e-02,2.439555770131932866e-01,-2.574393448586677624e-01
3.270000000000000129e-01,-1.418255228567434911e-01,2.869458748446894192e-01,-9.942972977913537569e-02
3.280000000000000138e-01,-7.676979743151299274e-02,2.072793630094998396e-01,-2.116840611019310883e-02
3.290000000000000147e-01,1.407057979739332332e-01,1.042355872907617526e-01,-4.466784340815414117e-02
3.300000000000000155e-01,3.134382141370707364e-01,1.293469381372190363e-01,-9.634828150945454195e-02
3.310000000000000164e-01,3.236041485574149279e-01,2.090476619085023802e-01,-9.726102597193714283e-02
3.320000000000000173e-01,2.042274145451427603e-01,2.402728806664342909e-01,-2.848787798979094191e-02
3.330000000000000182e-01,1.225434222748658791e-01,2.061090900192045494e-01,1.291583134825528834e-01
3.340000000000000191e-01,1.907043909134163717e-01,-2.090821905155909512e-03,1.929911094514117909e-01
3.350000000000000200e-01,3.301080591406594933e-01,-1.446055886714350536e-01,1.551891353804510099e-01
3.360000000000000209e-01,3.484678750899903310e-01,-1.148588901037653764e-01,7.147562891894852777e-02
3.370000000000000218e-01,1.907097213137703418e-01,-2.632392605712968736e-02,3.898700843163279556e-02
3.380000000000000226e-01,-1.686736231095547697e-02,-2.597913282415043046e-02,1.143424681587397879e-01
3.390000000000000235e-01,-1.237291122588096981e-01,-1.234419080533203372e-01,2.070546462952166933e-01
3.400000000000000244e-01,-8.962169758602150926e-02,-2.772701346315138426e-01,2.265889017540915762e-01
3.410000000000000253e-01,-3.006776051945719147e-02,-3.209425797092343990e-01,1.256101731416067180e-01
3.420000000000000262e-01,-3.733690636018667519e-02,-2.367115146126556324e-01,-3.393783529456580877e-02
3.430000000000000271e-01,-1.805623189824532016e-01,-7.516440411767531804e-02,-7.253452250303206450e-02
3.439999999999999725e-01,-3.532358444640492645e-01,-4.545516794146966383e-02,-5.906695788760175231e-02
3.449999999999999734e-01,-3.951298139026628298e-01,-7.003047477126367326e-02,-3.194878771209340267e-03
3.459999999999999742e-01,-2.398973626882966448e-01,-1.374710947138046702e-01,-7.116782118333268847e-03
3.469999999999999751e-01,-9.749826511186880651e-02,-8.442660164636545117e-02,-1.134910307284483916e-01
3.479999999999999760e-01,-7.005503562447780441e-02,1.092110880883148255e-01,-2.300574109691546909e-01
3.489999999999999769e-01,-1.461883475301750668e-01,2.112335344671821546e-01,-2.358814532680751641e-01
3.499999999999999778e-01,-1.915332133340734710e-01,2.486712320368685003e-01,-1.353308889772509016e-01
3.509999999999999787e-01,-1.554310514315398462e-01,1.349358917929461554e-01,-7.374557600034141458e-02
3.519999999999999796e-01,1.079576077433864190e-01,8.063697937334150800e-02,-7.644702035969500042e-02
3.529999999999999805e-01,2.856753977654964416e-01,1.382909117660906517e-01,-9.025765339663135989e-02
3.539999999999999813e-01,2.653320670699764738e-01,2.581938531149911564e-01,-1.413127437631545302e-01
3.549999999999999822e-01,1.591347860536024839e-01,2.762488289463572166e-01,-1.028173590457807790e-01
3.559999999999999831e-01,1.123535984655293085e-01,1.587197235018939778e-01,4.729365708623224640e-02
3.569999999999999840e-01,1.955321854922672797e-01,-1.064786084879844113e-04,1.599408364403484828e-01
3.579999999999999849e-01,3.116933464408892518e-01,-7.982271039990358752e-02,1.352505671573439872e-01
3.589999999999999858e-01,3.635917568017855150e-01,-4.684616524473277782e-02,9.865617436035734045e-02
3.599999999999999867e-01,2.307672765941516657e-01,1.690372229732671136e-02,6.091750415698090476e-02
3.609999999999999876e-01,6.878598035059732552e-02,-9.803364524944280928e-03,1.094843260577025856e-01
3.619999999999999885e-01,-9.477812701078136559e-02,-1.801045257757045159e-01,1.884860980709931744e-01
3.629999999999999893e-01,-4.739133051090290566e-02,-3.242999490442143307e-01,2.292332532146945101e-01
3.639999999999999902e-01,6.298564572295163588e-02,-2.992256486937372451e-01,1.861520071040275170e-01
3.649999999999999911e-01,3.629883331254920437e-02,-2.002363210853505548e-01,3.443262173513174373e-02
3.659999999999999920e-01,-1.517036072462451257e-01,-7.741174494621012869e-02,-5.672302569916880949e-02
3.669999999999999929e-01,-3.431223681679358428e-01,-7.579382943453731591e-02,-2.450307585232215993e-02
3.679999999999999938e-01,-4.069568721530147370e-01,-1.518918259736106169e-01,4.633249563860269288e-02
3.689999999999999947e-01,-2.472117613554960791e-01,-2.068362266536630523e-01,-3.060917680769083705e-03
3.699999999999999956e-01,-9.771774598567936621e-02,-1.170744641444099593e-01,-1.075113021379000278e-01
3.709999999999999964e-01,-6.763969252163670731e-02,8.079585011945111805e-02,-1.864516549823352909e-01
3.719999999999999973e-01,-2.164765413758588386e-01,2.157935561125285395e-01,-2.128636773681508165e-01
3.729999999999999982e-01,-2.678679517243846564e-01,1.943904609006292528e-01,-1.423322552209641267e-01
3.739999999999999991e-01,-2.085227929506930089e-01,1.122108014580128904e-01,-1.063358614958883758e-01
3.750000000000000000e-01,3.441328836454132789e-02,8.348582369581281082e-02,-4.132846910098484511e-02
3.760000000000000009e-01,2.358197833817044231e-01,1.824805102333330320e-01,-1.134937998035405460e-01
3.770000000000000018e-01,2.257232705961203512e-01,3.052259265840448488e-01,-1.965581322920781637e-01
3.780000000000000027e-01,1.486838145852644455e-01,3.195327924098794736e-01,-1.242372820088245983e-01
3.790000000000000036e-01,8.645341760305261247e-02,1.716506273304835573e-01,1.063820583680818305e-02
3.800000000000000044e-01,1.816128454238420953e-01,9.436121901726809980e-03,1.067646411306343995e-01
3.810000000000000053e-01,3.855920707466021224e-01,-4.616510264339049319e-02,1.324983914333782431e-01
3.820000000000000062e-01,4.112596546195892988e-01,-1.540207476446078631e-02,9.730933705712727089e-02
3.830000000000000071e-01,2.525418161397798844e-01,5.196616029660764552e-02,6.960485152823521829e-03
3.840000000000000080e-01,6.229750528225832390e-02,1.274560125497639466e-02,9.066886388784956008e-02
3.850000000000000089e-01,-4.833381857243909847e-03,-1.740382089943545985e-01,1.871586408886871944e-01
3.860000000000000098e-01,6.362079405961821969e-03,-2.735898703576365443e-01,2.676826140628455475e-01
3.870000000000000107e-01,1.217791605803193455e-01,-2.861323096335542382e-01,1.917980183357847757e-01
3.880000000000000115e-01,7.356403574349704155e-02,-1.730081697681366271e-01,8.772411808880774264e-02
3.890000000000000124e-01,-1.570778884810260234e-01,-8.438406325557180898e-02,3.143967041442119470e-02
3.900000000000000133e-01,-3.351551246242284732e-01,-1.419176715103947217e-01,-1.782564559711572599e-03
3.910000000000000142e-01,-3.824788168605534611e-01,-2.162853276565480376e-01,6.957213417704302683e-02
3.920000000000000151e-01,-2.500073750776928283e-01,-2.257509712461406859e-01,3.403566739625239063e-02
3.930000000000000160e-01,-8.542148628552036216e-02,-1.151974796865747469e-01,-2.579248402050062991e-02
3.940000000000000169e-01,-1.474818095909712079e-01,7.942862999094232879e-02,-1.780298346181985458e-01
3.950000000000000178e-01,-2.747679412503848395e-01,1.510450708199443104e-01,-2.190215205702041035e-01
3.960000000000000187e-01,-3.399903000961785327e-01,1.161486058189876852e-01,-1.735296253418539547e-01
3.970000000000000195e-01,-2.186744432233320157e-01,5.184586057575300139e-02,-8.989351002158937898e-02
3.980000000000000204e-01,-1.500342806046808938e-03,7.251455077914061020e-02,-7.484208762408213478e-02
3.990000000000000213e-01,1.967834129663390830e-01,2.018236812630444799e-01,-1.389412138792873175e-01
4.000000000000000222e-01,1.652399251216953302e-01,3.096930693007137747e-01,-2.196875897622940499e-01
4.010000000000000231e-01,9.028802089038345802e-02,3.026457903529686799e-01,-1.749415252585488079e-01
4.020000000000000240e-01,5.012386915455981778e-02,1.937570044692759619e-01,-6.924847705338893489e-02
4.030000000000000249e-01,1.870881064586177311e-01,2.992770639577825229e-03,5.666652281492990523e-02
4.040000000000000258e-01,3.557732760768648195e-01,2.376567499130544450e-02,1.035159740619944063e-01
4.050000000000000266e-01,4.012559181486274884e-01,1.082726434507130936e-01,5.256251349790263400e-02
4.060000000000000275e-01,3.108212956083073464e-01,1.362300235826281458e-01,1.233233202296671631e-03
4.069999999999999729e-01,7.956917087154558033e-02,2.822710573593073188e-02,4.660452617587883956e-02
4.079999999999999738e-01,2.588489954161200118e-02,-1.826249237667955938e-01,1.626416235285993717e-01
4.089999999999999747e-01,8.057907305085670879e-02,-2.880864677192595535e-01,2.426351147238992589e-01
4.099999999999999756e-01,1.853115468735442861e-01,-1.970007396962154544e-01,1.902043279735428360e-01
4.109999999999999765e-01,1.350247985709928933e-01,-9.748396029253880712e-02,1.326794640684504645e-01
4.119999999999999774e-01,-9.548964302999837783e-02,-8.350065708414977639e-02,4.248764079990535736e-02
4.129999999999999782e-01,-2.786883383374340051e-01,-1.915157777522385751e-01,2.515312918708272408e-02
4.139999999999999791e-01,-3.493555566914234300e-01,-2.438387237948313746e-01,7.634288496734477347e-02
4.149999999999999800e-01,-2.120257546746242283e-01,-2.369446354399116217e-01,1.124270393707737931e-01
4.159999999999999809e-01,-1.211720356070752208e-01,-1.101313542973644810e-01,2.834654067922269538e-02
4.169999999999999818e-01,-1.188375708284629823e-01,8.213754979722699689e-02,-8.694637686219301720e-02
4.179999999999999827e-01,-3.319038747946310708e-01,9.944812225344139278e-02,-1.803009156376301214e-01
4.189999999999999836e-01,-3.672579564918871942e-01,5.815618558351989126e-02,-1.927633239536244991e-01
4.199999999999999845e-01,-2.820517756380049867e-01,1.682975040108605769e-02,-5.936677259145167057e-02
4.209999999999999853e-01,-6.054780763682943850e-02,8.180635821861795276e-02,-7.695746763358818354e-02
4.219999999999999862e-01,9.779995174309787098e-02,2.640684447591917783e-01,-1.505783850351410935e-01
4.229999999999999871e-01,7.709718546096083758e-02,2.807197712798961686e-01,-2.086161644666441328e-01
4.239999999999999880e-01,2.146024059784666649e-02,2.573676406679258899e-01,-2.392385378468160906e-01
4.249999999999999889e-01,-3.537478921391712383e-02,1.297200771026165156e-01,-1.497440380201613408e-01
4.259999999999999898e-01,1.245734024033267467e-01,6.820108173415298514e-02,-1.908402580772744148e-02
4.269999999999999907e-01,3.039530555410371315e-01,6.927268056638848093e-02,6.391151330398278652e-02
4.279999999999999916e-01,4.069094890199893011e-01,1.551295043485609870e-01,2.922171016956772588e-02
4.289999999999999925e-01,3.268758283671346909e-01,1.372513707734139554e-01,-2.377778620310908378e-02
4.299999999999999933e-01,1.280965933816249902e-01,-1.921036839884135428e-02,3.556634341513349035e-02
4.309999999999999942e-01,4.435665492895142503e-02,-1.647606890912388933e-01,1.187935345452986180e-01
4.319999999999999951e-01,1.609588169041639982e-01,-2.451367329010167018e-01,1.992592149753593944e-01
4.329999999999999960e-01,2.320645583680106538e-01,-1.724062542057773206e-01,2.254064645621781937e-01
4.339999999999999969e-01,1.644965776796841195e-01,-6.325633392934397470e-02,1.213992836219301291e-01
4.349999999999999978e-01,-2.450547024537892346e-02,-8.439813909977299244e-02,4.455283014338346642e-02
4.359999999999999987e-01,-2.017233517915739405e-01,-2.257959663107452775e-01,5.524338553910867339e-02
4.369999999999999996e-01,-2.640343168647276140e-01,-3.180527883957927626e-01,1.152276706995929850e-01
4.380000000000000004e-01,-1.937215901151362329e-01,-2.680493861670254496e-01,1.537948892436150072e-01
4.390000000000000013e-01,-9.061372086376524859e-02,-9.960418741436613543e-02,1.292630254446715810e-01
4.400000000000000022e-01,-1.633300142876151773e-01,5.591900122062012229e-02,-5.088430284529741471e-02
4.410000000000000031e-01,-3.356155355233519932e-01,2.984081440879336397e-02,-1.503434778132912708e-01
4.420000000000000040e-01,-3.929929249389221835e-01,-1.149285624421554630e-02,-1.391422509034590804e-01
4.430000000000000049e-01,-2.633433490340656991e-01,-5.353441941359964734e-02,-7.276386214187959001e-02
4.440000000000000058e-01,-1.112074491975962032e-01,7.317698630309091290e-02,-6.021401359178703283e-02
4.450000000000000067e-01,4.616240082634466557e-02,2.548199538723721069e-01,-1.089633762103323494e-01
4.460000000000000075e-01,4.984486251324565798e-02,3.292800681531639073e-01,-2.025248920950704357e-01
4.470000000000000084e-01,-6.647523044574010775e-02,2.383273445796596224e-01,-2.384824618518521511e-01
4.480000000000000093e-01,-4.042703973007856499e-02,1.354761827722644474e-01,-1.268240823007132090e-01
4.490000000000000102e-01,1.172838171081736630e-01,1.101572418128284325e-01,-1.526598075626290664e-02
4.500000000000000111e-01,2.569128191687512497e-01,1.797843219337024734e-01,1.289564044045842482e-02
4.510000000000000120e-01,4.016982433106924821e-01,2.310129561188924985e-01,2.302300507120240425e-02
4.520000000000000129e-01,3.092451396655838680e-01,1.780953683684529942e-01,-7.261775551580947063e-02
4.530000000000000138e-01,1.415397344103213606e-01,-3.440672051184229946e-02,-9.007474169315137988e-03
4.540000000000000147e-01,1.193756045845369707e-01,-1.436459418604247307e-01,8.001315326013778984e-02
4.550000000000000155e-01,2.218647214751151842e-01,-2.025898057824599141e-01,1.637527829879200647e-01
4.560000000000000164e-01,2.954329026474431519e-01,-1.015851542323520373e-01,2.475462060189521363e-01
4.570000000000000173e-01,2.053822978215956718e-01,-3.805162859433131040e-02,1.312187405570761078e-01
4.580000000000000182e-01,1.378055994763165495e-03,-1.421120166254840889e-01,9.785224791517559140e-02
4.590000000000000191e-01,-1.507982449925528157e-01,-2.869928718768717246e-01,1.089100331011794431e-01
4.600000000000000200e-01,-2.039087614511134738e-01,-3.248969596519076797e-01,1.280722052640374808e-01
4.610000000000000209e-01,-1.072583719219774578e-01,-2.395016647491619577e-01,2.083059056620898963e-01
4.620000000000000218e-01,-6.570159076185549951e-02,-8.357151499790015092e-02,1.566756268716154310e-01
4.630000000000000226e-01,-1.241311068570810638e-01,6.230248882104490876e-03,4.848450652279455084e-03
4.640000000000000235e-01,-3.048020676915435545e-01,-5.607583964609291760e-02,-9.337766795106691720e-02
4.650000000000000244e-01,-3.648617009814432155e-01,-7.661235414202328953e-02,-1.079731374179979803e-01
4.660000000000000253e-01,-3.262324378880852582e-01,-7.263946014290523223e-02,-5.488122015596359066e-02
4.670000000000000262e-01,-1.080681672808860433e-01,9.519046486783674932e-02,-4.566525044938511690e-02
4.680000000000000271e-01,1.484065169031758939e-02,2.535525864878480640e-01,-9.631670067852074468e-02
4.689999999999999725e-01,-2.994777533015957269e-02,3.087670056843810906e-01,-1.466072902160537594e-01
4.699999999999999734e-01,-1.321790225737706492e-01,1.744488134049435035e-01,-2.651736523775560794e-01
4.709999999999999742e-01,-1.078391267564380307e-01,9.893858471499064611e-02,-1.967860032227751188e-01
4.719999999999999751e-01,7.213662004288455554e-02,1.019055258366702715e-01,-1.070364243882303834e-01
4.729999999999999760e-01,2.630537355969566615e-01,1.876942614222965322e-01,-1.530573134709662178e-02
4.739999999999999769e-01,3.471902321053499940e-01,2.516100833522155189e-01,-6.981943259501063870e-03
4.749999999999999778e-01,2.723902089198241283e-01,1.897114908951717527e-01,-8.410802433240126275e-02
4.759999999999999787e-01,1.364931255022004408e-01,8.265999574159911892e-03,-1.158242018046217736e-01
4.769999999999999796e-01,9.873871859876616475e-02,-1.079953081460284514e-01,1.413077994381468656e-03
4.779999999999999805e-01,2.448714104339971553e-01,-1.269609200198894561e-01,1.189768888859494417e-01
4.789999999999999813e-01,3.439342694150966939e-01,-3.360659087133655021e-02,2.197062012574412526e-01
4.799999999999999822e-01,2.701548369514677472e-01,-3.650558842568884382e-02,1.789816595150444389e-01
4.809999999999999831e-01,7.768569407283582029e-02,-1.531345920357895241e-01,9.257958818760597675e-02
4.819999999999999840e-01,-1.538588857765809670e-01,-2.908465455266400213e-01,8.102090632040984119e-02
4.829999999999999849e-01,-1.325397578834648926e-01,-3.441515591011018449e-01,1.658934058116288413e-01
4.839999999999999858e-01,-4.918510799346330342e-02,-2.019951348684833337e-01,1.535185911266430669e-01
4.849999999999999867e-01,4.641453591247720299e-03,-1.067828047168183914e-01,2.076852585132211437e-01
4.859999999999999876e-01,-1.324891013739802337e-01,-1.982761288285809706e-02,9.596579188487379397e-02
4.869999999999999885e-01,-3.310647183762146506e-01,-8.742331327647019645e-02,-1.252638764583051574e-02
4.879999999999999893e-01,-3.896394865734366664e-01,-1.290509333827476457e-01,-5.686382171585325357e-02
4.889999999999999902e-01,-3.316139746153229928e-01,-7.815215616068393878e-02,-3.618163281834253786e-02
4.899999999999999911e-01,-1.271833466478091423e-01,6.688868606027296992e-02,-2.153182045711765115e-03
4.909999999999999920e-01,-3.344274000699596489e-02,2.225277995593170910e-01,-1.441615873447024687e-02
4.919999999999999929e-01,-1.121894268074570128e-01,2.641768152422599991e-01,-1.096580018741940415e-01
4.929999999999999938e-01,-1.747549981206154568e-01,1.495623900180235444e-01,-2.746887541197595151e-01
4.939999999999999947e-01,-1.800598153472776630e-01,8.384041642766071334e-02,-2.157038248976604899e-01
4.949999999999999956e-01,5.739741813267165878e-03,1.638812424966337167e-01,-1.138108349832923638e-01
4.959999999999999964e-01,2.328845759181354391e-01,2.642534097277840499e-01,-4.588495813305486226e-02
4.969999999999999973e-01,2.951950595549180933e-01,2.819439925855624640e-01,-9.537863263319582008e-02
4.979999999999999982e-01,2.361285265146838841e-01,1.653436103038456451e-01,-1.414138022381437043e-01
4.989999999999999991e-01,1.042887846790915146e-01,1.406357310507150987e-02,-1.369798139042468221e-01
5.000000000000000000e-01,1.601604652788084227e-01,-9.434136297115040815e-02,-3.848799838465427614e-02
5.010000000000000009e-01,2.511024146716369643e-01,-3.397627174178548259e-02,6.969577212480931871e-02
5.020000000000000018e-01,4.177112741863197032e-01,9.975103614613916973e-04,1.624420448389841676e-01
5.030000000000000027e-01,3.071953137313035431e-01,7.955263303470395042e-04,1.809997507539487516e-01
5.040000000000000036e-01,1.199220229467653359e-01,-1.666545134211364076e-01,1.170188517545059370e-01
5.050000000000000044e-01,-6.392756487081599492e-02,-2.955170796977262815e-01,8.139337897204472483e-02
5.060000000000000053e-01,-8.512731912227398945e-02,-3.159803232016784036e-01,1.363358285377244128e-01
5.070000000000000062e-01,8.197613938207157225e-03,-1.946492805272462268e-01,1.986568630446931827e-01
5.080000000000000071e-01,3.272745231781511166e-02,-7.612966275416793716e-02,2.027449974074256867e-01
5.090000000000000080e-01,-1.271356221463125769e-01,-6.583763739772541257e-02,1.460686465414139101e-01
5.100000000000000089e-01,-3.083538593969961661e-01,-1.950672911041504420e-01,1.645512694079859922e-02
5.110000000000000098e-01,-3.865583610031081419e-01,-1.904144380739578590e-01,-4.392077500009081842e-02
5.120000000000000107e-01,-3.170225326848254421e-01,-8.510122997756759677e-02,-9.775668123904493814e-03
5.130000000000000115e-01,-1.483002425569757698e-01,1.221799937009930420e-01,3.658473929507037592e-02
5.140000000000000124e-01,-6.755477110080140846e-02,2.221660322253055375e-01,-1.039886638463352435e-02
5.150000000000000133e-01,-1.332472658739964344e-01,2.096342121956193405e-01,-1.034858970906383929e-01
5.160000000000000142e-01,-2.473185278525810160e-01,1.337973672097904632e-01,-1.873605503981694842e-01
5.170000000000000151e-01,-1.854493660899062812e-01,8.129307686513813358e-02,-2.241043541557294905e-01
5.180000000000000160e-01,-2.339662545175833636e-02,1.724622521306698186e-01,-1.508847293313016757e-01
5.190000000000000169e-01,2.154828121724243484e-01,2.658798824041431197e-01,-7.150756275886004099e-02
5.200000000000000178e-01,2.507251806205332834e-01,3.292875837542946771e-01,-6.343719621441133716e-02
5.210000000000000187e-01,1.841077091384776820e-01,2.145770749632358032e-01,-1.279904038676621947e-01
5.220000000000000195e-01,9.315767503319055676e-02,7.634188039482369716e-03,-1.550036308581006494e-01
5.230000000000000204e-01,1.149445464505039344e-01,-5.578265961823471782e-04,-1.336760320462917484e-01
5.240000000000000213e-01,2.667439135325520017e-01,2.956973429349637767e-03,5.102952726914698062e-02
5.250000000000000222e-01,4.530947123070028781e-01,5.986999586243908072e-02,1.624851332792425496e-01
5.260000000000000231e-01,3.471176767667990548e-01,-5.376827834462854540e-03,1.229262498947117921e-01
5.270000000000000240e-01,1.482280851006657352e-01,-1.674698311220116365e-01,5.894516330912066143e-02
5.280000000000000249e-01,5.018453443793651110e-03,-2.826026919736095988e-01,6.888542149450968544e-02
5.290000000000000258e-01,-1.677839902222627577e-02,-2.701166837658245945e-01,9.294872470754596272e-02
5.300000000000000266e-01,7.032171128076196431e-02,-1.454946275404774558e-01,1.693466221973793095e-01
5.310000000000000275e-01,9.342831956875893851e-02,-1.075885333251181269e-01,2.558090817143565676e-01
5.320000000000000284e-01,-5.081798880589365880e-02,-8.427913797126414253e-02,1.655881075307112649e-01
5.330000000000000293e-01,-2.637226961393726588e-01,-2.364064631841387432e-01,4.800435246389372218e-02
5.340000000000000302e-01,-3.728381031031092196e-01,-2.232349882659655782e-01,-3.886422031477637651e-02
5.350000000000000311e-01,-2.956652627831224955e-01,-7.046571635152555635e-02,4.176948895464438483e-03
5.360000000000000320e-01,-1.892389959981961023e-01,6.334465797855218239e-02,6.800010559862902648e-02
5.370000000000000329e-01,-1.015718186841127468e-01,1.488516227795534386e-01,6.529216717963692851e-02
5.380000000000000338e-01,-1.962022559190433335e-01,1.721941494568325626e-01,-1.947639791817367197e-02
5.390000000000000346e-01,-3.076599394321001824e-01,5.036176587381706315e-02,-1.959711639116532012e-01
5.400000000000000355e-01,-2.718335422109392496e-01,7.965784608580717130e-02,-2.319197087079729880e-01
5.410000000000000364e-01,-6.375440679535923638e-02,2.347883280718894849e-01,-1.598667284489938556e-01
5.420000000000000373e-01,1.389218597429467683e-01,3.169699092889115000e-01,-8.398689485053111026e-02
5.430000000000000382e-01,1.835118541548653726e-01,2.559312880711907545e-01,-7.387491368106062495e-02
5.440000000000000391e-01,1.107390756959067968e-01,1.333030840517042126e-01,-1.016855501818963586e-01
5.450000000000000400e-01,2.530521019364164598e-02,1.446939273319543424e-02,-2.238497873570094721e-01
5.460000000000000409e-01,1.320470795039614953e-01,4.047518936706274995e-02,-1.618084456530882453e-01
5.470000000000000417e-01,2.752048402931938642e-01,1.085850434661914388e-01,-4.979820435413589291e-02
5.480000000000000426e-01,4.400140026820851258e-01,1.436464305469991598e-01,1.024292728244987488e-01
5.490000000000000435e-01,3.931702900191764716e-01,2.678309936373644840e-02,1.368188136376652930e-01
5.500000000000000444e-01,2.050020857612199765e-01,-1.509688415205469314e-01,5.344952897661865016e-03
5.510000000000000453e-01,7.289750643989816037e-02,-3.114189347511587269e-01,1.418956967381289694e-02
5.520000000000000462e-01,3.906990861757658057e-02,-2.516830481403381503e-01,6.104392843045466227e-02
5.530000000000000471e-01,1.055756803756045248e-01,-1.259730327714979059e-01,1.879344867678794384e-01
5.540000000000000480e-01,1.610908217817296206e-01,-1.027112367928565972e-01,2.488916318543687445e-01
5.550000000000000488e-01,-2.634181719403299801e-02,-1.696579069434240861e-01,2.115973977042955589e-01
5.560000000000000497e-01,-2.042907935762732496e-01,-2.748680644979800691e-01,7.440171074852960920e-02
5.570000000000000506e-01,-3.516586158539961593e-01,-2.304078333079659646e-01,2.903920437319712174e-04
5.580000000000000515e-01,-2.791329961497227008e-01,-1.132826907499104724e-01,5.241148411393857509e-02
5.590000000000000524e-01,-1.461888448090679915e-01,8.506245218596661384e-02,1.173774171545612366e-01
5.600000000000000533e-01,-1.017923830434631638e-01,1.052801551011436354e-01,1.010968806865745889e-01
5.610000000000000542e-01,-2.383565221451429961e-01,6.602518125786062397e-02,-1.698545383788859289e-02
5.620000000000000551e-01,-3.350925758843318891e-01,-2.023275465263938561e-02,-1.376653937950748086e-01
5.629999999999999449e-01,-2.958845140908895055e-01,5.941319462019241382e-02,-2.153824716515586046e-01
5.639999999999999458e-01,-1.260853082619058096e-01,2.300078218389319251e-01,-1.905315663147595373e-01
5.649999999999999467e-01,7.391305439611371708e-02,3.635821014531388506e-01,-1.003257985271986535e-01
5.659999999999999476e-01,1.178791415285110888e-01,2.978898621884155107e-01,-7.106125818707689779e-02
5.669999999999999485e-01,8.044447635426979493e-02,1.178229207464022155e-01,-1.518574117095719822e-01
5.679999999999999494e-01,-8.288011529839937191e-03,5.936455880467621932e-02,-1.923947264897641340e-01
5.689999999999999503e-01,5.364338167732080748e-02,1.013016550101740326e-01,-2.039470744082146347e-01
5.699999999999999512e-01,2.545593340909850233e-01,1.291365470350041011e-01,-1.137270800223472017e-01
5.709999999999999520e-01,4.373746623547384860e-01,1.359147187946442570e-01,-6.740092208398051465e-04
5.719999999999999529e-01,3.719429753991421728e-01,-3.094842054123726066e-02,5.677445815012376745e-02
5.729999999999999538e-01,1.659497496843924391e-01,-1.783227260644921208e-01,4.277461336213430991e-03
5.739999999999999547e-01,3.778062903966842440e-02,-2.537594319968349832e-01,-2.508293940376831246e-02
5.749999999999999556e-01,1.092719767421772709e-01,-1.802495855081595877e-01,2.118881792117343135e-02
5.759999999999999565e-01,1.717299630385347442e-01,-8.497263627039201850e-02,1.675228154774806855e-01
5.769999999999999574e-01,2.072275443884200596e-01,-1.356843209405854678e-01,2.471502856931789560e-01
5.779999999999999583e-01,4.971818007794338162e-02,-1.913464380580820190e-01,2.216522607266537825e-01
5.789999999999999591e-01,-1.708072420833265936e-01,-2.847010894378161905e-01,1.215710180023659714e-01
5.799999999999999600e-01,-3.188447694151483880e-01,-2.474750022725884513e-01,5.014715312922078672e-02
5.809999999999999609e-01,-2.292086579710570504e-01,-7.193156714361707837e-02,6.076045633219578912e-02
5.819999999999999618e-01,-1.364965123212313614e-01,7.995474417597711603e-02,1.273276354211733685e-01
5.829999999999999627e-01,-1.196798083879104663e-01,6.848595156971509779e-02,1.361882651912611208e-01
5.839999999999999636e-01,-2.496622301095464125e-01,-3.673944963208100253e-03,8.084082050352937865e-02
5.849999999999999645e-01,-3.689927091195699393e-01,-3.961236569931448313e-03,-8.453268462994818766e-02
5.859999999999999654e-01,-3.432570383276791204e-01,9.110445881668992330e-02,-1.972105198993575892e-01
5.869999999999999662e-01,-1.645074864984187868e-01,2.546173020000426779e-01,-1.041390579246335713e-01
5.879999999999999671e-01,2.884724489947732354e-02,3.112778246851507502e-01,-2.554662095771087493e-02
5.889999999999999680e-01,6.994337035589623386e-02,2.460838932561767167e-01,-6.412991814720805928e-02
5.899999999999999689e-01,7.999700951922913972e-03,1.230044284646241853e-01,-1.217189644541719906e-01
5.909999999999999698e-01,-7.514998324173093047e-02,4.992243798648090397e-02,-1.871956649572222020e-01
5.919999999999999707e-01,9.674257371476891257e-03,1.136899107272466708e-01,-2.324466210911999564e-01
5.929999999999999716e-01,2.650983973659462034e-01,1.876390293118531116e-01,-1.579549298011517777e-01
5.939999999999999725e-01,3.783939840331252413e-01,1.582131932954680686e-01,-3.670643183064007525e-02
5.949999999999999734e-01,3.323832245241028494e-01,-2.166072650722501020e-02,2.989665700494810452e-02
5.959999999999999742e-01,1.969284912504978002e-01,-1.562712421912230421e-01,9.161609505309377052e-03
5.969999999999999751e-01,7.652196426337755375e-02,-1.834503124556701448e-01,-4.288438056957345063e-02
5.979999999999999760e-01,1.165586429888852971e-01,-1.025231778326435722e-01,-2.540229961659902849e-02
5.989999999999999769e-01,2.540505866827907910e-01,-8.026951043645043360e-02,6.965467084544983700e-02
5.999999999999999778e-01,2.661141848098975138e-01,-1.050685272258576330e-01,1.953358878096781714e-01
6.009999999999999787e-01,8.377243165249546875e-02,-2.769109657600611341e-01,2.456771677783246288e-01
6.019999999999999796e-01,-1.399899763725852009e-01,-2.856002613870614604e-01,1.414716212299674536e-01
6.029999999999999805e-01,-2.304625577725673280e-01,-2.445781870743572450e-01,6.157853161918847018e-02
6.039999999999999813e-01,-1.767010533942411643e-01,-7.350033175887435433e-02,3.790507301777101823e-02
6.049999999999999822e-01,-1.128758793638222208e-01,3.953625259615566739e-02,1.012228978923080114e-01
6.059999999999999831e-01,-8.631922082630733017e-02,5.847714044622617617e-03,2.075635135571234913e-01
6.069999999999999840e-01,-2.538197803854120860e-01,-5.201602228376766418e-02,1.190438671678573229e-01
6.079999999999999849e-01,-3.915204072550653724e-01,-2.055580871329599352e-02,-8.538871674742294984e-03
6.089999999999999858e-01,-3.624643465186117575e-01,1.188020147363332141e-01,-8.973710283154778811e-02
6.099999999999999867e-01,-1.780938860421426018e-01,2.187024056032010333e-01,-1.599473434377837733e-01
6.109999999999999876e-01,-2.797202748312742696e-02,2.876764400356721096e-01,-6.332717723215298966e-02
6.119999999999999885e-01,1.742780129113904661e-03,2.103692073710490829e-01,-3.814240931941610679e-02
6.129999999999999893e-01,-7.280087075439393984e-02,9.280522919173538055e-02,-9.186968850533587527e-02
6.139999999999999902e-01,-1.074662242857869487e-01,1.070268533751792678e-01,-1.827546429313937626e-01
6.149999999999999911e-01,-1.497552203819236226e-02,1.933430190303216945e-01,-2.542751433370690761e-01
6.159999999999999920e-01,2.021541923945333608e-01,2.631847831453895115e-01,-1.736770816407182672e-01
6.169999999999999929e-01,3.433706497849754458e-01,1.617220966413847050e-01,-8.368130235024812125e-02
6.179999999999999938e-01,3.148808097099744518e-01,-3.087948457562956703e-02,-3.197957312980437977e-02
6.189999999999999947e-01,1.873004776631847779e-01,-1.656206473458431694e-01,-4.308509275449278614e-02
6.199999999999999956e-01,8.841294373882709057e-02,-1.293298833484966548e-01,-7.435807189820596574e-02
6.209999999999999964e-01,1.759151684313798591e-01,-9.172373831409531830e-02,-4.822888968386129793e-02
6.219999999999999973e-01,3.402435817113744765e-01,-1.211323639482611743e-02,3.482268528216925924e-02
6.229999999999999982e-01,3.119278254428459740e-01,-1.244764710520747525e-01,1.345072831690155846e-01
6.239999999999999991e-01,1.328143183462348331e-01,-2.852170059889977405e-01,2.263264561711018641e-01
6.250000000000000000e-01,-8.788231889176828515e-02,-3.340482957957707222e-01,1.743298429368806968e-01
6.260000000000000009e-01,-1.973122707785511243e-01,-2.227016935509162909e-01,9.624980885480104165e-02
6.270000000000000018e-01,-1.072569765968711120e-01,-6.144496369381104856e-02,2.972825203564297136e-02
6.280000000000000027e-01,-3.761239282088054553e-02,-1.300074918913254364e-02,1.102435952039108880e-01
6.290000000000000036e-01,-5.731642680871383566e-02,-6.482423212216685549e-02,2.055549702452492411e-01
6.300000000000000044e-01,-2.245526205423874488e-01,-1.301242598779917270e-01,1.809358133149795711e-01
6.310000000000000053e-01,-3.902171445164928087e-01,-8.733283024723112464e-02,6.063873967487925370e-02
6.320000000000000062e-01,-3.892967828988300738e-01,8.955135913779900536e-02,-4.012597041173374124e-02
6.330000000000000071e-01,-1.957422194738665799e-01,2.519720371434593931e-01,-1.233377642576487937e-01
6.340000000000000080e-01,-5.244939416524357217e-02,2.350979085557760306e-01,-4.999796313608215886e-02
6.350000000000000089e-01,-5.545936490483801412e-02,1.382566542939698273e-01,-2.592432898679245326e-02
6.360000000000000098e-01,-1.484977750601389201e-01,9.927744088581362536e-02,-2.485158077431839224e-02
6.370000000000000107e-01,-2.316775676972810949e-01,1.343930910736635953e-01,-1.848909538966402866e-01
6.380000000000000115e-01,-6.596016358607974250e-02,2.517805639215994207e-01,-2.713668014903404258e-01
6.390000000000000124e-01,1.975054608189539540e-01,3.085579964592311542e-01,-2.486278028616895341e-01
6.400000000000000133e-01,3.031262697702278852e-01,1.833412264310735618e-01,-6.963619748652814800e-02
6.410000000000000142e-01,2.840178238844117686e-01,1.333501360850483132e-03,-6.116526597886505663e-03
6.420000000000000151e-01,1.553450156297311313e-01,-9.329395932303349848e-02,-3.316405829240989811e-02
6.430000000000000160e-01,9.694404628271456603e-02,-8.001808366905645287e-02,-1.259063774934883195e-01
6.440000000000000169e-01,2.266896984768827783e-01,3.238380563645663901e-02,-1.329125143921533470e-01
6.450000000000000178e-01,3.234836853951020830e-01,-3.385636633840336668e-02,-1.349326116210963940e-02
6.460000000000000187e-01,3.605066564246310890e-01,-1.582153628633333198e-01,7.799189063802440536e-02
6.470000000000000195e-01,2.031672242561234076e-01,-2.740059674231288267e-01,1.835082874258794072e-01
6.480000000000000204e-01,-7.904566596776359038e-04,-2.903845590701795154e-01,1.478451072627885166e-01
6.490000000000000213e-01,-1.045142254235968959e-01,-1.829376236396997590e-01,1.160756150597283126e-01
6.500000000000000222e-01,-9.098278995894540366e-02,-4.333587230438212812e-02,4.074585091950681109e-02
6.510000000000000231e-01,8.926781689154270061e-03,-6.932898849343081815e-02,1.044434790319765105e-01
6.520000000000000240e-01,-6.271211976399841681e-03,-1.689534716143096249e-01,2.069415506240137315e-01
6.530000000000000249e-01,-2.376631288186895619e-01,-1.807634742618013379e-01,2.106273245159852592e-01
6.540000000000000258e-01,-3.818503900968475695e-01,-6.366886521372036589e-02,1.051930830219344332e-01
6.550000000000000266e-01,-3.677845230376163288e-01,1.025671563760018057e-01,8.728487125991250470e-03
6.560000000000000275e-01,-2.524207012270504036e-01,2.280592252575350531e-01,-5.043176146225262363e-02
6.570000000000000284e-01,-8.644321434051979725e-02,1.735970070214007677e-01,-8.786835371890417551e-03
6.580000000000000293e-01,-1.096368009730452758e-01,1.476140034381050736e-01,4.048177635852972384e-02
6.590000000000000302e-01,-1.908830594047643547e-01,9.627345277242968513e-02,5.589450623999125956e-03
6.600000000000000311e-01,-2.540277708903428411e-01,1.738050257849071134e-01,-1.140820238954661781e-01
6.610000000000000320e-01,-1.319704839995371470e-01,3.053551387373727999e-01,-1.941791518348212064e-01
6.620000000000000329e-01,1.300013493368473161e-01,2.997474064833709484e-01,-2.280293659125925132e-01
6.630000000000000338e-01,2.778926633584780093e-01,1.821442863494885933e-01,-1.731710922431577704e-01
6.640000000000000346e-01,1.791680016651827911e-01,-8.208392561095722087e-03,-5.089069764169382865e-02
6.650000000000000355e-01,1.175477130531142056e-01,-7.344124560349575559e-02,-8.342382140669384050e-02
6.660000000000000364e-01,8.304052450582219413e-02,7.039155058368267749e-03,-1.401746479239613374e-01
6.670000000000000373e-01,2.080186532220839324e-01,6.977513587507436221e-02,-1.757747762247899581e-01
6.680000000000000382e-01,3.450601183992510479e-01,-1.278257927217961616e-02,-8.405837315302736035e-02
6.690000000000000391e-01,3.628324023106739848e-01,-2.297470484466250240e-01,5.490519305857533700e-02
6.700000000000000400e-01,1.882200533866594527e-01,-3.240061517620664855e-01,1.619728184758035816e-01
6.710000000000000409e-01,5.247496031432553887e-02,-2.627784246633634302e-01,1.456761869083144367e-01
6.720000000000000417e-01,-3.740596339049234026e-02,-1.741257214205862436e-01,8.552256663109056301e-02
6.730000000000000426e-01,1.468833140878322840e-02,-1.049087998141595979e-01,7.016854239906829271e-02
6.740000000000000435e-01,9.147587619136120229e-02,-1.131119052225208338e-01,1.278063812499100893e-01
6.750000000000000444e-01,-3.398587937515309531e-03,-1.583882866687889301e-01,2.373497463111163830e-01
6.760000000000000453e-01,-1.983104724113144424e-01,-2.002530256794951280e-01,2.165909101406464921e-01
6.770000000000000462e-01,-3.647415165713143170e-01,-1.137025950365599808e-01,1.614747969729387334e-01
6.780000000000000471e-01,-3.746603542292109013e-01,1.016973087545626209e-01,4.412094248167035271e-02
6.790000000000000480e-01,-1.806382723023494397e-01,1.836236467864644506e-01,-3.744640539473247792e-02
6.800000000000000488e-01,-1.140133879042070086e-01,1.700217968710866223e-01,2.663265583750264870e-02
6.810000000000000497e-01,-1.524345775312676843e-01,6.446797874422433017e-02,4.023948840978527897e-02
6.820000000000000506e-01,-2.181437320247052447e-01,4.592249634510696399e-02,5.777269133255603234e-02
6.830000000000000515e-01,-3.108838282846538292e-01,2.049585146854886464e-01,-3.641605670209004109e-02
6.840000000000000524e-01,-1.512967398523088758e-01,3.321499075855195438e-01,-2.053316159016514986e-01
6.850000000000000533e-01,6.474980153833229113e-02,3.103998439286952404e-01,-2.435078362196320401e-01
6.860000000000000542e-01,1.806847559280733428e-01,1.559886708774204933e-01,-1.642951934887971754e-01
6.870000000000000551e-01,2.048718235532542564e-01,-8.515594799583227348e-03,-8.597683077860790446e-02
6.879999999999999449e-01,3.960190661175806009e-02,2.007730735890262547e-02,-7.140516183707754094e-02
6.889999999999999458e-01,7.054992828002536187e-02,1.081306925953708503e-01,-1.262026549328063574e-01
6.899999999999999467e-01,2.294505264485184048e-01,1.022441103255893324e-01,-1.913375257787731931e-01
6.909999999999999476e-01,3.440632282543755749e-01,3.314238311263573676e-03,-1.269888408653074008e-01
6.919999999999999485e-01,3.878448264572544324e-01,-1.771267794223494729e-01,-2.733852511492406920e-02
6.929999999999999494e-01,2.360872027121094507e-01,-2.720000721386128251e-01,7.704493273806090059e-02
6.939999999999999503e-01,9.361957231248785316e-02,-2.387347497872887303e-01,6.395898363484581184e-02
6.949999999999999512e-01,-3.684102781670157284e-03,-1.515989385917270726e-01,-4.148781891940173452e-03
6.959999999999999520e-01,1.190691661548663738e-01,-5.282518046699868908e-02,4.084617568858673470e-02
6.969999999999999529e-01,1.603871142082214929e-01,-1.703811249448475840e-01,7.495254238602572228e-02
6.979999999999999538e-01,6.617594066251160367e-02,-2.452808937748468809e-01,1.801353718353059241e-01
6.989999999999999547e-01,-1.443056823627777430e-01,-2.146351058682808566e-01,2.183638106358357645e-01
6.999999999999999556e-01,-3.133444620161548455e-01,-9.492884550153113388e-02,1.741054720760719654e-01
7.009999999999999565e-01,-3.133818668491791248e-01,8.838006884643639927e-02,7.323431723310491748e-02
7.019999999999999574e-01,-2.131331180463847674e-01,1.478604595260057109e-01,5.159034151994468242e-02
7.029999999999999583e-01,-8.961960264572574331e-02,6.060020860852808472e-02,2.198522566278587539e-02
7.039999999999999591e-01,-1.414762048457367805e-01,-4.922548594900864362e-03,8.814581815702056400e-02
7.049999999999999600e-01,-2.727669824697870893e-01,9.069280988782686681e-02,8.529715860297910901e-02
7.059999999999999609e-01,-3.855276256406381941e-01,2.227569751843481438e-01,-3.830325911958169793e-02
7.069999999999999618e-01,-2.187091759539770974e-01,3.271875661902771126e-01,-1.483027052211970120e-01
7.079999999999999627e-01,1.845932667337968000e-02,2.789736557762114155e-01,-2.073909843927637942e-01
7.089999999999999636e-01,1.321845632273119797e-01,1.200662907503370763e-01,-1.247138250357776035e-01
7.099999999999999645e-01,5.605334233811223865e-02,5.968001123699557230e-03,-9.767466896832327494e-02
7.109999999999999654e-01,4.088382610965044656e-02,5.342108519285957563e-02,-5.528513874681127704e-02
7.119999999999999662e-01,1.343136142854055477e-02,1.268536175665131716e-01,-1.796542985207982834e-01
7.129999999999999671e-01,2.263493962850062213e-01,1.120290539246285022e-01,-2.131587521289201870e-01
7.139999999999999680e-01,4.067373016157411758e-01,-2.930862780649450341e-02,-1.721087362640136842e-01
7.149999999999999689e-01,3.976287119313699492e-01,-1.994474863349632587e-01,-6.325548246873373415e-02
7.159999999999999698e-01,2.513944620046038025e-01,-2.264239653570129795e-01,5.440779871182103988e-02
7.169999999999999707e-01,9.669301341849280418e-02,-2.079525163800861609e-01,6.450733722898287226e-02
7.179999999999999716e-01,7.061124754002752468e-02,-8.133139539766104376e-02,1.600630649817258791e-02
7.189999999999999725e-01,1.680320634273012315e-01,-1.261507642744781332e-01,-2.032886663710014793e-02
7.199999999999999734e-01,2.311673737046253951e-01,-2.074720452654804648e-01,1.002071285589089741e-02
7.209999999999999742e-01,1.314430881169648957e-01,-3.304277097457205548e-01,1.596045872623927941e-01
7.219999999999999751e-01,-1.087550448913841561e-01,-2.255051439359910259e-01,2.787862179568166288e-01
7.229999999999999760e-01,-2.550066631739879019e-01,-8.710359051657913521e-02,2.093130267165454472e-01
7.239999999999999769e-01,-2.987113664780857714e-01,3.547609372542366579e-02,1.385851768444022747e-01
7.249999999999999778e-01,-1.524394070457125716e-01,5.146116777759615624e-02,6.210234361060407160e-02
7.259999999999999787e-01,-9.834922841474716404e-02,8.211309172934048994e-03,3.989748415979985779e-02
7.269999999999999796e-01,-1.929277634241439165e-01,-7.273241850031963995e-02,1.139096292420877371e-01
7.279999999999999805e-01,-2.970271476760004137e-01,6.913473313243649609e-02,1.729203819094933536e-01
7.289999999999999813e-01,-3.438438490809214709e-01,2.179835319937740157e-01,5.859040685976012186e-02
7.299999999999999822e-01,-2.469396490892074303e-01,3.072430506274028139e-01,-8.620008152944835800e-02
7.309999999999999831e-01,-2.750273876266418754e-02,2.399148327143089954e-01,-1.968556125403985169e-01
7.319999999999999840e-01,8.641551941929259684e-02,1.141747161799709087e-01,-1.407502065364090171e-01
7.329999999999999849e-01,2.962034778203207971e-02,5.462142914798774618e-02,-7.082873297241003285e-02
7.339999999999999858e-01,-3.745217233670042334e-02,1.152337059451529339e-01,-1.106245840161052540e-01
7.349999999999999867e-01,-1.757606929407215871e-02,2.023816875716240304e-01,-1.710997384225101670e-01
7.359999999999999876e-01,1.470557583482529074e-01,1.135238388776719093e-01,-2.171950521801753464e-01
7.369999999999999885e-01,3.670912396564156577e-01,-3.302108128567413092e-02,-2.152601733441379117e-01
7.379999999999999893e-01,3.514878132478495565e-01,-1.905187702673255545e-01,-8.931273620910559763e-02
7.389999999999999902e-01,2.586953032874895753e-01,-1.849608426064283939e-01,1.136106203036241387e-02
7.399999999999999911e-01,1.042467797396093299e-01,-1.394556055365339386e-01,3.053880343487903881e-02
7.409999999999999920e-01,1.110927223996769769e-01,-5.426381088906726685e-02,-1.078349262823652920e-02
7.419999999999999929e-01,2.375797811315809305e-01,-8.546102053229756579e-02,-8.347328593560865428e-02
7.429999999999999938e-01,2.584809624855860521e-01,-2.310087165734698578e-01,-7.564912234355132548e-03
7.439999999999999947e-01,1.725076127371484580e-01,-3.332179772496121073e-01,1.273947815517401938e-01
7.449999999999999956e-01,-5.940667624893383736e-02,-2.286812201531532585e-01,2.141142772087208102e-01
7.459999999999999964e-01,-2.233621909511048220e-01,-4.912707352267003252e-02,1.996230342292861226e-01
7.469999999999999973e-01,-2.400994552742866939e-01,1.607714764721283190e-02,1.293742073777985335e-01
7.479999999999999982e-01,-1.249600898051393266e-01,-8.882668140326668502e-03,2.393423611553216479e-02
7.489999999999999991e-01,-8.564402005689321362e-02,-4.486068711231926132e-02,7.408563165129707084e-02
7.500000000000000000e-01,-1.993467462330806572e-01,-5.498338267633198773e-02,1.772166544773870200e-01
7.510000000000000009e-01,-3.553375507609103368e-01,1.015085485453710440e-01,1.941738916956984307e-01
7.520000000000000018e-01,-4.070872126250031919e-01,2.683689173761734104e-01,1.067277108079829756e-01
7.530000000000000027e-01,-2.439775761773561313e-01,2.972984650126077599e-01,-5.104480544553716831e-02
7.540000000000000036e-01,-6.205708928716834744e-02,1.882142368088842999e-01,-1.144240012159565278e-01
7.550000000000000044e-01,2.752888811012499728e-02,9.509919889706724971e-02,-1.028490216313911049e-01
7.560000000000000053e-01,-4.718399987752146946e-02,7.219907074616643827e-02,-4.046602382865122083e-02
7.570000000000000062e-01,-8.685641008607020153e-02,1.756172083767810477e-01,-2.761653917879969972e-02
7.580000000000000071e-01,-7.316065419451381335e-02,2.741254083835710231e-01,-1.126249780219962110e-01
7.590000000000000080e-01,1.439053293271378431e-01,1.476291370124484803e-01,-1.909866864732957525e-01
7.600000000000000089e-01,3.417187044989743461e-01,1.725192967453039947e-02,-2.437665240894464347e-01
7.610000000000000098e-01,3.392097706090680398e-01,-1.389959481977210420e-01,-1.981134879862603837e-01
7.620000000000000107e-01,1.909010078718735848e-01,-1.257742693792575917e-01,-4.401390084290936200e-02
7.630000000000000115e-01,1.181703197969770913e-01,-6.982430481387252863e-02,1.435020769394658620e-02
7.640000000000000124e-01,1.160417138034243179e-01,-4.667805322271682822e-02,3.780036227005419310e-03
7.650000000000000133e-01,2.291994509344537356e-01,-1.708706975604714351e-01,-5.669237507019518618e-02
7.660000000000000142e-01,3.503852323157937709e-01,-2.769052532374447484e-01,-7.389616667551494877e-02
7.670000000000000151e-01,2.145277384868444215e-01,-3.114506561454619127e-01,3.078847425025586088e-02
7.680000000000000160e-01,-3.300580858892839670e-02,-2.533126971817851181e-01,1.808976220089166531e-01
7.690000000000000169e-01,-1.298203618553346039e-01,-7.842228485071628397e-02,2.152555874103040390e-01
7.700000000000000178e-01,-1.808439545234088175e-01,-9.033568958386164333e-03,1.377510195090862199e-01
7.710000000000000187e-01,-7.323061194753270609e-02,-2.687649687460469047e-02,7.660700418439544968e-02
7.720000000000000195e-01,-5.964756248089805868e-02,-1.689233261413892739e-01,6.159640286158612338e-02
7.730000000000000204e-01,-1.686035792598165328e-01,-6.213285228361354467e-02,1.343514906460202829e-01
7.740000000000000213e-01,-3.510926569789678542e-01,1.213341277174462690e-01,2.010204583217386487e-01
7.750000000000000222e-01,-4.097499848129340649e-01,2.490721885870347263e-01,1.349362755043456708e-01
7.760000000000000231e-01,-2.719636231649088520e-01,2.492894697576653606e-01,4.141699404430453091e-02
7.770000000000000240e-01,-9.739577684416454717e-02,1.864942693864586609e-01,-7.264790827683181851e-02
7.780000000000000249e-01,-6.201560440115588824e-02,7.629227321493060876e-02,-9.902840399247239689e-02
7.790000000000000258e-01,-9.202915397528027563e-02,1.140986129313716485e-01,-2.772580398811048258e-02
7.800000000000000266e-01,-1.772193652172176503e-01,2.528358026197610187e-01,-2.820159655511412372e-02
7.810000000000000275e-01,-9.011509362011702051e-02,3.024677348932042764e-01,-5.829801454279357614e-02
7.820000000000000284e-01,5.242512352035808704e-02,1.791314491803349673e-01,-1.585819253597663681e-01
7.830000000000000293e-01,2.942764353100149055e-01,2.400697808348779133e-02,-2.476004110886394494e-01
7.840000000000000302e-01,3.374644537994664906e-01,-1.027442036628955918e-01,-1.936557032168930159e-01
7.850000000000000311e-01,2.240924214347182752e-01,-9.548332660696220997e-02,-1.008024306308538259e-01
7.860000000000000320e-01,9.552453303782994232e-02,-1.378687949368289159e-02,-3.468375228949885369e-02
7.870000000000000329e-01,1.418948183848543210e-01,-5.145473328237253757e-02,-5.361822374822825671e-02
7.880000000000000338e-01,2.826375180503674089e-01,-1.788933132244924507e-01,-1.042171877783831524e-01
7.890000000000000346e-01,3.459823603427201744e-01,-2.905319018205118620e-01,-1.352833959972712108e-01
7.900000000000000355e-01,2.260873682428615750e-01,-3.074057680205369292e-01,4.724397392680089805e-03
7.910000000000000364e-01,3.041486647611316499e-02,-2.221292248535172154e-01,1.248595900556106614e-01
7.920000000000000373e-01,-7.749668707855053573e-02,-9.730015429989512243e-02,1.896917262619820521e-01
7.930000000000000382e-01,-1.125094985628299626e-01,-5.615065460592280622e-02,1.407008381626575488e-01
7.940000000000000391e-01,-6.318726031286380808e-03,-1.599352980774790267e-01,8.140190807389582894e-02
7.950000000000000400e-01,-1.135460626341276615e-03,-1.644185620155374228e-01,5.605036897366962034e-02
7.960000000000000409e-01,-1.803789714988686677e-01,-7.552795961844105399e-02,1.641842309593577187e-01
7.970000000000000417e-01,-3.253980070375285805e-01,8.297962275887725558e-02,1.890174679680496628e-01
7.980000000000000426e-01,-4.188108594340081425e-01,2.150705653391135619e-01,2.234522671709084640e-01
7.990000000000000435e-01,-2.961571056169391425e-01,2.086276866715051637e-01,1.388343501626176646e-01
8.000000000000000444e-01,-1.007672269001862464e-01,9.310579039161516468e-02,-2.320418514560486367e-02
8.010000000000000453e-01,-7.954350843655692838e-02,6.383096870708726556e-02,-4.029888145942277927e-02
8.020000000000000462e-01,-1.206002041692644799e-01,1.868348806324720557e-01,5.291248190194438455e-03
8.030000000000000471e-01,-2.472480036483483412e-01,2.579864029556093175e-01,2.472408490468897685e-02
8.040000000000000480e-01,-1.515487036087821704e-01,2.980422459089561160e-01,-3.134902471772903904e-02
8.050000000000000488e-01,6.111446821239994998e-02,1.627814403695833356e-01,-1.219747891592783545e-01
8.060000000000000497e-01,2.309490961355561700e-01,5.397001259530155408e-03,-2.830451093092128945e-01
8.070000000000000506e-01,2.440555090302636287e-01,-2.950937110139067662e-02,-2.057655449542903081e-01
8.080000000000000515e-01,1.639794278017238094e-01,-3.387467426958446631e-02,-9.093214795055169775e-02
8.090000000000000524e-01,9.406220943696244619e-02,4.865371572480544499e-02,-7.360217280774938864e-02
8.100000000000000533e-01,1.778617430776866515e-01,-3.981717405303613483e-02,-8.368743160334249365e-02
8.110000000000000542e-01,2.915475070789149137e-01,-1.979765898499095123e-01,-1.089404015030453060e-01
8.120000000000000551e-01,3.947261993782357758e-01,-3.138433830592696760e-01,-1.209618581968452539e-01
8.129999999999999449e-01,2.883906469584309740e-01,-2.691346374879458603e-01,-5.098572910614698750e-02
8.139999999999999458e-01,9.897493845267747725e-02,-1.487586727229339434e-01,5.653956311734648077e-02
8.149999999999999467e-01,-3.196639319969962756e-02,-7.738156156264378027e-02,1.658099701173278429e-01
8.159999999999999476e-01,-2.017848083296139641e-02,-8.598922311281186059e-02,1.104825505631802096e-01
8.169999999999999485e-01,3.303658415660905290e-02,-2.043873309137442529e-01,5.349956402022666702e-02
8.179999999999999494e-01,5.803321720559277697e-02,-2.095033204065614996e-01,5.419672447440564839e-02
8.189999999999999503e-01,-1.053394112790418391e-01,-6.054502166195040863e-02,1.167275392466198547e-01
8.199999999999999512e-01,-3.289790213492181370e-01,1.066810830113430475e-01,2.055416185589711842e-01
8.209999999999999520e-01,-3.952131908887918654e-01,1.852774012315131780e-01,2.373314385424254713e-01
8.219999999999999529e-01,-2.742265594459769584e-01,1.279585675950137280e-01,1.467294342120750161e-01
8.229999999999999538e-01,-1.627170204598646086e-01,5.298251202451775832e-02,1.111193114521417079e-02
8.239999999999999547e-01,-9.689062941954550146e-02,4.233173097104419441e-02,-3.666138269179738951e-02
8.249999999999999556e-01,-2.439420039956413655e-01,2.048945725967581677e-01,1.893157295336020049e-02
8.259999999999999565e-01,-2.685475387812142900e-01,3.165194906216694526e-01,9.426019134997142002e-02
8.269999999999999574e-01,-2.152519489799107066e-01,2.637408361240949906e-01,3.487637609450613962e-02
8.279999999999999583e-01,-3.136709463756998800e-02,1.716064748401399942e-01,-8.600572152337478127e-02
8.289999999999999591e-01,1.292454106592579866e-01,9.622119617120162421e-03,-1.728980328619159623e-01
8.299999999999999600e-01,2.256518321383351455e-01,-2.269377412812846259e-02,-2.435402077910027163e-01
8.309999999999999609e-01,1.258326914068097491e-01,7.444138231534740135e-02,-1.355160903872320022e-01
8.319999999999999618e-01,5.865875611474019591e-02,9.356851206344224403e-02,-5.595272515643203576e-02
8.329999999999999627e-01,1.471214744356312554e-01,-1.179017638626079015e-02,-1.115755217313299102e-01
8.339999999999999636e-01,3.424531954677725309e-01,-1.943051392175451086e-01,-1.563428813918078530e-01
8.349999999999999645e-01,3.948360802077826581e-01,-2.682079538723742274e-01,-1.959329642368680680e-01
8.359999999999999654e-01,3.172665670722539244e-01,-2.548596107077685802e-01,-1.535071520612476814e-01
8.369999999999999662e-01,1.384991099309191565e-01,-1.527953168916225402e-01,7.996405131887655143e-03
8.379999999999999671e-01,-6.894884322761650301e-03,-1.004510929066732422e-01,1.101490589899934841e-01
8.389999999999999680e-01,6.004573909825381556e-02,-1.499604640823895552e-01,1.355443891233021891e-01
8.399999999999999689e-01,1.172656518694708411e-01,-2.544204520489832810e-01,7.094674290577480946e-02
8.409999999999999698e-01,1.050114797418676693e-01,-2.091477553868708872e-01,4.197223546092226226e-02
8.419999999999999707e-01,-9.388865207456305317e-02,-8.297362383723302925e-02,5.246580445297768097e-02
8.429999999999999716e-01,-2.919671997966679644e-01,1.170120901065964253e-01,2.130178126938380434e-01
8.439999999999999725e-01,-3.436659426078059743e-01,1.596061730056303474e-01,2.657434544996861714e-01
8.449999999999999734e-01,-2.830843489384949341e-01,8.520799082591279383e-02,1.850247832422342031e-01
8.459999999999999742e-01,-1.053180664782493170e-01,1.659906558219487877e-02,7.346009091936818447e-02
8.469999999999999751e-01,-1.275089624447483805e-01,9.620827159796986605e-02,-1.608030052080052993e-02
8.479999999999999760e-01,-2.449836728433680832e-01,2.219838189474843126e-01,4.645565460765938709e-02
8.489999999999999769e-01,-3.374952306071371533e-01,3.457318573329298261e-01,1.037042870147813628e-01
8.499999999999999778e-01,-2.704999436574478944e-01,2.697244570201937086e-01,7.496318335938213784e-02
8.509999999999999787e-01,-6.053293047706159030e-02,9.596250356202551401e-02,-4.056783853534726841e-02
8.519999999999999796e-01,1.586418954265735870e-01,6.025907575367868418e-02,-1.611493318748543624e-01
8.529999999999999805e-01,1.887295320429885070e-01,5.281119662997550701e-02,-2.381946670571203073e-01
8.539999999999999813e-01,2.195927365552848357e-02,1.127513171695652822e-01,-1.333979058086490199e-01
8.549999999999999822e-01,2.479609291705700547e-02,1.289633263532761198e-01,-4.193738824617208177e-02
8.559999999999999831e-01,1.143063929970560139e-01,-2.276539426869943553e-02,-5.889195574211082695e-02
8.569999999999999840e-01,3.113011493216122916e-01,-1.903267726987698250e-01,-1.772545077708786165e-01
8.579999999999999849e-01,4.440015357778749339e-01,-2.491013491261648838e-01,-2.360233561134152114e-01
8.589999999999999858e-01,3.093483523628378640e-01,-1.610278562391274093e-01,-1.864952552504499927e-01
8.599999999999999867e-01,1.410175731452325554e-01,-1.196051340592602513e-01,-4.382924227518425475e-02
8.609999999999999876e-01,7.198020441059102548e-02,-1.033919502675663266e-01,4.155495582142750000e-02
8.619999999999999885e-01,1.054391048957705745e-01,-1.625040667191383625e-01,7.005368151589298764e-02
8.629999999999999893e-01,1.855001989896918335e-01,-3.071905707438943312e-01,7.865458813758476053e-03
8.639999999999999902e-01,1.687983414241482905e-01,-2.443991410125715691e-01,-2.157689854569596818e-02
8.649999999999999911e-01,-1.902203065580110666e-02,-5.352085288034467286e-02,6.415244025338652512e-02
8.659999999999999920e-01,-2.349485923594418768e-01,8.939417030643755091e-02,1.982315137456081289e-01
8.669999999999999929e-01,-3.441772848286173692e-01,8.517441633266698009e-02,2.079925872597414294e-01
8.679999999999999938e-01,-2.419896963390054390e-01,1.358764572003541213e-02,2.076789305327557400e-01
8.689999999999999947e-01,-1.262582148376308055e-01,-2.521718121589471354e-02,7.648425064945842122e-02
8.699999999999999956e-01,-1.662431348905564488e-01,1.013523066947644435e-01,3.607242846843970036e-02
8.709999999999999964e-01,-2.704031483101396183e-01,2.511782350074084347e-01,6.826461464263569590e-02
8.719999999999999973e-01,-3.901589770599370177e-01,3.000657828517570014e-01,1.199115222898865796e-01
8.729999999999999982e-01,-3.234663460286888448e-01,2.561514806335933869e-01,1.174262893743668740e-01
8.739999999999999991e-01,-1.137671099299091410e-01,9.707865885793250105e-02,3.984830628653193013e-02
8.750000000000000000e-01,7.307090032221220943e-02,7.353824830227248532e-02,-1.156102365899128320e-01
8.760000000000000009e-01,7.939280804384946100e-02,1.213631197179237120e-01,-1.474662696267506901e-01
8.770000000000000018e-01,-1.936569279410881028e-02,1.843437192992234686e-01,-1.195442505448234966e-01
8.780000000000000027e-01,-3.803650805510905286e-02,1.181806661783367934e-01,-3.588337258347198272e-02
8.790000000000000036e-01,7.174994488533122106e-02,-5.680281463596836139e-02,-5.580600379494466551e-02
8.800000000000000044e-01,2.800387398714772047e-01,-1.792772249953316632e-01,-1.377599644574507010e-01
8.810000000000000053e-01,3.885026262009240727e-01,-2.273035296571181418e-01,-2.220362604173231336e-01
8.820000000000000062e-01,3.318000543334612695e-01,-1.253461351192930451e-01,-2.181742648704222687e-01
8.830000000000000071e-01,1.447867066031673366e-01,-6.717507609611612918e-02,-1.242151259441535011e-01
8.840000000000000080e-01,7.426165112123643552e-02,-1.397986971899689568e-01,-8.061065482143633248e-03
8.850000000000000089e-01,1.190733007040033486e-01,-2.583267101682000799e-01,5.077816604608342832e-02
8.860000000000000098e-01,2.723773197281441072e-01,-2.997713429105028360e-01,3.330641514310465380e-03
8.870000000000000107e-01,1.816737936953059518e-01,-2.158105798662988406e-01,-5.785177282508696672e-02
8.880000000000000115e-01,2.325761140437693220e-02,-5.331079413724112981e-02,2.828172058465353023e-02
8.890000000000000124e-01,-1.777624775297146076e-01,4.076684211330721536e-02,1.096936328708054270e-01
8.900000000000000133e-01,-2.132377832614697766e-01,-8.411467409273950396e-04,2.358639055513327143e-01
8.910000000000000142e-01,-2.103630170542966915e-01,-5.226679209337227461e-02,2.158314631664816352e-01
8.920000000000000151e-01,-9.624812387152995030e-02,-3.379746315389127453e-02,1.164458593519523272e-01
8.930000000000000160e-01,-1.313895591546332953e-01,1.103083292562754142e-01,2.961652587658167649e-02
8.940000000000000169e-01,-3.224168424246514064e-01,2.807037484642374570e-01,9.024738746513739918e-02
8.950000000000000178e-01,-3.801022695470073764e-01,2.889899205898817658e-01,1.210666452689677375e-01
8.960000000000000187e-01,-3.466921681615067752e-01,2.148733702962526415e-01,1.571237936043944905e-01
8.970000000000000195e-01,-1.754041854223360730e-01,9.846915364148881022e-02,7.611575892969109358e-02
8.980000000000000204e-01,-3.190879027722350221e-03,1.009864566385942908e-01,-7.727190587206193839e-02
8.990000000000000213e-01,9.939641366161124786e-03,1.542232090590527627e-01,-1.191168907473762195e-01
9.000000000000000222e-01,-6.674215225321766809e-02,2.404359275997266232e-01,-1.292677554074687096e-01
9.010000000000000231e-01,-1.439037769161519709e-01,1.931460188096685016e-01,-7.078482893919312013e-02
9.020000000000000240e-01,5.238854004304135947e-02,-3.741976688229112225e-02,-6.388334680570650903e-02
9.030000000000000249e-01,2.679092910928964066e-01,-1.378000042703212413e-01,-1.340441293069386530e-01
9.040000000000000258e-01,3.382371329683068195e-01,-1.177846551005165554e-01,-1.990762278231427707e-01
9.050000000000000266e-01,3.113844512118789654e-01,-6.593655320365048034e-02,-2.370519018614806184e-01
9.060000000000000275e-01,1.232343484455375032e-01,-5.840780526413187623e-02,-1.714280277776951134e-01
9.070000000000000284e-01,1.085147272394559326e-01,-1.570653759099361335e-01,-8.587949540658940117e-02
9.080000000000000293e-01,1.716295684062057458e-01,-2.970894845281797925e-01,1.319165154372633868e-02
9.090000000000000302e-01,2.748651105863945676e-01,-3.182891522133736717e-01,-5.155355627830095905e-02
9.100000000000000311e-01,2.957366346590558637e-01,-2.099311109877800008e-01,-9.304378038220455227e-02
9.110000000000000320e-01,8.342945845832570873e-02,-6.474756469682538262e-02,-2.267882645860771346e-02
9.120000000000000329e-01,-1.309617578151592576e-01,-2.437887735365246167e-02,6.242567883114445021e-02
9.130000000000000338e-01,-1.745638518454712129e-01,-5.169387817220062048e-02,2.180440462992566664e-01
9.140000000000000346e-01,-8.620716382533041844e-02,-1.078400051828619505e-01,2.105855082966336944e-01
9.150000000000000355e-01,-2.828539340379362596e-02,-4.867849575773750687e-02,1.308157136869231574e-01
9.160000000000000364e-01,-1.179146236543685694e-01,9.980780023518127930e-02,5.956525180905596073e-02
9.170000000000000373e-01,-3.131668468900816737e-01,2.525199619693319630e-01,1.206242818457938654e-01
9.180000000000000382e-01,-3.911417792860506504e-01,2.775076519005159614e-01,1.744511551167015895e-01
9.190000000000000391e-01,-3.244389363031443541e-01,1.423752785403714916e-01,1.566318801895656698e-01
9.200000000000000400e-01,-1.786062184049355128e-01,6.907283124812398090e-02,1.216893588266142467e-01
9.210000000000000409e-01,-5.579188630735594512e-02,1.236549994819612225e-01,5.946261111533799118e-03
9.220000000000000417e-01,-3.694035063956540438e-02,2.363631781114983177e-01,-9.222452219194995915e-02
9.230000000000000426e-01,-1.255438970406847210e-01,2.574943929685824529e-01,-1.105777805886631188e-01
9.240000000000000435e-01,-2.097123952794198998e-01,1.534121820078032938e-01,-5.295107084204268844e-02
9.250000000000000444e-01,-1.400328933617744215e-02,-9.947044960429923463e-03,-3.983086643059766813e-02
9.260000000000000453e-01,1.944086672492972290e-01,-1.019831513398281736e-01,-8.112450447773511542e-02
9.270000000000000462e-01,3.444460467443067886e-01,-8.985775171975411701e-02,-1.892415927272044218e-01
9.280000000000000471e-01,2.812873055140086564e-01,-1.492764324596626384e-02,-2.505684208909350064e-01
9.290000000000000480e-01,1.312636905172545054e-01,-6.241995143545782387e-02,-1.948552048467563635e-01
9.300000000000000488e-01,1.283870349531789912e-01,-1.647024875704427016e-01,-4.433900029589751129e-02
9.310000000000000497e-01,2.082185816296390490e-01,-2.812131353071986584e-01,-1.098784488080717207e-02
9.320000000000000506e-01,3.415712449099505554e-01,-3.284748707927896971e-01,-7.161849493215430296e-02
9.330000000000000515e-01,2.766095913346737767e-01,-1.649164202690765468e-01,-9.520211272928562340e-02
9.340000000000000524e-01,1.335120655596546690e-01,-3.201452291993227284e-02,-1.142994149963986739e-01
9.350000000000000533e-01,-5.737006960521028737e-02,-4.076859807927128015e-02,3.268515839716616689e-02
9.360000000000000542e-01,-1.427366333888761551e-01,-1.529420689703051284e-01,1.762452725393218178e-01
9.370000000000000551e-01,-6.356984595531213478e-02,-1.857392999537651468e-01,1.975650922279130195e-01
9.379999999999999449e-01,3.269913657545661656e-02,-1.008545517935097169e-01,1.514386013338882564e-01
9.389999999999999458e-01,-4.049892737879784432e-02,9.647041392959238015e-02,7.616373273349781592e-02
9.399999999999999467e-01,-2.844349356020173247e-01,2.369032086078695643e-01,7.053355431810001686e-02
9.409999999999999476e-01,-4.158472097947520929e-01,2.539334400347899035e-01,1.882361922265504417e-01
9.419999999999999485e-01,-3.219344750006702949e-01,1.251955837499207358e-01,2.472528804943297798e-01
9.429999999999999494e-01,-1.852538043046867977e-01,7.715490228262122940e-02,1.855000967895712727e-01
9.439999999999999503e-01,-6.574108077430027008e-02,1.935674261881480951e-01,6.039232247871652304e-02
9.449999999999999512e-01,-6.768072818367221188e-02,2.806033312542436930e-01,-5.045133652146098491e-02
9.459999999999999520e-01,-2.307326180720075948e-01,2.701516443344748053e-01,-3.084971198263386505e-02
9.469999999999999529e-01,-2.359760706215004167e-01,1.596660456085739477e-01,-4.711860743195825200e-03
9.479999999999999538e-01,-3.777205427420088357e-02,-1.352385285193910157e-03,3.125907780614533421e-02
9.489999999999999547e-01,1.543636868456770839e-01,-5.242632005610690232e-02,-8.225992961270851833e-02
9.499999999999999556e-01,2.743149178684274880e-01,-4.067999580232711798e-02,-1.751060499380099889e-01
9.509999999999999565e-01,1.912027990599972083e-01,5.122365055467750089e-02,-2.293168372737179050e-01
9.519999999999999574e-01,1.227308363205959069e-01,-4.814909230930207451e-02,-2.058639173437935843e-01
9.529999999999999583e-01,1.144628618981834295e-01,-1.944249601190055632e-01,-8.764788581044651028e-02
9.539999999999999591e-01,2.401908910758265570e-01,-3.227666379796818030e-01,-4.958681704251389349e-02
9.549999999999999600e-01,3.726584816102244679e-01,-3.093595342288524841e-01,-6.180538031214055650e-02
9.559999999999999609e-01,3.385462525907790843e-01,-1.735228661784820881e-01,-1.219582545372020627e-01
9.569999999999999618e-01,1.746742403527976883e-01,-6.761434487011966366e-02,-1.322383838261793620e-01
9.579999999999999627e-01,-1.967960229804523870e-02,-8.393110556029091673e-02,-1.316831492426516481e-02
9.589999999999999636e-01,-6.259948303644499723e-02,-2.066935741556970851e-01,8.381796527884613490e-02
9.599999999999999645e-01,4.158336018883038165e-02,-1.984404457527014221e-01,1.881072027667529400e-01
9.609999999999999654e-01,4.470363792715221357e-02,-8.915706911567550241e-02,1.129396185018640142e-01
9.619999999999999662e-01,-1.338253696753449219e-02,9.708202722284092756e-02,4.629396860522193291e-02
9.629999999999999671e-01,-2.530913622963215648e-01,2.242969515539220693e-01,7.982152597001358763e-02
9.639999999999999680e-01,-3.883771037584652919e-01,1.430375305131343366e-01,1.544558699920264289e-01
9.649999999999999689e-01,-3.492043051461183323e-01,7.605797255950877411e-02,2.467026641100475703e-01
9.659999999999999698e-01,-1.711406935588348499e-01,8.528123170267327968e-02,2.328375712959747934e-01
9.669999999999999707e-01,-7.459004843080135894e-02,1.904906805401134495e-01,1.074174364124942244e-01
9.679999999999999716e-01,-1.429282978821908301e-01,3.275499719970427215e-01,-2.678307551181460106e-02
9.689999999999999725e-01,-2.391923278085084925e-01,2.685548953035758468e-01,-1.540695157563563844e-02
9.699999999999999734e-01,-2.738836277689558063e-01,1.502498374853762364e-01,-2.554102544761693155e-03
9.709999999999999742e-01,-1.192882989495578361e-01,-7.570053154357228586e-03,4.543101787017844034e-02
9.719999999999999751e-01,1.251359294921670084e-01,-1.831876102313628046e-02,1.855037244982277178e-02
9.729999999999999760e-01,2.469357328285147202e-01,3.772018086586748781e-02,-1.020944913580533603e-01
9.739999999999999769e-01,1.902736600064114936e-01,8.884740795937119684e-02,-2.049399405999934587e-01
9.749999999999999778e-01,6.212398766917721915e-02,-4.686398314835744233e-02,-1.892645877782243857e-01
9.759999999999999787e-01,6.639964535513380450e-02,-2.307984214411152868e-01,-1.230763385231106039e-01
9.769999999999999796e-01,2.648279143845306272e-01,-2.805659041250175290e-01,-4.901912925199748694e-02
9.779999999999999805e-01,4.125185776504028956e-01,-2.494669564233007730e-01,-7.669795626068831584e-02
9.789999999999999813e-01,3.576503116008340477e-01,-1.193636567575299956e-01,-1.771267586040339292e-01
9.799999999999999822e-01,2.044948002412434462e-01,-9.920397801616834266e-02,-1.886629975838600148e-01
9.809999999999999831e-01,1.631061286536592686e-02,-1.577114623290383488e-01,-1.027648244354552876e-01
9.819999999999999840e-01,2.526859617187624668e-02,-2.406319899437313337e-01,4.424964725262992005e-02
9.829999999999999849e-01,7.834264527771388209e-02,-2.135670973445361887e-01,9.613671547617516633e-02
9.839999999999999858e-01,1.255590234985110576e-01,-3.233214234491832428e-02,1.294787274828560486e-01
9.849999999999999867e-01,1.247828106474861178e-02,1.116192550781575782e-01,3.403763558646297899e-02
9.859999999999999876e-01,-2.059199289382885323e-01,1.175363084408529851e-01,5.017355449782509580e-02
9.869999999999999885e-01,-3.541003774901274603e-01,4.504692037875078492e-02,1.271106910404868895e-01
9.879999999999999893e-01,-3.012085251671513531e-01,3.304846299894182576e-02,2.333520741143056410e-01
9.889999999999999902e-01,-1.617595260546539349e-01,5.268208162061097793e-02,2.603021395378002367e-01
9.899999999999999911e-01,-9.215057409440217950e-02,2.305010421468471626e-01,1.126826618346066095e-01
9.909999999999999920e-01,-1.815838686409824709e-01,2.990508523237707106e-01,6.701461312195026998e-02
9.919999999999999929e-01,-2.720788885885674357e-01,2.868125542707846143e-01,4.823854636160433002e-02
9.929999999999999938e-01,-3.091916198397882121e-01,9.288249459368969063e-02,3.038129705105023157e-02
9.939999999999999947e-01,-1.197968423262959076e-01,3.771313954357930626e-02,1.063427093753814140e-01
9.949999999999999956e-01,5.353325170035518055e-02,1.047145676173247969e-01,5.179794756470536971e-02
9.959999999999999964e-01,1.571112037972585973e-01,1.078012941310002165e-01,-5.798535871695668920e-02
9.969999999999999973e-01,1.246885508904382045e-01,9.990874651347556035e-02,-1.593576296388536373e-01
9.979999999999999982e-01,2.199408962810002130e-02,-1.044300136136983373e-02,-1.781558421215967969e-01
9.989999999999999991e-01,4.845471992706517489e-02,-2.102292749068310485e-01,-1.200033305824940721e-01
1.000000000000000000e+00,2.372273129414590731e-01,-2.565652870277762010e-01,-5.738329263412196568e-02
1.000999999999999890e+00,4.122910055287751230e-01,-1.970002647542073160e-01,-8.165427378723137675e-02
1.002000000000000002e+00,3.378767266339133268e-01,-1.296693694234975769e-01,-1.465985604242183715e-01
1.002999999999999892e+00,2.233032201032407738e-01,-9.025917943627222162e-02,-1.846263520186876839e-01
1.004000000000000004e+00,5.414579891483733975e-02,-2.044687628117264344e-01,-1.494621079357193183e-01
1.004999999999999893e+00,5.448642427210788342e-02,-2.874541847118613491e-01,-2.486429123784648226e-02
1.006000000000000005e+00,1.447803684207983610e-01,-2.195158244284913518e-01,4.685487571378417482e-02
1.006999999999999895e+00,2.249048834891600179e-01,-6.893357304146539855e-02,6.856511775519430474e-02
1.008000000000000007e+00,3.526518005193635119e-02,1.023329679736738745e-01,2.323973678708160864e-02
1.008999999999999897e+00,-1.437484293965802795e-01,9.216653828337176280e-02,1.488036164242650082e-02
1.010000000000000009e+00,-3.103111613149283632e-01,-1.158126243769676440e-02,1.095278796446515907e-01
1.010999999999999899e+00,-2.838799558390682209e-01,-8.086325719123004310e-03,2.234167685593002051e-01
1.012000000000000011e+00,-1.906298667591835860e-01,9.154044748815150234e-02,2.682534597964930656e-01
1.012999999999999901e+00,-1.053514731906046581e-01,2.531702572807368323e-01,1.673717485390157911e-01
1.014000000000000012e+00,-1.722153691203296144e-01,3.301954688114585035e-01,7.555499553339894980e-02
1.014999999999999902e+00,-3.403054518270758333e-01,2.301299119003368809e-01,6.222326448063733584e-02
1.016000000000000014e+00,-3.642959979181798480e-01,1.157301867907906123e-01,8.137374644810886626e-02
1.016999999999999904e+00,-1.646845236020758330e-01,9.008855965194455251e-02,1.533168013784444172e-01
1.018000000000000016e+00,2.189726139575892683e-02,1.431388507521067499e-01,5.476478617266082594e-02
1.018999999999999906e+00,8.129327737768080042e-02,1.745721194639453799e-01,-1.225538851727493890e-02
1.020000000000000018e+00,5.601917312059941090e-02,1.547327070956401041e-01,-1.154685934446415957e-01
1.020999999999999908e+00,-3.814308810171467001e-02,-5.170108901395555762e-02,-1.616378527228580497e-01
1.022000000000000020e+00,4.336589320982183610e-02,-1.767420271680845423e-01,-1.193675762264425899e-01
1.022999999999999909e+00,2.316747787834701755e-01,-2.255334064232950020e-01,-2.498667409116624161e-02
1.024000000000000021e+00,3.739544145995520874e-01,-1.141545294980070846e-01,-7.785021953105838999e-02
1.024999999999999911e+00,3.696276088713039143e-01,-7.203089750836237648e-02,-1.406949689798224767e-01
1.026000000000000023e+00,2.241916613433327099e-01,-1.494212869975832525e-01,-1.937747678007964713e-01
1.026999999999999913e+00,1.125129990682790515e-01,-2.443312433880911461e-01,-2.337992859121023059e-01
1.028000000000000025e+00,1.393674463474913194e-01,-3.305108191384971139e-01,-4.625343064124255027e-02
1.028999999999999915e+00,2.367784621538134571e-01,-2.458421226275483429e-01,4.693869103952363203e-02
1.030000000000000027e+00,2.736274970240610838e-01,-5.868001958741019680e-02,6.861500102938924983e-02
1.030999999999999917e+00,1.216976812507051114e-01,8.009426761075728873e-02,-4.571081518652106782e-03
1.032000000000000028e+00,-1.029700749987958880e-01,1.899710535007948300e-02,-5.410958342376678831e-02
1.032999999999999918e+00,-2.641822378845890551e-01,-7.892056301488549475e-02,2.535090894664958350e-02
1.034000000000000030e+00,-2.290999792599141827e-01,-6.162408782186350707e-03,1.370985852532130289e-01
1.034999999999999920e+00,-1.153952784352902938e-01,1.330359826053583716e-01,2.347887762687689006e-01
1.036000000000000032e+00,-1.068599354081718467e-01,2.660470034462559807e-01,1.992965273598775178e-01
1.036999999999999922e+00,-2.050066206330994900e-01,3.054343119805596474e-01,1.193828659738012665e-01
1.038000000000000034e+00,-3.574119237061070820e-01,2.030028719390072900e-01,7.306818101519076125e-02
1.038999999999999924e+00,-3.690854027666219950e-01,1.142205220013144951e-01,1.008208424319534946e-01
1.040000000000000036e+00,-2.089988755115764207e-01,7.398412429983013128e-02,1.406075779197377973e-01
1.040999999999999925e+00,-2.038006931343729761e-02,1.780181794482049717e-01,1.349452327448637523e-01
1.042000000000000037e+00,4.718616235351155014e-02,2.176027596585901058e-01,5.685728594835660898e-02
1.042999999999999927e+00,-2.436832118239732475e-02,1.589999117918560745e-01,-6.287590731541484179e-02
1.044000000000000039e+00,-9.934615386723165409e-02,-1.012215722606978757e-02,-1.557831322076962122e-01
1.044999999999999929e+00,-1.368226951029822419e-02,-1.461256428021328602e-01,-1.314731646033620582e-01
1.046000000000000041e+00,1.496127536552812887e-01,-1.716806169137253535e-01,-6.062984165967441608e-02
1.046999999999999931e+00,3.761052536542047187e-01,-8.139471504773738986e-02,-7.554025778864706386e-02
1.048000000000000043e+00,3.281378867336333660e-01,-4.152275571024924283e-02,-1.400123934973644124e-01
1.048999999999999932e+00,2.200602046766441111e-01,-1.641065061295817751e-01,-2.464680135613252776e-01
1.050000000000000044e+00,1.127646722770412058e-01,-2.810237153256375797e-01,-2.283296235031901655e-01
1.050999999999999934e+00,1.839978932277278600e-01,-3.068058945370040758e-01,-1.273025526573121347e-01
1.052000000000000046e+00,2.970984961505885313e-01,-2.315319221146883433e-01,-2.696234925842034766e-02
1.052999999999999936e+00,3.114836857644933676e-01,-6.556480253982507889e-02,6.430103701025691176e-02
1.054000000000000048e+00,1.580872477377295304e-01,-6.665543270648386850e-03,-3.345612477854841005e-02
1.054999999999999938e+00,-5.313125689309343425e-02,-7.950183451837755655e-02,-8.522636360684056334e-02
1.056000000000000050e+00,-1.684120881239603573e-01,-1.122671771981603173e-01,-7.942714281813684218e-02
1.056999999999999940e+00,-1.959486177847113986e-01,-7.931558856973619509e-02,9.146345241353813493e-02
1.058000000000000052e+00,-7.645794051880672182e-02,1.129503800504954858e-01,2.527869657751311561e-01
1.058999999999999941e+00,-8.580198312932529880e-02,2.666611720940715857e-01,2.130381640362252471e-01
1.060000000000000053e+00,-1.911867255194392434e-01,2.526777137401866047e-01,1.273130083505722154e-01
1.060999999999999943e+00,-3.607989494699850308e-01,1.477695379372886975e-01,3.121009096058066645e-02
1.062000000000000055e+00,-4.001311347787561146e-01,7.852828667853051225e-02,8.263479714082616612e-02
1.062999999999999945e+00,-2.494639116120439259e-01,1.379516927626056322e-01,1.404991980884963410e-01
1.064000000000000057e+00,-7.024810056450581097e-02,2.357433250137850878e-01,1.705647432983498635e-01
1.064999999999999947e+00,-2.786551488200491103e-02,2.798797367973241412e-01,1.201787574236739681e-01
1.066000000000000059e+00,-8.480783833368889246e-02,1.364000344841089785e-01,-8.383926321135791448e-03
1.066999999999999948e+00,-1.674589735077973429e-01,-4.997688409641599938e-02,-1.142796319901283747e-01
1.068000000000000060e+00,-4.892333712203978530e-02,-1.570312198337291965e-01,-8.537048920897045978e-02
1.068999999999999950e+00,1.437654965516369787e-01,-6.544048842665867172e-02,-4.169698586430574394e-02
1.070000000000000062e+00,2.851658540003622622e-01,4.194061800293538700e-03,-2.399787497237512376e-02
1.070999999999999952e+00,3.244297316784943708e-01,-7.005008387188962904e-02,-7.982095766303413942e-02
1.072000000000000064e+00,1.858707800737947613e-01,-1.519653326291766915e-01,-2.069767900099152291e-01
1.072999999999999954e+00,1.025145206624177852e-01,-2.789942380129283306e-01,-2.431737133352476765e-01
1.074000000000000066e+00,1.777198523963331445e-01,-2.974869245129169171e-01,-2.063799153667424391e-01
1.074999999999999956e+00,2.877011654969606758e-01,-1.758052679275932673e-01,-4.263126503345080615e-02
1.076000000000000068e+00,3.343453549546403503e-01,-5.882920937220822988e-02,-1.670479370459154039e-02
1.076999999999999957e+00,2.349650826918807389e-01,-5.381125589188927305e-02,-5.855167234883673633e-02
1.078000000000000069e+00,-2.123150343898527401e-02,-1.359291329304122276e-01,-1.040607003383249018e-01
1.078999999999999959e+00,-1.505495476788692166e-01,-1.340382486819536034e-01,-7.679963549181548221e-02
1.080000000000000071e+00,-8.922464534283142124e-02,-6.693671276933774172e-02,3.227365232353334584e-02
1.080999999999999961e+00,-2.301653082158865160e-02,1.202359060287809256e-01,1.958062171747577684e-01
1.082000000000000073e+00,-1.961692866594878099e-02,2.409831270819725868e-01,1.806227752381095453e-01
1.082999999999999963e+00,-2.110922803230274314e-01,1.800045020684157004e-01,1.224804098629282828e-01
1.084000000000000075e+00,-3.506332750614130078e-01,1.413058265271730229e-01,7.125154214179793555e-02
1.084999999999999964e+00,-4.348497191246875615e-01,5.351274309592952277e-02,1.042551183135972809e-01
1.086000000000000076e+00,-2.559195355775402136e-01,1.741607679579405821e-01,1.588971510447915458e-01
1.086999999999999966e+00,-1.057152816697927711e-01,2.763143449173522948e-01,2.401192945736743689e-01
1.088000000000000078e+00,-7.713920857997176583e-02,2.740002082488552926e-01,1.741105036017781271e-01
1.088999999999999968e+00,-1.553940196262608153e-01,1.784315286747690799e-01,6.637647933652755794e-02
1.090000000000000080e+00,-2.014410384204737003e-01,-1.994538089369982461e-03,-7.302071911340243804e-02
1.090999999999999970e+00,-1.225447186109110825e-01,-9.833352608872715506e-02,-3.796186456315017721e-02
1.092000000000000082e+00,6.681327245530828407e-02,4.349330058573850841e-03,-2.869998516569178398e-02
1.092999999999999972e+00,2.673468924971705296e-01,2.593905944580450831e-03,2.527335927941433413e-02
1.094000000000000083e+00,2.673816023996952174e-01,-3.121749874092792296e-02,-6.259977234610415719e-02
1.094999999999999973e+00,1.457347377209474160e-01,-2.048230182773649877e-01,-1.956765612961558209e-01
1.096000000000000085e+00,1.122997592108658377e-01,-3.301441879975034466e-01,-2.519201163027425250e-01
1.096999999999999975e+00,1.883063735162444352e-01,-2.693622602745032180e-01,-1.811203756114887764e-01
1.098000000000000087e+00,3.498352689855394049e-01,-1.675242681768711328e-01,-7.586099211502966844e-02
1.098999999999999977e+00,3.768653250723095760e-01,-7.446931271857656909e-02,-5.156403343773458686e-02
1.100000000000000089e+00,2.099383905552964225e-01,-1.068384941295768414e-01,-5.596461328233365284e-02
1.100999999999999979e+00,1.689308560337605264e-02,-2.035700759503867585e-01,-1.431700677726422122e-01
1.102000000000000091e+00,-4.956118272692677795e-02,-2.118654329364189348e-01,-1.277282215979724800e-01
1.102999999999999980e+00,-3.703128672382535735e-02,-5.909913595555194021e-02,-4.017915667867863472e-02
1.104000000000000092e+00,6.534725735139618186e-02,1.635520880859149262e-01,6.550223661549281484e-02
1.104999999999999982e+00,1.424988115989478561e-02,2.145703901605492403e-01,1.817575497486290659e-01
1.106000000000000094e+00,-1.622053021064063794e-01,1.559757705757113255e-01,2.005877540380463231e-01
1.106999999999999984e+00,-3.304438287986310452e-01,7.628588906122485414e-02,8.366110036766687130e-02
1.108000000000000096e+00,-3.782790086937573015e-01,7.654468612714369902e-02,7.434049046426526031e-02
1.108999999999999986e+00,-2.262269011754510228e-01,2.307385501891997537e-01,1.679205763439881594e-01
1.110000000000000098e+00,-1.077608211858716442e-01,3.134196075481349153e-01,2.531831824215556304e-01
1.110999999999999988e+00,-9.296938137352024623e-02,2.997375997170673156e-01,1.989507279483653801e-01
1.112000000000000099e+00,-2.189442136131221628e-01,1.096364583213158272e-01,8.145946937616239947e-02
1.112999999999999989e+00,-2.743062767893664211e-01,-2.629609675053661347e-02,-7.836156897938678645e-03
1.114000000000000101e+00,-1.780025417034705459e-01,-3.286567485389818577e-02,-2.799231673040438600e-02
1.114999999999999991e+00,6.854210902464179245e-02,1.472636350210665933e-02,2.960427426791199454e-02
1.116000000000000103e+00,2.386921753542821101e-01,1.015839250821320150e-01,7.907783350680604173e-02
1.116999999999999993e+00,2.181603947565636525e-01,-5.674531513023602786e-02,-4.425149599491472879e-02
1.118000000000000105e+00,1.433843866676474954e-01,-2.236550886940546212e-01,-1.073098881677785887e-01
1.118999999999999995e+00,5.666664657065119404e-02,-2.941713044163957735e-01,-2.178712034414211074e-01
1.120000000000000107e+00,1.820763887674117787e-01,-2.814008382815189058e-01,-1.872710226076527984e-01
1.120999999999999996e+00,3.467595932812199133e-01,-1.091491614908839530e-01,-9.987398737028059525e-02
1.122000000000000108e+00,3.819432734668227747e-01,-1.269576708486514216e-01,-6.568234635905821628e-02
1.122999999999999998e+00,2.575314380785864721e-01,-1.544043626660580593e-01,-8.292344673004807543e-02
1.124000000000000110e+00,4.414382789833362630e-02,-2.287543379266580301e-01,-1.487240033965669117e-01
1.125000000000000000e+00,-2.688284214585765636e-02,-2.382010326291655045e-01,-1.647119793839116053e-01
1.125999999999999890e+00,4.569230147612013404e-02,-4.960987964449599386e-02,-6.911994842064171640e-02
1.127000000000000002e+00,1.476873483039502499e-01,1.125820260269426720e-01,8.621573599848779412e-02
1.127999999999999892e+00,8.301023898623557939e-02,1.138105497249630588e-01,7.978442401320633148e-02
1.129000000000000004e+00,-1.193540605656346898e-01,8.546712618070495537e-02,9.685897127552435537e-02
1.129999999999999893e+00,-2.886534206492029631e-01,5.440239562815546437e-02,2.780884134350380607e-02
1.131000000000000005e+00,-3.803145984379141531e-01,1.050076596962441905e-01,4.099201466006672373e-02
1.131999999999999895e+00,-2.178825386083446114e-01,2.764049088409785138e-01,1.175355115113770055e-01
1.133000000000000007e+00,-1.459814022028990688e-01,3.046028326263086616e-01,2.272288542056869198e-01
1.133999999999999897e+00,-1.316269700735750725e-01,3.047473358127376630e-01,2.002482383491776818e-01
1.135000000000000009e+00,-2.381774470391370691e-01,9.217444607702143800e-02,1.578611045820287884e-01
1.135999999999999899e+00,-3.511868828885268967e-01,5.528074664699520694e-04,2.126699751536283850e-02
1.137000000000000011e+00,-2.276995105262060448e-01,3.986826167418686118e-02,-1.745825519104021034e-02
1.137999999999999901e+00,-2.406956326657076067e-02,1.205420281249638959e-01,3.671613565769653309e-02
1.139000000000000012e+00,1.353174174007037434e-01,5.678468281385166266e-02,8.811833104165341102e-02
1.139999999999999902e+00,1.641630714120896339e-01,-4.047181733591025121e-02,4.391369079000590619e-02
1.141000000000000014e+00,5.948622697502386342e-02,-2.061586496175127348e-01,-9.181516860043327510e-02
1.141999999999999904e+00,1.360987220177271688e-02,-2.605271957562525498e-01,-2.070777649358442052e-01
1.143000000000000016e+00,1.443000959785575577e-01,-1.896910795235316749e-01,-1.891382347950108789e-01
1.143999999999999906e+00,3.375856073941761459e-01,-1.125584505908486244e-01,-1.139802436949729075e-01
1.145000000000000018e+00,4.401479545917390546e-01,-1.183754897323027466e-01,-2.756812848287767265e-02
1.145999999999999908e+00,2.859745217744539270e-01,-2.153320261430368143e-01,-9.927966952775368892e-02
1.147000000000000020e+00,9.708932489427442303e-02,-3.094785670374206044e-01,-1.581446661093674488e-01
1.147999999999999909e+00,3.837208968520849917e-02,-2.162509548014676097e-01,-2.151908836407619430e-01
1.149000000000000021e+00,7.438741870143769641e-02,-1.584830887683439868e-02,-1.228819490059655517e-01
1.149999999999999911e+00,1.865941363385438811e-01,6.370002488734806401e-02,-1.096889009750024596e-02
1.151000000000000023e+00,1.103311874829927819e-01,7.745672863016907217e-02,7.300682275123206166e-02
1.151999999999999913e+00,-9.186402992198429429e-02,-1.092614362302111487e-02,7.648111028363571706e-02
1.153000000000000025e+00,-2.915303394536269410e-01,3.315316542600441063e-02,9.189814416456321827e-03
1.153999999999999915e+00,-3.390288080493857881e-01,9.543416928140860400e-02,3.297220116078215801e-02
1.155000000000000027e+00,-2.133122758008347830e-01,2.442040279051685137e-01,7.531280374274290645e-02
1.155999999999999917e+00,-9.285537455767485515e-02,3.354561538814426758e-01,2.178014514435528404e-01
1.157000000000000028e+00,-1.691926891397998178e-01,2.518929184558728052e-01,2.062786905166802964e-01
1.157999999999999918e+00,-3.042706936411994634e-01,1.186058130611069156e-01,1.700546774713998510e-01
1.159000000000000030e+00,-3.940385014115892481e-01,4.894492850973247711e-02,9.118922270483781345e-02
1.159999999999999920e+00,-2.648993531708616067e-01,1.197125691310783613e-01,9.622361642819021385e-03
1.161000000000000032e+00,-6.099791399876280940e-02,1.589801788743556432e-01,6.878450691423033947e-02
1.161999999999999922e+00,9.144517952352687606e-02,1.398387470786126019e-01,1.229771377636922208e-01
1.163000000000000034e+00,6.828776920927176475e-02,-5.768387017692196833e-02,6.709820143556254057e-02
1.163999999999999924e+00,5.776015149106081444e-04,-2.167666508841735173e-01,-2.045806528423354739e-02
1.165000000000000036e+00,-2.992276583106882881e-02,-2.365840437526203488e-01,-1.313839786126737297e-01
1.165999999999999925e+00,1.729407507836262237e-01,-1.320215783131084564e-01,-1.845651544971928237e-01
1.167000000000000037e+00,3.598494492001407807e-01,-1.257415888329089515e-01,-1.058754260281174614e-01
1.167999999999999927e+00,3.844850267182298720e-01,-9.890369476312117769e-02,-7.111763296615523922e-02
1.169000000000000039e+00,2.585418585080003218e-01,-2.429758016864237424e-01,-1.036223857714366481e-01
1.169999999999999929e+00,7.910110810739934273e-02,-3.322937154937373183e-01,-1.929048655443882099e-01
1.171000000000000041e+00,8.601711104810301489e-02,-1.994141044430154941e-01,-2.250998127684793737e-01
1.171999999999999931e+00,1.706965889474693077e-01,-4.552735606813646668e-02,-1.704405124677963457e-01
1.173000000000000043e+00,2.554115910859330874e-01,7.068131451007948762e-02,-4.353804269769055713e-02
1.173999999999999932e+00,1.829771615100313498e-01,4.493762290411262850e-02,2.440294039284030339e-02
1.175000000000000044e+00,-1.977764140745311497e-02,-6.496913938397304300e-02,4.954509767333650783e-02
1.175999999999999934e+00,-2.222945982316213986e-01,-8.543414925841714969e-03,5.808005375551154176e-03
1.177000000000000046e+00,-2.778952546200887386e-01,1.185910177949952155e-01,-1.812900824633732408e-02
1.177999999999999936e+00,-1.283640054943690212e-01,2.973364167508280587e-01,8.069007858421027579e-02
1.179000000000000048e+00,-8.326760022453487398e-02,2.908448763527676229e-01,1.547755729531144209e-01
1.179999999999999938e+00,-1.172335550916804026e-01,2.062828992057122446e-01,2.264978527662284413e-01
