time,acc_x,acc_y,acc_z
0.000000000000000000e+00,2.810063052683900442e-01,2.293684385695734240e-01,1.568021164541788526e-01
1.000000000000000021e-03,2.772939793947116760e-01,2.199803773458106904e-01,1.701060169007185263e-01
2.000000000000000042e-03,2.809054838726613434e-01,2.218143141462511903e-01,1.721956209783274683e-01
3.000000000000000062e-03,2.734836756719823958e-01,2.015867730446831430e-01,1.640562760665275899e-01
4.000000000000000083e-03,2.559906512264560341e-01,1.872100458462562511e-01,1.565857271529847994e-01
5.000000000000000104e-03,2.254145508126676190e-01,1.561324278433594004e-01,1.449360474550089317e-01
6.000000000000000125e-03,1.915407593697098787e-01,1.311556002673667232e-01,1.311521915898671842e-01
7.000000000000000146e-03,1.499939371997744963e-01,9.502936574861510499e-02,1.134341663794387195e-01
8.000000000000000167e-03,1.138584101002984850e-01,5.811060817105431764e-02,8.165125781233675828e-02
8.999999999999999320e-03,5.634813419064439027e-02,2.004348975945418124e-02,5.597967766829592406e-02
1.000000000000000021e-02,-4.372857738554653158e-03,-3.057087091952790173e-02,2.518506411435193770e-02
1.099999999999999936e-02,-3.901694244216229179e-02,-5.868343531319437228e-02,5.971679493770364576e-03
1.200000000000000025e-02,-9.597800914897837432e-02,-1.080452981497603548e-01,-2.880796651746002704e-02
1.299999999999999940e-02,-1.359800264360573330e-01,-1.277517731219696140e-01,-5.976747237886815417e-02
1.400000000000000029e-02,-1.746338847745469713e-01,-1.597433385745940793e-01,-8.964668131761967251e-02
1.499999999999999944e-02,-2.268769338649671841e-01,-1.894114820047777537e-01,-1.065062602575667511e-01
1.600000000000000033e-02,-2.386335628079636895e-01,-2.057439576184627306e-01,-1.286856786326872892e-01
1.700000000000000122e-02,-2.696432864151468989e-01,-2.212595415082549422e-01,-1.471825916092771580e-01
1.799999999999999864e-02,-2.733752073135594651e-01,-2.311709288692208319e-01,-1.674788515295910218e-01
1.899999999999999953e-02,-2.880332622977607171e-01,-2.234068105361889101e-01,-1.585803423017020097e-01
2.000000000000000042e-02,-2.795235679314934663e-01,-2.108588317652614896e-01,-1.719774235365747195e-01
2.100000000000000130e-02,-2.649120990937744446e-01,-1.893212121702302630e-01,-1.713272530397933757e-01
2.199999999999999872e-02,-2.409974002757434008e-01,-1.624864273621698663e-01,-1.522364010979179727e-01
2.299999999999999961e-02,-2.172678513655717236e-01,-1.426487939547851358e-01,-1.554967373091449556e-01
2.400000000000000050e-02,-1.908637065483219930e-01,-1.076584307854251271e-01,-1.224100481812077368e-01
2.500000000000000139e-02,-1.428438035461108147e-01,-7.487091957607815151e-02,-1.016982350568763072e-01
2.599999999999999881e-02,-9.484736048740630143e-02,-4.011558031614813336e-02,-7.802138677138092948e-02
2.699999999999999969e-02,-4.481422974927123243e-02,4.480404569047539455e-03,-5.444779549634488902e-02
2.800000000000000058e-02,3.950981485546177160e-03,5.207585069306631259e-02,-2.603625049851264819e-02
2.900000000000000147e-02,6.279305514041753911e-02,7.229009270985686797e-02,-9.245982337787676114e-03
2.999999999999999889e-02,1.009054307529276412e-01,1.256550646232266477e-01,3.296572779449898766e-02
3.099999999999999978e-02,1.533354333716609452e-01,1.543618854385314099e-01,6.274561128449346326e-02
3.200000000000000067e-02,1.800536052469179915e-01,1.913689822530230400e-01,9.128508918098500458e-02
3.300000000000000155e-02,2.363509652424274632e-01,1.989833028238139623e-01,1.122260156126015790e-01
3.400000000000000244e-02,2.553378339555133492e-01,2.324379071573574596e-01,1.424497071708653306e-01
3.500000000000000333e-02,2.682169709157047888e-01,2.230837124128681737e-01,1.522294410790531738e-01
3.599999999999999728e-02,2.878916934456627885e-01,2.236253690616570033e-01,1.620227027592401892e-01
3.699999999999999817e-02,2.812267845904196650e-01,2.155746611150707592e-01,1.731072463929087535e-01
3.799999999999999906e-02,2.802990648780204763e-01,2.006307541999165223e-01,1.750773408811757414e-01
3.899999999999999994e-02,2.541111327232959960e-01,1.799737075984953749e-01,1.749661121515132811e-01
4.000000000000000083e-02,2.333804729716709714e-01,1.622919329336219574e-01,1.502562364644737525e-01
4.100000000000000172e-02,1.915454556664166197e-01,1.286213071125207608e-01,1.316549282753302075e-01
4.200000000000000261e-02,1.737427084041479053e-01,9.772725588343868230e-02,1.233824643207980659e-01
4.299999999999999656e-02,1.142901966180840251e-01,5.150082747245576104e-02,9.581802310006817813e-02
4.399999999999999745e-02,6.807442261140715656e-02,1.139025746443611715e-02,7.359329689892095405e-02
4.499999999999999833e-02,2.925415850282949912e-02,-4.224302173323712939e-02,5.389859442706419757e-02
4.599999999999999922e-02,-3.091172020920840771e-02,-6.738797884755549916e-02,1.740759871605687334e-02
4.700000000000000011e-02,-7.870243628385135970e-02,-1.150715945752207869e-01,-1.676889246810054149e-02
4.800000000000000100e-02,-1.213369393296333115e-01,-1.370949883909849953e-01,-3.732901917592668095e-02
4.900000000000000189e-02,-1.625276474934459481e-01,-1.639166910046648828e-01,-6.178850614093333443e-02
5.000000000000000278e-02,-2.064597082679086593e-01,-2.041476701174926855e-01,-1.010235833469384087e-01
5.099999999999999672e-02,-2.341226022860964928e-01,-2.123089422893457145e-01,-1.126268463472036019e-01
5.199999999999999761e-02,-2.601742162830286698e-01,-2.142835535489161225e-01,-1.348430074141182822e-01
5.299999999999999850e-02,-2.734632272043763246e-01,-2.341006131109603372e-01,-1.542588208249904280e-01
5.399999999999999939e-02,-2.669843489201941811e-01,-2.286378520742977094e-01,-1.643715369250007829e-01
5.500000000000000028e-02,-2.768814285085695603e-01,-2.112079925275784920e-01,-1.678309766903951505e-01
5.600000000000000117e-02,-2.732215269875583608e-01,-2.021820625725127829e-01,-1.719221442657639931e-01
5.700000000000000205e-02,-2.453956723616895486e-01,-1.765230952738166548e-01,-1.724121191142855003e-01
5.800000000000000294e-02,-2.223264302867501430e-01,-1.336235793653618997e-01,-1.533161300543445238e-01
5.899999999999999689e-02,-1.904686058770941881e-01,-1.092318631501869447e-01,-1.440406897742003978e-01
5.999999999999999778e-02,-1.363700222300877063e-01,-6.834295878656312939e-02,-1.096221736990863199e-01
6.099999999999999867e-02,-1.050349494255361227e-01,-2.911159581370276889e-02,-8.958535675568485290e-02
6.199999999999999956e-02,-5.516349793934289397e-02,8.753435781025780890e-03,-6.479418854958603202e-02
6.300000000000000044e-02,1.023613201411680126e-03,4.860100241613079380e-02,-3.935902900556181860e-02
6.400000000000000133e-02,4.301841991052383213e-02,9.504899643183084557e-02,-2.211273884168251866e-02
6.500000000000000222e-02,9.005204389122398179e-02,1.227015606619721033e-01,2.256435411522116768e-02
6.600000000000000311e-02,1.417285135228779913e-01,1.586734294503013010e-01,4.453883929474750786e-02
6.700000000000000400e-02,1.782217464623220560e-01,1.856398358750632471e-01,6.817356490729233054e-02
6.800000000000000488e-02,2.130302201309909327e-01,2.077786621141811674e-01,1.078629451498950426e-01
6.900000000000000577e-02,2.487199160824079269e-01,2.158445738606072084e-01,1.116851309863880898e-01
7.000000000000000666e-02,2.669762295754499193e-01,2.257737734399495322e-01,1.510363923723461177e-01
7.099999999999999367e-02,2.698043463790490981e-01,2.258898901193871211e-01,1.595474900160924192e-01
7.199999999999999456e-02,2.813898986747102593e-01,2.179070489269636091e-01,1.641196014427253047e-01
7.299999999999999545e-02,2.918526634285054655e-01,2.000902706063309444e-01,1.701266750365355296e-01
7.399999999999999634e-02,2.637486006904628533e-01,1.787373840999975927e-01,1.666820192817577706e-01
7.499999999999999722e-02,2.367121861051181830e-01,1.489255327216153502e-01,1.574371550612978787e-01
7.599999999999999811e-02,2.092489886881142014e-01,1.183305388733758706e-01,1.561751029681108793e-01
7.699999999999999900e-02,1.737868492323899616e-01,8.085606011464531451e-02,1.358829018610640260e-01
7.799999999999999989e-02,1.308990460219361940e-01,5.115468881478841406e-02,1.195650167643512729e-01
7.900000000000000078e-02,9.540473470697700964e-02,2.560568302014335027e-03,9.447001502536456208e-02
8.000000000000000167e-02,3.441147407180678713e-02,-3.547623605583763440e-02,6.614698811783246979e-02
8.100000000000000255e-02,-1.304951424277031244e-02,-7.659685955805305146e-02,4.497613848050251856e-02
8.200000000000000344e-02,-6.055943273901851637e-02,-1.091678848160106408e-01,5.539389630453732220e-03
8.300000000000000433e-02,-1.081075521452432436e-01,-1.362295531114577074e-01,-2.323348846617133423e-02
8.400000000000000522e-02,-1.536168172788204833e-01,-1.696774063372079033e-01,-3.690912062716331793e-02
8.500000000000000611e-02,-1.922477688253831085e-01,-1.839520062465205830e-01,-8.388326437621640430e-02
8.599999999999999312e-02,-2.189759916968860853e-01,-2.129061465148288090e-01,-9.267041974435039076e-02
8.699999999999999400e-02,-2.538378412096919945e-01,-2.182080471371485308e-01,-1.306429612296036713e-01
8.799999999999999489e-02,-2.771866847696731195e-01,-2.166276563833332836e-01,-1.435698645135043694e-01
8.899999999999999578e-02,-2.827389582310552152e-01,-2.266719863775107091e-01,-1.596459703644021455e-01
8.999999999999999667e-02,-2.974367406619608523e-01,-2.075311791750930890e-01,-1.706781487757882410e-01
9.099999999999999756e-02,-2.810799529789144713e-01,-1.861611711148828952e-01,-1.654686435493867569e-01
9.199999999999999845e-02,-2.581798780094798351e-01,-1.652510815589298965e-01,-1.665906482614946116e-01
9.299999999999999933e-02,-2.320510766884754938e-01,-1.358034805861582373e-01,-1.669207265230293058e-01
9.400000000000000022e-02,-2.015502856211538463e-01,-1.037907615648683696e-01,-1.534256268377441057e-01
9.500000000000000111e-02,-1.620093099051395091e-01,-6.143674206888553868e-02,-1.255751002419565887e-01
9.600000000000000200e-02,-1.172578732914723310e-01,-2.904151587576450991e-02,-1.147332136180947704e-01
9.700000000000000289e-02,-6.960692648589780762e-02,1.446889081857349359e-02,-9.124282181145353110e-02
9.800000000000000377e-02,-1.862288290190684814e-02,5.567668493137725716e-02,-7.436730304557653826e-02
9.900000000000000466e-02,3.660433055413550574e-02,9.272190748707377639e-02,-3.613775882589627397e-02
1.000000000000000056e-01,7.872544026019712149e-02,1.301716065305229819e-01,-2.889588588037515175e-03
1.010000000000000064e-01,1.367583062833153951e-01,1.516784290258988421e-01,1.915227079210064798e-02
1.019999999999999934e-01,1.756320649783435217e-01,1.893174441167927158e-01,5.084588627138443562e-02
1.029999999999999943e-01,2.050682095602326394e-01,2.040259681140100534e-01,8.054002838606710846e-02
1.039999999999999952e-01,2.508294889429175667e-01,2.237207127120541816e-01,1.063379311266712535e-01
1.049999999999999961e-01,2.571029512993759925e-01,2.221242009755429736e-01,1.253673945028022929e-01
1.059999999999999970e-01,2.756489303465188279e-01,2.169831918730917575e-01,1.463197466749212028e-01
1.069999999999999979e-01,2.825007446238583242e-01,2.173574921014189976e-01,1.590027485138392482e-01
1.079999999999999988e-01,2.899311239184190203e-01,2.032097490917831595e-01,1.646152452305320868e-01
1.089999999999999997e-01,2.668524819952536875e-01,1.860446863368411252e-01,1.747118750512473007e-01
1.100000000000000006e-01,2.427152719397922265e-01,1.589081703310296634e-01,1.634655572885600483e-01
1.110000000000000014e-01,2.270287118883191624e-01,1.207776523078975678e-01,1.574494172504808109e-01
1.120000000000000023e-01,1.781261474197021744e-01,8.445511493482253662e-02,1.436627888863774294e-01
1.130000000000000032e-01,1.413810723312810269e-01,4.763067183001062910e-02,1.310489728591573144e-01
1.140000000000000041e-01,8.564429609493408313e-02,9.944602208752807010e-03,1.068227800208025741e-01
1.150000000000000050e-01,4.784163318392889441e-02,-3.380719073751741605e-02,7.183000620325734331e-02
1.160000000000000059e-01,-4.267418402095319099e-03,-7.146075800188481097e-02,5.704021819044759189e-02
1.170000000000000068e-01,-4.466713382124169740e-02,-1.089308228598858397e-01,3.308224276480042914e-02
1.179999999999999938e-01,-9.608182898079420386e-02,-1.380788690300710220e-01,-1.190788840808487854e-02
1.189999999999999947e-01,-1.451105058248408075e-01,-1.787225446246899774e-01,-3.276157595640932091e-02
1.199999999999999956e-01,-1.814254472766892168e-01,-1.925283944337605746e-01,-5.160533268771591575e-02
1.209999999999999964e-01,-2.059524225078465942e-01,-2.181518826764781149e-01,-8.473364198364682909e-02
1.219999999999999973e-01,-2.438098232993744507e-01,-2.206666135417796049e-01,-1.111583280515501815e-01
1.229999999999999982e-01,-2.716159158013121133e-01,-2.259735708338907190e-01,-1.293555851708923510e-01
1.239999999999999991e-01,-2.903101910519323980e-01,-2.120774911386909545e-01,-1.499231962093811044e-01
1.250000000000000000e-01,-2.822628606847449872e-01,-2.028006863194076470e-01,-1.578797360466801525e-01
1.260000000000000009e-01,-2.870810381125240007e-01,-1.779908980428145382e-01,-1.661691605068683353e-01
1.270000000000000018e-01,-2.656855218787904094e-01,-1.802264597412532587e-01,-1.684102142568133509e-01
1.280000000000000027e-01,-2.387356001184756937e-01,-1.406535940322770073e-01,-1.655510666461483815e-01
1.290000000000000036e-01,-2.119318144300485485e-01,-1.052211704552855065e-01,-1.638996808408794970e-01
1.300000000000000044e-01,-1.821736987648792383e-01,-6.720567804700351699e-02,-1.479164838752438926e-01
1.310000000000000053e-01,-1.243396251266722374e-01,-1.740328295711685014e-02,-1.279564663276074044e-01
1.320000000000000062e-01,-8.695718547480749128e-02,1.439586001571535080e-02,-1.145608276786825863e-01
1.330000000000000071e-01,-3.681927481803311947e-02,5.584285093923033183e-02,-7.686526866912425648e-02
1.340000000000000080e-01,2.528615538864119328e-02,8.522003284662338363e-02,-5.467611810505797199e-02
1.350000000000000089e-01,5.827521296569461440e-02,1.367397989700723515e-01,-2.110538548612913082e-02
1.360000000000000098e-01,1.076623383753738256e-01,1.620855184975323049e-01,6.781649064108852612e-03
1.370000000000000107e-01,1.586038312859885113e-01,1.938718956225709833e-01,4.422530657991426140e-02
1.380000000000000115e-01,2.059173023059462648e-01,2.091852289421099187e-01,7.385923939026055318e-02
1.390000000000000124e-01,2.339299052516063682e-01,2.311014090159514700e-01,9.338475566871991262e-02
1.400000000000000133e-01,2.461284394499976824e-01,2.182536023002570047e-01,1.199043282312124287e-01
1.409999999999999865e-01,2.605620732508122650e-01,2.255451791114949089e-01,1.311127026855638533e-01
1.419999999999999873e-01,2.714575137546318961e-01,2.065258226947496722e-01,1.581410230222161650e-01
1.429999999999999882e-01,2.767415960216437210e-01,2.048651046113530161e-01,1.529245823180120922e-01
1.439999999999999891e-01,2.715371548587587336e-01,1.756029417142740967e-01,1.640700364731972338e-01
1.449999999999999900e-01,2.508981915300016463e-01,1.567365421541472570e-01,1.681189449438953432e-01
1.459999999999999909e-01,2.191842317560562525e-01,1.281427974465840225e-01,1.628544334533950366e-01
1.469999999999999918e-01,1.978870772192255489e-01,7.509303018694124532e-02,1.660165178517155338e-01
1.479999999999999927e-01,1.549546698093467179e-01,5.394762397707083407e-02,1.483081877698906592e-01
1.489999999999999936e-01,1.077875419797938578e-01,-6.675966797519589623e-03,1.127208456133544645e-01
1.499999999999999944e-01,6.570683741515405407e-02,-4.133291465933779107e-02,9.953933263805417320e-02
1.509999999999999953e-01,1.958754795370867482e-02,-9.121131657216335897e-02,7.885588969334972331e-02
1.519999999999999962e-01,-2.952029907981542495e-02,-1.065388207328861886e-01,5.222842162053124154e-02
1.529999999999999971e-01,-8.623339529497410505e-02,-1.527128554573252972e-01,1.584388713637731663e-02
1.539999999999999980e-01,-1.306771043055084958e-01,-1.841127866694274584e-01,-1.697903286546393470e-02
1.549999999999999989e-01,-1.785275008960937049e-01,-1.947476925133871384e-01,-4.216444793678807840e-02
1.559999999999999998e-01,-2.101067606842762503e-01,-2.017595702843019145e-01,-6.890687053476393653e-02
1.570000000000000007e-01,-2.415564504083752007e-01,-2.306852981326881213e-01,-9.538253603509115608e-02
1.580000000000000016e-01,-2.547710815980179788e-01,-2.261785061252735429e-01,-1.313948831807200957e-01
1.590000000000000024e-01,-2.749406093362174452e-01,-2.216109134452919627e-01,-1.369103042057960018e-01
1.600000000000000033e-01,-2.848721040634604740e-01,-2.044039683953937370e-01,-1.480827347510244307e-01
1.610000000000000042e-01,-2.819089143159981270e-01,-1.888222605540253174e-01,-1.758114381361056966e-01
1.620000000000000051e-01,-2.623886407955055011e-01,-1.695786681389694905e-01,-1.756289908094026964e-01
1.630000000000000060e-01,-2.548330605571975660e-01,-1.301888997061267095e-01,-1.653036262069668971e-01
1.640000000000000069e-01,-2.214361796273286997e-01,-9.030608393880411311e-02,-1.605660713547000518e-01
1.650000000000000078e-01,-1.870025032201404480e-01,-6.367121913629929242e-02,-1.510090811206214190e-01
1.660000000000000087e-01,-1.374679310707939695e-01,-8.239659051332146739e-03,-1.431869409779608637e-01
1.670000000000000095e-01,-9.592789824351534433e-02,2.938859849597268235e-03,-1.156458154626657520e-01
1.680000000000000104e-01,-4.398885273971509663e-02,6.296119267294378319e-02,-1.024484990192093964e-01
1.690000000000000113e-01,4.611135541913727147e-03,9.953429795714044404e-02,-7.745840301335903122e-02
1.700000000000000122e-01,4.855583469960993853e-02,1.331971001296917145e-01,-4.276560407031588379e-02
1.710000000000000131e-01,9.097054213011869506e-02,1.664531140234265238e-01,-3.840315531709396091e-03
1.719999999999999862e-01,1.405094338887719063e-01,1.800209166255494764e-01,1.805760314800262251e-02
1.729999999999999871e-01,1.922236847534465054e-01,2.071745890784413846e-01,4.274233173161984950e-02
1.739999999999999880e-01,2.334059991790491673e-01,2.172264710741915184e-01,7.681873406062825205e-02
1.749999999999999889e-01,2.502861057131740563e-01,2.317465309917974559e-01,9.987364129841949656e-02
1.759999999999999898e-01,2.671320240080631292e-01,2.266302609117108180e-01,1.159097889280096827e-01
1.769999999999999907e-01,2.791261496263260922e-01,2.127539094731074054e-01,1.409947128814748041e-01
1.779999999999999916e-01,2.807169392878807179e-01,2.043006505120877059e-01,1.614952347814987699e-01
1.789999999999999925e-01,2.789579909438233973e-01,1.695499344569895428e-01,1.459881969484963793e-01
1.799999999999999933e-01,2.631619555497027307e-01,1.372814726265962904e-01,1.592069802047624272e-01
1.809999999999999942e-01,2.328586545556191600e-01,1.164965286249226989e-01,1.703132102408401738e-01
1.819999999999999951e-01,2.188683912451801217e-01,8.296773315568145568e-02,1.571766163202598932e-01
1.829999999999999960e-01,1.742009747489898508e-01,3.143901763843200831e-02,1.462844603308370850e-01
1.839999999999999969e-01,1.315292223256652460e-01,-4.293759527375244460e-03,1.370972328540254470e-01
1.849999999999999978e-01,7.840228710018616598e-02,-3.609215316807812268e-02,1.166119832994988587e-01
1.859999999999999987e-01,2.329543171815401728e-02,-7.643050222612374212e-02,8.975093240331810662e-02
1.869999999999999996e-01,-1.607194273538447085e-02,-1.092892797591520776e-01,5.772311804143042541e-02
1.880000000000000004e-01,-7.629172668972701576e-02,-1.491098685535785506e-01,3.703565701177918140e-02
1.890000000000000013e-01,-1.136680258245685998e-01,-1.761740826552186112e-01,1.459013211661009009e-02
1.900000000000000022e-01,-1.627763331767556609e-01,-1.929817056852780044e-01,-1.336440586890093665e-02
1.910000000000000031e-01,-1.969546719546704239e-01,-2.115383429945582594e-01,-4.888692112678227897e-02
1.920000000000000040e-01,-2.311529201055055605e-01,-2.193488978475433282e-01,-7.926543025527850450e-02
1.930000000000000049e-01,-2.510109748669264174e-01,-2.234121406916259323e-01,-1.121387285292837072e-01
1.940000000000000058e-01,-2.758181814369407570e-01,-2.235312809955243007e-01,-1.269167476376167614e-01
1.950000000000000067e-01,-2.716393766859127590e-01,-2.041140442901105967e-01,-1.382452905942692101e-01
1.960000000000000075e-01,-2.764002345365630386e-01,-1.986014706348926684e-01,-1.672240419859233329e-01
1.970000000000000084e-01,-2.763344216260640307e-01,-1.586266587147364682e-01,-1.719947344689694013e-01
1.980000000000000093e-01,-2.581265043600405318e-01,-1.337386986512131004e-01,-1.744236300995634370e-01
1.990000000000000102e-01,-2.259890238610138824e-01,-1.021323059468634137e-01,-1.590607029482451196e-01
2.000000000000000111e-01,-1.972479351237572676e-01,-5.715230656565698647e-02,-1.583189415253919985e-01
2.010000000000000120e-01,-1.511722267087148297e-01,-2.594856328780420496e-02,-1.508790409891223872e-01
2.020000000000000129e-01,-1.064406637773203518e-01,1.985744990197674600e-02,-1.346612416039150717e-01
2.030000000000000138e-01,-7.117578401028060164e-02,5.392909993731141022e-02,-1.051432450455515727e-01
2.039999999999999869e-01,-2.134302687995501269e-02,1.011824481181985008e-01,-9.554680424648169523e-02
2.049999999999999878e-01,3.659459143854582042e-02,1.336657515636995308e-01,-6.034128201744026754e-02
2.059999999999999887e-01,8.659460263016963144e-02,1.690494237535110078e-01,-3.888802545630646451e-02
2.069999999999999896e-01,1.331686799000721122e-01,1.877960338508164462e-01,-8.104276832476262939e-04
2.079999999999999905e-01,1.726711173225310147e-01,2.053653416027398093e-01,3.354508128588102461e-02
2.089999999999999913e-01,2.045820693190230355e-01,2.278477912558999341e-01,5.688645773462630562e-02
2.099999999999999922e-01,2.388004747917300552e-01,2.258577952801335553e-01,8.946874299025821264e-02
2.109999999999999931e-01,2.605168728761898533e-01,2.241118423476341492e-01,1.079410394730389022e-01
2.119999999999999940e-01,2.817122009269235061e-01,2.040362248329455341e-01,1.231274988804347548e-01
2.129999999999999949e-01,2.828200336722023200e-01,1.880546352040876057e-01,1.467769864266928459e-01
2.139999999999999958e-01,2.789994929737197316e-01,1.806334786087903099e-01,1.681117250826535403e-01
2.149999999999999967e-01,2.551377715381071831e-01,1.528108637189145302e-01,1.698375001374457516e-01
2.159999999999999976e-01,2.358407271981255715e-01,1.090237891932783199e-01,1.541989450424161856e-01
2.169999999999999984e-01,2.104269886985140614e-01,7.665664401777794179e-02,1.747359439627225175e-01
2.179999999999999993e-01,1.852735822107770547e-01,4.833952442118092524e-02,1.518823277880012868e-01
2.190000000000000002e-01,1.546478543247233606e-01,4.817173227551499459e-03,1.523003108809755646e-01
2.200000000000000011e-01,9.292033173038612148e-02,-4.282621435780061686e-02,1.231201403101827019e-01
2.210000000000000020e-01,5.741536513564719779e-02,-7.526814592389198533e-02,1.127472231734094332e-01
2.220000000000000029e-01,5.708994851856404214e-03,-1.232036689299207260e-01,8.929166676298538885e-02
2.230000000000000038e-01,-5.596468349778130347e-02,-1.392217562486681992e-01,6.467022448777379195e-02
2.240000000000000047e-01,-1.083205489877903521e-01,-1.846776902823198119e-01,1.908566724758077593e-02
2.250000000000000056e-01,-1.486953328744365643e-01,-2.081718486752605068e-01,-6.116978673025749193e-03
2.260000000000000064e-01,-1.813010084906634123e-01,-2.146530691179399930e-01,-3.109631706949796126e-02
2.270000000000000073e-01,-2.153969064034816361e-01,-2.226149866261864507e-01,-7.014982897340778234e-02
2.280000000000000082e-01,-2.532321873864114559e-01,-2.274263605049390014e-01,-8.740016761277030755e-02
2.290000000000000091e-01,-2.677829411731075804e-01,-2.132898822718079512e-01,-1.165161002935380663e-01
2.300000000000000100e-01,-2.827578598820140177e-01,-2.004715293791526076e-01,-1.322579748749908579e-01
2.310000000000000109e-01,-2.821168797865579725e-01,-1.846264474002058398e-01,-1.383035754591921407e-01
2.320000000000000118e-01,-2.797713243455483556e-01,-1.550376949325864562e-01,-1.579757864801727141e-01
2.330000000000000127e-01,-2.619965478588400232e-01,-1.318477960457133391e-01,-1.714983824609039864e-01
2.340000000000000135e-01,-2.334955627087794416e-01,-9.150973805171841446e-02,-1.712253195586071752e-01
2.349999999999999867e-01,-2.006796044476157059e-01,-5.676391963348450392e-02,-1.800343203345820264e-01
2.359999999999999876e-01,-1.624985413717634775e-01,-2.159306201882214490e-02,-1.493750034950563355e-01
2.369999999999999885e-01,-1.219481745130310824e-01,2.022600775372966966e-02,-1.429727660381534537e-01
2.379999999999999893e-01,-7.622455170212698305e-02,5.350282416838898075e-02,-1.179724839946313525e-01
2.389999999999999902e-01,-1.776113505929734562e-02,1.088423929237525706e-01,-1.109928981787084296e-01
2.399999999999999911e-01,2.564990085373684142e-02,1.335079727539189853e-01,-7.848898305032374345e-02
2.409999999999999920e-01,7.044658593462327367e-02,1.700785147819434406e-01,-5.658758204839411943e-02
2.419999999999999929e-01,1.299296527823363689e-01,1.919446397950787808e-01,-2.053510189729263608e-02
2.429999999999999938e-01,1.580566179715963693e-01,2.147365895424161730e-01,1.241467649888953854e-02
2.439999999999999947e-01,2.038136145048322356e-01,2.153557655766559498e-01,3.788729473030229972e-02
2.449999999999999956e-01,2.448882674239438451e-01,2.200864271390183813e-01,6.253848899360955893e-02
2.459999999999999964e-01,2.529156542517183026e-01,2.281823550496120123e-01,9.979426911571537273e-02
2.469999999999999973e-01,2.748970422717041950e-01,2.066320840287070582e-01,1.076346053629435306e-01
2.479999999999999982e-01,2.816439172352607212e-01,1.947437563553938156e-01,1.379433785777066102e-01
2.489999999999999991e-01,2.762714367991658260e-01,1.733574873889549561e-01,1.488552344345067113e-01
2.500000000000000000e-01,2.705911583857428804e-01,1.382105423135039923e-01,1.649776634366293682e-01
2.510000000000000009e-01,2.481505074846417358e-01,1.182601669967342090e-01,1.735937439646544622e-01
2.520000000000000018e-01,2.224503832343396326e-01,7.942140245352151406e-02,1.681690487985027793e-01
2.530000000000000027e-01,1.846898806831353823e-01,3.012884353588908548e-02,1.669744750178555615e-01
2.540000000000000036e-01,1.534986727034424181e-01,-1.307205419812254923e-02,1.555701769633880405e-01
2.550000000000000044e-01,1.062134988576665245e-01,-3.809583126807229714e-02,1.368789874906791437e-01
2.560000000000000053e-01,5.441221921017427160e-02,-8.147765798060005449e-02,1.260860795564724690e-01
2.570000000000000062e-01,9.894632410202108819e-03,-1.139130197536020322e-01,9.862285621231235699e-02
2.580000000000000071e-01,-5.210633439156232144e-02,-1.472814314750023612e-01,6.293776805079701053e-02
2.590000000000000080e-01,-9.155742513495390700e-02,-1.748167363204921887e-01,4.819333739295354052e-02
2.600000000000000089e-01,-1.399034518777940717e-01,-2.013136699021973730e-01,1.366069491924014681e-02
2.610000000000000098e-01,-1.804859162746527967e-01,-2.137160488778044320e-01,-8.537251574588284111e-03
2.620000000000000107e-01,-2.185795876389841630e-01,-2.270722445928670952e-01,-3.777530001214517846e-02
2.630000000000000115e-01,-2.485224981109648568e-01,-2.347645497946913573e-01,-7.786824035479095185e-02
2.640000000000000124e-01,-2.612904997907559146e-01,-2.136440901525451797e-01,-9.852860979548533349e-02
2.650000000000000133e-01,-2.724170000227889576e-01,-2.079034639092421644e-01,-1.146886376108519207e-01
2.660000000000000142e-01,-2.885444146418538747e-01,-1.845909302395476459e-01,-1.371154318898835933e-01
2.670000000000000151e-01,-2.744065977207233997e-01,-1.658335419053634796e-01,-1.564730736760559793e-01
2.680000000000000160e-01,-2.605137423519342521e-01,-1.255263855285762287e-01,-1.643130121918130182e-01
2.690000000000000169e-01,-2.388559692124993250e-01,-8.251532333697253474e-02,-1.641284841922728555e-01
2.700000000000000178e-01,-2.193501884657192702e-01,-5.605900390822278478e-02,-1.674603417855378418e-01
2.710000000000000187e-01,-1.749641267692974012e-01,-1.230923714394555404e-02,-1.677193435461709903e-01
2.720000000000000195e-01,-1.414280363211889713e-01,2.263435629153107836e-02,-1.461312313088999892e-01
2.730000000000000204e-01,-8.390006911593718419e-02,6.400049837149901499e-02,-1.379267781681059180e-01
2.740000000000000213e-01,-4.220412940126674894e-02,9.948334565854799472e-02,-1.162862521448684572e-01
2.750000000000000222e-01,1.740632506693690074e-02,1.469362993923916116e-01,-9.042774299140206307e-02
2.760000000000000231e-01,5.832526766509579796e-02,1.596537445371417341e-01,-6.514515184933331038e-02
2.770000000000000240e-01,1.030318331992946118e-01,1.934378761820469972e-01,-4.324390524974612571e-02
2.780000000000000249e-01,1.543129393019289086e-01,2.035846496867153577e-01,-2.022826302222387879e-02
2.790000000000000258e-01,1.950921182778887764e-01,2.236253895452109952e-01,3.257688689352364331e-02
2.800000000000000266e-01,2.231691149881847303e-01,2.308733313964952683e-01,6.339905482492479150e-02
2.810000000000000275e-01,2.535565355078244210e-01,2.306100241666888817e-01,9.176334126114271683e-02
2.819999999999999729e-01,2.718927898509517216e-01,2.175531777951643653e-01,8.865294894051603536e-02
2.829999999999999738e-01,2.828209063075347585e-01,1.979387412926648104e-01,1.283154949386350330e-01
2.839999999999999747e-01,2.756327586472973046e-01,1.727796725208625706e-01,1.488139518077381263e-01
2.849999999999999756e-01,2.719102249731907839e-01,1.463410236616865812e-01,1.540664325840147841e-01
2.859999999999999765e-01,2.546114997061569851e-01,1.006337901971204596e-01,1.585143254477424379e-01
2.869999999999999774e-01,2.317948711889977476e-01,6.322532753846936415e-02,1.679381592842443260e-01
2.879999999999999782e-01,2.025377929363113561e-01,3.979804196852038817e-02,1.764877858646367870e-01
2.889999999999999791e-01,1.654131757445652384e-01,-7.255602811273634527e-04,1.569409680329199308e-01
2.899999999999999800e-01,1.241934620736355327e-01,-5.274031760435154981e-02,1.597221237093945923e-01
2.909999999999999809e-01,7.071376875046751775e-02,-8.925531100119599159e-02,1.416951820372720217e-01
2.919999999999999818e-01,2.837041233907448487e-02,-1.323275033844877047e-01,1.155531123753272965e-01
2.929999999999999827e-01,-3.241701400982689718e-02,-1.522343310042188480e-01,9.398665636901890053e-02
2.939999999999999836e-01,-7.796666897262614915e-02,-1.834179407271772366e-01,6.054467056021756860e-02
2.949999999999999845e-01,-1.298791892974292816e-01,-2.009591968115196914e-01,3.064833991687440293e-02
2.959999999999999853e-01,-1.634612712384252153e-01,-2.162704738251408632e-01,5.901912009861877417e-03
2.969999999999999862e-01,-1.972907176444037847e-01,-2.321612415544467567e-01,-2.707788271635105590e-02
2.979999999999999871e-01,-2.376542547311856490e-01,-2.281670430097943458e-01,-4.467052175081097365e-02
2.989999999999999880e-01,-2.608691734400006568e-01,-2.154200795364441257e-01,-8.308432050242552103e-02
2.999999999999999889e-01,-2.778151715968512070e-01,-2.032621393838497659e-01,-1.209298846656274434e-01
3.009999999999999898e-01,-2.772727085233454569e-01,-1.786381326170737860e-01,-1.236660304089802487e-01
3.019999999999999907e-01,-2.749976141775058447e-01,-1.617418205014767574e-01,-1.436777947607188188e-01
3.029999999999999916e-01,-2.733726962488520207e-01,-1.207309856439449658e-01,-1.601889681825067191e-01
3.039999999999999925e-01,-2.567989515690265456e-01,-9.756644620477315788e-02,-1.611974678701671715e-01
3.049999999999999933e-01,-2.219160425966235639e-01,-6.005621632389464976e-02,-1.731614151344322283e-01
3.059999999999999942e-01,-1.925437238777498172e-01,-1.387657606034577162e-02,-1.673984936122456246e-01
3.069999999999999951e-01,-1.433487430201766388e-01,1.834947824250470275e-02,-1.735399174818762491e-01
3.079999999999999960e-01,-1.012741179516140066e-01,6.553802906625921798e-02,-1.449546927918233807e-01
3.089999999999999969e-01,-5.945916096898695019e-02,9.725140207135594961e-02,-1.357468809055269732e-01
3.099999999999999978e-01,-1.555275426881410706e-03,1.344846609185897657e-01,-1.132570154458487632e-01
3.109999999999999987e-01,5.374417900660658637e-02,1.656279886342126861e-01,-7.499883004873046655e-02
3.119999999999999996e-01,9.424519505278455833e-02,1.898519741191101451e-01,-5.566596465107147285e-02
3.130000000000000004e-01,1.371740107066162229e-01,2.137693407212093444e-01,-2.594886686189393915e-02
3.140000000000000013e-01,1.844594376625911802e-01,2.151194724971932093e-01,-9.355498947184041935e-05
3.150000000000000022e-01,2.108806737309043000e-01,2.277627072857286994e-01,3.111604186020008878e-02
3.160000000000000031e-01,2.405273978250184186e-01,2.260943456804980767e-01,5.300284016755625605e-02
3.170000000000000040e-01,2.612834125082433845e-01,2.112881484839452539e-01,9.017813314272606073e-02
3.180000000000000049e-01,2.767333043996911268e-01,1.979569664551275587e-01,1.090218982659798552e-01
3.190000000000000058e-01,2.765426276203247768e-01,1.702890884498394486e-01,1.288968319900351822e-01
3.200000000000000067e-01,2.829955114779223457e-01,1.349076344606144617e-01,1.514459762209452443e-01
3.210000000000000075e-01,2.708793835656765903e-01,1.042763448849495511e-01,1.649846046783029485e-01
3.220000000000000084e-01,2.413067201763358927e-01,7.409152193363258143e-02,1.599595106539344613e-01
3.230000000000000093e-01,2.152145244017586723e-01,3.229410942189984285e-02,1.683567635143450592e-01
3.240000000000000102e-01,1.762813558615471676e-01,-6.343885619143068907e-03,1.600006766172093475e-01
3.250000000000000111e-01,1.404349232712349127e-01,-4.990472602487201065e-02,1.641532037683527401e-01
3.260000000000000120e-01,7.918067560283655049e-02,-7.554813747488808851e-02,1.441311232983435997e-01
3.270000000000000129e-01,4.180568637941181609e-02,-1.265372101008126193e-01,1.319234035929011117e-01
3.280000000000000138e-01,-1.395686354029224141e-02,-1.630726820860814441e-01,1.036749085191516623e-01
3.290000000000000147e-01,-6.595679458010508811e-02,-1.887192865704790390e-01,7.770952761618388216e-02
3.300000000000000155e-01,-1.148559862744430587e-01,-2.000852777679996419e-01,5.695369209347956457e-02
3.310000000000000164e-01,-1.534975827348711297e-01,-2.103835902260652035e-01,2.212955553474969458e-02
3.320000000000000173e-01,-1.948541337074984614e-01,-2.335276945441489560e-01,5.892183032876727872e-03
3.330000000000000182e-01,-2.286355281266428396e-01,-2.263657553139160061e-01,-3.222251448528138523e-02
3.340000000000000191e-01,-2.546541968613509899e-01,-2.155771063812204347e-01,-5.675404020534669663e-02
3.350000000000000200e-01,-2.786222203997289482e-01,-2.058284025658016214e-01,-8.743881338891380806e-02
3.360000000000000209e-01,-2.883987148604487127e-01,-1.867703686340416447e-01,-1.045681605906128991e-01
3.370000000000000218e-01,-2.799308262331767216e-01,-1.613869768876555755e-01,-1.333932472373595135e-01
3.380000000000000226e-01,-2.686591605257037108e-01,-1.218191780589439610e-01,-1.519734869361191731e-01
3.390000000000000235e-01,-2.594051182571292524e-01,-9.084064608622668957e-02,-1.773007669976947587e-01
3.400000000000000244e-01,-2.277200965824835444e-01,-5.041560349162420990e-02,-1.614101563731052680e-01
3.410000000000000253e-01,-1.827930117455717207e-01,-4.504295022448090435e-03,-1.666510467181127053e-01
3.420000000000000262e-01,-1.670189038633949075e-01,3.033291806095966478e-02,-1.640649412698467480e-01
3.430000000000000271e-01,-1.166451746544768797e-01,6.436286650876295312e-02,-1.446478699550345359e-01
3.439999999999999725e-01,-6.418748462875320526e-02,1.118117993192227488e-01,-1.413897739192071512e-01
3.449999999999999734e-01,-2.069749036940408959e-02,1.401509136949177503e-01,-1.192566614965187982e-01
3.459999999999999742e-01,3.340847997835282024e-02,1.643235526492170806e-01,-1.020266239037584122e-01
3.469999999999999751e-01,7.704709150912883442e-02,2.004584658030749700e-01,-7.737038168926697879e-02
3.479999999999999760e-01,1.227629220935913673e-01,2.090311422061983948e-01,-5.258682214257144605e-02
3.489999999999999769e-01,1.679924147064451867e-01,2.259883279997152716e-01,-1.457537361793292616e-02
3.499999999999999778e-01,1.968348584952849534e-01,2.301180762074997999e-01,7.739503057131551234e-03
3.509999999999999787e-01,2.441338944850162951e-01,2.196327715049516960e-01,3.186452290881294086e-02
3.519999999999999796e-01,2.538634148162557391e-01,2.144229612238553184e-01,5.804460097517483846e-02
3.529999999999999805e-01,2.742051985143348358e-01,2.030105804930306124e-01,1.039878000731966623e-01
3.539999999999999813e-01,2.833591198825268220e-01,1.620961378201350445e-01,1.249901172129052468e-01
3.549999999999999822e-01,2.775178810597457302e-01,1.495077580065139189e-01,1.331392620828421025e-01
3.559999999999999831e-01,2.692012730996909964e-01,1.078222583444296140e-01,1.559514953872214726e-01
3.569999999999999840e-01,2.436636824938654133e-01,6.815553210553319807e-02,1.677148141135775539e-01
3.579999999999999849e-01,2.191797270354694793e-01,2.460488833082463342e-02,1.617618169748568646e-01
3.589999999999999858e-01,1.830737046188144479e-01,-3.312485503552560755e-03,1.635529631901259939e-01
3.599999999999999867e-01,1.434623304338616401e-01,-4.911492029792081243e-02,1.637834630950397996e-01
3.609999999999999876e-01,1.048259734811448213e-01,-7.627884600773285340e-02,1.590854385850064279e-01
3.619999999999999885e-01,4.951944834028459974e-02,-1.294976298127541170e-01,1.466560803990655526e-01
3.629999999999999893e-01,6.763420047487430677e-03,-1.547634850357527680e-01,1.245506863029049172e-01
3.639999999999999902e-01,-4.053411897113287643e-02,-1.761102597916303358e-01,1.016022457799391765e-01
3.649999999999999911e-01,-1.070852021752262406e-01,-2.023693604530693024e-01,7.075305301226174348e-02
3.659999999999999920e-01,-1.505523932594763359e-01,-2.186613710199179772e-01,4.838585338281742310e-02
3.669999999999999929e-01,-1.815358173534348252e-01,-2.300247092827001905e-01,2.286076172189400665e-02
3.679999999999999938e-01,-2.161938525110021492e-01,-2.266613293007954388e-01,-1.455829993218414956e-02
3.689999999999999947e-01,-2.516776013791380828e-01,-2.140481288050561370e-01,-4.538071122503548743e-02
3.699999999999999956e-01,-2.744426186361823561e-01,-2.060799069965243702e-01,-7.787545874203787022e-02
3.709999999999999964e-01,-2.756487482817827073e-01,-1.937072410764363317e-01,-9.920721315375288785e-02
3.719999999999999973e-01,-2.771466561032116527e-01,-1.608476799512146560e-01,-1.273529605731214820e-01
3.729999999999999982e-01,-2.834795713538285078e-01,-1.252931173216748073e-01,-1.440085234431702499e-01
3.739999999999999991e-01,-2.579199851009803535e-01,-9.128741994559651241e-02,-1.560087486367499610e-01
3.750000000000000000e-01,-2.356824139742890734e-01,-4.249796662995927732e-02,-1.650923526396675944e-01
3.760000000000000009e-01,-2.055342955596685672e-01,-1.265055292995993091e-02,-1.601150766587932373e-01
3.770000000000000018e-01,-1.747137645099300918e-01,2.255415085473596454e-02,-1.716071414201786605e-01
3.780000000000000027e-01,-1.242381655675380281e-01,7.417006420249956655e-02,-1.668847628388624160e-01
3.790000000000000036e-01,-8.823437789261408259e-02,1.082723842753405830e-01,-1.473493793539075725e-01
3.800000000000000044e-01,-2.793996075499140946e-02,1.484092707511720788e-01,-1.396637079509721879e-01
3.810000000000000053e-01,1.773361573861661697e-02,1.680471570343502752e-01,-1.175265987233646142e-01
3.820000000000000062e-01,6.629824193329562909e-02,2.005080243413589758e-01,-8.364648145240291544e-02
3.830000000000000071e-01,1.195575479434427407e-01,2.197790499728294322e-01,-6.554126777020116701e-02
3.840000000000000080e-01,1.662757860974881097e-01,2.244444452654351940e-01,-3.121890702491850883e-02
3.850000000000000089e-01,1.994798919152464545e-01,2.228339756714037279e-01,-3.213746051816802115e-03
3.860000000000000098e-01,2.327955574225594182e-01,2.248418814794041209e-01,2.201800505092213131e-02
3.870000000000000107e-01,2.492844309041047923e-01,2.100420172423026477e-01,5.460142282053564305e-02
3.880000000000000115e-01,2.745589724209591687e-01,1.935028320709744343e-01,7.286886230435098144e-02
3.890000000000000124e-01,2.645132677384384734e-01,1.736224666855104293e-01,1.066616215243850752e-01
3.900000000000000133e-01,2.749084948893988911e-01,1.330725301996674437e-01,1.229824110518491220e-01
3.910000000000000142e-01,2.747306169937809295e-01,1.094696443735985320e-01,1.455485586723534730e-01
3.920000000000000151e-01,2.486971402877943271e-01,5.824459955238295988e-02,1.615937238496637507e-01
3.930000000000000160e-01,2.268454052008891664e-01,1.971609981293400565e-02,1.703619994572977137e-01
3.940000000000000169e-01,1.975691958990141994e-01,-1.252774378058678015e-02,1.688609082669073058e-01
3.950000000000000178e-01,1.517592844216515413e-01,-5.878374899390959724e-02,1.704083104204280885e-01
3.960000000000000187e-01,1.197473862708536285e-01,-8.746457512308135340e-02,1.615306239521721310e-01
3.970000000000000195e-01,6.485007100798666213e-02,-1.331516761293007334e-01,1.479380429614414738e-01
3.980000000000000204e-01,1.355414167056252783e-02,-1.590884949570091633e-01,1.380367620643733473e-01
3.990000000000000213e-01,-4.355728515710802218e-02,-1.909882325732978892e-01,1.156208274445398726e-01
4.000000000000000222e-01,-8.334915609584574170e-02,-2.106919217885760143e-01,9.411187269012855072e-02
4.010000000000000231e-01,-1.240733378080382809e-01,-2.170498091760278414e-01,5.574615854327585190e-02
4.020000000000000240e-01,-1.764020838177456085e-01,-2.265801878456498997e-01,3.564934713561634244e-02
4.030000000000000249e-01,-2.076473495347677112e-01,-2.256741929558021276e-01,-4.912743482077472357e-03
4.040000000000000258e-01,-2.324642509951787839e-01,-2.180259033448939399e-01,-2.266338856037029142e-02
4.050000000000000266e-01,-2.650197262732399417e-01,-1.963202405569242082e-01,-5.702038008010924808e-02
4.060000000000000275e-01,-2.727477143396639936e-01,-1.924788657438165629e-01,-7.608105180773903908e-02
4.069999999999999729e-01,-2.803869762060228754e-01,-1.509249414099351483e-01,-1.107425899759596488e-01
4.079999999999999738e-01,-2.785936946299634176e-01,-1.232898038348054365e-01,-1.210466061094245677e-01
4.089999999999999747e-01,-2.669613118438897703e-01,-7.793876347347071520e-02,-1.433553671460900403e-01
4.099999999999999756e-01,-2.406095740174530040e-01,-4.554110820564442191e-02,-1.538910634776728958e-01
4.109999999999999765e-01,-2.249161514354366953e-01,-1.562628070760867151e-03,-1.647006139938424762e-01
4.119999999999999774e-01,-1.775692163234776078e-01,3.379931134134970400e-02,-1.620986527587761350e-01
4.129999999999999782e-01,-1.431381181392009649e-01,8.435905165703848352e-02,-1.657029048775940927e-01
4.139999999999999791e-01,-9.886307490933275710e-02,1.227025832955167400e-01,-1.573370821474621706e-01
4.149999999999999800e-01,-4.198543858417787961e-02,1.415067424487388426e-01,-1.457182522326288254e-01
4.159999999999999809e-01,-4.414450545453412790e-04,1.633398783329162718e-01,-1.213421035545517307e-01
4.169999999999999818e-01,4.954960629711076259e-02,1.907400113576805945e-01,-1.030852992337106949e-01
4.179999999999999827e-01,1.104999162817855013e-01,2.102219546458465871e-01,-8.960233514894522244e-02
4.189999999999999836e-01,1.536099290102669601e-01,2.196013243764786127e-01,-5.363258799987390135e-02
4.199999999999999845e-01,1.878581138051637345e-01,2.165821124922980845e-01,-1.669801593849310622e-02
4.209999999999999853e-01,2.138841359628216587e-01,2.106492409049315340e-01,-1.205204730471161291e-03
4.219999999999999862e-01,2.398605826190937651e-01,2.167742247713319304e-01,3.275181255453358392e-02
4.229999999999999871e-01,2.721332402393109029e-01,1.965857906100553776e-01,6.002407989843978886e-02
4.239999999999999880e-01,2.785858733297233436e-01,1.501179494804250059e-01,8.801115017237944038e-02
4.249999999999999889e-01,2.816759762601120931e-01,1.267277679369519794e-01,1.064499533780187829e-01
4.259999999999999898e-01,2.837963691484319817e-01,1.032842584368887096e-01,1.317298490548710899e-01
4.269999999999999907e-01,2.681215365795234229e-01,7.273720500436164915e-02,1.470902717328068932e-01
4.279999999999999916e-01,2.418076278175091687e-01,2.544061607046552501e-02,1.571474916382345766e-01
4.289999999999999925e-01,2.077560953278816958e-01,-2.025176905503646776e-02,1.688865558369732345e-01
4.299999999999999933e-01,1.770949897420923957e-01,-5.635088819046771280e-02,1.661871126896953821e-01
4.309999999999999942e-01,1.326829222612970482e-01,-9.204353543744335509e-02,1.762504332337891111e-01
4.319999999999999951e-01,8.169310028735596307e-02,-1.441458872466125640e-01,1.610585005780754975e-01
4.329999999999999960e-01,2.403014394437262211e-02,-1.635965437597011185e-01,1.458448723631941002e-01
4.339999999999999969e-01,-2.605832215207290123e-02,-1.923642629011050043e-01,1.260784848020846394e-01
4.349999999999999978e-01,-7.254685356092362147e-02,-2.083914422848459347e-01,1.082575191720635682e-01
4.359999999999999987e-01,-1.184142196365564059e-01,-2.148799995195866119e-01,6.666852122989026797e-02
4.369999999999999996e-01,-1.578136131983967627e-01,-2.186355666193998959e-01,5.826140248753454431e-02
4.380000000000000004e-01,-1.935582837864406880e-01,-2.170347254680161375e-01,2.779554566740769644e-02
4.390000000000000013e-01,-2.351800719906484149e-01,-2.213665925525833134e-01,-1.208888095642809447e-02
4.400000000000000022e-01,-2.584719079836763078e-01,-2.027122280684582334e-01,-3.749922089805646924e-02
4.410000000000000031e-01,-2.727848336544169694e-01,-1.791796692322811246e-01,-6.279806832319685672e-02
4.420000000000000040e-01,-2.798934639927964096e-01,-1.552481457301592704e-01,-9.299837989364853619e-02
4.430000000000000049e-01,-2.752281414428148221e-01,-1.188292789763707447e-01,-1.149209610255567393e-01
4.440000000000000058e-01,-2.789515354212163123e-01,-8.110251730177590879e-02,-1.339606592755680781e-01
4.450000000000000067e-01,-2.494307221362283833e-01,-4.677497195481247066e-02,-1.505685009497713112e-01
4.460000000000000075e-01,-2.163806835071357404e-01,-8.311367605664475230e-03,-1.620005458238588658e-01
4.470000000000000084e-01,-1.948325680583145036e-01,4.958599291420148075e-02,-1.604113730752340095e-01
4.480000000000000093e-01,-1.546364555892584258e-01,8.535792117381657551e-02,-1.690835985480735881e-01
4.490000000000000102e-01,-1.109615933713838098e-01,1.036015799024992273e-01,-1.656665102786354371e-01
4.500000000000000111e-01,-6.174631181601366453e-02,1.489115713862074752e-01,-1.491779151330054065e-01
4.510000000000000120e-01,-1.212084223970478526e-02,1.769677811446693783e-01,-1.472788595232844278e-01
4.520000000000000129e-01,4.813762552877139111e-02,1.994994159596545635e-01,-1.274711170795764792e-01
4.530000000000000138e-01,8.956637593080850335e-02,2.157737622609178230e-01,-1.002049451412032749e-01
4.540000000000000147e-01,1.230590322966387401e-01,2.282223690362131518e-01,-7.755856115311715593e-02
4.550000000000000155e-01,1.774679269621978750e-01,2.375241272485923705e-01,-5.495931632174127363e-02
4.560000000000000164e-01,2.097457490056927887e-01,2.214166233152873031e-01,-1.638195025760436768e-02
4.570000000000000173e-01,2.416544557715455399e-01,2.040435862185250304e-01,1.281534777136290014e-02
4.580000000000000182e-01,2.684802209671633411e-01,1.864425548408694122e-01,3.868325302608874305e-02
4.590000000000000191e-01,2.680293344203368289e-01,1.646523008211712158e-01,6.124977291771977611e-02
4.600000000000000200e-01,2.751775025506112415e-01,1.354517316453735798e-01,8.719584814127516459e-02
4.610000000000000209e-01,2.778946845644953978e-01,1.054036596236298251e-01,1.161346376782254053e-01
4.620000000000000218e-01,2.527196213023066851e-01,5.702048946532748547e-02,1.508988033162647624e-01
4.630000000000000226e-01,2.454300585240360433e-01,2.306130286752099481e-02,1.577343904330588964e-01
4.640000000000000235e-01,2.184718811828873786e-01,-2.722168108110931822e-02,1.716712035169872252e-01
4.650000000000000244e-01,1.806086167591833547e-01,-5.946587775574972007e-02,1.641856665220706168e-01
4.660000000000000253e-01,1.328249651817980104e-01,-1.047562703152773028e-01,1.725947245587158563e-01
4.670000000000000262e-01,8.945543089588824104e-02,-1.327699189487995535e-01,1.688412023695792519e-01
4.680000000000000271e-01,5.076897352270483277e-02,-1.608520923174402706e-01,1.533961825006871504e-01
4.689999999999999725e-01,-1.573157518639765884e-02,-1.855204120339759566e-01,1.471372204051639987e-01
4.699999999999999734e-01,-5.141409279701097262e-02,-2.197897730995437837e-01,1.226270585960154841e-01
4.709999999999999742e-01,-1.082521457257833025e-01,-2.157512623412268238e-01,1.010017871752702245e-01
4.719999999999999751e-01,-1.485692791572849614e-01,-2.201964360941583987e-01,7.213842316147325850e-02
4.729999999999999760e-01,-1.904969503008415166e-01,-2.238674441964535466e-01,4.538752632322110708e-02
4.739999999999999769e-01,-2.245667241678433179e-01,-2.094212499607600031e-01,1.751174430224723341e-02
4.749999999999999778e-01,-2.573401906112348647e-01,-2.111260883110752939e-01,-1.126755518943063986e-02
4.759999999999999787e-01,-2.702425180692884510e-01,-1.707555238958367860e-01,-4.635098632171029409e-02
4.769999999999999796e-01,-2.776606613643764487e-01,-1.507001357384647744e-01,-7.514100366532208697e-02
4.779999999999999805e-01,-2.810175181420713209e-01,-1.227696536502228264e-01,-9.975880149018262477e-02
4.789999999999999813e-01,-2.711542305586987500e-01,-8.907307182012956515e-02,-1.193084145308419414e-01
4.799999999999999822e-01,-2.534657308868119019e-01,-3.046136840045001598e-02,-1.334473415135263574e-01
4.809999999999999831e-01,-2.335952185528046010e-01,-2.678475600131723870e-03,-1.511611192172445661e-01
4.819999999999999840e-01,-1.953480605880780208e-01,3.702615296439213527e-02,-1.664781969209015444e-01
4.829999999999999849e-01,-1.638949560284252427e-01,7.956519338738421432e-02,-1.796767097983997807e-01
4.839999999999999858e-01,-1.344192093728575343e-01,1.176002209061789566e-01,-1.563511667321770271e-01
4.849999999999999867e-01,-7.929405367111148906e-02,1.481005020587336796e-01,-1.603326225672628835e-01
4.859999999999999876e-01,-3.714396978527868820e-02,1.751571058031509420e-01,-1.415322219641183821e-01
4.869999999999999885e-01,3.025578711739929788e-02,1.901954375244121753e-01,-1.364606867316206784e-01
4.879999999999999893e-01,6.492425641215780752e-02,2.046368592415289955e-01,-1.155938191378815538e-01
4.889999999999999902e-01,1.107445536137234288e-01,2.221825587018859405e-01,-9.240724965670563118e-02
4.899999999999999911e-01,1.725635613466750262e-01,2.227929584507589988e-01,-7.061479946051758827e-02
4.909999999999999920e-01,2.069953014555608040e-01,2.144329113098628892e-01,-3.964770142496730487e-02
4.919999999999999929e-01,2.306506424950365841e-01,2.093805714545923791e-01,-9.063402406068012465e-03
4.929999999999999938e-01,2.539440408945227712e-01,1.909216186591382591e-01,1.905709314583343625e-02
4.939999999999999947e-01,2.770752461503873110e-01,1.620249898532335198e-01,5.421401848827692854e-02
4.949999999999999956e-01,2.766824112114143475e-01,1.324419157993917684e-01,8.857693428177645933e-02
4.959999999999999964e-01,2.713834296449767480e-01,8.978916019311074248e-02,1.139183026227877787e-01
4.969999999999999973e-01,2.769583468115835445e-01,6.346592844809501033e-02,1.319809029963227853e-01
4.979999999999999982e-01,2.509738000881260866e-01,1.983767894118068642e-02,1.422042670011432752e-01
4.989999999999999991e-01,2.312282950303442830e-01,-2.514274246698975854e-02,1.509743385188256626e-01
5.000000000000000000e-01,1.910265420696775629e-01,-6.338957043416000581e-02,1.613700456274724526e-01
5.010000000000000009e-01,1.540015297824195439e-01,-1.018974208622005218e-01,1.718439965444749085e-01
5.020000000000000018e-01,1.080624938762390075e-01,-1.322557842396249461e-01,1.714823965678987649e-01
5.030000000000000027e-01,4.854454608657861325e-02,-1.788328697195933070e-01,1.645362368656250740e-01
5.040000000000000036e-01,2.742377612386904476e-03,-1.875221593664560538e-01,1.537610162199497532e-01
5.050000000000000044e-01,-4.690972874049570418e-02,-2.145391519265645031e-01,1.262973815466267025e-01
5.060000000000000053e-01,-9.269891082401789106e-02,-2.150825609597737664e-01,1.133806331245537091e-01
5.070000000000000062e-01,-1.316596047754796661e-01,-2.153189023664349167e-01,9.219661016339343595e-02
5.080000000000000071e-01,-1.749269118660577160e-01,-2.164999234955025387e-01,5.362398371702004063e-02
5.090000000000000080e-01,-2.129715894336657311e-01,-2.115960576403380367e-01,2.487499224510094850e-02
5.100000000000000089e-01,-2.334907356312170557e-01,-2.020173380681077047e-01,4.661663562383364622e-03
5.110000000000000098e-01,-2.518415708940800468e-01,-1.691818551891617339e-01,-2.460249779032758558e-02
5.120000000000000107e-01,-2.724341575119190728e-01,-1.423813564759062733e-01,-5.979643959859753943e-02
5.130000000000000115e-01,-2.801442302772733650e-01,-1.086597365000454563e-01,-8.208975604045268271e-02
5.140000000000000124e-01,-2.773837584472170215e-01,-7.412332895972385816e-02,-1.070366508468261618e-01
5.150000000000000133e-01,-2.613873245591794570e-01,-3.943203768587916908e-02,-1.287381735695638518e-01
5.160000000000000142e-01,-2.433524495267321286e-01,4.684865307287397647e-03,-1.492693534255748466e-01
5.170000000000000151e-01,-2.079462001503085133e-01,4.395943108800504096e-02,-1.518877000187517645e-01
5.180000000000000160e-01,-1.846182806612642613e-01,7.812614150627356091e-02,-1.733924048739988177e-01
5.190000000000000169e-01,-1.301651158300269617e-01,1.236380679546864869e-01,-1.708653995942964465e-01
5.200000000000000178e-01,-9.379170125918556700e-02,1.460326563648540188e-01,-1.625072594244036661e-01
5.210000000000000187e-01,-4.473802059172288931e-02,1.767977208346784013e-01,-1.547645202797016395e-01
5.220000000000000195e-01,1.891075888222581991e-02,2.041373990919675141e-01,-1.501945415731786027e-01
5.230000000000000204e-01,5.487628901068414972e-02,2.152479328829000338e-01,-1.310489634072340426e-01
5.240000000000000213e-01,1.095339163141662436e-01,2.276131054390108654e-01,-1.021039492743599647e-01
5.250000000000000222e-01,1.462212242755678571e-01,2.300432491406564917e-01,-6.880877579004716915e-02
5.260000000000000231e-01,1.948233329836007166e-01,2.143343488934865981e-01,-5.184033832585570323e-02
5.270000000000000240e-01,2.240916137198006586e-01,2.043906558066126700e-01,-2.695878092259092543e-02
5.280000000000000249e-01,2.517660799936690674e-01,1.857623602583980682e-01,1.005873213635228441e-03
5.290000000000000258e-01,2.696455390743128788e-01,1.613048029860314758e-01,3.786375430049791768e-02
5.300000000000000266e-01,2.780088469061173795e-01,1.327666806973932523e-01,5.559818172267733116e-02
5.310000000000000275e-01,2.915657550808301579e-01,9.196301753179621230e-02,7.931785909258007305e-02
5.320000000000000284e-01,2.730747471306929075e-01,5.877050275045177935e-02,1.176353533666122386e-01
5.330000000000000293e-01,2.603422065440958999e-01,1.688365854692662829e-02,1.436590941551782741e-01
5.340000000000000302e-01,2.401836660274910273e-01,-2.769847686096861550e-02,1.535908889885261031e-01
5.350000000000000311e-01,2.074342342613503531e-01,-6.306747473614932042e-02,1.617908909513573745e-01
5.360000000000000320e-01,1.729426967946534055e-01,-1.085853854608618274e-01,1.658570991643923687e-01
5.370000000000000329e-01,1.101348130246128931e-01,-1.416254345834473682e-01,1.834711890560172809e-01
5.380000000000000338e-01,7.900416403826786282e-02,-1.743539279797013397e-01,1.649598109904233945e-01
5.390000000000000346e-01,1.349591642792526830e-02,-2.020321806829477873e-01,1.563448203898283595e-01
5.400000000000000355e-01,-2.455890707420440439e-02,-2.118774730710511756e-01,1.390241752034639400e-01
5.410000000000000364e-01,-7.656167918720235832e-02,-2.133822854727412954e-01,1.326328056618085449e-01
5.420000000000000373e-01,-1.225177807019876275e-01,-2.154060399630151335e-01,1.049746126310723560e-01
5.430000000000000382e-01,-1.551060641204316248e-01,-2.268940085090966063e-01,8.211320407519895337e-02
5.440000000000000391e-01,-1.911561292607953377e-01,-2.045782542130423209e-01,4.603708326451403515e-02
5.450000000000000400e-01,-2.330498186855122222e-01,-1.878616854826552218e-01,1.921228045227536124e-02
5.460000000000000409e-01,-2.505321906702167034e-01,-1.748461484793940035e-01,-9.374907138492647937e-03
5.470000000000000417e-01,-2.746567928812561621e-01,-1.466689525688635864e-01,-3.214875126049540621e-02
5.480000000000000426e-01,-2.904038364863374411e-01,-1.056137473201997357e-01,-7.538814586236596005e-02
5.490000000000000435e-01,-2.802978026221141228e-01,-7.682630771617426912e-02,-1.021914792698559726e-01
5.500000000000000444e-01,-2.621800890226748115e-01,-3.606090818366852746e-02,-1.107392313852609556e-01
5.510000000000000453e-01,-2.475814285455236186e-01,6.564772755941333804e-03,-1.520696213659033236e-01
5.520000000000000462e-01,-2.225187823219480221e-01,4.470068283955710292e-02,-1.448760371690278881e-01
5.530000000000000471e-01,-1.839817627231857267e-01,8.408792828859781854e-02,-1.630005320752074272e-01
5.540000000000000480e-01,-1.475332016468640373e-01,1.265357176915062887e-01,-1.574390023295100527e-01
5.550000000000000488e-01,-1.008589204266439610e-01,1.575584775392224468e-01,-1.591628850909362070e-01
5.560000000000000497e-01,-5.145830870945811153e-02,1.731106339664272853e-01,-1.652094850895215739e-01
5.570000000000000506e-01,-9.484360744906147889e-03,2.028678718906518630e-01,-1.531123915521342693e-01
5.580000000000000515e-01,4.377178171194950201e-02,2.188456799783147777e-01,-1.357246490204969125e-01
5.590000000000000524e-01,9.804200450537829681e-02,2.352551767324794485e-01,-1.087978429881245740e-01
5.600000000000000533e-01,1.440057803757184285e-01,2.206526248250438582e-01,-1.005078211585475750e-01
5.610000000000000542e-01,1.848285510415066391e-01,2.157477269805106457e-01,-7.053457838613035047e-02
5.620000000000000551e-01,2.127506352154592828e-01,2.002110687180181647e-01,-4.324927790874461692e-02
5.629999999999999449e-01,2.442586682033564272e-01,1.865261248563982732e-01,-1.057536468624693630e-02
5.639999999999999458e-01,2.610446844009876033e-01,1.606938254837502467e-01,1.780850833985249751e-02
5.649999999999999467e-01,2.822536052542486407e-01,1.170622559254324985e-01,4.243211103018697944e-02
5.659999999999999476e-01,2.839431660483830444e-01,9.410300691021855624e-02,7.169929750006266700e-02
5.669999999999999485e-01,2.763273236713156278e-01,5.190486597635054350e-02,9.503908132204104409e-02
5.679999999999999494e-01,2.713540862963039202e-01,1.069108037612026378e-02,1.254635549201009448e-01
5.689999999999999503e-01,2.364456072133673536e-01,-2.768184996471647133e-02,1.355342516788246576e-01
5.699999999999999512e-01,2.066860365575309000e-01,-6.271736279295898886e-02,1.451284903368717516e-01
5.709999999999999520e-01,1.787188224689886806e-01,-1.022291451155814268e-01,1.602484361660956314e-01
5.719999999999999529e-01,1.445840003279879049e-01,-1.425837441239877212e-01,1.630231903844896746e-01
5.729999999999999538e-01,7.777632896018102371e-02,-1.793826274438229951e-01,1.692235260426420418e-01
5.739999999999999547e-01,3.978897378590973838e-02,-1.942654981448586338e-01,1.646870884819465475e-01
5.749999999999999556e-01,-8.186708959789190622e-04,-2.165566330724751909e-01,1.536667038818657072e-01
5.759999999999999565e-01,-5.145860208450004497e-02,-2.120889040406727655e-01,1.384368399157427654e-01
5.769999999999999574e-01,-1.082419005209586532e-01,-2.245452934646999243e-01,1.194468992960951992e-01
5.779999999999999583e-01,-1.590955183756102564e-01,-2.257083987080396315e-01,8.687636784688669567e-02
5.789999999999999591e-01,-1.976577099416880201e-01,-2.141774606204732423e-01,6.998342823887106212e-02
5.799999999999999600e-01,-2.333547922687444487e-01,-1.988335780271693887e-01,3.486176678233705861e-02
5.809999999999999609e-01,-2.472448132855579739e-01,-1.808940784415686287e-01,9.331888858595756980e-03
5.819999999999999618e-01,-2.576751745933286708e-01,-1.256169014155381625e-01,-2.672766039635993129e-02
5.829999999999999627e-01,-2.782204367853309823e-01,-9.680045809737401752e-02,-5.582422480024337719e-02
5.839999999999999636e-01,-2.764172832191150175e-01,-8.021294032639716964e-02,-7.850707330956487040e-02
5.849999999999999645e-01,-2.918406292947420821e-01,-3.927267221739861452e-02,-1.031222558144666013e-01
5.859999999999999654e-01,-2.586884815698640150e-01,1.609702438128995938e-02,-1.147771348752014836e-01
5.869999999999999662e-01,-2.255615881386606736e-01,4.297552621916322230e-02,-1.426033604406286570e-01
5.879999999999999671e-01,-1.992188914044663028e-01,7.693482207423468777e-02,-1.550229189849905986e-01
5.889999999999999680e-01,-1.493902416557023050e-01,1.227548595804779513e-01,-1.645649730391075538e-01
5.899999999999999689e-01,-1.089106277509795384e-01,1.544664959867032283e-01,-1.640907825444599122e-01
5.909999999999999698e-01,-6.730304247626552050e-02,1.931400094801933032e-01,-1.576835048502193692e-01
5.919999999999999707e-01,-2.513966185773059553e-02,2.071630145659188738e-01,-1.635986190190644174e-01
5.929999999999999716e-01,3.460453884509264583e-02,2.139747100220430187e-01,-1.528292160465294369e-01
5.939999999999999725e-01,7.669063025633932051e-02,2.281215883301174197e-01,-1.327626265848631804e-01
5.949999999999999734e-01,1.241785932455749947e-01,2.243865468360972948e-01,-1.105336923706054103e-01
5.959999999999999742e-01,1.730866471128412742e-01,2.210587341717425991e-01,-9.122110245862147249e-02
5.969999999999999751e-01,2.055879293944212205e-01,2.065927464082827070e-01,-7.219404548944062527e-02
5.979999999999999760e-01,2.320786472771850795e-01,1.909322061314475683e-01,-3.364853608993887552e-02
5.989999999999999769e-01,2.589838741328514549e-01,1.570793507631471353e-01,-8.221576488294912721e-03
5.999999999999999778e-01,2.812202000288158144e-01,1.295966290432095103e-01,3.205159307843043204e-02
6.009999999999999787e-01,2.801524976881254458e-01,8.587503146493807860e-02,6.279811405666277380e-02
6.019999999999999796e-01,2.800558343542801643e-01,4.782878630414136994e-02,8.641379387178674265e-02
6.029999999999999805e-01,2.698366833266146458e-01,8.752585038549400009e-03,1.180276105060961978e-01
6.039999999999999813e-01,2.432819712139495105e-01,-2.005421345786449414e-02,1.317706264873564626e-01
6.049999999999999822e-01,2.157962038160023410e-01,-7.323659157331258163e-02,1.507544969266738644e-01
6.059999999999999831e-01,1.878316824912013849e-01,-9.975623183339979438e-02,1.619805021765562958e-01
6.069999999999999840e-01,1.469280679096619802e-01,-1.474488036850590822e-01,1.621833801072542769e-01
6.079999999999999849e-01,9.405956817530984615e-02,-1.713847748518393110e-01,1.736644099633577187e-01
6.089999999999999858e-01,5.228538899433648329e-02,-1.912556864179303373e-01,1.676169855454625046e-01
6.099999999999999867e-01,-1.709475717078548897e-03,-2.096003464218103851e-01,1.579246711945412052e-01
6.109999999999999876e-01,-5.124145367968594572e-02,-2.338082726528050714e-01,1.415466139899110853e-01
6.119999999999999885e-01,-9.391002465067070648e-02,-2.309197694169861648e-01,1.169089696198954004e-01
6.129999999999999893e-01,-1.508161174538197591e-01,-2.138179197357602812e-01,1.166495092792416560e-01
6.139999999999999902e-01,-1.775436615695080711e-01,-2.012453237891963509e-01,9.582540687723246908e-02
6.149999999999999911e-01,-2.213409913918064631e-01,-1.973412619166681203e-01,6.176456274350885373e-02
6.159999999999999920e-01,-2.361843557358771772e-01,-1.665408587290447273e-01,2.928903169652935512e-02
6.169999999999999929e-01,-2.635447180146290314e-01,-1.400002262875607029e-01,-5.318725914354127844e-03
6.179999999999999938e-01,-2.777979323246987930e-01,-1.029165382975419929e-01,-2.845043943491565308e-02
6.189999999999999947e-01,-2.894626293573795417e-01,-6.465474000111522124e-02,-6.512046379109635852e-02
6.199999999999999956e-01,-2.658126306854563525e-01,-3.013691349340901632e-02,-9.214895264905538508e-02
6.209999999999999964e-01,-2.593693366523375232e-01,4.322427330224043636e-03,-1.110469321147242172e-01
6.219999999999999973e-01,-2.416236620231841659e-01,4.249801557413428188e-02,-1.335080281604860974e-01
6.229999999999999982e-01,-2.138143097802606418e-01,9.108086244651472652e-02,-1.515680878352769489e-01
6.239999999999999991e-01,-1.696118775569370185e-01,1.335011649771180309e-01,-1.622264174196349495e-01
6.250000000000000000e-01,-1.327642818353404475e-01,1.548573994681620158e-01,-1.584155005150500173e-01
6.260000000000000009e-01,-8.917661818663842610e-02,1.862058136237077499e-01,-1.656141599400949016e-01
6.270000000000000018e-01,-3.100683257451473940e-02,2.052860514606241471e-01,-1.619817520747369455e-01
6.280000000000000027e-01,7.167323741047275376e-03,2.190407996843356242e-01,-1.640507736691652063e-01
6.290000000000000036e-01,7.100833062967694398e-02,2.255556648472149817e-01,-1.393935770984243983e-01
6.300000000000000044e-01,1.260414097062181049e-01,2.304993052621839567e-01,-1.231337726954040840e-01
6.310000000000000053e-01,1.556539982140612011e-01,2.201455867055154003e-01,-1.032669216761441799e-01
6.320000000000000062e-01,1.888210601404881062e-01,1.937192378614233657e-01,-9.706912287206324874e-02
6.330000000000000071e-01,2.313115277641987488e-01,1.811228016015828113e-01,-5.145005561536916683e-02
6.340000000000000080e-01,2.570633223869333017e-01,1.496051219744564398e-01,-2.336797265278826169e-02
6.350000000000000089e-01,2.646111881276624334e-01,1.236717033463863996e-01,4.015272160294676256e-03
6.360000000000000098e-01,2.845404430130168971e-01,9.534609014316512698e-02,2.949138907994265299e-02
6.370000000000000107e-01,2.875239283457476924e-01,4.276625924707391779e-02,5.789921891446017654e-02
6.380000000000000115e-01,2.686030823984042470e-01,6.076693994670006281e-03,8.302450886864028157e-02
6.390000000000000124e-01,2.538552080761962149e-01,-3.643381374818101953e-02,1.181012127739025780e-01
6.400000000000000133e-01,2.228638710462876871e-01,-6.961882391363814759e-02,1.332363663311673108e-01
6.410000000000000142e-01,2.058046906322526515e-01,-1.090352402858312669e-01,1.589750664847093820e-01
6.420000000000000151e-01,1.618381207467848304e-01,-1.513706661316517599e-01,1.646662510998900819e-01
6.430000000000000160e-01,9.976363619887834711e-02,-1.719808024399216706e-01,1.603888117719228790e-01
6.440000000000000169e-01,6.476117598671279896e-02,-1.977437676663522659e-01,1.681790961636864534e-01
6.450000000000000178e-01,2.148248582954372446e-02,-2.140697789648727534e-01,1.740919321197482716e-01
6.460000000000000187e-01,-2.360490922528354907e-02,-2.329251043934037479e-01,1.456356600763969167e-01
6.470000000000000195e-01,-8.483772552688122193e-02,-2.319093512329181428e-01,1.453468520543379217e-01
6.480000000000000204e-01,-1.266771288052201683e-01,-2.267624017633410594e-01,1.210832114033796592e-01
6.490000000000000213e-01,-1.750151872499760008e-01,-2.009990553441934891e-01,1.090272759234470340e-01
6.500000000000000222e-01,-2.178116075226133874e-01,-1.909486363802409270e-01,7.967794319539814318e-02
6.510000000000000231e-01,-2.295009187363354908e-01,-1.617175201020292497e-01,4.068300383016875549e-02
6.520000000000000240e-01,-2.639891804714284418e-01,-1.416136387580159972e-01,1.863774635525365653e-02
6.530000000000000249e-01,-2.723167358633303281e-01,-9.666192521042661634e-02,-1.596003086397915216e-02
6.540000000000000258e-01,-2.833027273093065568e-01,-6.978386766943633912e-02,-4.429690378834499898e-02
6.550000000000000266e-01,-2.805630987962607903e-01,-3.481034671781547268e-02,-7.042280762889652213e-02
6.560000000000000275e-01,-2.666637229099034223e-01,-1.282302202905224607e-04,-9.000861515984900918e-02
6.570000000000000284e-01,-2.433228158207937086e-01,6.101625241832100283e-02,-1.149909685042716512e-01
6.580000000000000293e-01,-2.152463504592330990e-01,9.731579702321425940e-02,-1.378084770990662122e-01
6.590000000000000302e-01,-1.822608961691692953e-01,1.284106600659115083e-01,-1.544725912898380904e-01
6.600000000000000311e-01,-1.405566426892157772e-01,1.549988197734485096e-01,-1.640298590886083430e-01
6.610000000000000320e-01,-9.614547657727008645e-02,1.765160667118327864e-01,-1.667337366778258723e-01
6.620000000000000329e-01,-4.452723602119881829e-02,1.957109871527919764e-01,-1.767901588859838169e-01
6.630000000000000338e-01,-9.548260406885484761e-03,2.283098431656985783e-01,-1.593311372500409717e-01
6.640000000000000346e-01,6.061697959424913740e-02,2.293146153836883305e-01,-1.574553469824555574e-01
6.650000000000000355e-01,1.011483395955544290e-01,2.329336955191161351e-01,-1.435926325343359344e-01
6.660000000000000364e-01,1.507990517615143133e-01,2.067773881138756653e-01,-1.199266866342944271e-01
6.670000000000000373e-01,1.829177527573885575e-01,2.018726776580088145e-01,-9.578406981762176142e-02
6.680000000000000382e-01,2.202317803266873042e-01,1.772178557168651580e-01,-6.450061712293661542e-02
6.690000000000000391e-01,2.488352882385717613e-01,1.452197995040755973e-01,-4.503592988666411945e-02
6.700000000000000400e-01,2.682063092655064818e-01,1.151711193887571955e-01,-1.250533330040214455e-02
6.710000000000000409e-01,2.727972090496582624e-01,8.023968841655269857e-02,1.455782760661749470e-02
6.720000000000000417e-01,2.760205618871577893e-01,4.062685571823861086e-02,4.411948607822679252e-02
6.730000000000000426e-01,2.661608143870587972e-01,-1.999810251098782261e-03,7.153967200876353016e-02
6.740000000000000435e-01,2.658701279850151367e-01,-3.115806839062169528e-02,1.001022273759821224e-01
6.750000000000000444e-01,2.295550330666479566e-01,-8.411672127950479971e-02,1.294273612818132579e-01
6.760000000000000453e-01,2.076300654463468787e-01,-9.887662407366153150e-02,1.374121088084301057e-01
6.770000000000000462e-01,1.687916093327488098e-01,-1.529445189696996554e-01,1.547935977731346724e-01
6.780000000000000471e-01,1.189891439415324687e-01,-1.843197300058314336e-01,1.687822291576026035e-01
6.790000000000000480e-01,7.307883006373787349e-02,-1.964638798157533062e-01,1.738647550862244540e-01
6.800000000000000488e-01,3.167264448028810769e-02,-2.075473837891788909e-01,1.623088033292195420e-01
6.810000000000000497e-01,-1.669222673858918385e-02,-2.170370008115091731e-01,1.609080259924967338e-01
6.820000000000000506e-01,-6.306065477191709345e-02,-2.231120757735227944e-01,1.569740079285282530e-01
6.830000000000000515e-01,-1.119501665744407903e-01,-2.066166507058955770e-01,1.416691519139771649e-01
6.840000000000000524e-01,-1.614421170311026721e-01,-2.065037586000269820e-01,1.263191805909743282e-01
6.850000000000000533e-01,-2.003268036347302661e-01,-1.948156621157787205e-01,9.085516080835494279e-02
6.860000000000000542e-01,-2.393910905781742038e-01,-1.688394563307354379e-01,6.771731582701387420e-02
6.870000000000000551e-01,-2.609402857973713297e-01,-1.394104290356527331e-01,2.520723177546613583e-02
6.879999999999999449e-01,-2.731928565670116438e-01,-1.003231589989884154e-01,1.066512030003808655e-02
6.889999999999999458e-01,-2.873139258550193587e-01,-6.600441241349548627e-02,-1.506502419273811864e-02
6.899999999999999467e-01,-2.964220600872823352e-01,-2.182358344092687544e-02,-4.279113484343335938e-02
6.909999999999999476e-01,-2.807969114874940830e-01,1.582929062122527888e-02,-7.896025230557562891e-02
6.919999999999999485e-01,-2.484605487166504090e-01,6.513385639285677875e-02,-1.048781025964424796e-01
6.929999999999999494e-01,-2.241299290208150219e-01,1.021376428508734974e-01,-1.284997274309262472e-01
6.939999999999999503e-01,-1.975961479211501282e-01,1.330155342595495394e-01,-1.387066174521761341e-01
6.949999999999999512e-01,-1.571208530582715590e-01,1.657244817879772458e-01,-1.654837759249684348e-01
6.959999999999999520e-01,-1.046550741213870261e-01,1.914762845138171243e-01,-1.588804500766249073e-01
6.969999999999999529e-01,-5.504750267485029186e-02,2.077940573403249946e-01,-1.684234777745857448e-01
6.979999999999999538e-01,-7.826239725186924859e-03,2.078857697848887631e-01,-1.657542445212106808e-01
6.989999999999999547e-01,4.151493982182848791e-02,2.301855080129306397e-01,-1.653875293515321421e-01
6.999999999999999556e-01,7.712067844968328867e-02,2.275661165582807122e-01,-1.503743339594746653e-01
7.009999999999999565e-01,1.270786141252790158e-01,2.148498003226586850e-01,-1.399724452100565841e-01
7.019999999999999574e-01,1.692097071933627572e-01,1.934939768359277001e-01,-1.145956473053350022e-01
7.029999999999999583e-01,2.051548765225385262e-01,1.792793854319754687e-01,-8.587568844608588214e-02
7.039999999999999591e-01,2.354976513584940701e-01,1.583003984053839019e-01,-6.138977816845711533e-02
7.049999999999999600e-01,2.581333790341989176e-01,1.199926433138591292e-01,-4.303117378907703877e-02
7.059999999999999609e-01,2.712389505769552400e-01,7.928009226545501553e-02,4.066910749783868642e-03
7.069999999999999618e-01,2.817485587474758968e-01,4.578149067210834228e-02,3.287111573919549584e-02
7.079999999999999627e-01,2.780917723221596471e-01,4.059867069403829028e-03,5.441195408803881084e-02
7.089999999999999636e-01,2.765591145571038023e-01,-3.585920481034764185e-02,9.261205406904464421e-02
7.099999999999999645e-01,2.467577663038302560e-01,-8.126131018673862783e-02,1.100297383955124025e-01
7.109999999999999654e-01,2.214571627229210138e-01,-1.125600157549331987e-01,1.285460878108051763e-01
7.119999999999999662e-01,1.905532650168371978e-01,-1.489962809353424233e-01,1.445404035906362461e-01
7.129999999999999671e-01,1.419296302892211203e-01,-1.765414601170589570e-01,1.597938009183063890e-01
7.139999999999999680e-01,9.560292971873009249e-02,-2.056685079655402315e-01,1.661465750451919798e-01
7.149999999999999689e-01,4.389637825585494119e-02,-2.127951569279713240e-01,1.723983183517221740e-01
7.159999999999999698e-01,-6.528065882708536903e-03,-2.250136148816134218e-01,1.624232910852383971e-01
7.169999999999999707e-01,-5.587843370012744726e-02,-2.354117978896185792e-01,1.692948996736803047e-01
7.179999999999999716e-01,-1.000858146285149575e-01,-2.245457261124316484e-01,1.540502249412509239e-01
7.189999999999999725e-01,-1.545510652864466872e-01,-2.078673696944082494e-01,1.225330697319773898e-01
7.199999999999999734e-01,-1.886334715591502231e-01,-1.913138840663381746e-01,1.073341895242022059e-01
7.209999999999999742e-01,-2.165202697750568117e-01,-1.713118528369151905e-01,8.313252178441590812e-02
7.219999999999999751e-01,-2.436768643413897428e-01,-1.369401424806068746e-01,5.306747423494541371e-02
7.229999999999999760e-01,-2.774558153353260948e-01,-8.449202231470279156e-02,1.659411325407572982e-02
7.239999999999999769e-01,-2.869262225533094623e-01,-6.739643680129288328e-02,3.588694505947257526e-03
7.249999999999999778e-01,-2.773353386465884918e-01,-2.490038501392109749e-02,-3.494238651145947783e-02
7.259999999999999787e-01,-2.739855563792722992e-01,1.736460594235876564e-02,-6.040371037623947642e-02
7.269999999999999796e-01,-2.529846064051977095e-01,7.662305367228144926e-02,-8.568174797430999634e-02
7.279999999999999805e-01,-2.332650007704563933e-01,9.428499793772771032e-02,-1.152391978666650468e-01
7.289999999999999813e-01,-2.088064900137079349e-01,1.270200096184745941e-01,-1.404775992969481968e-01
7.299999999999999822e-01,-1.732500833373492310e-01,1.672700447234469756e-01,-1.477790269759106379e-01
7.309999999999999831e-01,-1.242493860517500243e-01,1.898042165358147793e-01,-1.535491669197993347e-01
7.319999999999999840e-01,-7.713771556915387240e-02,2.014646734284749052e-01,-1.660309003352385127e-01
7.329999999999999849e-01,-1.405539518556110298e-02,2.171728046013706726e-01,-1.739808349399583065e-01
7.339999999999999858e-01,1.880700250951283445e-02,2.272678573284058201e-01,-1.587207517627215181e-01
7.349999999999999867e-01,6.813135481980543695e-02,2.249413794611735684e-01,-1.475199969432491598e-01
7.359999999999999876e-01,1.243720000265462200e-01,2.158256941551288388e-01,-1.406668749737279289e-01
7.369999999999999885e-01,1.620847463486033702e-01,1.945673761099764587e-01,-1.184022015363991598e-01
7.379999999999999893e-01,1.990402965152741066e-01,1.749609255254913343e-01,-1.033420669689487092e-01
7.389999999999999902e-01,2.415094467031853043e-01,1.514255035364563684e-01,-7.624261812276164618e-02
7.399999999999999911e-01,2.592037202279191543e-01,1.181478659208650139e-01,-4.302928667971138432e-02
7.409999999999999920e-01,2.838651232365627664e-01,7.903141690601972469e-02,-2.411051538958248683e-02
7.419999999999999929e-01,2.878150396303048586e-01,4.501214642252456682e-02,9.875722144032239233e-03
7.429999999999999938e-01,2.858401761523173268e-01,-2.325338315337113174e-04,4.113940737619500160e-02
7.439999999999999947e-01,2.736144273146081107e-01,-3.439268262960663847e-02,7.910878848174661415e-02
7.449999999999999956e-01,2.517498402078842124e-01,-8.321113718928477287e-02,9.035103145071875230e-02
7.459999999999999964e-01,2.306904366043445731e-01,-1.201600495543157787e-01,1.184939696606288201e-01
7.469999999999999973e-01,1.817594519181848500e-01,-1.606866467598931369e-01,1.352010684123338968e-01
7.479999999999999982e-01,1.507575556282216289e-01,-1.686972410152567381e-01,1.466207733158074455e-01
7.489999999999999991e-01,1.095576545062893620e-01,-1.977229595181029254e-01,1.653822458483718283e-01
7.500000000000000000e-01,5.756976440598027961e-02,-2.069146691586448428e-01,1.789822683624498478e-01
7.510000000000000009e-01,1.243722500401800435e-02,-2.269157178316249523e-01,1.745183370921336852e-01
7.520000000000000018e-01,-3.681765282202253964e-02,-2.255945570664990019e-01,1.722236603025427693e-01
7.530000000000000027e-01,-9.887901858677124178e-02,-2.093862180878456880e-01,1.571647489959178412e-01
7.540000000000000036e-01,-1.309204348420661690e-01,-2.029258767509387051e-01,1.374465296442870521e-01
7.550000000000000044e-01,-1.806960607525873730e-01,-1.838743347536831996e-01,1.177138826998024718e-01
7.560000000000000053e-01,-2.118718745435985984e-01,-1.597738105548355547e-01,9.386086880618710326e-02
7.570000000000000062e-01,-2.361865891765662084e-01,-1.469273463906522192e-01,7.483905131310451819e-02
7.580000000000000071e-01,-2.688208509979296279e-01,-9.812904146720194398e-02,4.720606869965056351e-02
7.590000000000000080e-01,-2.757939117076111391e-01,-4.650651797187681236e-02,8.333876827934768097e-03
7.600000000000000089e-01,-2.747058167940811813e-01,-2.378262564069299340e-02,-1.785563663146862851e-02
7.610000000000000098e-01,-2.772233497000821667e-01,1.573038004544666940e-02,-4.121811267788336869e-02
7.620000000000000107e-01,-2.628386308101094415e-01,6.463261860796697122e-02,-7.712199496031071910e-02
7.630000000000000115e-01,-2.481271756658453009e-01,1.000923429141400839e-01,-9.585865663113903035e-02
7.640000000000000124e-01,-2.115947651242625349e-01,1.343160489822702308e-01,-1.140604625580291381e-01
7.650000000000000133e-01,-1.837547430463246645e-01,1.686234665184753456e-01,-1.476020229939496997e-01
7.660000000000000142e-01,-1.386364444440486010e-01,1.933369027533567153e-01,-1.459753460056208707e-01
7.670000000000000151e-01,-9.618960506544228795e-02,2.065139223331220464e-01,-1.587384671603783159e-01
7.680000000000000160e-01,-4.497094093954450561e-02,2.157270037498283388e-01,-1.774964581922956475e-01
7.690000000000000169e-01,1.285496473918469433e-02,2.266534968954605489e-01,-1.764137933114781898e-01
7.700000000000000178e-01,6.246182453456068651e-02,2.187961433402614009e-01,-1.659893635247685906e-01
7.710000000000000187e-01,1.178211252570807027e-01,2.197996072680462321e-01,-1.574940578932511603e-01
7.720000000000000195e-01,1.520045227722888748e-01,1.988433101521089597e-01,-1.315661657915851990e-01
7.730000000000000204e-01,1.840977368330894426e-01,1.735633175038822085e-01,-1.152604813163958936e-01
7.740000000000000213e-01,2.245420180944609490e-01,1.537750291009033210e-01,-1.017389147371877411e-01
7.750000000000000222e-01,2.528319408189595996e-01,1.123971289229760417e-01,-7.006974695393493324e-02
7.760000000000000231e-01,2.647367285000979953e-01,7.348519597104834211e-02,-3.852196107783729950e-02
7.770000000000000240e-01,2.766137667116559951e-01,4.256480585429250202e-02,-8.890201213824078588e-03
7.780000000000000249e-01,2.787007191649675253e-01,-7.084929640528835060e-03,2.691531394201703356e-02
7.790000000000000258e-01,2.772907855126724441e-01,-3.549098306633463595e-02,4.750897897198707448e-02
7.800000000000000266e-01,2.601521670944487719e-01,-8.172849058536295341e-02,7.901218695937123337e-02
7.810000000000000275e-01,2.319029160090401442e-01,-1.189925992909571933e-01,9.948489803654642083e-02
7.820000000000000284e-01,1.980707037349269672e-01,-1.467538232303804979e-01,1.263604358124136295e-01
7.830000000000000293e-01,1.633457652757006051e-01,-1.654744107696266564e-01,1.384962868326927443e-01
7.840000000000000302e-01,1.189678235418454993e-01,-2.069144042812749718e-01,1.605718652942595137e-01
7.850000000000000311e-01,7.348477532176940497e-02,-2.070190804942043383e-01,1.741450837133688700e-01
7.860000000000000320e-01,2.996800371233664453e-02,-2.157765106942034217e-01,1.731300246766431516e-01
7.870000000000000329e-01,-2.940629320057456045e-02,-2.241186162194580556e-01,1.551781796425788784e-01
7.880000000000000338e-01,-7.314382729021176588e-02,-2.180335992648866350e-01,1.539146782513745870e-01
7.890000000000000346e-01,-1.172761215380416638e-01,-2.061811905508319220e-01,1.477262607964157926e-01
7.900000000000000355e-01,-1.638560553614524795e-01,-1.848595763998887587e-01,1.414157890053784061e-01
7.910000000000000364e-01,-1.986072996909624966e-01,-1.585762559598155041e-01,1.086374298729894106e-01
7.920000000000000373e-01,-2.328262485275975902e-01,-1.333349928156203623e-01,8.653170490779456270e-02
7.930000000000000382e-01,-2.551990276543533720e-01,-9.497471112192625020e-02,6.585826359828161891e-02
7.940000000000000391e-01,-2.744616590733016115e-01,-5.330995990153191560e-02,3.624102695000991359e-02
7.950000000000000400e-01,-2.851743393489295508e-01,-2.313035352404069558e-02,1.220649569670525202e-02
7.960000000000000409e-01,-2.734295478069235230e-01,1.470945621631426954e-02,-2.310634450980933105e-02
7.970000000000000417e-01,-2.553954528631495746e-01,5.883489190227080695e-02,-5.841570061529047925e-02
7.980000000000000426e-01,-2.441747863716214884e-01,1.046872805594265959e-01,-8.082130528430678251e-02
7.990000000000000435e-01,-2.238838491305435441e-01,1.344504370892447287e-01,-1.024981561263872826e-01
8.000000000000000444e-01,-1.916079472658007155e-01,1.613591362571369647e-01,-1.318893796482510650e-01
8.010000000000000453e-01,-1.460295183565253341e-01,1.996410754679399935e-01,-1.423715548433566458e-01
8.020000000000000462e-01,-9.488085137170482186e-02,2.098743937339114518e-01,-1.577647904025902825e-01
8.030000000000000471e-01,-5.858881192093598478e-02,2.192022855344759047e-01,-1.682369793645435707e-01
8.040000000000000480e-01,-3.827545730567668766e-03,2.199147745090107853e-01,-1.684779561927635672e-01
8.050000000000000488e-01,3.496362629587148468e-02,2.257555410618615199e-01,-1.639256506702303495e-01
8.060000000000000497e-01,9.824948946851415343e-02,2.140598107242476789e-01,-1.581537891632387172e-01
8.070000000000000506e-01,1.415105252438202676e-01,1.961799361420272780e-01,-1.563583159470701978e-01
8.080000000000000515e-01,1.909270820227944310e-01,1.553301009373592723e-01,-1.307159523329816386e-01
8.090000000000000524e-01,2.215304560230285102e-01,1.536007583691127720e-01,-1.095510560748428758e-01
8.100000000000000533e-01,2.456710555209510871e-01,9.803757412341113087e-02,-8.127219377171998604e-02
8.110000000000000542e-01,2.565770609307907457e-01,7.701561145041412038e-02,-4.508759757627382736e-02
8.120000000000000551e-01,2.744313010999808733e-01,3.298764394962759583e-02,-2.466998366762743200e-02
8.129999999999999449e-01,2.821091464682879968e-01,1.763866257701083131e-03,-1.227689297084910182e-02
8.139999999999999458e-01,2.784327231377815570e-01,-2.976196579991169031e-02,3.069144429948885908e-02
8.149999999999999467e-01,2.582270968789867061e-01,-8.299636826756069674e-02,5.974444512777287580e-02
8.159999999999999476e-01,2.335216249153209134e-01,-1.146390826107974575e-01,8.910233562961905607e-02
8.169999999999999485e-01,2.131890603817425955e-01,-1.472638257745489676e-01,1.117771740871727343e-01
8.179999999999999494e-01,1.711999783010957066e-01,-1.785011564344745894e-01,1.333053938054384879e-01
8.189999999999999503e-01,1.364194354385626917e-01,-2.032323887632100923e-01,1.468522351214285315e-01
8.199999999999999512e-01,7.714905828689568035e-02,-2.131409437751464464e-01,1.548264560448498195e-01
8.209999999999999520e-01,3.515383713071056765e-02,-2.221978618388377735e-01,1.684298612681822127e-01
8.219999999999999529e-01,-1.199217135004314663e-02,-2.261217327423614143e-01,1.769203342600544071e-01
8.229999999999999538e-01,-6.460648161897739050e-02,-2.054259399550709408e-01,1.616878882479834967e-01
8.239999999999999547e-01,-1.115006556197534193e-01,-2.123324514682805586e-01,1.532188352934685527e-01
8.249999999999999556e-01,-1.516081920267910998e-01,-1.711673620056703704e-01,1.445199245745819316e-01
8.259999999999999565e-01,-1.931301667933027211e-01,-1.523951967358483095e-01,1.225210768360834590e-01
8.269999999999999574e-01,-2.317422860059598910e-01,-1.266675877098377423e-01,1.129149304040238944e-01
8.279999999999999583e-01,-2.540874443805906102e-01,-9.352916232614845449e-02,8.419217551711152825e-02
8.289999999999999591e-01,-2.650347722572802267e-01,-4.493648234589488893e-02,4.520747537134634647e-02
8.299999999999999600e-01,-2.753782370874520713e-01,-9.238700727953899280e-03,2.792311768264161415e-02
8.309999999999999609e-01,-2.837326641596575882e-01,2.099982521250157858e-02,-1.011271702099420314e-02
8.319999999999999618e-01,-2.709788136747868781e-01,6.823994334585144206e-02,-4.125585154666801951e-02
8.329999999999999627e-01,-2.515194627538259176e-01,1.093891831115618579e-01,-6.998675588313944818e-02
8.339999999999999636e-01,-2.174884728861040117e-01,1.349946442323910201e-01,-8.032536575287024805e-02
8.349999999999999645e-01,-1.898849726527997439e-01,1.711206846385487645e-01,-1.124239195965725663e-01
8.359999999999999654e-01,-1.650333812435166581e-01,1.870426436144972393e-01,-1.332655238728560343e-01
8.369999999999999662e-01,-1.128304577108437817e-01,2.111691794710968684e-01,-1.558093469889566540e-01
8.379999999999999671e-01,-6.262144113731850370e-02,2.196267895610222731e-01,-1.608627101842546037e-01
8.389999999999999680e-01,-6.393464799145535081e-03,2.163065730622978911e-01,-1.662353941586580675e-01
8.399999999999999689e-01,2.861613999465449990e-02,2.259943630960901673e-01,-1.682901913330560606e-01
8.409999999999999698e-01,8.931712020379591055e-02,2.093729476219578500e-01,-1.608844345804602838e-01
8.419999999999999707e-01,1.223707616941739768e-01,1.910285095623312779e-01,-1.477211532658884163e-01
8.429999999999999716e-01,1.643379295120515615e-01,1.732945973060638634e-01,-1.351381627782740902e-01
8.439999999999999725e-01,2.045849779706497840e-01,1.510156430938400240e-01,-1.205609890044156002e-01
8.449999999999999734e-01,2.337317238941603315e-01,1.058783897610437313e-01,-1.052024215178724298e-01
8.459999999999999742e-01,2.630226641552444455e-01,7.725741793480049580e-02,-7.800924505339018600e-02
8.469999999999999751e-01,2.744005570127723836e-01,3.693507379488485121e-02,-5.072166261710320950e-02
8.479999999999999760e-01,2.866900951791738206e-01,-6.677025670626387599e-04,-2.265115270310703519e-02
8.489999999999999769e-01,2.849573772033219821e-01,-5.164516695386445200e-02,8.979814633003900190e-03
8.499999999999999778e-01,2.637357457549177608e-01,-8.256481262270182198e-02,3.582660971422985813e-02
8.509999999999999787e-01,2.490127417696796353e-01,-1.255271100430538911e-01,6.528421114674129444e-02
8.519999999999999796e-01,2.198156110465026569e-01,-1.518111154525947082e-01,9.681845639041912477e-02
8.529999999999999805e-01,1.758664986998925706e-01,-1.719953923224663839e-01,1.173572927502511548e-01
8.539999999999999813e-01,1.445548174800794783e-01,-1.928696962122522229e-01,1.421256463149382365e-01
8.549999999999999822e-01,9.958130210828336493e-02,-2.229272594992924850e-01,1.477246631481557992e-01
8.559999999999999831e-01,3.710067883538806233e-02,-2.206757225996308081e-01,1.663374545012906713e-01
8.569999999999999840e-01,-3.522673026532636802e-03,-2.320996385597073330e-01,1.739225691481515457e-01
8.579999999999999849e-01,-5.607191506947265675e-02,-2.123034618375495841e-01,1.696324348058222131e-01
8.589999999999999858e-01,-9.500062536412133551e-02,-2.110011341335162882e-01,1.653231233141501111e-01
8.599999999999999867e-01,-1.378372995016486080e-01,-1.863728547931447210e-01,1.598908453346502001e-01
8.609999999999999876e-01,-1.853455878403024726e-01,-1.597758274036120141e-01,1.384258384534615971e-01
8.619999999999999885e-01,-2.132948575034706862e-01,-1.281140051039155459e-01,1.135291202361219387e-01
8.629999999999999893e-01,-2.503402886076905864e-01,-9.678377264683211967e-02,8.239169689395621499e-02
8.639999999999999902e-01,-2.639008268476192298e-01,-5.182013446989171962e-02,7.589836089844807787e-02
8.649999999999999911e-01,-2.783904609370613237e-01,-1.021365981920619760e-02,5.001356858177349873e-02
8.659999999999999920e-01,-2.764133128537987760e-01,3.032989824447606536e-02,1.880061428150859096e-02
8.669999999999999929e-01,-2.741362670773449528e-01,7.218435635078020163e-02,-1.750801247246923376e-02
8.679999999999999938e-01,-2.627907608295846908e-01,1.114035253659935443e-01,-4.999092372161473286e-02
8.689999999999999947e-01,-2.352812814624413440e-01,1.435174265634432123e-01,-6.702622314520280400e-02
8.699999999999999956e-01,-1.986921985829707138e-01,1.599925632562573252e-01,-8.869241329469548796e-02
8.709999999999999964e-01,-1.800312926756286180e-01,1.899321140188283685e-01,-1.139705004279114031e-01
8.719999999999999973e-01,-1.284659452004338620e-01,2.098615824606483160e-01,-1.405912479230404522e-01
8.729999999999999982e-01,-7.810731666393526396e-02,2.227418429457425908e-01,-1.516257285418003142e-01
8.739999999999999991e-01,-4.464172988199353875e-02,2.214597081895597341e-01,-1.635653752231549241e-01
8.750000000000000000e-01,1.634441409771807130e-02,2.311397999652191615e-01,-1.667463140179057390e-01
8.760000000000000009e-01,6.725875252561777651e-02,2.172423492149024304e-01,-1.739602212153058547e-01
8.770000000000000018e-01,1.116991655762108876e-01,1.842158978635034805e-01,-1.575140244502137299e-01
8.780000000000000027e-01,1.574285515209925546e-01,1.572545426041149774e-01,-1.453437828388981223e-01
8.790000000000000036e-01,1.918785245635829251e-01,1.418699411607989014e-01,-1.357754956318527606e-01
8.800000000000000044e-01,2.333311387325317232e-01,1.172314459940665826e-01,-1.112829503321949576e-01
8.810000000000000053e-01,2.578377075316194422e-01,5.998279988827395076e-02,-8.588913242741935683e-02
8.820000000000000062e-01,2.776664754736434260e-01,3.483364694447381449e-02,-6.322386212172796671e-02
8.830000000000000071e-01,2.793531872603268740e-01,-1.289366373289946820e-02,-4.295196882703548880e-02
8.840000000000000080e-01,2.788477539476231226e-01,-5.381998627161954651e-02,7.874953665118453227e-04
8.850000000000000089e-01,2.702871496788397665e-01,-7.849184579012408181e-02,1.489597054005746546e-02
8.860000000000000098e-01,2.613600234971933944e-01,-1.152257079331266698e-01,6.243619028961090028e-02
8.870000000000000107e-01,2.202668281767326819e-01,-1.562569196157239659e-01,8.040302340861651964e-02
8.880000000000000115e-01,1.932370779683182382e-01,-1.897823615695395649e-01,9.596462682804468569e-02
8.890000000000000124e-01,1.537722680983143186e-01,-2.088649569331603173e-01,1.206717020852396405e-01
8.900000000000000133e-01,1.203140452204908284e-01,-2.301809438134470587e-01,1.448256960320954134e-01
8.910000000000000142e-01,6.040542370532332728e-02,-2.135337323009706967e-01,1.544094160202329480e-01
8.920000000000000151e-01,1.749689575220980328e-02,-2.281456812119644628e-01,1.633359645763626244e-01
8.930000000000000160e-01,-3.810581937214213566e-02,-2.180692389189460290e-01,1.704454144426821860e-01
8.940000000000000169e-01,-8.865480031055163190e-02,-2.021509229080888648e-01,1.617437394243980697e-01
8.950000000000000178e-01,-1.361022243109751562e-01,-1.807751060967563717e-01,1.610205791014605037e-01
8.960000000000000187e-01,-1.762565881934334555e-01,-1.544423657863612520e-01,1.460513517932377492e-01
8.970000000000000195e-01,-2.015584639009636581e-01,-1.238099711136720765e-01,1.292852977632027445e-01
8.980000000000000204e-01,-2.374765947989416759e-01,-7.667382837066399892e-02,1.255470384705044407e-01
8.990000000000000213e-01,-2.615725610142243807e-01,-5.149859359899391920e-02,8.194684014245019743e-02
9.000000000000000222e-01,-2.800493778688425972e-01,-1.302770640885940988e-02,5.939673281135461613e-02
9.010000000000000231e-01,-2.814388489054852616e-01,3.014578812930521906e-02,2.646361481159274082e-02
9.020000000000000240e-01,-2.786549318410932452e-01,6.894015395857058803e-02,-2.483068570172713031e-03
9.030000000000000249e-01,-2.658368130167030885e-01,1.176785686130290831e-01,-2.519674908972223751e-02
9.040000000000000258e-01,-2.518832826680714732e-01,1.387365646835813093e-01,-5.736092103941613923e-02
9.050000000000000266e-01,-2.121552216624219278e-01,1.721655262839463241e-01,-7.806530587546695044e-02
9.060000000000000275e-01,-1.757261145450728923e-01,1.954733089163623316e-01,-1.103984420023135932e-01
9.070000000000000284e-01,-1.369511115312843086e-01,2.129736998745569987e-01,-1.261635011952177143e-01
9.080000000000000293e-01,-9.815236648178948808e-02,2.322066685561293142e-01,-1.416562254099525686e-01
9.090000000000000302e-01,-4.938019185018275442e-02,2.263017221797152256e-01,-1.531819603951231623e-01
9.100000000000000311e-01,-4.463888438360445060e-06,2.159828488833098470e-01,-1.690270272363431081e-01
9.110000000000000320e-01,4.567433311826264025e-02,2.128828913299492809e-01,-1.653030557252052613e-01
9.120000000000000329e-01,1.062901856421976793e-01,1.947337733321376774e-01,-1.758739947967312700e-01
9.130000000000000338e-01,1.417660164598086581e-01,1.611208691024640927e-01,-1.609839020097525164e-01
9.140000000000000346e-01,1.855368364831700423e-01,1.281758963526274386e-01,-1.495235891041986065e-01
9.150000000000000355e-01,2.209354079466113174e-01,1.038525137095997614e-01,-1.168766465087881651e-01
9.160000000000000364e-01,2.495385969393905667e-01,7.102048344853773010e-02,-1.175173224255135623e-01
9.170000000000000373e-01,2.637080164411302885e-01,2.526400686643228213e-02,-8.512358568467300046e-02
9.180000000000000382e-01,2.843992510441879507e-01,-1.719777173698122316e-02,-5.228322330063069068e-02
9.190000000000000391e-01,2.810731393329845562e-01,-4.483682748747669367e-02,-2.987316244111612798e-02
9.200000000000000400e-01,2.759169923694669291e-01,-1.066987424589470046e-01,4.938089791722775554e-03
9.210000000000000409e-01,2.606057951490030056e-01,-1.241405074120324747e-01,2.820028560551843255e-02
9.220000000000000417e-01,2.343594921509375428e-01,-1.559385318089353545e-01,6.447781522227981343e-02
9.230000000000000426e-01,1.921085166351579332e-01,-1.738494589505960031e-01,8.380326869787271815e-02
9.240000000000000435e-01,1.640474958030283259e-01,-2.030274452967643639e-01,1.114113524872229616e-01
9.250000000000000444e-01,1.280284659098828437e-01,-2.215727446039814086e-01,1.247026522262778131e-01
9.260000000000000453e-01,7.849959011432944278e-02,-2.214624538248412544e-01,1.432612866406100249e-01
9.270000000000000462e-01,3.458591464419741995e-02,-2.233754126782883653e-01,1.550253321889578650e-01
9.280000000000000471e-01,-2.285028794749247721e-02,-2.095011684929405649e-01,1.734615250661530883e-01
9.290000000000000480e-01,-6.929805731034933969e-02,-2.020622472954844984e-01,1.658122469171812163e-01
9.300000000000000488e-01,-1.215226979924981937e-01,-1.748046389871669437e-01,1.575014124575986607e-01
9.310000000000000497e-01,-1.609234234064723934e-01,-1.567499921791001560e-01,1.550658119556704018e-01
9.320000000000000506e-01,-1.904473354669121987e-01,-1.245738850162275424e-01,1.518664528477087217e-01
9.330000000000000515e-01,-2.282087005874371688e-01,-7.839433679338969618e-02,1.266186678754505357e-01
9.340000000000000524e-01,-2.610065542383600001e-01,-4.274055255196448910e-02,1.079280769339802243e-01
9.350000000000000533e-01,-2.773152025958546263e-01,-6.018871436833470728e-03,8.308080914285535801e-02
9.360000000000000542e-01,-2.885400967418267903e-01,3.315667319401397611e-02,5.271258361130474329e-02
9.370000000000000551e-01,-2.744664210268937810e-01,7.064401954438319364e-02,1.522005294589640241e-02
9.379999999999999449e-01,-2.671691838505842465e-01,1.097620075849323057e-01,-1.464785853145193772e-02
9.389999999999999458e-01,-2.458024266299021765e-01,1.465250419297198237e-01,-3.972633442098504053e-02
9.399999999999999467e-01,-2.232043778177531801e-01,1.715260676846095678e-01,-8.011554105907596479e-02
9.409999999999999476e-01,-1.909798843887706155e-01,2.002399200921667621e-01,-1.012599553562481824e-01
9.419999999999999485e-01,-1.543883296215634859e-01,2.080425126936808478e-01,-1.106379726559422599e-01
9.429999999999999494e-01,-9.880339771517687719e-02,2.185450476303622824e-01,-1.260752872682917580e-01
9.439999999999999503e-01,-6.636986954318969956e-02,2.123471898060612650e-01,-1.511400962623964672e-01
9.449999999999999512e-01,-1.071603962680559713e-02,2.241587762127530414e-01,-1.635137803815445989e-01
9.459999999999999520e-01,3.512148969907626095e-02,2.078258277730148929e-01,-1.652157691608380774e-01
9.469999999999999529e-01,1.003580395143941206e-01,2.059419020283830837e-01,-1.719684882418670568e-01
9.479999999999999538e-01,1.440726025201841398e-01,1.710133892249107446e-01,-1.625522909727663556e-01
9.489999999999999547e-01,1.693369751329199813e-01,1.385672131242878524e-01,-1.547947104352408731e-01
9.499999999999999556e-01,2.124046052924387640e-01,1.039153343195868967e-01,-1.475193270144876667e-01
9.509999999999999565e-01,2.404959149021228260e-01,6.238645490479140243e-02,-1.159742952629772700e-01
9.519999999999999574e-01,2.637096299780430919e-01,2.226434129402943621e-02,-1.004000333753347907e-01
9.529999999999999583e-01,2.781018703262280733e-01,-1.096474973122038218e-02,-7.186027451453803894e-02
9.539999999999999591e-01,2.815213471888413088e-01,-5.279539409850538684e-02,-4.796832814100358833e-02
9.549999999999999600e-01,2.726859355804131524e-01,-9.125031500844497934e-02,-1.754181110274924751e-02
9.559999999999999609e-01,2.754054963115876720e-01,-1.235294189391163838e-01,1.874699923158472739e-02
9.569999999999999618e-01,2.420427336671039653e-01,-1.609914155950451231e-01,3.932424419460765763e-02
9.579999999999999627e-01,2.241168618317432859e-01,-1.903948784901064173e-01,7.559354284867947360e-02
9.589999999999999636e-01,1.838882770066062877e-01,-2.129377472995126475e-01,1.032045852375889639e-01
9.599999999999999645e-01,1.358400548129481689e-01,-2.190805800791096603e-01,1.152232187198813790e-01
9.609999999999999654e-01,9.028451568876846856e-02,-2.255966604034014000e-01,1.370431455638428386e-01
9.619999999999999662e-01,3.461177731396426760e-02,-2.180457556460285440e-01,1.602012593510823701e-01
9.629999999999999671e-01,-5.188701555051172115e-03,-2.129942457398437405e-01,1.615541374154475796e-01
9.639999999999999680e-01,-4.945617738519161866e-02,-2.036564915672070541e-01,1.677263621071652111e-01
9.649999999999999689e-01,-1.069592175623480662e-01,-1.755099481400390626e-01,1.725448400329249177e-01
9.659999999999999698e-01,-1.532259224998902269e-01,-1.601854577361216947e-01,1.668966984205193516e-01
9.669999999999999707e-01,-1.845375112173751886e-01,-1.111747940239128790e-01,1.463148788439772863e-01
9.679999999999999716e-01,-2.237541830280572741e-01,-8.576532156740460100e-02,1.361224199554686987e-01
9.689999999999999725e-01,-2.585733604533734242e-01,-4.752534198001060611e-02,1.096129687560723626e-01
9.699999999999999734e-01,-2.734434310341703478e-01,3.701012600956673799e-03,9.691562223455529868e-02
9.709999999999999742e-01,-2.786834881328733582e-01,3.675017638393689862e-02,7.385094694477255250e-02
9.719999999999999751e-01,-2.997223158764736328e-01,7.431470837668659180e-02,3.605152646586402831e-02
9.729999999999999760e-01,-2.644209011632819295e-01,1.257394080841039985e-01,7.880846880929463436e-03
9.739999999999999769e-01,-2.519023576246208762e-01,1.474144975432000459e-01,-1.673487030850961607e-02
9.749999999999999778e-01,-2.329181277456360000e-01,1.714906147319376073e-01,-3.996686650943184760e-02
9.759999999999999787e-01,-2.046954625559062046e-01,1.948446018649941658e-01,-8.283044533483729932e-02
9.769999999999999796e-01,-1.613958248539613116e-01,2.128537227972189527e-01,-1.020756153494820767e-01
9.779999999999999805e-01,-1.262641677088691960e-01,2.260230572538096672e-01,-1.175336589958184408e-01
9.789999999999999813e-01,-8.001698747376947973e-02,2.257543178949555918e-01,-1.271485795275332509e-01
9.799999999999999822e-01,-2.114266926261632734e-02,2.233799999730164132e-01,-1.581413831038753215e-01
9.809999999999999831e-01,1.376798028879579194e-02,2.103330997251032786e-01,-1.707893721253351538e-01
9.819999999999999840e-01,7.612626837409257330e-02,1.815028309216544511e-01,-1.645502246338713392e-01
9.829999999999999849e-01,1.258572217412552152e-01,1.619511939169621662e-01,-1.657296828684607370e-01
9.839999999999999858e-01,1.615872457794150230e-01,1.388044255397052062e-01,-1.722935889084065697e-01
9.849999999999999867e-01,1.961438752838165489e-01,9.946118811660356607e-02,-1.594270395252696260e-01
9.859999999999999876e-01,2.399584919316080089e-01,6.367784761985986752e-02,-1.478578832610207561e-01
9.869999999999999885e-01,2.627956138707572276e-01,2.050254749179915292e-02,-1.197278701742588020e-01
9.879999999999999893e-01,2.651680269563932435e-01,-3.031732202205950424e-02,-8.483354569719588067e-02
9.889999999999999902e-01,2.676824030338816329e-01,-6.446943104282933101e-02,-6.509829429503871667e-02
9.899999999999999911e-01,2.864036693815599222e-01,-9.373392922620350787e-02,-3.492137357330991898e-02
9.909999999999999920e-01,2.725236574131088552e-01,-1.338550887010220847e-01,-8.167467809739786810e-03
9.919999999999999929e-01,2.457425460071870904e-01,-1.550491483661869119e-01,3.362229726061197882e-02
9.929999999999999938e-01,2.308206471177276509e-01,-1.893861545311279759e-01,5.667540485636857195e-02
9.939999999999999947e-01,1.962090931025263774e-01,-2.143751373361740264e-01,6.937471852482178514e-02
9.949999999999999956e-01,1.618990613846039150e-01,-2.240978511161018927e-01,9.744221743631847898e-02
9.959999999999999964e-01,9.387600551604188825e-02,-2.250561024919702779e-01,1.334226085027624964e-01
9.969999999999999973e-01,6.498292141867455241e-02,-2.244124767845956381e-01,1.378663509486094119e-01
9.979999999999999982e-01,1.465662480788390912e-02,-2.200710333907009986e-01,1.552682286566860748e-01
9.989999999999999991e-01,-4.583480315916240583e-02,-2.103446636267454206e-01,1.730461812462062154e-01
1.000000000000000000e+00,-8.106662148710065685e-02,-1.813083429560042037e-01,1.731711745381107337e-01
1.000999999999999890e+00,-1.368385938436792737e-01,-1.432948515594062167e-01,1.692541664378357791e-01
1.002000000000000002e+00,-1.712327516366874691e-01,-1.252534745072176048e-01,1.544153756366791752e-01
1.002999999999999892e+00,-2.155473183158590766e-01,-7.770447580298997514e-02,1.487641243690102366e-01
1.004000000000000004e+00,-2.445652606383898753e-01,-3.442656629139896618e-02,1.267971171499922001e-01
1.004999999999999893e+00,-2.754691372453104692e-01,-6.804966302286428494e-03,1.062767966770961359e-01
1.006000000000000005e+00,-2.706667886922563548e-01,3.593977993268306081e-02,8.377832424046637028e-02
1.006999999999999895e+00,-2.846208526303870556e-01,7.157340271268257392e-02,5.270055714522384888e-02
1.008000000000000007e+00,-2.798733887917670415e-01,1.219423273558619958e-01,3.221430977722184591e-02
1.008999999999999897e+00,-2.545345638732131599e-01,1.450081022878047243e-01,-2.592753205023101085e-03
1.010000000000000009e+00,-2.443480728988980111e-01,1.774965181306652762e-01,-4.010164372117993453e-02
1.010999999999999899e+00,-2.091756109198882330e-01,1.964155971342877172e-01,-5.774366995575435507e-02
1.012000000000000011e+00,-1.715855739777648048e-01,2.216743006923110326e-01,-7.247935579012228235e-02
1.012999999999999901e+00,-1.300936616386744737e-01,2.197212347316335190e-01,-1.134831754917351720e-01
1.014000000000000012e+00,-7.986711446074395981e-02,2.286841511422865736e-01,-1.315447014107634094e-01
1.014999999999999902e+00,-3.720489751600417061e-02,2.201175703781358961e-01,-1.563160870036379713e-01
1.016000000000000014e+00,1.800339072678953586e-02,2.004831543858750509e-01,-1.579515727941039061e-01
1.016999999999999904e+00,6.506019608630622675e-02,1.818661456339986660e-01,-1.631199620821241203e-01
1.018000000000000016e+00,1.077884172047512967e-01,1.638026929749273330e-01,-1.602028094271902847e-01
1.018999999999999906e+00,1.482076515567166131e-01,1.278521160535898704e-01,-1.747658679587291986e-01
1.020000000000000018e+00,1.898402194534450360e-01,8.708182825915122827e-02,-1.626337018730794892e-01
1.020999999999999908e+00,2.304689848518158557e-01,5.938875621318959880e-02,-1.489410993208226675e-01
1.022000000000000020e+00,2.542545991878803480e-01,1.871747470271162631e-02,-1.272154212896586534e-01
1.022999999999999909e+00,2.692036384336796151e-01,-3.371274833424245387e-02,-1.028296490830164778e-01
1.024000000000000021e+00,2.818524641200855774e-01,-5.507837802060521620e-02,-8.044250302590173762e-02
1.024999999999999911e+00,2.787467388706298399e-01,-1.042148347771041927e-01,-4.544737969890842721e-02
1.026000000000000023e+00,2.784115599561536869e-01,-1.320842210998238730e-01,-1.832136526725204259e-02
1.026999999999999913e+00,2.549668774619715528e-01,-1.608721880927145020e-01,1.272826927981192402e-02
1.028000000000000025e+00,2.330918562632325330e-01,-1.962529775883859740e-01,3.269292461917458481e-02
1.028999999999999915e+00,2.014450211625197495e-01,-2.042685747349302916e-01,6.214031478724028890e-02
1.030000000000000027e+00,1.678462328571480033e-01,-2.241827900412873831e-01,8.822644201808257924e-02
1.030999999999999917e+00,1.173369871091425043e-01,-2.216625658514731756e-01,1.149727793548799004e-01
1.032000000000000028e+00,7.326896015164867382e-02,-2.226668448812987033e-01,1.330131149891540521e-01
1.032999999999999918e+00,2.559968871201872415e-02,-2.126882245270666494e-01,1.558295475041152067e-01
1.034000000000000030e+00,-2.426457913205136777e-02,-2.015556821115153663e-01,1.720875157218349216e-01
1.034999999999999920e+00,-7.388261916329889878e-02,-1.727619550592031095e-01,1.733039482962960842e-01
1.036000000000000032e+00,-1.304663581075783396e-01,-1.446136197386782563e-01,1.679441787701503042e-01
1.036999999999999922e+00,-1.648499997590378296e-01,-1.135838957675967126e-01,1.621979696651816294e-01
1.038000000000000034e+00,-2.125776147642274294e-01,-7.993022991852803683e-02,1.416387276908461779e-01
1.038999999999999924e+00,-2.283183659176829805e-01,-2.476064933305850355e-02,1.402936921342658183e-01
1.040000000000000036e+00,-2.505499072920036596e-01,5.824296094113088951e-06,1.252949606286554163e-01
1.040999999999999925e+00,-2.662599339028516865e-01,4.230986050058025555e-02,9.349015327010302967e-02
1.042000000000000037e+00,-2.820662795791791244e-01,7.878275889391869735e-02,7.740333362597182076e-02
1.042999999999999927e+00,-2.872100941729991974e-01,1.166173692003934920e-01,5.953255666164157522e-02
1.044000000000000039e+00,-2.576563936392767817e-01,1.531363155436775980e-01,1.165598296041017376e-02
1.044999999999999929e+00,-2.497157277519312935e-01,1.819036419635541579e-01,-1.978631782870988662e-02
1.046000000000000041e+00,-2.152272551056141903e-01,2.016158197338801528e-01,-4.275588487162448881e-02
1.046999999999999931e+00,-1.875305438204777631e-01,2.192690874847660620e-01,-7.805870388220344236e-02
1.048000000000000043e+00,-1.491949272523163950e-01,2.297200726364160561e-01,-7.839358253224848472e-02
1.048999999999999932e+00,-1.096902486869405224e-01,2.245320262712749149e-01,-1.201068945100495500e-01
1.050000000000000044e+00,-4.962227970663111998e-02,2.236076565245639081e-01,-1.409291791637537761e-01
1.050999999999999934e+00,-7.254764759840380203e-03,2.006167156209724967e-01,-1.558155251471581015e-01
1.052000000000000046e+00,4.615519011439468688e-02,1.840163687988735086e-01,-1.719773346630753263e-01
1.052999999999999936e+00,9.705159062188130348e-02,1.544777054929356297e-01,-1.631112766061209030e-01
1.054000000000000048e+00,1.376311117326596556e-01,1.231676053469882848e-01,-1.700048758201007371e-01
1.054999999999999938e+00,1.825093041496003154e-01,9.182048346410660866e-02,-1.684126542611902311e-01
1.056000000000000050e+00,2.222483476317081985e-01,5.910160709210222907e-02,-1.461092461249411112e-01
1.056999999999999940e+00,2.523962713886785392e-01,1.447686725796804193e-02,-1.474630925750301524e-01
1.058000000000000052e+00,2.708842900165713830e-01,-2.236047895391770485e-02,-1.075084746376824413e-01
1.058999999999999941e+00,2.807081261834742381e-01,-6.177633026250656939e-02,-9.452004481981179929e-02
1.060000000000000053e+00,2.800843780623623047e-01,-1.084935829704339189e-01,-6.454588477065222041e-02
1.060999999999999943e+00,2.775639158449532129e-01,-1.341147669691030164e-01,-4.749299882904839398e-02
1.062000000000000055e+00,2.619616935361363530e-01,-1.579909833987818701e-01,-1.049060810986279964e-02
1.062999999999999945e+00,2.444426414187962082e-01,-1.951831360164909546e-01,-7.849048897761404676e-04
1.064000000000000057e+00,2.087751011376633992e-01,-1.979854294392344449e-01,4.955874053754785041e-02
1.064999999999999947e+00,1.698747845817284441e-01,-2.227078725109941093e-01,7.649853532067703299e-02
1.066000000000000059e+00,1.290124857015952087e-01,-2.188478118562364183e-01,1.053225514945239916e-01
1.066999999999999948e+00,8.611231795967751179e-02,-2.181890183548870210e-01,1.135893668675594798e-01
1.068000000000000060e+00,2.962857240905791834e-02,-2.066422860865828881e-01,1.454523729246819386e-01
1.068999999999999950e+00,-2.370332642090800662e-02,-1.920422682669689352e-01,1.541095863334223104e-01
1.070000000000000062e+00,-5.930647342391726085e-02,-1.692191963842836211e-01,1.617386054313720845e-01
1.070999999999999952e+00,-1.064626418330159585e-01,-1.446179014619860537e-01,1.741176062568050575e-01
1.072000000000000064e+00,-1.670673361151426839e-01,-1.073814573466576328e-01,1.701278260473018666e-01
1.072999999999999954e+00,-1.811668403707545338e-01,-7.251843574571358031e-02,1.620525274904727198e-01
1.074000000000000066e+00,-2.266275455652119186e-01,-4.339885550730783470e-02,1.541961452110950648e-01
1.074999999999999956e+00,-2.526259484508527886e-01,8.210627450932931476e-03,1.308435358401517368e-01
1.076000000000000068e+00,-2.679834608049002087e-01,3.946522521138943335e-02,1.186284817502120253e-01
1.076999999999999957e+00,-2.818503944688383056e-01,8.397714508938609879e-02,9.022592565482555338e-02
1.078000000000000069e+00,-2.834601912411299773e-01,1.235955232723048858e-01,6.790765865963867276e-02
1.078999999999999959e+00,-2.664202698422659110e-01,1.557470563698641342e-01,3.350752445781941119e-02
1.080000000000000071e+00,-2.590799951510531218e-01,1.732197808230301062e-01,8.911089019607491488e-03
1.080999999999999961e+00,-2.267767016148584391e-01,2.116295567821632473e-01,-3.139604748180579996e-02
1.082000000000000073e+00,-1.961882283742916455e-01,2.180613975462762089e-01,-4.204936986976479801e-02
1.082999999999999963e+00,-1.596360575529374437e-01,2.215112856139332953e-01,-7.733980455990553671e-02
1.084000000000000075e+00,-1.073074645134810684e-01,2.173250131006340402e-01,-1.106684577288088028e-01
1.084999999999999964e+00,-6.406166943927930901e-02,2.287611606267268560e-01,-1.329280838617659943e-01
1.086000000000000076e+00,-2.045941583442782361e-02,1.941898007744189691e-01,-1.523070474830899024e-01
1.086999999999999966e+00,4.384616593945169644e-02,1.794617030202169672e-01,-1.615767355164793584e-01
1.088000000000000078e+00,8.298970614961866110e-02,1.564232748492316583e-01,-1.683478771813140540e-01
1.088999999999999968e+00,1.302218427200689810e-01,1.151300295188796702e-01,-1.657615910884770727e-01
1.090000000000000080e+00,1.777734373442924620e-01,9.468606467812222538e-02,-1.705691437453168424e-01
1.090999999999999970e+00,2.147769901798081416e-01,5.658465014757960848e-02,-1.610750796860911382e-01
1.092000000000000082e+00,2.369008763020969965e-01,6.745452692183011301e-03,-1.371944046975884235e-01
1.092999999999999972e+00,2.594748551307188289e-01,-2.470299964381450497e-02,-1.258171409156591258e-01
1.094000000000000083e+00,2.633269014445750456e-01,-6.625646434802257012e-02,-1.193146226529248205e-01
1.094999999999999973e+00,2.908405485033663807e-01,-1.131015868080115228e-01,-9.298637788993731335e-02
1.096000000000000085e+00,2.785056852529201321e-01,-1.318032842918528125e-01,-6.002971860005811705e-02
1.096999999999999975e+00,2.672978574688134046e-01,-1.688044118995656317e-01,-3.472675023041712355e-02
1.098000000000000087e+00,2.456782936931322381e-01,-1.920788718732230338e-01,2.728504446649355607e-03
1.098999999999999977e+00,2.273564437701036389e-01,-2.050287683522366844e-01,2.976187028869008849e-02
1.100000000000000089e+00,1.816996618612729819e-01,-2.134772173859567079e-01,5.774165707539193060e-02
1.100999999999999979e+00,1.369870425759562860e-01,-2.254598829468169863e-01,9.284664172307192931e-02
1.102000000000000091e+00,9.581447907215513704e-02,-2.332055492936002672e-01,1.162576965564856707e-01
1.102999999999999980e+00,5.402873506725730524e-02,-2.151213577292256096e-01,1.252762691563909236e-01
1.104000000000000092e+00,-5.426316264286216648e-03,-1.975981110302512944e-01,1.588537918155615569e-01
1.104999999999999982e+00,-4.740553024604735044e-02,-1.730806530539647503e-01,1.587911530073340960e-01
1.106000000000000094e+00,-9.807495048532913207e-02,-1.408664899023946149e-01,1.628657619682315483e-01
1.106999999999999984e+00,-1.443175367398998321e-01,-1.145130652271452998e-01,1.695168948043869750e-01
1.108000000000000096e+00,-1.860609740817989466e-01,-6.822862234013203631e-02,1.758472630309151907e-01
1.108999999999999986e+00,-2.149376566447454562e-01,-3.427372926430970190e-02,1.686316035142103043e-01
1.110000000000000098e+00,-2.428011558058702779e-01,2.563370987926753570e-03,1.473638752744839686e-01
1.110999999999999988e+00,-2.654242744642923979e-01,4.328584306186541303e-02,1.286892732066623468e-01
1.112000000000000099e+00,-2.831354233866267278e-01,8.794949494419038172e-02,1.003639989313160896e-01
1.112999999999999989e+00,-2.890254943660351961e-01,1.164565610526596406e-01,9.229849324093179763e-02
1.114000000000000101e+00,-2.753003602019469809e-01,1.604710136017937494e-01,6.209749848100632602e-02
1.114999999999999991e+00,-2.649316064746358168e-01,1.794081636027871629e-01,1.695829231555819050e-02
1.116000000000000103e+00,-2.431026776783588861e-01,2.113100472136397456e-01,-6.397459970303650233e-03
1.116999999999999993e+00,-2.049749022012333499e-01,2.196504069776027412e-01,-3.524372291804470786e-02
1.118000000000000105e+00,-1.744610033639596713e-01,2.199527233843670826e-01,-6.644011710062652787e-02
1.118999999999999995e+00,-1.311632982907636469e-01,2.354293296265034807e-01,-7.811123854750495754e-02
1.120000000000000107e+00,-8.043075358358271754e-02,2.158388715052439177e-01,-1.174362044266260008e-01
1.120999999999999996e+00,-3.438799401424413177e-02,2.014331691361728738e-01,-1.338661706169298748e-01
1.122000000000000108e+00,8.214889968528373346e-03,1.893435502392396552e-01,-1.413862393043072707e-01
1.122999999999999998e+00,6.992468697625760232e-02,1.578407186802191775e-01,-1.588267560871191031e-01
1.124000000000000110e+00,1.114128606167979485e-01,1.291468060452149735e-01,-1.711159820862730441e-01
1.125000000000000000e+00,1.745271056585684100e-01,9.186507776852638474e-02,-1.703296506123724574e-01
1.125999999999999890e+00,1.912241564557814189e-01,5.745875668015512638e-02,-1.555119502527284037e-01
1.127000000000000002e+00,2.303170159472407164e-01,9.176754712468784131e-03,-1.659243557821844517e-01
1.127999999999999892e+00,2.600723389707718658e-01,-2.316490030835858735e-02,-1.462796893142399579e-01
1.129000000000000004e+00,2.700633101102167810e-01,-6.793403686267197872e-02,-1.216876546375626339e-01
1.129999999999999893e+00,2.899511223394042325e-01,-1.135768076203847454e-01,-1.091652606178767360e-01
1.131000000000000005e+00,2.786927166929384359e-01,-1.343183795990900431e-01,-7.854976426364443376e-02
1.131999999999999895e+00,2.859117921774337878e-01,-1.538473935858469810e-01,-4.402722137228146093e-02
1.133000000000000007e+00,2.641834453985455466e-01,-1.958302023243419232e-01,-1.567602579372174426e-02
1.133999999999999897e+00,2.283849132488958156e-01,-2.146835135968829522e-01,1.037888483443826643e-02
1.135000000000000009e+00,1.917104455537371188e-01,-2.261937390139175386e-01,4.556628219745687686e-02
1.135999999999999899e+00,1.550120030964813600e-01,-2.227665400869271173e-01,6.960593736489555095e-02
1.137000000000000011e+00,1.139160949070191081e-01,-2.253493106453700046e-01,9.159436165272381858e-02
1.137999999999999901e+00,6.594826351144851551e-02,-2.145044356649955797e-01,1.152159555664207524e-01
1.139000000000000012e+00,3.386435440419222499e-03,-1.921828491026784380e-01,1.275155112035382399e-01
1.139999999999999902e+00,-2.471580238010393296e-02,-1.735496288191947234e-01,1.498981556839668883e-01
1.141000000000000014e+00,-7.868553651407780847e-02,-1.313247168787090857e-01,1.666307081338390950e-01
1.141999999999999904e+00,-1.359584303567291652e-01,-1.160963528543667439e-01,1.761996197947532372e-01
1.143000000000000016e+00,-1.757875056120517532e-01,-6.203216296064234525e-02,1.754235897255925214e-01
1.143999999999999906e+00,-2.113259715900084046e-01,-3.695437442599629196e-02,1.571972018393072712e-01
1.145000000000000018e+00,-2.310888293156852236e-01,1.460833530880544830e-02,1.540698127950232699e-01
1.145999999999999908e+00,-2.659336078681840410e-01,4.964690415926031192e-02,1.532082903317042999e-01
1.147000000000000020e+00,-2.768346362197355304e-01,9.334018191897847094e-02,1.320115515787505245e-01
1.147999999999999909e+00,-2.880774876482195546e-01,1.264701897953623144e-01,9.943606060539478264e-02
1.149000000000000021e+00,-2.884444558033412709e-01,1.534358916174006493e-01,8.291932416267147610e-02
1.149999999999999911e+00,-2.694435669621818019e-01,1.854570064086927539e-01,3.928322552896826303e-02
1.151000000000000023e+00,-2.496291433831127893e-01,2.091557373789312002e-01,2.619573853403704689e-02
1.151999999999999913e+00,-2.323412815936054254e-01,2.266912247925625401e-01,-1.207634081793332141e-02
1.153000000000000025e+00,-1.845410139415293027e-01,2.233766369140733621e-01,-5.199278710502258649e-02
1.153999999999999915e+00,-1.462217738359010699e-01,2.245464117656099656e-01,-6.314134559808180780e-02
1.155000000000000027e+00,-1.044740606354551959e-01,2.089960084781186112e-01,-1.020961137321683282e-01
1.155999999999999917e+00,-4.533586462222662788e-02,1.989962500344496510e-01,-1.104397218003050213e-01
1.157000000000000028e+00,-1.295486246512307735e-03,1.766321953987919635e-01,-1.379510954618595187e-01
1.157999999999999918e+00,4.331297599317950053e-02,1.505150016940320357e-01,-1.509281457345229283e-01
1.159000000000000030e+00,1.115768507922827724e-01,1.224882630672304851e-01,-1.697161954839427056e-01
1.159999999999999920e+00,1.538394576347122678e-01,8.568734022199671341e-02,-1.705982449801073386e-01
1.161000000000000032e+00,1.925676116452627873e-01,4.985010433347410175e-02,-1.722219518897254442e-01
1.161999999999999922e+00,2.172630883100164501e-01,1.240056766137072504e-02,-1.672234772670217473e-01
1.163000000000000034e+00,2.478960239933172272e-01,-3.433815698591977800e-02,-1.498170797043357205e-01
1.163999999999999924e+00,2.634094149744934388e-01,-7.708981410831755587e-02,-1.505302668068601857e-01
1.165000000000000036e+00,2.828696909416661409e-01,-1.114904602498543174e-01,-1.162223248328226044e-01
1.165999999999999925e+00,2.681488403316816815e-01,-1.506059721789740902e-01,-9.862674325724284097e-02
1.167000000000000037e+00,2.849476889426655890e-01,-1.634961231105705737e-01,-6.453009509019252965e-02
1.167999999999999927e+00,2.591099460339928995e-01,-2.034491841793309719e-01,-5.329756901675995751e-02
1.169000000000000039e+00,2.401111705778399830e-01,-2.103898937207316355e-01,-1.688960683608517130e-02
1.169999999999999929e+00,2.039194436485578521e-01,-2.221696360122356606e-01,2.648440680382772860e-02
1.171000000000000041e+00,1.664904160251516330e-01,-2.209550739011003351e-01,4.988609400911227926e-02
1.171999999999999931e+00,1.202891825421584654e-01,-2.272613646811890431e-01,7.368064765170059816e-02
1.173000000000000043e+00,6.901419230894630108e-02,-1.995851198241825331e-01,1.002498394303911744e-01
1.173999999999999932e+00,3.693761485071637984e-02,-2.044042681288245344e-01,1.319713020868350517e-01
1.175000000000000044e+00,-1.758214410179468126e-02,-1.712174697733830908e-01,1.408114967281919039e-01
1.175999999999999934e+00,-6.803824182876468118e-02,-1.458691555522179384e-01,1.449864023417627434e-01
1.177000000000000046e+00,-1.193670697489208066e-01,-1.009145886111344342e-01,1.687700661214565911e-01
1.177999999999999936e+00,-1.676990070942657174e-01,-7.055232397576924330e-02,1.666112752031508326e-01
1.179000000000000048e+00,-2.014801272796004072e-01,-2.363859568978727774e-02,1.715286377046168487e-01
1.179999999999999938e+00,-2.280337898548719933e-01,2.585038096230238280e-02,1.664352827734678075e-01
