time,acc_x,acc_y,acc_z
0.000000000000000000e+00,1.469932585605012720e-01,3.339047761559214844e-02,1.416915981956186066e-01
1.000000000000000021e-03,1.000480478691362085e-01,1.419123301613596684e-02,1.041652103168731330e-01
2.000000000000000042e-03,4.556906841961846227e-02,-3.546967983945004815e-02,6.342846469896529227e-02
3.000000000000000062e-03,-8.831268299410931569e-03,-1.062828688803968136e-01,7.072381737318624018e-02
4.000000000000000083e-03,-7.324865203472462338e-02,-1.368624091317164893e-01,4.571281971155884832e-03
5.000000000000000104e-03,-1.106003845735365337e-01,-1.203639560632620426e-01,-3.472761883336068084e-02
6.000000000000000125e-03,-1.570515974543527371e-01,-1.683352441101981789e-01,-5.863443008000427531e-02
7.000000000000000146e-03,-1.990691386736917201e-01,-1.919324023456676631e-01,-5.849936278756645569e-02
8.000000000000000167e-03,-2.362141396209432587e-01,-2.168100943865257368e-01,-1.154773859934612318e-01
8.999999999999999320e-03,-2.479754548626680044e-01,-2.564210604972936292e-01,-1.421979605024117077e-01
1.000000000000000021e-02,-2.909948790867390445e-01,-2.547729375409696906e-01,-1.454622162617137393e-01
1.099999999999999936e-02,-3.085355257687458219e-01,-2.307763171140051750e-01,-1.406201304858758494e-01
1.200000000000000025e-02,-3.143403178288644573e-01,-2.242469107764324399e-01,-1.657160375595931878e-01
1.299999999999999940e-02,-2.800913809847979663e-01,-2.035905135883583073e-01,-1.756881526295056839e-01
1.400000000000000029e-02,-2.773658147722729561e-01,-1.791426860169884616e-01,-1.559131675777735704e-01
1.499999999999999944e-02,-2.387081882374398334e-01,-1.483042717992495430e-01,-1.579696019847089961e-01
1.600000000000000033e-02,-1.993422849706083799e-01,-1.291911097849925416e-01,-1.556121585490518877e-01
1.700000000000000122e-02,-1.727583567091534600e-01,-3.935212576282136332e-02,-1.312553011048901153e-01
1.799999999999999864e-02,-1.184505713892655826e-01,-4.871923583573022076e-02,-1.138710162918972063e-01
1.899999999999999953e-02,-7.966713837175329327e-02,1.858457324470596736e-02,-7.910408283810811680e-02
2.000000000000000042e-02,-6.250012459285103107e-03,8.060750034958755195e-02,-4.127959882072417680e-02
2.100000000000000130e-02,4.221181750754097323e-02,1.037740539184721922e-01,-2.167557130387618228e-02
2.199999999999999872e-02,8.141320315696594367e-02,1.149437908938261838e-01,2.259428189344556484e-03
2.299999999999999961e-02,1.454776129920983818e-01,1.471729310480592023e-01,3.206367116244900756e-02
2.400000000000000050e-02,2.044575708628504906e-01,1.821992452139658547e-01,5.377676839642676898e-02
2.500000000000000139e-02,2.272020264475204110e-01,2.215905502062762988e-01,1.005146489809519705e-01
2.599999999999999881e-02,2.597011824298402494e-01,2.310879682850528749e-01,1.246364245711583801e-01
2.699999999999999969e-02,2.733873072342862254e-01,2.483367192874942897e-01,1.368988997912743144e-01
2.800000000000000058e-02,2.773212041529079519e-01,2.478681846501165631e-01,1.485445864409606631e-01
2.900000000000000147e-02,2.854641121689448502e-01,2.070783418336221704e-01,1.828582539288916009e-01
2.999999999999999889e-02,2.977466368927624285e-01,2.322075327594958771e-01,1.921508795115161594e-01
3.099999999999999978e-02,2.834105273842783546e-01,1.641835577115409173e-01,1.790526541876406308e-01
3.200000000000000067e-02,2.553008687632744023e-01,1.705422735686865643e-01,1.722435808619973419e-01
3.300000000000000155e-02,2.196576357812035085e-01,1.198790374186601421e-01,1.494913821541055399e-01
3.400000000000000244e-02,1.950534648240017932e-01,8.031190061563756033e-02,1.350340450458769326e-01
3.500000000000000333e-02,1.440483346502902662e-01,4.238572755508848711e-02,1.440199066612214140e-01
3.599999999999999728e-02,7.656379906252885892e-02,-1.899075360906353482e-02,9.351787239050236844e-02
3.699999999999999817e-02,4.028115367608706837e-02,-6.730200325501720093e-02,8.749999437538009961e-02
3.799999999999999906e-02,-1.797491789220590636e-02,-8.177741059256561640e-02,2.879711108305057707e-02
3.899999999999999994e-02,-8.251143016658477047e-02,-1.450007701576547792e-01,3.726356279094718282e-02
4.000000000000000083e-02,-1.275819534036348457e-01,-1.612284841945911262e-01,1.908913043363356932e-02
4.100000000000000172e-02,-1.725868460734157062e-01,-2.011660348976526680e-01,-4.161287767194234849e-02
4.200000000000000261e-02,-2.094588142103825656e-01,-2.255671425353369952e-01,-7.353748328053508199e-02
4.299999999999999656e-02,-2.423267033763903677e-01,-2.288842023401855275e-01,-9.377052885854911257e-02
4.399999999999999745e-02,-2.689457541964245246e-01,-2.357395063573820282e-01,-1.301235757868376419e-01
4.499999999999999833e-02,-3.027243246343294114e-01,-2.275497896539427911e-01,-1.408996047319729383e-01
4.599999999999999922e-02,-2.903757418799833845e-01,-2.222076971152053826e-01,-1.832057128226179388e-01
4.700000000000000011e-02,-2.925261590333051998e-01,-2.176028888742115863e-01,-1.633682797481990634e-01
4.800000000000000100e-02,-2.873618795795400138e-01,-1.802231041268936851e-01,-1.856541692320563819e-01
4.900000000000000189e-02,-2.655284713637767746e-01,-1.590777408995260600e-01,-1.875031938731773762e-01
5.000000000000000278e-02,-2.270126689003456044e-01,-1.173271147860300290e-01,-1.716121855603595925e-01
5.099999999999999672e-02,-1.997193170807416429e-01,-1.160076510559884533e-01,-1.786583604533993896e-01
5.199999999999999761e-02,-1.658583169634501309e-01,-6.403408427358213417e-02,-1.399845947471265450e-01
5.299999999999999850e-02,-1.331730305801450964e-01,-1.007302859697891198e-02,-1.146074753715968092e-01
5.399999999999999939e-02,-4.786440280660187591e-02,2.302453483994092512e-02,-9.920362385771343272e-02
5.500000000000000028e-02,-2.083329025293180828e-02,9.346429877382096685e-02,-6.822122181247826378e-02
5.600000000000000117e-02,5.389351186777056185e-02,1.147234688093007882e-01,-2.793465903724525953e-02
5.700000000000000205e-02,9.778829519597141695e-02,1.572552455214119849e-01,-7.253245242434578667e-03
5.800000000000000294e-02,1.434954182964221503e-01,1.856955002825110279e-01,2.886277890611287436e-02
5.899999999999999689e-02,2.091304478131815470e-01,1.939250458375444686e-01,1.457260576414501525e-02
5.999999999999999778e-02,2.300170633094296979e-01,2.243773911585552339e-01,6.389696466099523131e-02
6.099999999999999867e-02,2.623723497826617734e-01,2.339945935258244403e-01,1.101440052464307678e-01
6.199999999999999956e-02,3.033049501378820012e-01,2.496422114397839065e-01,1.402906143331589806e-01
6.300000000000000044e-02,2.941576502890400624e-01,2.369234952047663822e-01,1.405197581259068629e-01
6.400000000000000133e-02,2.921619421402483208e-01,2.262898953606428398e-01,1.375538715593548345e-01
6.500000000000000222e-02,2.751897959755307821e-01,1.884408215721856683e-01,1.733135094189899028e-01
6.600000000000000311e-02,2.806331600329463050e-01,1.768449660083887542e-01,1.778739057203134466e-01
6.700000000000000400e-02,2.444907798108009178e-01,1.157605912151195432e-01,2.036982264926566755e-01
6.800000000000000488e-02,2.086190566074922759e-01,1.095765820357244430e-01,1.722252315655271038e-01
6.900000000000000577e-02,1.837220443062588249e-01,6.219524979168763318e-02,1.728322735057155890e-01
7.000000000000000666e-02,1.619708965410898149e-01,3.253113957143970170e-02,1.409722479075446455e-01
7.099999999999999367e-02,1.018017203444875479e-01,-2.271827011099106924e-02,1.412140066428982377e-01
7.199999999999999456e-02,2.511159583807149806e-02,-4.895170360695066947e-02,6.509705332138338019e-02
7.299999999999999545e-02,-1.377753601954518833e-02,-1.160180205444045209e-01,3.890540745264460532e-02
7.399999999999999634e-02,-6.156426697173986162e-02,-1.393096327918368071e-01,3.365877493516902796e-02
7.499999999999999722e-02,-1.397555073709124962e-01,-1.755152099589527004e-01,-4.148854302583546323e-03
7.599999999999999811e-02,-1.843688599784281124e-01,-1.908822394821740043e-01,-2.836093222720943718e-02
7.699999999999999900e-02,-1.907157788511371077e-01,-2.064997391532900350e-01,-6.105110273033431678e-02
7.799999999999999989e-02,-2.186151936931247930e-01,-2.369108929566736688e-01,-1.029883507518606633e-01
7.900000000000000078e-02,-2.950585677304718990e-01,-2.585187101739725990e-01,-1.137344504737057699e-01
8.000000000000000167e-02,-3.067454612108800882e-01,-2.432389278230507323e-01,-1.391224769474999901e-01
8.100000000000000255e-02,-2.942445961877050431e-01,-2.449162829653943607e-01,-1.554913930291737800e-01
8.200000000000000344e-02,-3.075353592147149207e-01,-1.973905125432354746e-01,-1.706027539814774785e-01
8.300000000000000433e-02,-2.811142780972923916e-01,-2.071550711044836401e-01,-1.665506215543377244e-01
8.400000000000000522e-02,-2.615078920033378496e-01,-1.547832237245461706e-01,-1.729326964093106100e-01
8.500000000000000611e-02,-2.386008346710967176e-01,-9.528993799716820035e-02,-1.814828363120908339e-01
8.599999999999999312e-02,-1.887217498228862256e-01,-7.311214188692610749e-02,-1.507106816225560753e-01
8.699999999999999400e-02,-1.503846685770277303e-01,-3.168082241827619577e-02,-1.615313647491403992e-01
8.799999999999999489e-02,-8.583904130571727575e-02,-1.774131441905627460e-04,-1.149714005130024336e-01
8.899999999999999578e-02,-8.396034959214462856e-02,3.387579426020348450e-02,-1.161077676624903965e-01
8.999999999999999667e-02,1.767038707404206682e-03,9.315463658898522070e-02,-6.336817131001737380e-02
9.099999999999999756e-02,3.949920749718945079e-02,1.386269832110685329e-01,-5.482094566840318983e-02
9.199999999999999845e-02,9.974647954378357273e-02,1.838226157870116173e-01,-2.867752623318951463e-02
9.299999999999999933e-02,1.521754944837606649e-01,1.852454387845524353e-01,2.297319531498608070e-02
9.400000000000000022e-02,1.823712476975047070e-01,2.028231265272749106e-01,8.476475161418774162e-02
9.500000000000000111e-02,2.206709224732759655e-01,2.376050643180752098e-01,7.343734003291002566e-02
9.600000000000000200e-02,2.811897065258562312e-01,2.297888064973684918e-01,8.182994141632286833e-02
9.700000000000000289e-02,2.688153893275633810e-01,2.350969058389389132e-01,1.383884579903032763e-01
9.800000000000000377e-02,2.962682619188086175e-01,2.101993819932044816e-01,1.492222111266657270e-01
9.900000000000000466e-02,2.993264584430886943e-01,2.017658421169121752e-01,1.479378368741005867e-01
1.000000000000000056e-01,3.028537316639896004e-01,2.007272728111075821e-01,1.864180290652005245e-01
1.010000000000000064e-01,2.794441486451215151e-01,1.592753203456825362e-01,1.763507675293845001e-01
1.019999999999999934e-01,2.529762932477332416e-01,1.350710128875954597e-01,1.896559856418819079e-01
1.029999999999999943e-01,2.228637962724242250e-01,7.479686274271928059e-02,1.609218636904136690e-01
1.039999999999999952e-01,1.996759262262562673e-01,6.431970187569811814e-02,1.556853436804439828e-01
1.049999999999999961e-01,1.134649194291604685e-01,7.220860257210366673e-03,1.223204760402911012e-01
1.059999999999999970e-01,8.259941692578212646e-02,-3.396706993779502470e-02,1.336893337966626460e-01
1.069999999999999979e-01,2.270991293904039282e-02,-8.329432294880537158e-02,9.906546827513422471e-02
1.079999999999999988e-01,-1.710549732613095633e-02,-1.537985094611165060e-01,6.255588665628160350e-02
1.089999999999999997e-01,-6.104541715685684461e-02,-1.513524125597323633e-01,3.677018907190490737e-02
1.100000000000000006e-01,-1.515953618830518657e-01,-1.810597150115896281e-01,-1.954000284043473645e-02
1.110000000000000014e-01,-1.785075134069161185e-01,-2.035387987119268993e-01,-2.137805939899003332e-02
1.120000000000000023e-01,-2.093747760787207091e-01,-2.407729011831024890e-01,-7.085103060678610287e-02
1.130000000000000032e-01,-2.349554596234126047e-01,-2.388677381485087570e-01,-6.727478658409342949e-02
1.140000000000000041e-01,-2.531213420822388538e-01,-2.312849497758976414e-01,-1.061789446910756107e-01
1.150000000000000050e-01,-3.057652715522128362e-01,-2.262710665361843398e-01,-1.303133340527252992e-01
1.160000000000000059e-01,-3.040388115856206275e-01,-2.198859149500664856e-01,-1.592180452134185076e-01
1.170000000000000068e-01,-3.441586106512547483e-01,-2.061725411756639981e-01,-1.805835908535332879e-01
1.179999999999999938e-01,-2.826197232180321373e-01,-1.627795932434215054e-01,-1.866745524792184086e-01
1.189999999999999947e-01,-2.599531402315505280e-01,-1.536018570417092000e-01,-1.802761159399951241e-01
1.199999999999999956e-01,-2.368947763666392203e-01,-1.065023015652558080e-01,-1.737855941667442172e-01
1.209999999999999964e-01,-2.225209587172683467e-01,-5.261256148565768981e-02,-1.744557297946984775e-01
1.219999999999999973e-01,-1.510378460803410983e-01,-2.995246855871057032e-02,-1.622102517460758953e-01
1.229999999999999982e-01,-1.197929790073303385e-01,4.374736355456361470e-02,-1.344424117741598868e-01
1.239999999999999991e-01,-7.834191954253844070e-02,7.626322168605523255e-02,-1.190617151101319854e-01
1.250000000000000000e-01,-1.225491261893848528e-02,1.030018693999766172e-01,-7.906556409036807898e-02
1.260000000000000009e-01,6.854703106601529872e-02,1.317139222918042307e-01,-4.348887450363797536e-02
1.270000000000000018e-01,9.757668434723465456e-02,1.833890664388279912e-01,-8.040926284790550840e-03
1.280000000000000027e-01,1.444600187029767280e-01,2.055313424545558709e-01,-7.607028715080039506e-03
1.290000000000000036e-01,1.876547162668710245e-01,2.228250077442579802e-01,3.039567152109452428e-02
1.300000000000000044e-01,2.277974004309781808e-01,2.387250961807187155e-01,9.630287142318580407e-02
1.310000000000000053e-01,2.402288395716092317e-01,2.531076248462096889e-01,7.727042297264052895e-02
1.320000000000000062e-01,2.750271590886224637e-01,2.461064213686438851e-01,1.212897064598952440e-01
1.330000000000000071e-01,2.913254277814140702e-01,2.136892244806612717e-01,1.388553720170785932e-01
1.340000000000000080e-01,2.880031381393974299e-01,2.116329086825895767e-01,1.676388138254350790e-01
1.350000000000000089e-01,2.804234960676821875e-01,1.699595711323836078e-01,1.418913911746220446e-01
1.360000000000000098e-01,2.896097845558532891e-01,1.341016017100584157e-01,1.689895297440004718e-01
1.370000000000000107e-01,2.682680944269947299e-01,1.184223841651824011e-01,1.920121744833708233e-01
1.380000000000000115e-01,2.300933662990488904e-01,9.211754716271754184e-02,1.778983071171746921e-01
1.390000000000000124e-01,1.713567504328444291e-01,3.144530888707203903e-02,1.827717603155863957e-01
1.400000000000000133e-01,1.272282961617581531e-01,-3.221958894755463324e-04,1.609925926706643473e-01
1.409999999999999865e-01,6.627935137656734699e-02,-4.389499710952245171e-02,1.378636367247424999e-01
1.419999999999999873e-01,3.135687398939622506e-02,-7.758719561069778170e-02,1.025781395483140457e-01
1.429999999999999882e-01,-3.205576029423517354e-02,-1.149300544654121708e-01,8.305099399555494755e-02
1.439999999999999891e-01,-7.932540439974815338e-02,-1.585307702385607143e-01,4.621963376003281748e-02
1.449999999999999900e-01,-1.384697263634278586e-01,-2.236890202884819767e-01,6.768108018433727745e-03
1.459999999999999909e-01,-1.796908029721451250e-01,-1.981062398213395137e-01,-1.053821212519615545e-02
1.469999999999999918e-01,-2.195103756780554527e-01,-2.425870593481671555e-01,-6.401569965044599797e-02
1.479999999999999927e-01,-2.421154566993489743e-01,-2.310206363684897679e-01,-8.290884651721938670e-02
1.489999999999999936e-01,-2.876978254564135362e-01,-2.275152545621908218e-01,-1.030628808378516031e-01
1.499999999999999944e-01,-2.690486097377072783e-01,-2.407005084305272047e-01,-1.271572370956852438e-01
1.509999999999999953e-01,-3.181287715833856500e-01,-2.138509109369644279e-01,-1.422384423033046796e-01
1.519999999999999962e-01,-3.091830688597433929e-01,-1.981427525176783222e-01,-1.618766838233711425e-01
1.529999999999999971e-01,-2.979420755905206053e-01,-1.582729429312758895e-01,-1.639237531626206168e-01
1.539999999999999980e-01,-2.855383122726675715e-01,-1.313920192838802514e-01,-1.860931717456615619e-01
1.549999999999999989e-01,-2.334960272993915620e-01,-8.137943379979899194e-02,-1.748526442942849313e-01
1.559999999999999998e-01,-1.808686711978421680e-01,-5.857868819313123004e-02,-1.563607081461593218e-01
1.570000000000000007e-01,-1.705718560852819976e-01,2.081920151629793742e-02,-1.585978414294884897e-01
1.580000000000000016e-01,-8.804742340704078962e-02,5.030440784141830546e-02,-1.328597849380284135e-01
1.590000000000000024e-01,-3.167200786981682475e-02,8.299397524118450054e-02,-1.315625628038474271e-01
1.600000000000000033e-01,-1.339941039767344327e-02,1.207145760095817977e-01,-8.047694682618591888e-02
1.610000000000000042e-01,4.351415362031884476e-02,1.510987973590173505e-01,-6.283615543107279322e-02
1.620000000000000051e-01,9.248873303720298034e-02,1.817968317678761991e-01,-2.678374497507758981e-02
1.630000000000000060e-01,1.646204897845057746e-01,2.089447123791646210e-01,-1.460036441736025856e-02
1.640000000000000069e-01,1.918909164397996636e-01,2.423791932961789908e-01,2.061732986727267750e-02
1.650000000000000078e-01,2.531636162460178530e-01,2.508503856354470929e-01,4.057809376499623560e-02
1.660000000000000087e-01,2.721279314595835830e-01,2.032074970525439561e-01,6.696400294421998856e-02
1.670000000000000095e-01,2.949452482724059799e-01,2.313258055266576296e-01,1.107746944916688375e-01
1.680000000000000104e-01,3.095565112761938797e-01,2.118658241336556225e-01,1.514846602968356326e-01
1.690000000000000113e-01,2.986686311387279913e-01,1.872873984486934373e-01,1.821627309065158296e-01
1.700000000000000122e-01,3.182566750519058019e-01,1.921386031555493146e-01,1.583312030613717447e-01
1.710000000000000131e-01,2.833842163937451697e-01,1.375250180107485121e-01,1.901592125123624522e-01
1.719999999999999862e-01,2.383888623879998336e-01,6.342505575007335861e-02,1.770880901620515979e-01
1.729999999999999871e-01,2.105523061986739053e-01,4.735663106739141509e-02,1.596974521693578786e-01
1.739999999999999880e-01,1.807392623926583342e-01,2.013443333322908341e-02,1.700852889341372132e-01
1.749999999999999889e-01,1.191526364695801449e-01,-5.233382355145418247e-02,1.393630396846402553e-01
1.759999999999999898e-01,7.150384033492734881e-02,-9.351628228419657518e-02,1.300630326641133150e-01
1.769999999999999907e-01,-5.887350896251573353e-03,-1.244337897005003274e-01,1.075727474263545036e-01
1.779999999999999916e-01,-1.364544533060240566e-02,-1.395922910881761403e-01,9.032682544001319203e-02
1.789999999999999925e-01,-7.017348368456895191e-02,-1.837501317875649687e-01,4.070461707428762316e-02
1.799999999999999933e-01,-1.165853821954877662e-01,-2.006667826161654955e-01,2.357112020455526605e-02
1.809999999999999942e-01,-1.787881726810648386e-01,-2.062369732796822674e-01,-2.053986063471790677e-02
1.819999999999999951e-01,-2.245179835403309510e-01,-2.217264453656836998e-01,-4.360179208584478300e-02
1.829999999999999960e-01,-2.555923998038095446e-01,-2.345526636834416867e-01,-4.685172385552412860e-02
1.839999999999999969e-01,-2.714243267762529999e-01,-2.401356813557134762e-01,-1.062099395371771948e-01
1.849999999999999978e-01,-2.871228383326135947e-01,-2.362515985284081022e-01,-1.227103644278008665e-01
1.859999999999999987e-01,-3.046584464157081062e-01,-2.057906235315831722e-01,-1.361860596704946025e-01
1.869999999999999996e-01,-3.070101823131902163e-01,-1.563865183365419076e-01,-1.707235823956719245e-01
1.880000000000000004e-01,-2.693284528128255251e-01,-1.553609361594057992e-01,-1.930899611666669624e-01
1.890000000000000013e-01,-2.506660034532411929e-01,-1.004873572386167646e-01,-1.530927268647626349e-01
1.900000000000000022e-01,-2.253887664753522480e-01,-6.949528129071695648e-02,-1.788648169414737976e-01
1.910000000000000031e-01,-1.866571601467841846e-01,-2.213426809846484253e-03,-1.826348802067817301e-01
1.920000000000000040e-01,-1.580515063329485381e-01,-3.185377483854697281e-03,-1.686759953643203191e-01
1.930000000000000049e-01,-1.159182842283789233e-01,4.541360288026120157e-02,-1.574826252002886062e-01
1.940000000000000058e-01,-4.210356719015333898e-02,8.059015166881998427e-02,-1.160585381569322477e-01
1.950000000000000067e-01,-2.831273282828116432e-03,1.349809949328371617e-01,-1.119698487684968186e-01
1.960000000000000075e-01,4.761761121803052832e-02,1.516090415198581565e-01,-6.443563030777646472e-02
1.970000000000000084e-01,9.619349840235831561e-02,2.002746400987869546e-01,-6.313947561433132238e-02
1.980000000000000093e-01,1.658957796945773611e-01,2.353095399212653260e-01,-1.699014522218500120e-02
1.990000000000000102e-01,2.058300893457102043e-01,2.576221465806729505e-01,4.082168839191512716e-02
2.000000000000000111e-01,2.342165146017715083e-01,2.439898600146615248e-01,4.344131463609810645e-02
2.010000000000000120e-01,2.548293235008662894e-01,2.403952930643602492e-01,9.263122937061135653e-02
2.020000000000000129e-01,2.722491099154853433e-01,2.458479200546282717e-01,1.291676829560477191e-01
2.030000000000000138e-01,3.050995818664098413e-01,2.086213594152461215e-01,1.254390561852386787e-01
2.039999999999999869e-01,3.059779834759549511e-01,1.969641482637309871e-01,1.390969615526222725e-01
2.049999999999999878e-01,3.020290631272269377e-01,1.346959359850088966e-01,1.861199896016341448e-01
2.059999999999999887e-01,2.711574929879885243e-01,1.423498131476995388e-01,1.733775748604829692e-01
2.069999999999999896e-01,2.549806971161336366e-01,9.089919103292844194e-02,1.846890933110197364e-01
2.079999999999999905e-01,2.200724138449185741e-01,5.324207572588433857e-02,1.966913005785524970e-01
2.089999999999999913e-01,1.607752172463303986e-01,-2.083941218999969813e-02,1.788640538907385058e-01
2.099999999999999922e-01,1.009254295213261599e-01,-3.073348245075516530e-02,1.277181863401484763e-01
2.109999999999999931e-01,7.208086448743591945e-02,-6.860710446795706408e-02,1.186563879571193858e-01
2.119999999999999940e-01,1.662394789844733392e-02,-1.476541642181884162e-01,1.038318072604353798e-01
2.129999999999999949e-01,-2.761948026468558776e-02,-1.640471787444165441e-01,9.595837007411316122e-02
2.139999999999999958e-01,-8.443450585239226092e-02,-1.981774925916125751e-01,4.765693127499788517e-02
2.149999999999999967e-01,-1.503968485450999926e-01,-2.321495971472651854e-01,2.221263257078933545e-02
2.159999999999999976e-01,-2.065701183032991606e-01,-2.418187747690746792e-01,-1.538572755883432785e-02
2.169999999999999984e-01,-2.198190133275173819e-01,-2.277722691666090038e-01,-4.408382155932911994e-02
2.179999999999999993e-01,-2.588273088309540615e-01,-2.276273325509361456e-01,-5.370200880130163168e-02
2.190000000000000002e-01,-2.668364048707952407e-01,-2.476990466216545950e-01,-6.253832811881149256e-02
2.200000000000000011e-01,-3.041647049008693870e-01,-2.000033603637030311e-01,-1.198887111477257433e-01
2.210000000000000020e-01,-3.008062542713507148e-01,-1.858623442079463395e-01,-1.352566588482382592e-01
2.220000000000000029e-01,-2.870810103339012653e-01,-1.692167831208292450e-01,-1.544432164248537021e-01
2.230000000000000038e-01,-2.704705273035949986e-01,-1.404755064527739850e-01,-1.662446833636068433e-01
2.240000000000000047e-01,-2.631166636681152027e-01,-8.793168682582667983e-02,-1.869046216297538809e-01
2.250000000000000056e-01,-2.457160046290934874e-01,-5.206520234235210293e-02,-1.826993516056143185e-01
2.260000000000000064e-01,-1.856854174852631545e-01,-1.732645248990020287e-02,-1.954389961344603632e-01
2.270000000000000073e-01,-1.500492793097737698e-01,3.841965414003078311e-02,-1.504786657966132035e-01
2.280000000000000082e-01,-1.041188302740854305e-01,7.439879375720158394e-02,-1.209987194221329582e-01
2.290000000000000091e-01,-6.755735148611968777e-02,1.178558327888753893e-01,-1.369954585512700440e-01
2.300000000000000100e-01,3.507138082063734202e-02,1.662123012721615778e-01,-1.064762903747358963e-01
2.310000000000000109e-01,3.510596641894207781e-02,1.872272148801878977e-01,-7.755779400877103880e-02
2.320000000000000118e-01,1.022477784886319518e-01,2.045549158261732170e-01,-3.086846776409103363e-02
2.330000000000000127e-01,1.567081549805558471e-01,2.308290159146126619e-01,-2.600608960741306389e-02
2.340000000000000135e-01,1.984473254462155445e-01,2.325789560442983739e-01,2.813663556934024867e-02
2.349999999999999867e-01,2.256399956989268429e-01,2.397177456013446228e-01,4.156193178411875938e-02
2.359999999999999876e-01,2.561811856727818082e-01,2.375611730650838971e-01,8.772720735145254911e-02
2.369999999999999885e-01,3.122666421390641323e-01,2.072765068857689574e-01,1.021832854405402696e-01
2.379999999999999893e-01,3.168141360293224573e-01,2.099248298163037263e-01,1.123383996657645045e-01
2.389999999999999902e-01,3.078102435127038072e-01,1.707505283697368648e-01,1.549293828264017014e-01
2.399999999999999911e-01,3.033892360805370281e-01,1.282026494941401751e-01,1.724355498703426526e-01
2.409999999999999920e-01,2.590557666858057662e-01,1.026804752168127416e-01,1.696923063687703626e-01
2.419999999999999929e-01,2.344191086799742585e-01,7.374096511766325968e-02,1.677373796206561296e-01
2.429999999999999938e-01,2.086906848400219561e-01,2.913740553238478720e-02,1.877944391961519632e-01
2.439999999999999947e-01,1.744174251590174529e-01,-1.507287696580340147e-02,1.764289538784099831e-01
2.449999999999999956e-01,1.449212112958352949e-01,-8.147388150688272823e-02,1.664153023204010262e-01
2.459999999999999964e-01,6.113134626033644298e-02,-1.056226019957482859e-01,1.493617092177601524e-01
2.469999999999999973e-01,-2.239962944413999876e-04,-1.465635446834880617e-01,1.305562257823625061e-01
2.479999999999999982e-01,-4.445779251773009089e-02,-1.597000228734148930e-01,1.157223953009229589e-01
2.489999999999999991e-01,-1.006294046969610639e-01,-2.002696150609838965e-01,7.187135623457538425e-02
2.500000000000000000e-01,-1.507353186157203706e-01,-2.182197734382290144e-01,3.818282263142894900e-02
2.510000000000000009e-01,-1.719468113685958810e-01,-2.517310463447625102e-01,1.648846130062371282e-02
2.520000000000000018e-01,-2.168084586736650499e-01,-2.632414054214596288e-01,-1.129410705541507298e-02
2.530000000000000027e-01,-2.590248765533282871e-01,-2.307094270377979539e-01,-4.867507009512572064e-02
2.540000000000000036e-01,-2.646717469883209106e-01,-2.115749014108343762e-01,-6.315872416215577434e-02
2.550000000000000044e-01,-3.054843731455522682e-01,-2.280708354183175746e-01,-1.268310042777491264e-01
2.560000000000000053e-01,-3.111545013338642973e-01,-1.979895773482771848e-01,-1.408141536976693642e-01
2.570000000000000062e-01,-2.847851132742948987e-01,-1.606732541424195915e-01,-1.675538760411192651e-01
2.580000000000000071e-01,-2.827320836057061193e-01,-1.186579892276200948e-01,-1.465009948661708805e-01
2.590000000000000080e-01,-2.621103178985620952e-01,-6.764775772345159310e-02,-1.631019682731854048e-01
2.600000000000000089e-01,-2.390317751259981027e-01,-1.931282112565692669e-02,-1.484100798793887011e-01
2.610000000000000098e-01,-1.865812932467053320e-01,-1.760549952384025951e-03,-1.707795556644313151e-01
2.620000000000000107e-01,-1.524936061688388633e-01,5.578294207486067524e-02,-1.864092149373118845e-01
2.630000000000000115e-01,-7.911562963582906283e-02,8.506293583374795186e-02,-1.710214892319267543e-01
2.640000000000000124e-01,-5.528790399738509748e-02,1.154567419067066419e-01,-1.500671936745593960e-01
2.650000000000000133e-01,2.268573267116027331e-02,1.545433307867764006e-01,-8.611301901670259662e-02
2.660000000000000142e-01,4.973221924040821529e-02,1.783892734503000066e-01,-7.209117935438072444e-02
2.670000000000000151e-01,1.132776648805802894e-01,1.997945485226106377e-01,-5.237958976780161813e-02
2.680000000000000160e-01,1.632074473935852532e-01,2.320214461954852314e-01,-3.130843017534942763e-02
2.690000000000000169e-01,1.877279421798149772e-01,2.648438677658404572e-01,4.510621209848682950e-03
2.700000000000000178e-01,2.477481361786400549e-01,2.628514722868985909e-01,2.705485825130313909e-02
2.710000000000000187e-01,2.798865199120177394e-01,2.463902673355949369e-01,5.988742966847069443e-02
2.720000000000000195e-01,2.705496791486965424e-01,2.055869539784681566e-01,1.000879562260141437e-01
2.730000000000000204e-01,2.972061690288719249e-01,1.933328792996300838e-01,1.339712255269994989e-01
2.740000000000000213e-01,2.917170171689750235e-01,1.431638740884139116e-01,1.443221648682063707e-01
2.750000000000000222e-01,2.745603395793881907e-01,1.178927714343516037e-01,1.678133585430229835e-01
2.760000000000000231e-01,2.989636203079541477e-01,8.700029403455099286e-02,1.666375287278839268e-01
2.770000000000000240e-01,2.541307846025804840e-01,5.417337955910641462e-02,2.058425099628033716e-01
2.780000000000000249e-01,2.139691401190643716e-01,1.918815656459139929e-02,1.870673159029084542e-01
2.790000000000000258e-01,1.679350068545751862e-01,-5.272951280459945572e-02,1.826946333808510126e-01
2.800000000000000266e-01,1.250997854907382745e-01,-8.339297789145984352e-02,1.563311299460982684e-01
2.810000000000000275e-01,8.159963058481087272e-02,-1.202815571486878787e-01,1.432224300160194752e-01
2.819999999999999729e-01,2.073696974527036718e-02,-1.575919134140463251e-01,1.260289918943791609e-01
2.829999999999999738e-01,-4.401540856340686175e-02,-1.937987170212905064e-01,1.160819063104022858e-01
2.839999999999999747e-01,-9.506878572877208722e-02,-1.904624611143493629e-01,6.680117090898324284e-02
2.849999999999999756e-01,-1.200256897443912479e-01,-2.167416536489783496e-01,3.079623291210013131e-02
2.859999999999999765e-01,-2.074851449120511948e-01,-2.359947803569285019e-01,1.792039402223490757e-02
2.869999999999999774e-01,-2.107324257786429567e-01,-2.232553343144825508e-01,-6.891633883429921538e-03
2.879999999999999782e-01,-2.519051501663674419e-01,-2.551497753965403237e-01,-4.151076593191811021e-02
2.889999999999999791e-01,-2.861117676496701678e-01,-2.147592794881308387e-01,-6.742947268850656151e-02
2.899999999999999800e-01,-2.983897046284985644e-01,-2.049018851296570132e-01,-9.636957752420653722e-02
2.909999999999999809e-01,-2.888736066795428159e-01,-1.887881377080306011e-01,-1.256639289882279242e-01
2.919999999999999818e-01,-3.181744734170789402e-01,-1.454182555405444388e-01,-1.699070713442755176e-01
2.929999999999999827e-01,-2.716691184876662279e-01,-1.105924370133170714e-01,-1.997467984641968231e-01
2.939999999999999836e-01,-2.581327876821083445e-01,-5.925289148701454872e-02,-1.767564645185980554e-01
2.949999999999999845e-01,-2.274720881805617767e-01,-1.280782474672623704e-02,-1.783364683801447192e-01
2.959999999999999853e-01,-1.710346135363950970e-01,2.752658128777120405e-02,-1.700823925835824035e-01
2.969999999999999862e-01,-1.364281497990894043e-01,6.518154437337654594e-02,-1.444216906719865690e-01
2.979999999999999871e-01,-1.098614139796962597e-01,1.135653554685987221e-01,-1.727131970913874659e-01
2.989999999999999880e-01,-4.357012715967262251e-02,1.480401233770136660e-01,-1.759762380198094944e-01
2.999999999999999889e-01,1.823997627098150479e-03,1.842159038312745356e-01,-1.328919134567559945e-01
3.009999999999999898e-01,7.901174217836709479e-02,2.160696824890771250e-01,-7.599782168955543371e-02
3.019999999999999907e-01,1.121488356119156038e-01,2.218252930984187243e-01,-5.891932854024204552e-02
3.029999999999999916e-01,1.594522728441004344e-01,2.274567190239324410e-01,-2.907416056514946015e-02
3.039999999999999925e-01,1.995400758194266211e-01,2.543792578458101694e-01,-2.198019023086692642e-02
3.049999999999999933e-01,2.276069676310041034e-01,2.396586215544517506e-01,4.181904802436839375e-02
3.059999999999999942e-01,2.787542778462730464e-01,2.342826029542939836e-01,7.065098164705735373e-02
3.069999999999999951e-01,2.842959481468522176e-01,2.042649854308371815e-01,9.116521149157366666e-02
3.079999999999999960e-01,3.297089111315346099e-01,1.640330012774803004e-01,1.093535355852631868e-01
3.089999999999999969e-01,2.977944224074147161e-01,1.680693780064144716e-01,1.387001706527248301e-01
3.099999999999999978e-01,2.971463228443135818e-01,1.113261617047352908e-01,1.563951177699199335e-01
3.109999999999999987e-01,2.792663639590091673e-01,4.863377444970054531e-02,1.772391612824522344e-01
3.119999999999999996e-01,2.728857768596300026e-01,2.316962750222910025e-02,1.696263643137507771e-01
3.130000000000000004e-01,1.976521899936105886e-01,-2.679093626836409180e-03,1.706050784757407734e-01
3.140000000000000013e-01,1.720753969842983011e-01,-6.522730527110476295e-02,1.984908975053367997e-01
3.150000000000000022e-01,1.178944186417176521e-01,-9.930559571018963971e-02,1.653933693917718495e-01
3.160000000000000031e-01,8.209047846511863256e-02,-1.462739913581019013e-01,1.606111703161585691e-01
3.170000000000000040e-01,2.287567215575541171e-02,-1.739450336878854975e-01,1.451352190462262826e-01
3.180000000000000049e-01,-4.693422608341441676e-02,-1.885257055314941421e-01,1.035709610378512668e-01
3.190000000000000058e-01,-1.005523954497144906e-01,-2.210108199412934293e-01,8.110862804203387844e-02
3.200000000000000067e-01,-1.484355397246486796e-01,-2.370397323808871859e-01,6.292215107223239623e-02
3.210000000000000075e-01,-2.032887141388026175e-01,-2.656178740163199770e-01,4.712182435848343703e-02
3.220000000000000084e-01,-2.313128886942556750e-01,-2.417310635096405480e-01,-1.032340385612376746e-02
3.230000000000000093e-01,-2.573900688649920498e-01,-2.339816296989003508e-01,-3.447068063111487918e-02
3.240000000000000102e-01,-2.732699635161596752e-01,-2.261329106741696293e-01,-9.298063169899455083e-02
3.250000000000000111e-01,-2.942640852738546142e-01,-2.007243889135356119e-01,-8.243700693846300886e-02
3.260000000000000120e-01,-3.129790770437129721e-01,-1.293425949336232117e-01,-1.208888990244850331e-01
3.270000000000000129e-01,-2.772807470401531527e-01,-9.873096316054791322e-02,-1.435320285472162227e-01
3.280000000000000138e-01,-2.538939873099311240e-01,-7.351727457898768470e-02,-1.604801339987813602e-01
3.290000000000000147e-01,-2.421435745406217976e-01,-3.693854554528298167e-02,-1.655753431028214040e-01
3.300000000000000155e-01,-2.190709770439337456e-01,-5.876126149315762624e-03,-1.696227299626484053e-01
3.310000000000000164e-01,-1.990216659989686721e-01,5.770151476534212537e-02,-1.907146198012422966e-01
3.320000000000000173e-01,-1.327581370121607984e-01,7.953101328450722096e-02,-1.798410604457420792e-01
3.330000000000000182e-01,-8.925920769967372881e-02,1.420421852752367653e-01,-1.583541117823683286e-01
3.340000000000000191e-01,-3.220170768915520121e-02,1.661017893782363586e-01,-1.421796083374672615e-01
3.350000000000000200e-01,1.827832819195013628e-03,1.895785464713804214e-01,-1.060994804385330254e-01
3.360000000000000209e-01,5.835154579217114584e-02,2.035897217704008555e-01,-1.026136639804555301e-01
3.370000000000000218e-01,1.258676705387590522e-01,2.241564219321363627e-01,-9.599492164340352185e-02
3.380000000000000226e-01,1.871198061279090441e-01,2.427342160221856726e-01,-5.919916813806189171e-02
3.390000000000000235e-01,1.878098431551588066e-01,2.445990569306983886e-01,-1.863782645254577486e-02
3.400000000000000244e-01,2.295186557773070402e-01,2.358489163450469273e-01,9.602592578493806749e-03
3.410000000000000253e-01,2.609473380505936690e-01,2.117477090905880988e-01,4.822607233985298780e-02
3.420000000000000262e-01,2.737699520727322477e-01,1.965148166617992076e-01,8.573373156259155026e-02
3.430000000000000271e-01,2.907766272164677979e-01,1.851359768009087914e-01,8.838664976377402782e-02
3.439999999999999725e-01,3.228070154584822826e-01,1.465391572089614347e-01,1.283968929347006072e-01
3.449999999999999734e-01,3.003240784230382654e-01,1.015357097763294608e-01,1.557761034747200679e-01
3.459999999999999742e-01,2.897250282804864074e-01,4.059186613332798482e-02,1.795877970026190928e-01
3.469999999999999751e-01,2.384983638093403913e-01,1.523616198200187545e-02,1.663209493946677942e-01
3.479999999999999760e-01,1.922110940931486545e-01,-3.300145637195053133e-02,1.898072125639818364e-01
3.489999999999999769e-01,1.562580951515057937e-01,-6.395771754199544579e-02,1.872429321951943060e-01
3.499999999999999778e-01,1.250066426553557986e-01,-1.212793329133546455e-01,1.710313188599719703e-01
3.509999999999999787e-01,5.969222590309287285e-02,-1.530271532408523094e-01,1.722056502787152610e-01
3.519999999999999796e-01,-4.727807188324606447e-03,-1.718088921798651136e-01,1.446969572259916015e-01
3.529999999999999805e-01,-3.630021316950274302e-02,-2.214766365297891615e-01,1.284131345804959690e-01
3.539999999999999813e-01,-9.586533660401952428e-02,-2.142834560173074165e-01,9.889690669474335283e-02
3.549999999999999822e-01,-1.420419268437915772e-01,-2.370598880177458012e-01,7.539786714209729956e-02
3.559999999999999831e-01,-1.745421175828072713e-01,-2.386129256897524531e-01,5.556660188734614814e-02
3.569999999999999840e-01,-2.315357104930601539e-01,-2.369998956265594592e-01,3.491637976710442685e-03
3.579999999999999849e-01,-2.482325896062693438e-01,-2.033279594817510860e-01,-5.091739813103947528e-03
3.589999999999999858e-01,-2.905509806090826874e-01,-1.982804588484403663e-01,-2.558986525253576644e-02
3.599999999999999867e-01,-2.963163602533863683e-01,-1.924014283660933911e-01,-7.550292848772273413e-02
3.609999999999999876e-01,-2.915964024025506363e-01,-1.224058068207156819e-01,-1.093227674531616761e-01
3.619999999999999885e-01,-2.759804732376786585e-01,-1.001835392689721660e-01,-1.310330464269749140e-01
3.629999999999999893e-01,-2.745689972161893810e-01,-5.753785034502353901e-02,-1.567177933838642678e-01
3.639999999999999902e-01,-2.514792178606126138e-01,-2.420168478140424448e-02,-1.777895984909300398e-01
3.649999999999999911e-01,-2.304609190028210908e-01,1.681325675316137566e-02,-1.816849381393474405e-01
3.659999999999999920e-01,-1.978015930512215248e-01,6.862390933371037560e-02,-1.720773946149053157e-01
3.669999999999999929e-01,-1.501810716869341200e-01,1.063605232957322982e-01,-1.871937059767992961e-01
3.679999999999999938e-01,-9.985230962150060119e-02,1.492876849527396410e-01,-1.801855150134722416e-01
3.689999999999999947e-01,-3.485776765617300266e-02,1.601437947357538527e-01,-1.532428783329533584e-01
3.699999999999999956e-01,2.287076486724929844e-02,2.053550948685567423e-01,-1.364463705213176947e-01
3.709999999999999964e-01,6.447169793215141997e-02,2.199730269419034878e-01,-1.060844176405833367e-01
3.719999999999999973e-01,1.249402301496238404e-01,2.402476223203531547e-01,-8.323474907951056156e-02
3.729999999999999982e-01,1.706631854905386603e-01,2.402046305210225607e-01,-4.877078803077451730e-02
3.739999999999999991e-01,1.963022910665606358e-01,2.223133729513432078e-01,-3.187543482831052544e-02
3.750000000000000000e-01,2.251569861384609683e-01,2.338925365057749894e-01,-9.510054891246494130e-05
3.760000000000000009e-01,2.553948818020781442e-01,1.982265389868753114e-01,3.781242483944665528e-02
3.770000000000000018e-01,2.940284832168681972e-01,1.754271485443627265e-01,6.268924903106072588e-02
3.780000000000000027e-01,3.074520096377209022e-01,1.527563690136451158e-01,1.056581440337513861e-01
3.790000000000000036e-01,2.865427136444488321e-01,1.270875545219438130e-01,1.033752889749237347e-01
3.800000000000000044e-01,2.993272088856579471e-01,9.391692877850252308e-02,1.406964805072647151e-01
3.810000000000000053e-01,2.487743056819775034e-01,3.676390871298554353e-02,1.489321663461585232e-01
3.820000000000000062e-01,2.460151354738482066e-01,6.199168921098683997e-03,1.844807918098802790e-01
3.830000000000000071e-01,2.103098766689174282e-01,-6.065084133279435852e-02,1.981668186360832362e-01
3.840000000000000080e-01,1.594161088734015741e-01,-9.118888900595267799e-02,1.725025941756573311e-01
3.850000000000000089e-01,1.129518754684154386e-01,-1.055674958574972233e-01,1.843667193814428895e-01
3.860000000000000098e-01,5.810443616828751129e-02,-1.613941607576590553e-01,1.495472775462793891e-01
3.870000000000000107e-01,8.574472547244502835e-03,-2.026370561073407017e-01,1.670668513044942793e-01
3.880000000000000115e-01,-3.206676803786803059e-02,-2.060925445500456921e-01,1.293071956095947495e-01
3.890000000000000124e-01,-1.110167860869985812e-01,-2.215981125141314456e-01,1.105333674817660372e-01
3.900000000000000133e-01,-1.490914045964067958e-01,-2.464738908116559657e-01,9.066181621398076984e-02
3.910000000000000142e-01,-1.926581358971871938e-01,-2.510116440296885076e-01,4.486845930175513419e-02
3.920000000000000151e-01,-2.143092383079231444e-01,-2.276468314978959684e-01,8.574505286945916308e-03
3.930000000000000160e-01,-2.642667775829270482e-01,-2.199590308700017927e-01,-2.921989462007536231e-03
3.940000000000000169e-01,-2.829475784369295255e-01,-1.914302984956239018e-01,-4.883923980586626218e-02
3.950000000000000178e-01,-2.948735510650661862e-01,-1.941989795817019304e-01,-6.761092470440759061e-02
3.960000000000000187e-01,-2.980148435179755806e-01,-1.077625838913296857e-01,-1.218382221267825111e-01
3.970000000000000195e-01,-2.820047806446181471e-01,-9.244785124744014926e-02,-1.491091422553901258e-01
3.980000000000000204e-01,-2.873881343154778278e-01,-5.867830967174163942e-02,-1.495933851243401169e-01
3.990000000000000213e-01,-2.569687184003812686e-01,-7.559745441460675834e-03,-1.576973467215486979e-01
4.000000000000000222e-01,-2.232298877568449913e-01,3.783550249712791524e-02,-1.894480959541332554e-01
4.010000000000000231e-01,-1.941719711721036079e-01,5.719022154539805253e-02,-1.925065120733094881e-01
4.020000000000000240e-01,-1.304836015177853470e-01,1.007904375981979322e-01,-1.690901195711768945e-01
4.030000000000000249e-01,-1.097406193432558796e-01,1.629163476058418936e-01,-1.807714410415278972e-01
4.040000000000000258e-01,-4.697728146052326803e-02,1.976733434898114705e-01,-1.510957593863699044e-01
4.050000000000000266e-01,2.860384060048133323e-02,2.010577509713348254e-01,-1.609409305783703614e-01
4.060000000000000275e-01,6.682563330619489816e-02,2.162949874602629885e-01,-1.321263492803336770e-01
4.069999999999999729e-01,1.256571494131394906e-01,2.319880645579278644e-01,-1.147658365578484857e-01
4.079999999999999738e-01,1.862552038590715997e-01,2.223583338240037455e-01,-7.264490512383882381e-02
4.089999999999999747e-01,2.110673111545221803e-01,2.438716619125691210e-01,-4.039051380130701668e-02
4.099999999999999756e-01,2.329138685723108892e-01,2.454286664092157899e-01,-2.139059634342383581e-02
4.109999999999999765e-01,2.722999804370272448e-01,2.266615682256558073e-01,2.522362241102300492e-02
4.119999999999999774e-01,3.043721749983956948e-01,1.665969442171598147e-01,5.571889837920292882e-02
4.129999999999999782e-01,2.996590782048941248e-01,1.332161438129901010e-01,8.709833058740440448e-02
4.139999999999999791e-01,3.024447034050352645e-01,1.237427659710349376e-01,1.124004750623336796e-01
4.149999999999999800e-01,2.868939894698356308e-01,7.125383532633057515e-02,1.260453656020938951e-01
4.159999999999999809e-01,2.660582983081005715e-01,1.444514962176855766e-02,1.279669497190308314e-01
4.169999999999999818e-01,2.327423661100134211e-01,-3.529944197996046779e-02,1.752438527661205891e-01
4.179999999999999827e-01,1.645543022264950028e-01,-6.014300240618709187e-02,1.671217168857863644e-01
4.189999999999999836e-01,1.773960029092487012e-01,-1.327674133615728280e-01,1.727525330209232768e-01
4.199999999999999845e-01,9.531746729687630426e-02,-1.597107526096242236e-01,1.883218317411344822e-01
4.209999999999999853e-01,5.886280692055332470e-02,-1.817374083922247974e-01,1.872873346479227707e-01
4.219999999999999862e-01,-1.290100824474259104e-02,-2.007632828637393729e-01,1.539761519865260608e-01
4.229999999999999871e-01,-5.721089807012910700e-02,-2.323154863955398386e-01,1.450599638546699044e-01
4.239999999999999880e-01,-1.044313386010156386e-01,-2.477505854956350007e-01,1.374901092090975996e-01
4.249999999999999889e-01,-1.581154722311888250e-01,-2.110012475127625298e-01,9.364459703762340048e-02
4.259999999999999898e-01,-2.110239873171407821e-01,-2.157111141849414326e-01,6.546564362079942967e-02
4.269999999999999907e-01,-2.467677916969781005e-01,-2.228981513432241601e-01,2.880885980359980392e-02
4.279999999999999916e-01,-2.800938679503558459e-01,-2.079022422094990163e-01,-1.073643484055123755e-02
4.289999999999999925e-01,-2.718916291417839970e-01,-1.635256322375673588e-01,-2.554855396742842719e-02
4.299999999999999933e-01,-3.103351405958031939e-01,-1.492995790268172585e-01,-6.961715115682315380e-02
4.309999999999999942e-01,-2.897246987311258848e-01,-1.085064872189728247e-01,-8.883805521930625282e-02
4.319999999999999951e-01,-2.650577301250839346e-01,-6.912591529001416157e-02,-1.267781964269550643e-01
4.329999999999999960e-01,-2.775093685977924052e-01,-3.544681609986179843e-02,-1.351992767966418985e-01
4.339999999999999969e-01,-2.537927824921796249e-01,-8.651982884163385203e-04,-1.554157862847339033e-01
4.349999999999999978e-01,-2.213111245401403748e-01,6.540997613532847921e-02,-1.637259020942108956e-01
4.359999999999999987e-01,-1.724210432453512631e-01,1.029361068607350937e-01,-1.650127251024847419e-01
4.369999999999999996e-01,-1.230126238761931473e-01,1.273051867169181783e-01,-1.788316349863967314e-01
4.380000000000000004e-01,-8.874520595375023913e-02,1.767798623287100135e-01,-1.812641704670674703e-01
4.390000000000000013e-01,-4.323410783005859209e-02,2.064223096731189200e-01,-1.868617476621466100e-01
4.400000000000000022e-01,1.943256672401039165e-02,2.143436552392429251e-01,-1.539334602294534504e-01
4.410000000000000031e-01,8.520235674801920900e-02,2.571151241915326513e-01,-1.182024579568072553e-01
4.420000000000000040e-01,1.381250732445368501e-01,2.157312921905453484e-01,-9.584671701972634350e-02
4.430000000000000049e-01,1.802002116170869639e-01,2.507846041679426818e-01,-7.411298008780711766e-02
4.440000000000000058e-01,2.211568129529543347e-01,2.229066646588198086e-01,-5.834551555271788592e-02
4.450000000000000067e-01,2.404139667046941709e-01,2.240788726127835306e-01,-3.102217781843175093e-02
4.460000000000000075e-01,2.949375336953661830e-01,1.861437041304331574e-01,2.824765267670421853e-02
4.470000000000000084e-01,3.217908361771824044e-01,1.670012800859443647e-01,4.998890187528957918e-02
4.480000000000000093e-01,2.872223242881452587e-01,1.585947450165609562e-01,7.785697179034492543e-02
4.490000000000000102e-01,3.008702806113277006e-01,7.695476944339833814e-02,1.149243098846125521e-01
4.500000000000000111e-01,2.747067099782805610e-01,4.362779652544827858e-02,1.408845588596043252e-01
4.510000000000000120e-01,2.493270611560067240e-01,8.063955593808689107e-03,1.635772743289384823e-01
4.520000000000000129e-01,2.375118334220382987e-01,-4.272667517792800435e-02,1.603555534954856920e-01
4.530000000000000138e-01,1.941608397011537757e-01,-5.836524076497304203e-02,1.814698780976574666e-01
4.540000000000000147e-01,1.732084372188340549e-01,-1.270093354145271358e-01,1.565271605223563511e-01
4.550000000000000155e-01,8.382595486692240305e-02,-1.642083614628441213e-01,1.857493697996787374e-01
4.560000000000000164e-01,6.077480436553997500e-02,-1.996064727389408322e-01,1.783051757233097834e-01
4.570000000000000173e-01,9.683394830758227517e-03,-2.215810309196071803e-01,1.370800769247678130e-01
4.580000000000000182e-01,-5.237595851619212400e-02,-2.208258180653860092e-01,1.371562655518410723e-01
4.590000000000000191e-01,-9.541596078571357165e-02,-2.501568965802071220e-01,1.247863184719435331e-01
4.600000000000000200e-01,-1.365943875297793431e-01,-2.421471744363799528e-01,9.189345661437955948e-02
4.610000000000000209e-01,-2.172488690333930494e-01,-2.257682548867892824e-01,6.876287653305615533e-02
4.620000000000000218e-01,-2.252793162787352921e-01,-2.257241136106290236e-01,4.505406673710733029e-02
4.630000000000000226e-01,-2.579167453483229844e-01,-1.946508790204275752e-01,1.042135854358117912e-03
4.640000000000000235e-01,-2.902106625110842941e-01,-1.623672796708343635e-01,-3.701241769498214707e-02
4.650000000000000244e-01,-2.963398563328687452e-01,-1.348265487889593606e-01,-7.565160145159076366e-02
4.660000000000000253e-01,-2.823669677396172806e-01,-1.064263991436140838e-01,-1.069567189412982955e-01
4.670000000000000262e-01,-3.031116905314129584e-01,-7.625501905209808307e-02,-1.176129809438308527e-01
4.680000000000000271e-01,-2.724733315700167968e-01,7.760287874549379357e-03,-1.449462611989001115e-01
4.689999999999999725e-01,-2.584322212840505228e-01,2.000104515540634953e-02,-1.401195154221324957e-01
4.699999999999999734e-01,-1.966988453850675722e-01,9.238492853431803931e-02,-1.935553968999856878e-01
4.709999999999999742e-01,-1.811647956738246801e-01,1.357989920263285022e-01,-1.621820490695900507e-01
4.719999999999999751e-01,-1.387719111597374155e-01,1.552852830800362516e-01,-1.794298605667267454e-01
4.729999999999999760e-01,-6.878786961546705381e-02,1.853471669051353632e-01,-1.910204964884242851e-01
4.739999999999999769e-01,-2.229642434073811005e-02,2.155073450338711727e-01,-1.512104491831011699e-01
4.749999999999999778e-01,3.335560783059632328e-02,2.144813989057415826e-01,-1.547553939239836585e-01
4.759999999999999787e-01,7.655992183717048871e-02,2.419602296983064393e-01,-1.270672664193129853e-01
4.769999999999999796e-01,1.283821032031481069e-01,2.407891705565979590e-01,-1.315593123685498966e-01
4.779999999999999805e-01,1.889532487858346377e-01,2.187456925745457081e-01,-8.558867406058846827e-02
4.789999999999999813e-01,2.403258862581341415e-01,2.368342746609446714e-01,-3.710416908551756460e-02
4.799999999999999822e-01,2.617094209594370557e-01,2.054645869333274200e-01,-2.696194072975190842e-02
4.809999999999999831e-01,2.544720496801667342e-01,2.096948532924088060e-01,1.920368175421450357e-02
4.819999999999999840e-01,2.832284340126441924e-01,1.496857889770485395e-01,4.213031460844877951e-02
4.829999999999999849e-01,3.134130443400552357e-01,1.200834200443387789e-01,5.730611134052320671e-02
4.839999999999999858e-01,2.933356139090321779e-01,8.750710382023528522e-02,1.036671388315300035e-01
4.849999999999999867e-01,2.663761751336974348e-01,4.169807993794313189e-02,1.185980055096998997e-01
4.859999999999999876e-01,2.433617402387857342e-01,-2.369667928270861174e-02,1.579250359799214687e-01
4.869999999999999885e-01,2.474171450230659708e-01,-6.467734640973188398e-02,1.709513404914210499e-01
4.879999999999999893e-01,2.053674063416137396e-01,-1.016106068172897559e-01,1.759995459270266849e-01
4.889999999999999902e-01,1.426428361150310076e-01,-1.335434231694865304e-01,1.959827659922028786e-01
4.899999999999999911e-01,1.180984674344494612e-01,-1.887534516079157620e-01,1.444713638538119571e-01
4.909999999999999920e-01,4.000463938904558203e-02,-1.932768527772258937e-01,1.665879355717088395e-01
4.919999999999999929e-01,2.070174070266686886e-02,-2.180500881126613832e-01,1.549221982186251845e-01
4.929999999999999938e-01,-4.594446135218168553e-02,-2.207001567528472652e-01,1.380465266102716415e-01
4.939999999999999947e-01,-8.347237398685040943e-02,-2.455102915942651565e-01,1.413280468468967876e-01
4.949999999999999956e-01,-1.518674611938342078e-01,-2.331451076934754896e-01,1.133260552117733577e-01
4.959999999999999964e-01,-1.871967881294077651e-01,-2.263079762337005252e-01,9.799757899823555163e-02
4.969999999999999973e-01,-2.327566892303569168e-01,-1.996334414688276659e-01,4.330275963783912496e-02
4.979999999999999982e-01,-2.340426716182145150e-01,-1.830576263315198404e-01,2.906766947943644017e-03
4.989999999999999991e-01,-2.809486705682905927e-01,-1.593521778720486948e-01,-3.627053392730891779e-02
5.000000000000000000e-01,-3.060312933112457334e-01,-1.102169116934689636e-01,-1.860803483906109043e-02
5.010000000000000009e-01,-3.004064959432317661e-01,-1.002975368265912465e-01,-8.935697091822640548e-02
5.020000000000000018e-01,-2.823749701826279157e-01,-5.650377671110007327e-02,-1.135304849050815384e-01
5.030000000000000027e-01,-2.655885444333563328e-01,-1.302362937673425067e-03,-1.186144045525708013e-01
5.040000000000000036e-01,-2.452751476998233926e-01,5.241005555164608004e-02,-1.608229448087178381e-01
5.050000000000000044e-01,-2.055565382850657596e-01,8.665330829513477606e-02,-1.541271398084393673e-01
5.060000000000000053e-01,-1.627791536071307166e-01,1.213396319440102067e-01,-1.772634080489136621e-01
5.070000000000000062e-01,-1.205759217069429373e-01,1.728738314381803864e-01,-1.953424812908848285e-01
5.080000000000000071e-01,-9.388135835884113545e-02,1.861313943408912097e-01,-1.946130951184367186e-01
5.090000000000000080e-01,-1.588016366884128019e-02,2.208793111555538979e-01,-1.814253487404172416e-01
5.100000000000000089e-01,2.443731353026938266e-02,2.420013838406891715e-01,-1.766363197847017064e-01
5.110000000000000098e-01,9.555519546713339696e-02,2.335122581374718675e-01,-1.606006930625976936e-01
5.120000000000000107e-01,1.497996672249151395e-01,2.209539930701989174e-01,-1.223134283601592931e-01
5.130000000000000115e-01,1.701324036303895892e-01,2.307758109170743865e-01,-9.870625575151910358e-02
5.140000000000000124e-01,2.162355547608766637e-01,2.307419614725264023e-01,-5.809473025065865076e-02
5.150000000000000133e-01,2.341983063115545827e-01,2.137988782068795390e-01,-3.664415606203504094e-02
5.160000000000000142e-01,2.703518770396111659e-01,1.941157659522949053e-01,-2.375985874066541270e-02
5.170000000000000151e-01,2.927414170903231971e-01,1.487110126746306049e-01,1.968063072869328731e-02
5.180000000000000160e-01,2.830091976055822967e-01,9.498611334449720556e-02,7.862711449292274224e-02
5.190000000000000169e-01,2.941719989925241086e-01,5.250038467931203434e-02,9.281742335731528459e-02
5.200000000000000178e-01,2.808763758176655023e-01,1.638191201907913605e-02,1.346898999755667403e-01
5.210000000000000187e-01,2.541331357723975448e-01,-2.122814440973712358e-02,1.198116820282662670e-01
5.220000000000000195e-01,2.470862345691132167e-01,-8.438535222913300105e-02,1.325730987870220035e-01
5.230000000000000204e-01,1.871860054394727246e-01,-1.225064976930973631e-01,1.662148574570627424e-01
5.240000000000000213e-01,1.498889285521117221e-01,-1.521070297365953727e-01,1.709394559296009974e-01
5.250000000000000222e-01,9.248124272753226183e-02,-1.651995551397113238e-01,1.683999510939709066e-01
5.260000000000000231e-01,3.414844021042508920e-02,-1.996321521639433105e-01,1.916855358541118270e-01
5.270000000000000240e-01,1.934947328898845020e-02,-2.233875760301227142e-01,1.671119724091735814e-01
5.280000000000000249e-01,-3.762217939717849707e-02,-2.384025037043929485e-01,1.388670567311400261e-01
5.290000000000000258e-01,-1.059587574393760917e-01,-2.352620599395165435e-01,1.320178215748955830e-01
5.300000000000000266e-01,-1.680250827037192141e-01,-2.259731995898985324e-01,9.697423724911435894e-02
5.310000000000000275e-01,-2.296029960408972059e-01,-2.156562458123547910e-01,8.906787224396410518e-02
5.320000000000000284e-01,-2.535394815492091336e-01,-1.941298076290983998e-01,5.711458963431190888e-02
5.330000000000000293e-01,-2.511119586105842183e-01,-1.605895499478608435e-01,6.422250117328155705e-02
5.340000000000000302e-01,-2.866219430893011122e-01,-1.465861518545630016e-01,-3.882759058304160495e-03
5.350000000000000311e-01,-2.922777283765067846e-01,-1.028449954831909680e-01,-4.786122730796939229e-02
5.360000000000000320e-01,-3.073590024993752001e-01,-7.598177224833552179e-02,-7.047703719041062409e-02
5.370000000000000329e-01,-2.861632926146815414e-01,-2.324887666164042466e-02,-9.560244637525344702e-02
5.380000000000000338e-01,-2.470463658711813393e-01,1.859876409224067023e-02,-1.114906595873694367e-01
5.390000000000000346e-01,-2.502804048453488583e-01,7.813083692134545344e-02,-1.649159122416995193e-01
5.400000000000000355e-01,-1.974171769812702038e-01,1.036125662998395452e-01,-1.671272381929465312e-01
5.410000000000000364e-01,-1.819003346980221647e-01,1.574465503812621514e-01,-1.750370973213856152e-01
5.420000000000000373e-01,-1.302877464974300514e-01,1.720867692992887887e-01,-1.883048453758505436e-01
5.430000000000000382e-01,-6.927455092885051458e-02,2.016007131364580540e-01,-1.864883893737343534e-01
5.440000000000000391e-01,-1.340462861313315712e-02,2.157604764899389294e-01,-1.735828539669563852e-01
5.450000000000000400e-01,3.149499484655313153e-02,2.159601098807538422e-01,-1.450681764753270209e-01
5.460000000000000409e-01,6.090159555324211466e-02,2.277886041948463391e-01,-1.387517157135027268e-01
5.470000000000000417e-01,1.174973815644169972e-01,2.418626815559790644e-01,-1.234989925734565619e-01
5.480000000000000426e-01,1.804845214031966238e-01,2.115978321434354437e-01,-1.009496293803684858e-01
5.490000000000000435e-01,2.245068217374383002e-01,2.000044964400598535e-01,-4.205539216892896504e-02
5.500000000000000444e-01,2.496525030620029284e-01,1.649620914740102529e-01,-2.116162571364229097e-02
5.510000000000000453e-01,2.813328558094020382e-01,1.486547507357785236e-01,-1.572297105058674191e-02
5.520000000000000462e-01,3.168703372464082846e-01,1.098716658318595329e-01,2.230417513348204733e-02
5.530000000000000471e-01,3.055982524874901185e-01,8.888810055329779414e-02,5.950300692232319416e-02
5.540000000000000480e-01,2.825627768473704671e-01,5.648015038751739991e-02,9.491575707458180244e-02
5.550000000000000488e-01,2.707329430331452680e-01,-2.198871808676896786e-02,1.319665693918838367e-01
5.560000000000000497e-01,2.569797741297767946e-01,-6.205178892971698057e-02,1.382800575056640502e-01
5.570000000000000506e-01,2.162724858156390428e-01,-1.120704334332256746e-01,1.737608066800524764e-01
5.580000000000000515e-01,1.938789103473612385e-01,-1.334821476211497382e-01,1.689675585100155752e-01
5.590000000000000524e-01,1.616184009130439692e-01,-1.607324241826638689e-01,1.511592340024488779e-01
5.600000000000000533e-01,1.050324200188761936e-01,-2.041505832032393664e-01,1.707769899669836500e-01
5.610000000000000542e-01,2.953490470908702245e-02,-1.905227214059901364e-01,1.432646300776532489e-01
5.620000000000000551e-01,-2.041946625399248053e-02,-2.149053313187984371e-01,1.613021192240801371e-01
5.629999999999999449e-01,-7.308060828848503276e-02,-2.406101732274107952e-01,1.569238764531784847e-01
5.639999999999999458e-01,-1.066567473203203081e-01,-2.438842675405267502e-01,1.372957424167658702e-01
5.649999999999999467e-01,-1.493879053576986637e-01,-2.186281298155649810e-01,1.076694265058519978e-01
5.659999999999999476e-01,-2.011430527173281579e-01,-2.003856808771629361e-01,1.121689519263716212e-01
5.669999999999999485e-01,-2.153488133560332585e-01,-2.108714884497176201e-01,5.646260253533774698e-02
5.679999999999999494e-01,-2.730730989228187799e-01,-1.612281582061386442e-01,3.688543137143510814e-02
5.689999999999999503e-01,-2.676847896146878347e-01,-1.224201551967354640e-01,7.808121208957180884e-03
5.699999999999999512e-01,-2.876951233668011976e-01,-7.310160435834169024e-02,-3.675232034806470011e-02
5.709999999999999520e-01,-3.159701590345469491e-01,-3.733825720543452326e-02,-5.722731208726378888e-02
5.719999999999999529e-01,-2.893664091810040362e-01,1.184392483156854539e-02,-8.404783464298155871e-02
5.729999999999999538e-01,-2.700202879971907444e-01,5.419043119653891433e-02,-1.264160558151890823e-01
5.739999999999999547e-01,-2.311619637240685254e-01,8.117223397225657722e-02,-1.612277770866324400e-01
5.749999999999999556e-01,-2.200241358833678051e-01,1.160339555302187242e-01,-1.385838446446556183e-01
5.759999999999999565e-01,-1.662739365101067457e-01,1.697498815080444312e-01,-1.561016263997656306e-01
5.769999999999999574e-01,-1.377752395055403534e-01,1.849778039075016534e-01,-2.077425633847272135e-01
5.779999999999999583e-01,-6.308789378694892869e-02,2.182800075292573860e-01,-1.599313786729397446e-01
5.789999999999999591e-01,1.366825406999073317e-02,2.133030821427216450e-01,-1.763232330008371873e-01
5.799999999999999600e-01,1.492731600350335336e-02,2.562918899113748594e-01,-1.604664476894376857e-01
5.809999999999999609e-01,7.148375899522860233e-02,2.475427045684647498e-01,-1.477830506662468624e-01
5.819999999999999618e-01,1.092129668342413790e-01,2.474833052687679946e-01,-1.208506549635443850e-01
5.829999999999999627e-01,1.937225094557076532e-01,2.096400917252519425e-01,-9.824727555251076827e-02
5.839999999999999636e-01,2.235846097572267988e-01,2.048867246373339557e-01,-6.449610109485486020e-02
5.849999999999999645e-01,2.858125709699488870e-01,1.701159744752175074e-01,-5.892313182812966565e-02
5.859999999999999654e-01,3.085012389406051603e-01,1.596483035721482924e-01,-3.149202059405041554e-02
5.869999999999999662e-01,3.075793710473691545e-01,1.004261125219211570e-01,2.356325874406207249e-02
5.879999999999999671e-01,2.920831790873829048e-01,6.997312277975339945e-02,5.740562383216538805e-02
5.889999999999999680e-01,3.043000824430361906e-01,1.700212373700336205e-02,9.305887742466265045e-02
5.899999999999999689e-01,2.846301421888489669e-01,-3.292084240146095353e-02,1.018826166508973868e-01
5.909999999999999698e-01,2.628841107310088687e-01,-6.424803619830801726e-02,1.129909293687341443e-01
5.919999999999999707e-01,2.056527390787396270e-01,-8.872627203489805159e-02,1.294384909875856415e-01
5.929999999999999716e-01,1.961648935818869066e-01,-1.626947817260987195e-01,1.684451937146762557e-01
5.939999999999999725e-01,1.478726022606277613e-01,-1.607681180962390877e-01,1.809440596260908363e-01
5.949999999999999734e-01,1.116669441060761936e-01,-1.988316975374748719e-01,1.780234282316371652e-01
5.959999999999999742e-01,5.679283098684993064e-02,-2.341089714370566677e-01,1.844314570636781947e-01
5.969999999999999751e-01,6.120636400114587775e-03,-2.384030738993353216e-01,1.715748676434194209e-01
5.979999999999999760e-01,-7.324839453464210282e-02,-2.360089976169673365e-01,1.746274067780570760e-01
5.989999999999999769e-01,-1.271055710518648463e-01,-2.498265546543182170e-01,1.366689626199787400e-01
5.999999999999999778e-01,-1.573742379410950631e-01,-2.333553025714177054e-01,1.247976185834769464e-01
6.009999999999999787e-01,-2.184142375293433858e-01,-2.009797457724010195e-01,1.084943936117350322e-01
6.019999999999999796e-01,-2.454746037730769492e-01,-1.996692492146337483e-01,7.258445461656436171e-02
6.029999999999999805e-01,-2.501747997219316844e-01,-1.430405584955756204e-01,2.990835509174787771e-02
6.039999999999999813e-01,-3.053626699250174825e-01,-1.132484337721743062e-01,1.299274577522207142e-03
6.049999999999999822e-01,-2.895065699405193760e-01,-7.093411373403869791e-02,-9.879427195059123021e-03
6.059999999999999831e-01,-2.905295738912201386e-01,-2.894594266482459696e-02,-6.608497470564948795e-02
6.069999999999999840e-01,-3.068170760704527766e-01,1.329711465319620076e-02,-8.713148628239276994e-02
6.079999999999999849e-01,-2.646934445937410563e-01,4.986663190713958027e-02,-9.800065199430763041e-02
6.089999999999999858e-01,-2.501133779626991682e-01,1.062541463262971358e-01,-1.442415833288628602e-01
6.099999999999999867e-01,-2.174299127022557565e-01,1.286559359536320613e-01,-1.735563861545717235e-01
6.109999999999999876e-01,-1.798705760854731606e-01,1.884398144604055580e-01,-1.583064544626668624e-01
6.119999999999999885e-01,-1.201331174457559575e-01,1.834769105092732000e-01,-1.798910560146170790e-01
6.129999999999999893e-01,-7.008017876991369521e-02,2.091926038951125166e-01,-1.714165877028351326e-01
6.139999999999999902e-01,-4.723356604306411938e-02,2.505333665521012332e-01,-1.928439133971082964e-01
6.149999999999999911e-01,4.642351929019643275e-02,2.166212789667389949e-01,-1.608405448975153695e-01
6.159999999999999920e-01,9.641218595315360906e-02,2.392263085002304668e-01,-1.699918115075335912e-01
6.169999999999999929e-01,1.322255658646717957e-01,2.202998095067677520e-01,-1.483982091012205906e-01
6.179999999999999938e-01,2.014895272132650739e-01,2.239479999689363010e-01,-1.249103167351713478e-01
6.189999999999999947e-01,2.241713024114128372e-01,1.958193017685825876e-01,-7.197469857533464466e-02
6.199999999999999956e-01,2.454617909997980074e-01,1.570176811016295859e-01,-3.508350651752870086e-02
6.209999999999999964e-01,2.889378078433665897e-01,1.235596761111613373e-01,-3.163658033323926005e-02
6.219999999999999973e-01,2.968533661296544612e-01,8.178262844020048328e-02,1.686599157269542959e-02
6.229999999999999982e-01,2.901461288489569634e-01,4.349895685004849522e-02,3.955296822044197802e-02
6.239999999999999991e-01,3.076506531941766154e-01,-9.663000895288691855e-03,8.110817705772364883e-02
6.250000000000000000e-01,2.831654821006112654e-01,-4.065869733424674892e-02,8.763450265736449918e-02
6.260000000000000009e-01,2.694603145867298655e-01,-7.294898116366146934e-02,1.087227431691571572e-01
6.270000000000000018e-01,2.290227123323873293e-01,-1.356191196215653649e-01,1.500980381998495150e-01
6.280000000000000027e-01,1.759765389243315714e-01,-1.414694114712450046e-01,1.482088559840459563e-01
6.290000000000000036e-01,1.398895888668353349e-01,-1.725766738534569023e-01,1.832698157934448124e-01
6.300000000000000044e-01,9.493743606420187997e-02,-1.891648872967738870e-01,1.595545685610788023e-01
6.310000000000000053e-01,3.827290900272908164e-02,-2.174966995387165036e-01,1.883008504790708026e-01
6.320000000000000062e-01,-1.709159936278922473e-02,-2.365866788622177086e-01,2.018925854223139749e-01
6.330000000000000071e-01,-6.808140243923715973e-02,-2.469139451568392041e-01,1.559085897320552638e-01
6.340000000000000080e-01,-1.222794049575700037e-01,-2.399232150919087259e-01,1.323201508503331902e-01
6.350000000000000089e-01,-1.697872399358343887e-01,-2.168677040645766718e-01,1.392141191613356921e-01
6.360000000000000098e-01,-1.861507664530798745e-01,-2.048403805632568464e-01,9.970905409338254310e-02
6.370000000000000107e-01,-2.185083549634526112e-01,-1.662620119709671829e-01,8.736798528337100245e-02
6.380000000000000115e-01,-3.003973687152916017e-01,-1.277073146883735133e-01,5.233944086795097594e-02
6.390000000000000124e-01,-2.842918743833180439e-01,-1.006040714314907630e-01,2.664394526929115756e-02
6.400000000000000133e-01,-2.903672524133709132e-01,-6.923050829721272281e-02,-4.234508870494443911e-02
6.410000000000000142e-01,-3.122797052425905218e-01,3.153416222738810934e-04,-2.427364566657260608e-02
6.420000000000000151e-01,-2.990026063690937042e-01,2.645978515073309917e-02,-8.574885903877349502e-02
6.430000000000000160e-01,-2.789025044330292746e-01,6.981300574820194227e-02,-8.478849208831980289e-02
6.440000000000000169e-01,-2.296771721827103319e-01,1.054346574326108787e-01,-1.556546705832435040e-01
6.450000000000000178e-01,-2.021735278522988899e-01,1.548509934474063821e-01,-1.570195666311508809e-01
6.460000000000000187e-01,-1.535936438028731588e-01,1.978921130467349021e-01,-1.540000727141656034e-01
6.470000000000000195e-01,-1.145654440137740815e-01,1.989808643720601400e-01,-1.753929926707103459e-01
6.480000000000000204e-01,-6.035393788100567453e-02,2.255468319491835405e-01,-1.902980404681320070e-01
6.490000000000000213e-01,-5.903672233779203894e-03,2.294032451825070984e-01,-1.774588888468970338e-01
6.500000000000000222e-01,6.200101980253369671e-02,2.255807396068781612e-01,-1.664295113778323232e-01
6.510000000000000231e-01,9.320970576773714156e-02,2.105124643278864782e-01,-1.623871899347582026e-01
6.520000000000000240e-01,1.548660365223794300e-01,2.141327280934114119e-01,-1.432605952238315272e-01
6.530000000000000249e-01,2.082663324710787300e-01,1.825180991765030514e-01,-9.875376789151427137e-02
6.540000000000000258e-01,2.178505552774833987e-01,1.899785207900852868e-01,-7.969070053066508452e-02
6.550000000000000266e-01,2.406020039208673911e-01,1.566282786315689457e-01,-4.809521981286266762e-02
6.560000000000000275e-01,2.667477526877687355e-01,1.189232252030396619e-01,-6.162058405010643891e-02
6.570000000000000284e-01,3.030109642589413066e-01,5.374721293162142838e-02,-5.052852690752607928e-03
6.580000000000000293e-01,3.033072172566614877e-01,2.433407735776390093e-02,3.240582855850165228e-02
6.590000000000000302e-01,2.841347611975005849e-01,2.572817987176378648e-03,6.831880236416774943e-02
6.600000000000000311e-01,2.800326215335758318e-01,-5.778322977192322518e-02,7.493053841966221262e-02
6.610000000000000320e-01,2.587917569322518707e-01,-9.130331757987608654e-02,9.733237264751752604e-02
6.620000000000000329e-01,2.048481369061609936e-01,-1.393572471432116822e-01,1.538776072181895493e-01
6.630000000000000338e-01,1.901528734430273926e-01,-1.852217028747295546e-01,1.561927997240739885e-01
6.640000000000000346e-01,1.318950628482766785e-01,-1.819798157867900112e-01,1.573658158936303009e-01
6.650000000000000355e-01,9.556592298387206474e-02,-2.110113521314225804e-01,1.812682547967780222e-01
6.660000000000000364e-01,3.185119506765821812e-02,-2.070483101796322389e-01,1.835438246967547316e-01
6.670000000000000373e-01,1.818471957884699314e-02,-2.494002974076368895e-01,1.628751176215302854e-01
6.680000000000000382e-01,-9.336018011232442848e-02,-2.419864085943198850e-01,1.628221766754218702e-01
6.690000000000000391e-01,-1.261039621469840222e-01,-2.153101686860426911e-01,1.540534819349827222e-01
6.700000000000000400e-01,-1.900626341300623023e-01,-2.294894423144866746e-01,1.356140361644145864e-01
6.710000000000000409e-01,-2.026717193988248900e-01,-1.872163548318532544e-01,9.786417440453946959e-02
6.720000000000000417e-01,-2.323368815478683846e-01,-1.841487294454864920e-01,9.444668152732078881e-02
6.730000000000000426e-01,-2.565243840766285310e-01,-1.377977247324617960e-01,5.459381497888267376e-02
6.740000000000000435e-01,-2.768177804398438968e-01,-5.259044993901608456e-02,2.199202142401473006e-02
6.750000000000000444e-01,-2.895475454692810757e-01,-5.163493140515202501e-02,-1.602410538508737201e-02
6.760000000000000453e-01,-3.022090031111593911e-01,-5.845960914407922517e-03,-4.615549680536307209e-02
6.770000000000000462e-01,-2.649397257416721829e-01,5.231970270206032225e-02,-5.109559836018683771e-02
6.780000000000000471e-01,-2.720130382113722378e-01,9.057805676921436289e-02,-8.969089024995063886e-02
6.790000000000000480e-01,-2.378041396240080374e-01,1.335083548630943140e-01,-1.451839809640711465e-01
6.800000000000000488e-01,-2.073797962293893737e-01,1.561359704697282413e-01,-1.331600897465869404e-01
6.810000000000000497e-01,-1.451235340916649519e-01,1.946750098962516662e-01,-1.444757468787955523e-01
6.820000000000000506e-01,-9.042574320781662789e-02,2.336462560890928686e-01,-1.727870834382119469e-01
6.830000000000000515e-01,-6.531825826942437574e-02,2.276185846521080469e-01,-1.825725925117880899e-01
6.840000000000000524e-01,-2.584238071721293994e-02,2.362268767758611276e-01,-1.777876437631473183e-01
6.850000000000000533e-01,2.154704485009927006e-02,2.217935647377954900e-01,-1.942519538207397034e-01
6.860000000000000542e-01,8.769657120060614375e-02,2.330849750534945142e-01,-1.960688973151028802e-01
6.870000000000000551e-01,1.692797733253830206e-01,1.975300347838348791e-01,-1.653115810427376875e-01
6.879999999999999449e-01,2.062375871755461054e-01,1.983610235944665012e-01,-1.346792877137665545e-01
6.889999999999999458e-01,2.243458763231452879e-01,1.781096435598531202e-01,-9.206696667598694706e-02
6.899999999999999467e-01,2.280806128914099618e-01,1.485760079665360278e-01,-6.726671801231587366e-02
6.909999999999999476e-01,3.002457740227215677e-01,7.946686136283784285e-02,-5.315873995954140813e-02
6.919999999999999485e-01,2.819179013716547333e-01,6.302579307166787659e-02,-2.294711399747492026e-02
6.929999999999999494e-01,2.989001436576018689e-01,1.377362302509121256e-02,1.141340666510331191e-02
6.939999999999999503e-01,3.001246697843670819e-01,-3.868619490655424847e-02,6.013310892286317932e-02
6.949999999999999512e-01,2.738898777336273294e-01,-8.833412725309713887e-02,7.594840658393225974e-02
6.959999999999999520e-01,2.635334063440733510e-01,-9.653911284838961882e-02,9.697867456731727731e-02
6.969999999999999529e-01,2.322873445131278802e-01,-1.204610959631501332e-01,1.101359625507245255e-01
6.979999999999999538e-01,1.752730589314157039e-01,-1.902434952714083805e-01,1.391851424795990944e-01
6.989999999999999547e-01,1.640224543512067146e-01,-2.007565504755575714e-01,1.398422814337237918e-01
6.999999999999999556e-01,5.379876357018063826e-02,-2.372876813465614187e-01,1.911296766902959576e-01
7.009999999999999565e-01,3.572351912131456475e-02,-2.448928791468928112e-01,1.763583852888630510e-01
7.019999999999999574e-01,3.117933149256142878e-05,-2.486412744271166708e-01,1.708787374653525093e-01
7.029999999999999583e-01,-6.252799540581313598e-02,-2.323944649581187183e-01,1.717385731402053528e-01
7.039999999999999591e-01,-1.270976588317017097e-01,-2.005390672157021659e-01,1.540222418057768938e-01
7.049999999999999600e-01,-1.834259094140037460e-01,-2.087261444496229523e-01,1.484439766014211959e-01
7.059999999999999609e-01,-2.228398725019723747e-01,-1.864119118801073616e-01,1.163683898008223000e-01
7.069999999999999618e-01,-2.525872015566991147e-01,-1.723061378917264963e-01,1.159422673949141586e-01
7.079999999999999627e-01,-2.828119537978429077e-01,-9.306940868137994483e-02,5.812988589207865320e-02
7.089999999999999636e-01,-2.764210565227194216e-01,-5.562073871517800999e-02,3.982913227586492438e-02
7.099999999999999645e-01,-2.948499867882759529e-01,-3.206677550562178625e-02,-9.481614357215978339e-03
7.109999999999999654e-01,-3.148711233459189907e-01,3.033359417477203210e-02,-4.052053391509321395e-02
7.119999999999999662e-01,-2.658695184974143033e-01,6.065056516717949597e-02,-5.770468702647438969e-02
7.129999999999999671e-01,-2.577318161467322399e-01,9.438873142982380504e-02,-1.009081149340928241e-01
7.139999999999999680e-01,-2.396782867598756250e-01,1.561471251870422960e-01,-1.354086155619152188e-01
7.149999999999999689e-01,-1.978937203554754221e-01,1.675809689620329779e-01,-1.048090282245240368e-01
7.159999999999999698e-01,-1.595613514904547225e-01,1.913952866000577513e-01,-1.356359370986014723e-01
7.169999999999999707e-01,-9.193316265048608049e-02,2.168064439741828053e-01,-1.514143187280615477e-01
7.179999999999999716e-01,-4.460700239445273413e-02,2.425479574889192191e-01,-1.709548022159546599e-01
7.189999999999999725e-01,7.777304407985330056e-03,2.463293031494996066e-01,-1.786648908937402414e-01
7.199999999999999734e-01,4.959587553802518450e-02,2.277228451375607754e-01,-1.761764410001005754e-01
7.209999999999999742e-01,8.648081328880950769e-02,2.263198469369922528e-01,-1.817416157336136096e-01
7.219999999999999751e-01,1.463415883595249323e-01,2.131804745256779265e-01,-1.534589721965859688e-01
7.229999999999999760e-01,1.898337519169742138e-01,1.791220555315775620e-01,-1.424318902848046853e-01
7.239999999999999769e-01,2.319128107632937585e-01,1.498418436542794940e-01,-1.182057515693391569e-01
7.249999999999999778e-01,2.480106905189299327e-01,1.007820833108252906e-01,-9.015407193208210823e-02
7.259999999999999787e-01,2.602013499537490504e-01,7.038138149390738008e-02,-4.840024162486973591e-02
7.269999999999999796e-01,3.014981821083861924e-01,4.269845399370962580e-02,-3.591303855002015571e-02
7.279999999999999805e-01,3.061001590519212834e-01,-7.098407064902627697e-03,1.362394306550364191e-02
7.289999999999999813e-01,2.981555932567960809e-01,-4.743464741896601111e-02,5.145175793197383218e-02
7.299999999999999822e-01,2.912796470600310106e-01,-7.312626510232664301e-02,8.195649495352559655e-02
7.309999999999999831e-01,2.445061355316221485e-01,-1.188191364625690027e-01,9.931320301418915253e-02
7.319999999999999840e-01,2.236366835520685048e-01,-1.720786815012134707e-01,1.265401398247975595e-01
7.329999999999999849e-01,2.028382921268194472e-01,-1.700336060493984891e-01,1.449369829368848672e-01
7.339999999999999858e-01,1.527176684288766295e-01,-1.961586550339469992e-01,1.400445180556048885e-01
7.349999999999999867e-01,1.071969530687595512e-01,-2.178161885715696744e-01,1.797622579101702256e-01
7.359999999999999876e-01,4.581854155224633629e-02,-2.371525322139130254e-01,1.639626292318797640e-01
7.369999999999999885e-01,-2.324942378147852248e-02,-2.464072702652386482e-01,1.817318526296849146e-01
7.379999999999999893e-01,-8.778839130219906473e-02,-2.069911610477073727e-01,1.640250161540373897e-01
7.389999999999999902e-01,-1.441060830293771355e-01,-2.168523350988442178e-01,1.863642437627608117e-01
7.399999999999999911e-01,-1.604821286237751998e-01,-1.838987600411342849e-01,1.556060365574940541e-01
7.409999999999999920e-01,-2.163445589012459314e-01,-1.634809428391982566e-01,1.310647006603896658e-01
7.419999999999999929e-01,-2.327293561604240058e-01,-1.078325513354259912e-01,1.001228559717347311e-01
7.429999999999999938e-01,-3.021015851638735872e-01,-1.100746118261716339e-01,8.662694774626228389e-02
7.439999999999999947e-01,-2.766165897077158542e-01,-7.005361195830793475e-02,2.210382066514034530e-02
7.449999999999999956e-01,-3.047468307687267730e-01,-8.069700933504101240e-03,5.173173141439189882e-02
7.459999999999999964e-01,-2.744854849803003427e-01,5.495347849011037594e-02,-1.490922541762015018e-02
7.469999999999999973e-01,-2.867016600324112652e-01,9.320459400411046369e-02,-8.445686048236049348e-02
7.479999999999999982e-01,-2.573683907402203874e-01,1.452984798254544629e-01,-8.084407712818657277e-02
7.489999999999999991e-01,-2.116391148532795474e-01,1.600771500510943801e-01,-1.090526485370395676e-01
7.500000000000000000e-01,-1.984287263077476882e-01,1.872214824470699868e-01,-1.173093959792574081e-01
7.510000000000000009e-01,-1.602863705750277867e-01,1.983488062924471385e-01,-1.576139976939656684e-01
7.520000000000000018e-01,-1.121810566041000767e-01,2.171690331696216614e-01,-1.652898550915155029e-01
7.530000000000000027e-01,-4.357148787445570826e-02,2.342289003395823244e-01,-1.855303897519304523e-01
7.540000000000000036e-01,3.680320765098976632e-05,2.383523228248495551e-01,-1.858974764640913269e-01
7.550000000000000044e-01,6.129230180831730934e-02,2.537734043185668198e-01,-1.640698442678673874e-01
7.560000000000000053e-01,1.016188815868591111e-01,2.312444854625842761e-01,-1.655393270977493780e-01
7.570000000000000062e-01,1.735508855873632295e-01,1.963200065813608952e-01,-1.638307027774595637e-01
7.580000000000000071e-01,1.862619502265516480e-01,1.591854683955478411e-01,-1.268398992609373055e-01
7.590000000000000080e-01,2.419490585084089207e-01,1.421645868787973221e-01,-1.261866961236950135e-01
7.600000000000000089e-01,2.625747640842727160e-01,9.612660984699013256e-02,-9.400306550115458681e-02
7.610000000000000098e-01,2.969425233516773122e-01,8.808044921965933749e-02,-7.246192496903555713e-02
7.620000000000000107e-01,2.817617546758590108e-01,2.255512821823373731e-02,-3.023708034792200669e-02
7.630000000000000115e-01,3.055848534094504076e-01,-3.553940774690991788e-02,9.062812185568754758e-03
7.640000000000000124e-01,2.928113593081262955e-01,-5.902762495753232502e-02,1.306651976241086748e-02
7.650000000000000133e-01,2.790579286425175498e-01,-1.064356615745950113e-01,5.413830461929257376e-02
7.660000000000000142e-01,2.371905320979980913e-01,-1.493937415904195987e-01,8.709118568584854614e-02
7.670000000000000151e-01,2.219684526772443267e-01,-1.966222979596000120e-01,9.385292631896050008e-02
7.680000000000000160e-01,2.141723292495100461e-01,-1.893097466187802780e-01,1.338324146884170562e-01
7.690000000000000169e-01,1.448122589919558778e-01,-2.127479596726677691e-01,1.595471384466125020e-01
7.700000000000000178e-01,8.262076536803350524e-02,-2.435912386825453413e-01,1.703776466961778036e-01
7.710000000000000187e-01,2.880115014021740472e-02,-2.392738071164232649e-01,1.627564032474427269e-01
7.720000000000000195e-01,-1.335102541806714414e-02,-2.282371078301566603e-01,2.010057898691513245e-01
7.730000000000000204e-01,-8.781692745782408716e-02,-2.313777234456333987e-01,1.841775981288251152e-01
7.740000000000000213e-01,-1.387755009299924680e-01,-1.834413322957749726e-01,1.633025167770484620e-01
7.750000000000000222e-01,-1.766985032494667873e-01,-1.818683349192274645e-01,1.684938409285415828e-01
7.760000000000000231e-01,-2.100946087165996845e-01,-1.439184295954201998e-01,1.299715507661814151e-01
7.770000000000000240e-01,-2.598318530710205798e-01,-1.014589379712551170e-01,1.144167811506906357e-01
7.780000000000000249e-01,-2.714335479550475383e-01,-9.373456758205384043e-02,8.432495837230388758e-02
7.790000000000000258e-01,-2.751979035231604254e-01,-2.109374574191967555e-02,6.196247920925575248e-02
7.800000000000000266e-01,-2.959563630240608090e-01,-4.243535244201339807e-04,1.876583555615055424e-02
7.810000000000000275e-01,-2.931451507822646629e-01,5.854541238418069921e-02,-1.110726657111625604e-02
7.820000000000000284e-01,-2.879861244390456432e-01,1.207010087727380804e-01,-4.382841764892151520e-02
7.830000000000000293e-01,-2.712603335889504641e-01,1.241149743982707387e-01,-5.267822007763575676e-02
7.840000000000000302e-01,-2.530433491413556779e-01,1.823519478952661255e-01,-9.449399664621127570e-02
7.850000000000000311e-01,-1.747845232461223974e-01,2.084520653643062993e-01,-1.407702037982717647e-01
7.860000000000000320e-01,-1.429840710967147932e-01,2.063831090374826649e-01,-1.361786414040005444e-01
7.870000000000000329e-01,-1.301300168152828840e-01,2.613155341314418734e-01,-1.511820307201260372e-01
7.880000000000000338e-01,-7.904918339387852211e-02,2.149396856651034915e-01,-1.529686973572431663e-01
7.890000000000000346e-01,-1.311840279146204123e-02,2.586210623117943253e-01,-1.839726552899333123e-01
7.900000000000000355e-01,5.549668221133318563e-02,2.257457751849462624e-01,-1.879820306515261330e-01
7.910000000000000364e-01,9.630403124742040188e-02,1.910082122812806205e-01,-1.796778080330894145e-01
7.920000000000000373e-01,1.775952354323501736e-01,2.075215107117101554e-01,-1.563113445545792624e-01
7.930000000000000382e-01,1.899116784857857732e-01,1.739852970984596958e-01,-1.667210834003431397e-01
7.940000000000000391e-01,2.353311818257634025e-01,1.099852727791230111e-01,-1.284838501754375917e-01
7.950000000000000400e-01,2.812867003317140457e-01,8.409230943962248128e-02,-1.008300464534216540e-01
7.960000000000000409e-01,2.660828453849374275e-01,4.351504932274376236e-02,-1.093790709209665341e-01
7.970000000000000417e-01,3.124932101415693886e-01,-3.883425909414230798e-03,-4.905527670375699895e-02
7.980000000000000426e-01,2.937457310571054414e-01,-5.136850531745605630e-02,-1.813780453430080195e-02
7.990000000000000435e-01,3.028802664614793638e-01,-6.879908992466222950e-02,3.884261745991809262e-02
8.000000000000000444e-01,2.661526523414189382e-01,-1.068356445145829531e-01,5.743708668188954314e-02
8.010000000000000453e-01,2.487890954289019574e-01,-1.542478189672384647e-01,8.388047781513247037e-02
8.020000000000000462e-01,2.409525672089452564e-01,-1.723512616964785471e-01,1.161542726310107049e-01
8.030000000000000471e-01,1.720120016498064563e-01,-2.108424306698915840e-01,1.166490693710316440e-01
8.040000000000000480e-01,1.174187623522521678e-01,-2.188243343835769295e-01,1.362533322049599149e-01
8.050000000000000488e-01,6.601344000986296423e-02,-2.406935219500690726e-01,1.834057625617242504e-01
8.060000000000000497e-01,-4.526393088579632427e-03,-2.285974258238773760e-01,1.594052687914863375e-01
8.070000000000000506e-01,-1.950512398747154125e-02,-2.369213228048883957e-01,2.019408527011572196e-01
8.080000000000000515e-01,-8.581033964099786526e-02,-2.084703793296606433e-01,1.663628446356077151e-01
8.090000000000000524e-01,-1.544107202980941895e-01,-2.134472574569839520e-01,1.703541833518474324e-01
8.100000000000000533e-01,-1.795939393463967804e-01,-1.743635968581494222e-01,1.447265593472524814e-01
8.110000000000000542e-01,-2.445764052618203122e-01,-1.133355539359103270e-01,1.357259922126733964e-01
8.120000000000000551e-01,-2.522292281508459189e-01,-1.006366407180693257e-01,1.420601719085971826e-01
8.129999999999999449e-01,-2.657396113350953271e-01,-5.905803548751802079e-02,1.226904028942673586e-01
8.139999999999999458e-01,-3.066696728723607990e-01,-2.519423021716771932e-02,6.191110989027758665e-02
8.149999999999999467e-01,-2.913659669396720941e-01,3.224545167623198844e-02,3.338624225781045007e-02
8.159999999999999476e-01,-2.831166669368416766e-01,4.580899332706788590e-02,-1.889889357438003740e-03
8.169999999999999485e-01,-2.855495284354555019e-01,1.172142247777772650e-01,-2.219782256125704331e-02
8.179999999999999494e-01,-2.685027583507640370e-01,1.502952618273264707e-01,-7.637688266608415322e-02
8.189999999999999503e-01,-2.319765680344914871e-01,1.613073891848993968e-01,-1.002753496364704733e-01
8.199999999999999512e-01,-1.777744343259287929e-01,2.331260299731414132e-01,-1.145566189988279776e-01
8.209999999999999520e-01,-1.646159734421079046e-01,2.065604520534371769e-01,-1.192888262288351459e-01
8.219999999999999529e-01,-1.083295002105685023e-01,2.404702142926656572e-01,-1.446485732349260533e-01
8.229999999999999538e-01,-5.908572643977341027e-02,2.449321003133927421e-01,-1.561706373319710905e-01
8.239999999999999547e-01,-1.295868227314361625e-02,2.238064412509629397e-01,-1.616781968463300301e-01
8.249999999999999556e-01,6.352423800625593697e-02,2.190113411210493632e-01,-1.695600100990178327e-01
8.259999999999999565e-01,1.190738676277050823e-01,2.023731418625432654e-01,-1.602458565169903038e-01
8.269999999999999574e-01,1.603234102887708123e-01,1.744852771696170646e-01,-1.585013462669940254e-01
8.279999999999999583e-01,1.991740420030627401e-01,1.306036882954934308e-01,-1.445110133560553456e-01
8.289999999999999591e-01,2.540754170553390923e-01,8.621942759646246401e-02,-1.399081774703263836e-01
8.299999999999999600e-01,2.529393318224608111e-01,4.557126001039585317e-02,-1.044011699201739946e-01
8.309999999999999609e-01,2.963441495736567344e-01,2.834726087831021535e-02,-9.555302607154625427e-02
8.319999999999999618e-01,2.933998337166405790e-01,-8.857157332138871145e-03,-5.881245013170891683e-02
8.329999999999999627e-01,3.084042635891666717e-01,-6.598767005518471618e-02,-3.350647318570685457e-02
8.339999999999999636e-01,3.058820410058857298e-01,-9.341328834255274716e-02,2.539327009425855486e-02
8.349999999999999645e-01,2.711262075069054145e-01,-1.328061922110297111e-01,2.475955579266829465e-02
8.359999999999999654e-01,2.588116066246292646e-01,-1.835930765544768473e-01,5.852524495161538776e-02
8.369999999999999662e-01,2.107462490999585658e-01,-2.144006096198979028e-01,1.012671614045011353e-01
8.379999999999999671e-01,1.563832726371778836e-01,-2.241736072629198773e-01,1.187760234740795201e-01
8.389999999999999680e-01,1.420173971649912881e-01,-2.416816480303362880e-01,1.370825582452045444e-01
8.399999999999999689e-01,6.324462257351200212e-02,-2.305126912769920045e-01,1.489611889653507937e-01
8.409999999999999698e-01,3.090124196130754342e-02,-2.342445449723167261e-01,1.744200920065794025e-01
8.419999999999999707e-01,-2.614807102934986124e-02,-2.290045720956567499e-01,1.751610356930356216e-01
8.429999999999999716e-01,-5.944423088771739333e-02,-2.067411248535985790e-01,1.678020384441080148e-01
8.439999999999999725e-01,-1.230800231571867326e-01,-2.043130743867145882e-01,1.716683769423796857e-01
8.449999999999999734e-01,-1.702637234625656304e-01,-1.824279665899937730e-01,1.616413634632862251e-01
8.459999999999999742e-01,-2.005545719825357898e-01,-1.186824817435878504e-01,1.371388690287617396e-01
8.469999999999999751e-01,-2.489801290060831285e-01,-8.812645019253181888e-02,1.157997544324284034e-01
8.479999999999999760e-01,-2.663220127655310243e-01,-4.551296525407093341e-02,7.927652090098770421e-02
8.489999999999999769e-01,-2.886617724778617333e-01,-9.062085727917109507e-03,1.039506660454218440e-01
8.499999999999999778e-01,-3.194772881767616868e-01,7.436255927432051938e-02,4.214500186872022908e-02
8.509999999999999787e-01,-2.840214542450384405e-01,8.365412464249667723e-02,1.328813579635800511e-02
8.519999999999999796e-01,-2.914549178602978130e-01,1.439532064363248931e-01,-6.518411987463090460e-03
8.529999999999999805e-01,-2.563793035162980072e-01,1.741804363989380711e-01,-1.823845847861832806e-02
8.539999999999999813e-01,-2.194092541171788757e-01,1.764943065570569458e-01,-9.956491476423946774e-02
8.549999999999999822e-01,-1.867868698701536379e-01,2.100579582334811679e-01,-1.061171083178654301e-01
8.559999999999999831e-01,-1.451385462325777975e-01,2.247937566287710742e-01,-1.459818941022237027e-01
8.569999999999999840e-01,-6.983181337436171476e-02,2.360843329170879967e-01,-1.420983736046403934e-01
8.579999999999999849e-01,-5.105215851280681810e-02,2.326939580694035170e-01,-1.380745102603703756e-01
8.589999999999999858e-01,-1.014805554743253464e-02,2.510904543103750219e-01,-1.751585956400149857e-01
8.599999999999999867e-01,5.830667428650728595e-02,2.017468187940602842e-01,-1.826701370673553260e-01
8.609999999999999876e-01,1.080279839029408273e-01,1.999394660820814629e-01,-1.701138974252742186e-01
8.619999999999999885e-01,1.546653369669196143e-01,1.408947688392435948e-01,-1.566912932315500107e-01
8.629999999999999893e-01,2.161515705293764189e-01,1.369327135649229255e-01,-1.539602773561200011e-01
8.639999999999999902e-01,2.428700868971089000e-01,9.166770342789253012e-02,-1.418815748411898781e-01
8.649999999999999911e-01,2.694388067601226622e-01,5.108153620333522743e-02,-1.271807935715426885e-01
8.659999999999999920e-01,2.648526409479912691e-01,4.736982190987162541e-03,-7.815848294439992072e-02
8.669999999999999929e-01,3.022091504153415209e-01,-3.326601872813109151e-02,-5.587285822019422143e-02
8.679999999999999938e-01,2.770436781058327469e-01,-6.634552198060955641e-02,-4.372711362394466478e-02
8.689999999999999947e-01,2.839594009346534942e-01,-1.038372584989703390e-01,-1.090764445255423126e-02
8.699999999999999956e-01,2.561108749390614836e-01,-1.638129161559841174e-01,3.919400498832305291e-02
8.709999999999999964e-01,2.665709752562399615e-01,-1.609644336046940905e-01,7.197418794912210926e-02
8.719999999999999973e-01,2.262061876813485362e-01,-2.160067538229277495e-01,8.772163726796478045e-02
8.729999999999999982e-01,1.759333522232727209e-01,-2.440856411112526658e-01,1.440243669090778555e-01
8.739999999999999991e-01,1.222952059763746241e-01,-2.214998591444362896e-01,1.547618751923303115e-01
8.750000000000000000e-01,6.109210367620490634e-02,-2.396405154464559262e-01,1.446624981290053069e-01
8.760000000000000009e-01,4.727461141965097480e-02,-2.149037651855548736e-01,1.912754120902860622e-01
8.770000000000000018e-01,-4.644800152313218605e-02,-2.093064034558416719e-01,1.852342908653469289e-01
8.780000000000000027e-01,-9.741776193277405793e-02,-2.055385534312880180e-01,1.814417091705886054e-01
8.790000000000000036e-01,-1.344879650503514601e-01,-1.750118336649713613e-01,1.779839432578529668e-01
8.800000000000000044e-01,-1.756408017484837603e-01,-1.699047670673094756e-01,1.695697710328068208e-01
8.810000000000000053e-01,-1.943377139982227220e-01,-1.040503224127747040e-01,1.791757945099239080e-01
8.820000000000000062e-01,-2.615758052357048946e-01,-6.103101053119654867e-02,1.274615088532213558e-01
8.830000000000000071e-01,-2.894647497933318658e-01,-3.583918231678550476e-02,1.066783508596621660e-01
8.840000000000000080e-01,-2.951226403613886329e-01,2.586606910544114735e-02,9.553488121658654242e-02
8.850000000000000089e-01,-3.127988003383594395e-01,8.082126896458886878e-02,5.525195496880175305e-02
8.860000000000000098e-01,-2.859301108769211064e-01,1.211963302445781959e-01,2.147097996294381264e-02
8.870000000000000107e-01,-2.772428491625324454e-01,1.282359960186869596e-01,-4.536180793934092847e-03
8.880000000000000115e-01,-2.660292159524725308e-01,1.473673741551148886e-01,-5.094343803786482994e-02
8.890000000000000124e-01,-2.078433572494632064e-01,2.220653168537752298e-01,-7.323584320453156715e-02
8.900000000000000133e-01,-2.050849302894681425e-01,2.328950791651083208e-01,-1.057647377362064822e-01
8.910000000000000142e-01,-1.469404776265504087e-01,2.290232494252380235e-01,-1.272420610608060720e-01
8.920000000000000151e-01,-1.012414906425668504e-01,2.266821853113520913e-01,-1.305813068370658414e-01
8.930000000000000160e-01,-5.865885648049869866e-02,2.580656860334419878e-01,-1.533819415830525723e-01
8.940000000000000169e-01,1.726495510707067331e-03,2.177991752073056841e-01,-1.699252286800576883e-01
8.950000000000000178e-01,6.076125283085615641e-02,2.582193676006157013e-01,-1.982940783008301788e-01
8.960000000000000187e-01,1.089770424624827427e-01,1.726127358342780527e-01,-1.643608169021073817e-01
8.970000000000000195e-01,1.688006246265523758e-01,1.630804839050962463e-01,-1.445600393632844038e-01
8.980000000000000204e-01,1.870171628173409595e-01,1.222742948073386321e-01,-1.507973398369795437e-01
8.990000000000000213e-01,2.475136349225088572e-01,9.362711725422138975e-02,-1.452612399966400347e-01
9.000000000000000222e-01,2.758439517569603594e-01,4.600625864359474126e-02,-1.409075144680285996e-01
9.010000000000000231e-01,2.674936442148410642e-01,-1.060793639511232360e-03,-1.005360726335683824e-01
9.020000000000000240e-01,2.907064548802082427e-01,-5.764839732767820107e-02,-8.487006490893336808e-02
9.030000000000000249e-01,3.197250577467591892e-01,-9.257402626351188268e-02,-3.239968663327468662e-02
9.040000000000000258e-01,2.720205750641872533e-01,-1.217484319484228861e-01,-1.397675527151222459e-02
9.050000000000000266e-01,2.693879989488280335e-01,-1.539908276261130748e-01,2.492695658723718954e-02
9.060000000000000275e-01,2.485247456824655476e-01,-1.898064483808058200e-01,2.860785121955619972e-02
9.070000000000000284e-01,2.279830478797479909e-01,-2.254932427109133386e-01,9.659547558221061314e-02
9.080000000000000293e-01,1.744979921908024201e-01,-2.086234806553926846e-01,1.196952909973416496e-01
9.090000000000000302e-01,1.328897387435573618e-01,-2.660380714106973521e-01,1.445237134144934099e-01
9.100000000000000311e-01,7.480411023489516587e-02,-2.481412196155370342e-01,1.562911168875736612e-01
9.110000000000000320e-01,1.064369835602787737e-02,-2.297587135100264133e-01,1.661477079396556089e-01
9.120000000000000329e-01,-1.858651971600228797e-02,-2.255416335391305094e-01,1.655834464787927507e-01
9.130000000000000338e-01,-1.105252996640714996e-01,-1.782327079840297923e-01,1.471218524915716419e-01
9.140000000000000346e-01,-1.195693272283744196e-01,-1.525544575614111997e-01,1.847701516092994656e-01
9.150000000000000355e-01,-1.935594053436292816e-01,-1.279721390885929788e-01,1.786061340543547149e-01
9.160000000000000364e-01,-2.088633668117721998e-01,-1.191030154703682925e-01,1.419744824869426103e-01
9.170000000000000373e-01,-2.491270993312947324e-01,-2.958397397487583236e-02,1.314337412937476024e-01
9.180000000000000382e-01,-3.041700312176537357e-01,-1.314146690079773597e-02,1.241015186937429043e-01
9.190000000000000391e-01,-3.082696822575038409e-01,3.407716064333759370e-02,9.599952821270506254e-02
9.200000000000000400e-01,-2.778978049306404796e-01,7.179964976477246075e-02,8.815389884297167300e-02
9.210000000000000409e-01,-2.830022918097274687e-01,1.167648616552108970e-01,5.247975918127113087e-02
9.220000000000000417e-01,-2.874510080429103498e-01,1.666934127049483350e-01,-9.013477763562061443e-03
9.230000000000000426e-01,-2.776737016787274026e-01,1.953524403205512405e-01,-4.978521236428238433e-02
9.240000000000000435e-01,-2.073047593672849853e-01,1.963508379577530438e-01,-7.531161910853294283e-02
9.250000000000000444e-01,-2.158455416116266956e-01,2.156165351696623378e-01,-8.187747700915690152e-02
9.260000000000000453e-01,-1.511489914576590876e-01,2.465298466227481833e-01,-1.026922539838284604e-01
9.270000000000000462e-01,-9.142988883445983539e-02,2.544120701641115478e-01,-1.427848873460619561e-01
9.280000000000000471e-01,-5.035960162425646286e-02,2.584075545983336997e-01,-1.623558260463809910e-01
9.290000000000000480e-01,-1.569316486496951865e-02,2.052994244831836401e-01,-1.625455783156132539e-01
9.300000000000000488e-01,4.053577685082612042e-02,1.915570920423455281e-01,-1.714700868843697934e-01
9.310000000000000497e-01,1.209738960021089632e-01,1.746972125625394223e-01,-1.739034084515338197e-01
9.320000000000000506e-01,1.814311101304453833e-01,1.326437158732525490e-01,-1.814899536963155147e-01
9.330000000000000515e-01,2.107297890259283712e-01,8.202755579689990917e-02,-1.745177950355396301e-01
9.340000000000000524e-01,2.563582249525973578e-01,4.227677970473557589e-02,-1.573932258958749275e-01
9.350000000000000533e-01,2.916501214094546768e-01,1.664798517623841331e-02,-1.473796769622922331e-01
9.360000000000000542e-01,2.719956527528190060e-01,-3.178821231976893674e-02,-1.068088499891741289e-01
9.370000000000000551e-01,2.779570713223393219e-01,-7.924679898576110493e-02,-7.917200287619331756e-02
9.379999999999999449e-01,3.189297064736443255e-01,-1.030901662788608758e-01,-5.449357518933488354e-02
9.389999999999999458e-01,2.892328524234807352e-01,-1.360796066798890536e-01,-3.319006030632720705e-02
9.399999999999999467e-01,2.842840130208594829e-01,-1.654085950386687265e-01,2.565170064310265396e-02
9.409999999999999476e-01,2.462334118500414948e-01,-1.667139436096321259e-01,5.045067147692349624e-02
9.419999999999999485e-01,1.991788933737185796e-01,-2.026084620236893452e-01,5.144336495082809518e-02
9.429999999999999494e-01,1.584483439801309956e-01,-2.247712016322956641e-01,1.064208386999915823e-01
9.439999999999999503e-01,1.039961053196554464e-01,-2.657697654736719817e-01,1.207053881423720831e-01
9.449999999999999512e-01,7.385178977382857168e-02,-2.115251153769679704e-01,1.462559358225999639e-01
9.459999999999999520e-01,2.399874076607962439e-02,-2.163763343671707973e-01,1.683349431992131606e-01
9.469999999999999529e-01,-3.482309198605022110e-02,-2.027525218659597395e-01,1.986759729464872559e-01
9.479999999999999538e-01,-7.837253051546715088e-02,-1.714797217034949306e-01,1.760751803045980945e-01
9.489999999999999547e-01,-1.085597663824096754e-01,-1.597874126194807620e-01,1.775888927059714184e-01
9.499999999999999556e-01,-1.826922760315468630e-01,-1.251101235908024800e-01,1.817977825277400650e-01
9.509999999999999565e-01,-2.044223829436081497e-01,-7.805746297130053413e-02,1.612380104053645347e-01
9.519999999999999574e-01,-2.696977648709169006e-01,-2.833200186538786108e-02,1.461827856759765898e-01
9.529999999999999583e-01,-2.888521568750363477e-01,6.600819683959760313e-03,1.165937261654825391e-01
9.539999999999999591e-01,-2.987800754031145201e-01,4.521402847420659399e-02,1.005568175802890457e-01
9.549999999999999600e-01,-2.965044425465400701e-01,8.839065289984016083e-02,6.124710095843943075e-02
9.559999999999999609e-01,-2.928697329918744097e-01,1.579422887226138716e-01,2.887594096278055245e-02
9.569999999999999618e-01,-2.743382742896187110e-01,1.768100693472788865e-01,-6.739049001858456959e-04
9.579999999999999627e-01,-2.850918031925095963e-01,1.866209126212674541e-01,-3.190446424123938307e-02
9.589999999999999636e-01,-2.173396885409760448e-01,2.108037386766188348e-01,-6.003528306963899080e-02
9.599999999999999645e-01,-2.114141797236499254e-01,2.270129954922300297e-01,-6.599404148994189589e-02
9.609999999999999654e-01,-1.507194331050467351e-01,2.432663672775645658e-01,-1.126410349864638699e-01
9.619999999999999662e-01,-7.661120416752530138e-02,2.366638225634286885e-01,-1.315431925966080717e-01
9.629999999999999671e-01,-3.612684868146610884e-02,2.459974701349100235e-01,-1.407755327576268034e-01
9.639999999999999680e-01,2.077859215522069852e-03,2.229948546165183842e-01,-1.404314679799678611e-01
9.649999999999999689e-01,6.203640935513057147e-02,1.823439061136047923e-01,-1.724065859988643257e-01
9.659999999999999698e-01,1.045062610014699245e-01,1.440170251797560363e-01,-1.607320852670791889e-01
9.669999999999999707e-01,1.613191994197775425e-01,1.090703203522976755e-01,-1.764016366651418033e-01
9.679999999999999716e-01,2.082220254694003569e-01,9.126700022839420723e-02,-1.836162264039347680e-01
9.689999999999999725e-01,2.232110868006487447e-01,4.433792079882837439e-02,-1.630034631096696773e-01
9.699999999999999734e-01,2.774649710866524122e-01,-1.331553926285856775e-02,-1.077251600269499704e-01
9.709999999999999742e-01,2.942078424914258417e-01,-4.749602220908867578e-02,-1.121377518266812173e-01
9.719999999999999751e-01,2.956408655107518602e-01,-6.897959775320768039e-02,-9.233280431252140208e-02
9.729999999999999760e-01,2.745851093621927697e-01,-1.389969693569400588e-01,-7.753352176038387500e-02
9.739999999999999769e-01,2.812337896985209196e-01,-1.283322407942953935e-01,-4.043985345212872118e-02
9.749999999999999778e-01,2.639466881205596027e-01,-1.742377839154569674e-01,7.908798277970011462e-03
9.759999999999999787e-01,2.337685330850242105e-01,-2.140456587140101563e-01,1.819071035870761452e-02
9.769999999999999796e-01,2.017319204647598230e-01,-2.322040919791061031e-01,7.720254384890486155e-02
9.779999999999999805e-01,1.720971693212102194e-01,-2.318410298390435331e-01,7.539505938909971117e-02
9.789999999999999813e-01,1.304785539346517420e-01,-2.177472033487150571e-01,1.034937386002547643e-01
9.799999999999999822e-01,7.877865763258373732e-02,-2.319418319999122513e-01,1.376830403059930985e-01
9.809999999999999831e-01,-1.010177572809039257e-03,-2.388141212606023633e-01,1.458000979655343088e-01
9.819999999999999840e-01,-4.574145771054025783e-02,-1.791213393814895805e-01,1.654674692726756102e-01
9.829999999999999849e-01,-8.394188311926963075e-02,-1.777642819285551734e-01,1.822623069760035686e-01
9.839999999999999858e-01,-1.320264407904630233e-01,-1.400138544633559023e-01,1.751925079389761164e-01
9.849999999999999867e-01,-1.871220010877413520e-01,-9.236416084268521398e-02,1.790945321570973081e-01
9.859999999999999876e-01,-2.391084245393132468e-01,-5.924397296723182826e-02,1.618683346688007674e-01
9.869999999999999885e-01,-2.589640649473745615e-01,-9.904874395255780506e-03,1.624964381753171982e-01
9.879999999999999893e-01,-2.919735748394826080e-01,1.991639183267558330e-02,1.244565163461476970e-01
9.889999999999999902e-01,-2.966270071837395772e-01,4.390439106212044862e-02,9.816060754895472584e-02
9.899999999999999911e-01,-2.948518197196787760e-01,1.068814972624013843e-01,7.984726363154096007e-02
9.909999999999999920e-01,-2.945229401993296747e-01,1.480485762101788061e-01,4.435417134305535275e-02
9.919999999999999929e-01,-2.719451744038565710e-01,1.870802795075440783e-01,2.528814342810205978e-02
9.929999999999999938e-01,-2.575934157094488808e-01,2.179617367664411220e-01,-3.376225317145899879e-02
9.939999999999999947e-01,-2.337002001655608674e-01,2.260779523849376083e-01,-3.812905318079397310e-02
9.949999999999999956e-01,-2.048205993804511904e-01,2.369048115325006476e-01,-9.358366696601570778e-02
9.959999999999999964e-01,-1.310206055885636822e-01,2.510503552181346798e-01,-1.133103147722146486e-01
9.969999999999999973e-01,-8.793588538352074824e-02,2.444489276760865304e-01,-1.248033732522286637e-01
9.979999999999999982e-01,-2.068203499734496548e-02,2.238410205975473466e-01,-1.520569613175825063e-01
9.989999999999999991e-01,1.022067668747039717e-03,2.096036331304963751e-01,-1.646992509456205456e-01
1.000000000000000000e+00,7.305472600587704923e-02,1.784538854067081459e-01,-1.754945389714099024e-01
1.000999999999999890e+00,1.179966147157002626e-01,1.273046363902131661e-01,-1.611241228392152613e-01
1.002000000000000002e+00,1.802985683042183374e-01,1.161393780325734870e-01,-1.775193442851150660e-01
1.002999999999999892e+00,1.987552585198135713e-01,7.591079420470975281e-02,-1.618760330219524979e-01
1.004000000000000004e+00,2.389482587699632010e-01,3.278835090022344523e-02,-1.733446925905700597e-01
1.004999999999999893e+00,2.727319469835756127e-01,1.213506435590327830e-02,-1.672753609920380469e-01
1.006000000000000005e+00,2.732941178776469027e-01,-5.424578899168445989e-02,-1.179572834849147989e-01
1.006999999999999895e+00,2.867218179690257385e-01,-9.094664166694327312e-02,-1.118224208330648728e-01
1.008000000000000007e+00,2.902667284241524648e-01,-1.504759084447008510e-01,-8.184150798640484059e-02
1.008999999999999897e+00,2.750644976952544285e-01,-1.956843749403504584e-01,-5.370302341804172180e-03
1.010000000000000009e+00,2.744800536203287900e-01,-1.965237116107347581e-01,6.675947394831637655e-03
1.010999999999999899e+00,2.172411636409863900e-01,-2.146286783288461064e-01,5.074368289282259192e-02
1.012000000000000011e+00,2.112406635790656517e-01,-2.388746141895282671e-01,4.434172694412244486e-02
1.012999999999999901e+00,1.371014591884719691e-01,-2.507527323059327573e-01,8.269774447497930947e-02
1.014000000000000012e+00,9.732835487615333625e-02,-2.371002425238753486e-01,1.185806284827554818e-01
1.014999999999999902e+00,6.231287965722267369e-02,-2.239451935737454269e-01,1.231479062182040535e-01
1.016000000000000014e+00,-2.446350645714713209e-02,-2.261144719806464365e-01,1.560672235071187131e-01
1.016999999999999904e+00,-2.814855485491424281e-02,-1.855621965462237732e-01,1.630208698238248544e-01
1.018000000000000016e+00,-1.143257369192716838e-01,-1.656115406919823063e-01,1.841807806487933685e-01
1.018999999999999906e+00,-1.527894044500414661e-01,-1.237039268051833285e-01,1.774484192755216294e-01
1.020000000000000018e+00,-1.625070635548023223e-01,-9.138389239259664398e-02,1.741814714253278606e-01
1.020999999999999908e+00,-2.192600687331286990e-01,-4.529024464532051958e-02,1.453168119575743711e-01
1.022000000000000020e+00,-2.627755692047911706e-01,-1.444637482858853773e-02,1.646911064676152003e-01
1.022999999999999909e+00,-2.755585422989935696e-01,3.207624863141954330e-02,1.409462310809512231e-01
1.024000000000000021e+00,-3.125420437826877951e-01,8.448713953060220383e-02,1.128944035494469367e-01
1.024999999999999911e+00,-3.198892568386998425e-01,1.313951490391084276e-01,9.553468085944422095e-02
1.026000000000000023e+00,-2.861386577465145353e-01,1.637427083229845703e-01,4.023269250343704251e-02
1.026999999999999913e+00,-2.684137272805091623e-01,1.831617926956436992e-01,4.743387843478222982e-02
1.028000000000000025e+00,-2.606836598758360268e-01,2.104697298015258122e-01,-1.608169021116474459e-02
1.028999999999999915e+00,-2.442397694984877188e-01,2.409842396970184042e-01,-2.908797549739065499e-02
1.030000000000000027e+00,-1.732888139639552905e-01,2.374707804642163245e-01,-1.009807687292485490e-01
1.030999999999999917e+00,-1.355531100369483655e-01,2.610747541409128569e-01,-1.003173899093596499e-01
1.032000000000000028e+00,-8.559353496797351968e-02,2.276084779781138157e-01,-1.225214733229143954e-01
1.032999999999999918e+00,-4.511445939963801277e-02,2.136865250349949119e-01,-1.280987300766219805e-01
1.034000000000000030e+00,8.633844362836621752e-03,2.035454806535761385e-01,-1.561606442967312103e-01
1.034999999999999920e+00,6.670005904024170484e-02,1.503460982457097139e-01,-1.980673555475930270e-01
1.036000000000000032e+00,1.235788916688716071e-01,1.470198224039883372e-01,-1.662761982114302206e-01
1.036999999999999922e+00,1.652194642997509566e-01,7.639665840369100347e-02,-1.806914775944677698e-01
1.038000000000000034e+00,2.199097786628453066e-01,7.099406457116480551e-02,-1.664604404684673633e-01
1.038999999999999924e+00,2.482248374954523495e-01,3.196232717635085624e-02,-1.637100605621235605e-01
1.040000000000000036e+00,2.745525677157354960e-01,-3.415285671901183845e-02,-1.442178536855646676e-01
1.040999999999999925e+00,3.217356440790294925e-01,-7.452709912766944389e-02,-1.390855950390146312e-01
1.042000000000000037e+00,3.126068225633281128e-01,-1.040483969967588712e-01,-1.007917483551386828e-01
1.042999999999999927e+00,3.170171308117117337e-01,-1.578734758083175649e-01,-5.980549076095591221e-02
1.044000000000000039e+00,2.712425291473177236e-01,-1.790042489872174236e-01,-2.738997239409777726e-02
1.044999999999999929e+00,2.715143118923455390e-01,-2.230897203127690520e-01,-6.776904889635790644e-03
1.046000000000000041e+00,2.453241818637205141e-01,-2.287086979945202603e-01,1.970245725781829063e-02
1.046999999999999931e+00,2.134884299273547281e-01,-2.294376372284211429e-01,4.321478503270421989e-02
1.048000000000000043e+00,1.583900204597353256e-01,-2.595386665784049085e-01,7.635821059058241211e-02
1.048999999999999932e+00,8.323647404543960127e-02,-2.331261282200693952e-01,9.151447906410149769e-02
1.050000000000000044e+00,6.588219166828118700e-02,-2.164129158711146084e-01,1.115538123599009723e-01
1.050999999999999934e+00,6.777603468144347172e-03,-2.129689602571655793e-01,1.485559231669752733e-01
1.052000000000000046e+00,-5.491957803820245870e-02,-1.726209305162849927e-01,1.522967221612827604e-01
1.052999999999999936e+00,-1.181383707474436828e-01,-1.623539289173649425e-01,1.783301500707053511e-01
1.054000000000000048e+00,-1.610371251987444685e-01,-1.073691065218467938e-01,2.060543761842403288e-01
1.054999999999999938e+00,-1.851379139934228035e-01,-9.561697877473333829e-02,1.841221110147845119e-01
1.056000000000000050e+00,-2.238770663613569578e-01,-1.880252091015398308e-02,1.776502127087549454e-01
1.056999999999999940e+00,-2.559016038481612410e-01,3.432216962778617680e-02,1.534799440042982910e-01
1.058000000000000052e+00,-3.084994476710769540e-01,7.747454612983117883e-02,1.247894563567755744e-01
1.058999999999999941e+00,-3.004347702388989183e-01,1.028613639896702597e-01,1.128926604780159521e-01
1.060000000000000053e+00,-3.058653541346995630e-01,1.613848571962147316e-01,7.601402494245404484e-02
1.060999999999999943e+00,-3.158602564816592184e-01,1.944465413908829376e-01,7.269535095404255909e-02
1.062000000000000055e+00,-2.559057589018690071e-01,2.079255392676520597e-01,3.003910400610447159e-02
1.062999999999999945e+00,-2.749136557538117698e-01,2.325745479549325145e-01,1.556003958360634501e-02
1.064000000000000057e+00,-2.228030932664493424e-01,2.398999622473350912e-01,-3.906206834919786347e-02
1.064999999999999947e+00,-1.787888311595849933e-01,2.472526635497544756e-01,-5.049644461018000519e-02
1.066000000000000059e+00,-1.581647209754887817e-01,2.426392316851307684e-01,-1.078983003025272835e-01
1.066999999999999948e+00,-7.702336893178030053e-02,2.309440477528489355e-01,-9.534723095168128049e-02
1.068000000000000060e+00,-1.419748811525626056e-02,1.914407013353024989e-01,-1.400798007386727939e-01
1.068999999999999950e+00,2.755668348590946219e-03,1.473459945842431895e-01,-1.458625606256297724e-01
1.070000000000000062e+00,6.656793615467265779e-02,1.583724724799030203e-01,-1.714393000312801896e-01
1.070999999999999952e+00,1.219483836428389423e-01,1.439179262363066425e-01,-1.840989181513775219e-01
1.072000000000000064e+00,1.758810549881147378e-01,5.475989815101560410e-02,-1.971178747938651110e-01
1.072999999999999954e+00,2.244313582185906153e-01,5.520340408678572203e-02,-1.681890618662209014e-01
1.074000000000000066e+00,2.259072808918959896e-01,-1.243260482923670696e-02,-1.606372633654197524e-01
1.074999999999999956e+00,2.629248474889245291e-01,-5.347143701519013748e-02,-1.541311354874467798e-01
1.076000000000000068e+00,3.035580334231161581e-01,-8.184401971063672010e-02,-1.294449460526608808e-01
1.076999999999999957e+00,3.046147660329633355e-01,-1.293544479292661198e-01,-1.364445865572731509e-01
1.078000000000000069e+00,2.885421552882920238e-01,-1.713127759247941584e-01,-7.667394572682306730e-02
1.078999999999999959e+00,2.726131888118736302e-01,-1.850771752002881576e-01,-6.072126577802668818e-02
1.080000000000000071e+00,2.700505669988885749e-01,-2.033301918391080543e-01,-4.272083885387939484e-02
1.080999999999999961e+00,2.341940512870084035e-01,-2.313421762910055079e-01,-4.640823892455971621e-03
1.082000000000000073e+00,2.071828462461180465e-01,-2.525656469933313941e-01,5.794431701171517263e-02
1.082999999999999963e+00,1.665612563992977524e-01,-2.471983746195598741e-01,8.103098371363018360e-02
1.084000000000000075e+00,1.086519884668840225e-01,-2.406245429507388456e-01,9.579627938016839483e-02
1.084999999999999964e+00,6.553884696351812422e-02,-2.375347843618078880e-01,1.311943298430556792e-01
1.086000000000000076e+00,2.926414938517331570e-03,-1.973923811639838599e-01,1.272388697606011698e-01
1.086999999999999966e+00,-4.988885091327135979e-02,-1.648302122727667018e-01,1.840557142492335041e-01
1.088000000000000078e+00,-9.557846058677094137e-02,-1.358888971264693435e-01,1.637643947115030585e-01
1.088999999999999968e+00,-1.302975243298316321e-01,-1.177502129867929181e-01,1.991602138001908329e-01
1.090000000000000080e+00,-1.731409183388375739e-01,-3.407988995008059269e-02,1.713847651917805859e-01
1.090999999999999970e+00,-2.325938453382861149e-01,-2.029227746393950579e-02,1.826787909387208864e-01
1.092000000000000082e+00,-2.498650416937069907e-01,3.764223227059829840e-02,1.736295141093297800e-01
1.092999999999999972e+00,-2.865650196617029466e-01,9.842855376009902735e-02,1.690199593846433701e-01
1.094000000000000083e+00,-3.110418662078902052e-01,1.327324073870931598e-01,1.107688133570953887e-01
1.094999999999999973e+00,-2.967581774976610909e-01,1.695369165745855278e-01,1.076209682207089902e-01
1.096000000000000085e+00,-2.699738843724016624e-01,1.796058610196900052e-01,9.471056737767412359e-02
1.096999999999999975e+00,-2.845410769413161400e-01,1.956703755934725009e-01,4.806158646511681648e-02
1.098000000000000087e+00,-2.545532977393240581e-01,2.187834107047039456e-01,1.263863536258601553e-02
1.098999999999999977e+00,-2.469060987585356415e-01,2.489204034005638722e-01,-3.680892582328840895e-02
1.100000000000000089e+00,-1.741707088708882301e-01,2.479520816243418746e-01,-2.035264680515698130e-02
1.100999999999999979e+00,-1.508872973091941461e-01,2.344818152314733783e-01,-7.195464684952884715e-02
1.102000000000000091e+00,-8.327518377176737485e-02,2.050420166847634618e-01,-1.222849689406774049e-01
1.102999999999999980e+00,-2.062564145265840393e-02,1.815110601216419484e-01,-1.295060053923758059e-01
1.104000000000000092e+00,2.152790415955814496e-02,1.643549519312435536e-01,-1.271184749937261937e-01
1.104999999999999982e+00,6.342289701799973256e-02,1.380063640005370629e-01,-1.687954915088837882e-01
1.106000000000000094e+00,1.377487743235212558e-01,1.139285990381630614e-01,-1.753401415963065646e-01
1.106999999999999984e+00,1.795793154517110191e-01,7.219072041840414455e-02,-1.872165087110294890e-01
1.108000000000000096e+00,2.120914000733547800e-01,1.599314243533477703e-02,-1.756977326884272828e-01
1.108999999999999986e+00,2.416443444635432425e-01,-4.081370529767536226e-02,-1.777353948161818076e-01
1.110000000000000098e+00,2.862308914651324199e-01,-3.401533986948011151e-02,-1.597982678908222709e-01
1.110999999999999988e+00,2.972498697735944106e-01,-1.204252829926213963e-01,-1.384013153535187668e-01
1.112000000000000099e+00,3.043168731044055275e-01,-1.386588809002322342e-01,-1.123738421700102158e-01
1.112999999999999989e+00,3.014376180453061660e-01,-1.950754537391550247e-01,-8.874354168354386951e-02
1.114000000000000101e+00,2.915872151572331816e-01,-2.124099830365290820e-01,-5.751254574779754436e-02
1.114999999999999991e+00,2.633376930179835984e-01,-2.173260629910040986e-01,-1.747331020618511643e-02
1.116000000000000103e+00,2.464219034573585376e-01,-2.290646235974961586e-01,-5.753057895754071401e-03
1.116999999999999993e+00,1.912473968066474572e-01,-2.283903780538344419e-01,4.575175799694480155e-02
1.118000000000000105e+00,1.594308236305620741e-01,-2.476905782001280754e-01,6.943016425961763549e-02
1.118999999999999995e+00,1.083670054234861096e-01,-2.189711050773945900e-01,7.718760723077762453e-02
1.120000000000000107e+00,5.876211300394747900e-02,-1.993653153369302766e-01,1.137171335831050900e-01
1.120999999999999996e+00,3.757187206759939405e-03,-1.748624990573747762e-01,1.427468735307559078e-01
1.122000000000000108e+00,-6.049881627130433703e-02,-1.375440507622257003e-01,1.431275199710190238e-01
1.122999999999999998e+00,-1.199582653081893990e-01,-1.275290232534397050e-01,1.670763359893533972e-01
1.124000000000000110e+00,-1.365061536850155910e-01,-6.308941254880406913e-02,2.076863160693583343e-01
1.125000000000000000e+00,-2.112208599980341661e-01,-5.196298837883755323e-02,1.506689293434987642e-01
1.125999999999999890e+00,-2.385770599472413489e-01,7.737727812375569392e-03,1.801357928563059874e-01
1.127000000000000002e+00,-2.618719886712624345e-01,6.709532539548490604e-02,1.554616235261701285e-01
1.127999999999999892e+00,-2.909296038429443065e-01,7.089777272395604568e-02,1.393357038959523730e-01
1.129000000000000004e+00,-2.983148004568977329e-01,1.064972768321055113e-01,1.398222788555026908e-01
1.129999999999999893e+00,-2.922055620373374962e-01,1.742357547999873468e-01,1.232021241213901303e-01
1.131000000000000005e+00,-2.928502132099706778e-01,1.929864625066149142e-01,7.625628474778986532e-02
1.131999999999999895e+00,-2.635899584846713162e-01,2.218102484562466670e-01,6.282202771990240409e-02
1.133000000000000007e+00,-2.417033155180129955e-01,2.112672481881152919e-01,9.854010342505759718e-03
1.133999999999999897e+00,-2.204425720515774123e-01,2.315451862430336627e-01,-1.501114713959648614e-02
1.135000000000000009e+00,-1.883515687315347464e-01,2.303123535729968974e-01,-4.997209653612135621e-02
1.135999999999999899e+00,-1.505016531306746508e-01,2.301352286257335178e-01,-5.422855464953513227e-02
1.137000000000000011e+00,-9.114340191678392544e-02,2.123681628822766398e-01,-9.491967232320787373e-02
1.137999999999999901e+00,-1.607310000496300212e-02,2.044120636606762409e-01,-1.346412736925589326e-01
1.139000000000000012e+00,2.893644612182758036e-02,1.585776766494971235e-01,-1.471066739453449068e-01
1.139999999999999902e+00,6.009633966270745004e-02,1.148706999173748355e-01,-1.497715124991450819e-01
1.141000000000000014e+00,1.414787756102954541e-01,7.841534734929272998e-02,-1.798342018484441474e-01
1.141999999999999904e+00,2.035177346126693931e-01,4.647670520518120546e-02,-1.569289693893008708e-01
1.143000000000000016e+00,2.052053181620286104e-01,-8.391703163177072905e-03,-1.715887182621457507e-01
1.143999999999999906e+00,2.598182696064720298e-01,-4.301763213900171301e-02,-1.807037812997422943e-01
1.145000000000000018e+00,2.788341893091220713e-01,-1.069074176965088691e-01,-1.360271237097243902e-01
1.145999999999999908e+00,2.919483119457646492e-01,-1.111679953975280438e-01,-1.228380078734167824e-01
1.147000000000000020e+00,3.016044379931442920e-01,-1.713893646575895546e-01,-1.333098706550986667e-01
1.147999999999999909e+00,2.705651971700334113e-01,-2.097313229261844603e-01,-1.138639113220597798e-01
1.149000000000000021e+00,2.761438850121362143e-01,-2.161623245187072051e-01,-7.097260247142606060e-02
1.149999999999999911e+00,2.687321764953074510e-01,-2.392299214290937170e-01,-3.366734151804481878e-02
1.151000000000000023e+00,2.342340705852040406e-01,-2.307375716332587257e-01,-2.660585088104163581e-02
1.151999999999999913e+00,2.064972867672190959e-01,-2.292329255282510025e-01,-6.197286615146899331e-03
1.153000000000000025e+00,1.450127485972565189e-01,-2.228160809962708988e-01,5.729476980603304126e-02
1.153999999999999915e+00,1.016167798042173914e-01,-2.220341906148634026e-01,6.164561231914442857e-02
1.155000000000000027e+00,4.724512974994331260e-02,-1.954505059584381865e-01,1.291221997864592519e-01
1.155999999999999917e+00,5.397781842250405637e-03,-1.747282031504522604e-01,1.291296038289999615e-01
1.157000000000000028e+00,-4.880597511070465522e-02,-1.475685783777915538e-01,1.356612471229128314e-01
1.157999999999999918e+00,-1.149772417859140777e-01,-1.006366467247673258e-01,1.828380926062030953e-01
1.159000000000000030e+00,-1.713615977650419508e-01,-3.872091577132915491e-02,1.679888554006460921e-01
1.159999999999999920e+00,-2.246728147744457005e-01,-1.912298648353750888e-03,1.943526800575009206e-01
1.161000000000000032e+00,-2.273609062693473515e-01,1.957041790979931195e-02,1.694687248497259713e-01
1.161999999999999922e+00,-2.904209748266625146e-01,7.480795764827845307e-02,1.695974011147277083e-01
1.163000000000000034e+00,-3.000247687839630029e-01,8.682118061104901474e-02,1.497756634991048719e-01
1.163999999999999924e+00,-2.954696662478711322e-01,1.457678073505741800e-01,1.458286750154168809e-01
1.165000000000000036e+00,-3.023994479499979571e-01,1.832782568505481324e-01,1.117213521700203827e-01
1.165999999999999925e+00,-2.778539188326693554e-01,1.986823507409616885e-01,1.077768721247609196e-01
1.167000000000000037e+00,-2.728981344206998227e-01,2.019710398735612422e-01,7.213871072487813840e-02
1.167999999999999927e+00,-2.332813320586992756e-01,2.286505242107916558e-01,3.301280434971494426e-02
1.169000000000000039e+00,-2.179213841650844696e-01,2.272377543122233445e-01,8.478409336612828875e-03
1.169999999999999929e+00,-1.695194094151106223e-01,2.338705924358718269e-01,-5.388165978567683451e-02
1.171000000000000041e+00,-1.101123193914496923e-01,2.053910595433028619e-01,-5.332953770941692428e-02
1.171999999999999931e+00,-6.487169858308597381e-02,2.018710621568268193e-01,-9.054710411065096387e-02
1.173000000000000043e+00,-2.384891851747435176e-02,1.641887805018989732e-01,-1.232563927064684595e-01
1.173999999999999932e+00,4.455013670591907726e-02,1.339302758455649667e-01,-1.233837188381197991e-01
1.175000000000000044e+00,1.075234290405144427e-01,1.115328189469412951e-01,-1.251227807856173657e-01
1.175999999999999934e+00,1.266948055473342549e-01,7.153546568166142816e-02,-1.688974989159278128e-01
1.177000000000000046e+00,1.938416962472403471e-01,1.407079980651919707e-02,-1.648688174691814168e-01
1.177999999999999936e+00,2.260992387690389793e-01,-2.599031403864164591e-02,-1.815355489188069105e-01
1.179000000000000048e+00,2.503131448492360578e-01,-4.857495083988344620e-02,-1.828467683267820942e-01
1.179999999999999938e+00,2.866994698965002475e-01,-8.924560418835436604e-02,-1.654998381101947247e-01
