time,acc_x,acc_y,acc_z
0.000000000000000000e+00,8.830521216657209738e-02,8.718487061225387025e-02,5.770137662941392936e-02
1.000000000000000021e-03,3.631487215243777156e-01,3.103182402396629791e-01,2.206937981288157324e-01
2.000000000000000042e-03,1.692347300316357217e-01,1.182077578832009396e-01,1.079885856168278924e-01
3.000000000000000062e-03,-2.216413777437783172e-01,-2.115849018307517371e-01,-1.279882737194714404e-01
4.000000000000000083e-03,-3.412532222603426590e-01,-2.763459269603526502e-01,-2.166031515531571805e-01
5.000000000000000104e-03,-1.717223849528466684e-02,5.909407673124533744e-03,-1.852678793797277526e-02
6.000000000000000125e-03,3.411366635057943575e-01,2.782046112137000482e-01,1.741023065120075042e-01
7.000000000000000146e-03,2.533422738199798130e-01,1.953411700151947983e-01,1.813425220987307795e-01
8.000000000000000167e-03,-1.341874148293035196e-01,-1.377295535528501869e-01,-4.458746096463372249e-02
8.999999999999999320e-03,-3.760258091558104088e-01,-2.839666421525827156e-01,-2.084903372020623369e-01
1.000000000000000021e-02,-1.273937463963258909e-01,-7.630027311979430127e-02,-1.244748488961053973e-01
1.099999999999999936e-02,2.686888225211818138e-01,2.477528108930427408e-01,1.665025363496240862e-01
1.200000000000000025e-02,3.283004385518667467e-01,2.312586489784584365e-01,2.139639928173613925e-01
1.299999999999999940e-02,-3.308191000959825878e-02,-5.201581761110415925e-02,3.184723702491211450e-02
1.400000000000000029e-02,-3.719816625829548418e-01,-2.877695221876748199e-01,-1.982962515010832927e-01
1.499999999999999944e-02,-2.327013560030203598e-01,-1.479968328966229651e-01,-1.720558880919344502e-01
1.600000000000000033e-02,1.553984678427942634e-01,1.925930904846170633e-01,7.047913947528176848e-02
1.700000000000000122e-02,3.622351378026241742e-01,2.890374098046027407e-01,1.865554015211172423e-01
1.799999999999999864e-02,1.064721119369940322e-01,1.100795578865915517e-02,1.230716473481212325e-01
1.899999999999999953e-02,-2.887422377485280300e-01,-2.678279256796785579e-01,-1.221332554239988738e-01
2.000000000000000042e-02,-2.963640434613548091e-01,-1.958882413669202072e-01,-2.133280228494002229e-01
2.100000000000000130e-02,5.016166293433913653e-02,1.206827109850745067e-01,-2.582139557478816197e-02
2.199999999999999872e-02,3.641932244472376179e-01,2.866700275203492576e-01,2.151899994797756843e-01
2.299999999999999961e-02,2.109815979439970124e-01,9.026506956489500910e-02,1.604492761320818750e-01
2.400000000000000050e-02,-1.942961269690265391e-01,-2.485315963761076941e-01,-5.498226471150852862e-02
2.500000000000000139e-02,-3.828532425985343712e-01,-2.540206203256556439e-01,-2.217865606116197208e-01
2.599999999999999881e-02,-6.462593863672805305e-02,8.072986232312671928e-02,-1.246963903687548919e-01
2.699999999999999969e-02,3.250264379679743687e-01,2.955553031894233573e-01,1.345919225842104328e-01
2.800000000000000058e-02,2.996223892693657964e-01,1.683517887155578929e-01,2.304806596107109307e-01
2.900000000000000147e-02,-1.124888388788126276e-01,-1.851828635058180017e-01,2.218973632583192204e-02
2.999999999999999889e-02,-3.725917997606486565e-01,-2.901362260513535851e-01,-1.957604383843116747e-01
3.099999999999999978e-02,-1.484404441268832864e-01,-2.868037754194783379e-02,-1.733507022422852983e-01
3.200000000000000067e-02,2.266063044268821769e-01,2.690118860859933014e-01,6.404730667443514491e-02
3.300000000000000155e-02,3.500510156826698305e-01,2.023319758373632038e-01,2.039099571328820137e-01
3.400000000000000244e-02,3.831300961606171063e-02,-9.564439499371872599e-02,9.440133807627147655e-02
3.500000000000000333e-02,-3.500006170208500023e-01,-3.063608107512692524e-01,-1.402502217079096836e-01
3.599999999999999728e-02,-2.693840044461839334e-01,-1.166971335422437167e-01,-1.990248363826311040e-01
3.699999999999999817e-02,1.401938133732340275e-01,2.171556960679171533e-01,-1.714608090146962915e-02
3.799999999999999906e-02,3.815157950039230195e-01,2.517173384740771236e-01,1.930509151907142118e-01
3.899999999999999994e-02,1.174454708070440945e-01,-3.546328206311937653e-02,1.634706135005603300e-01
4.000000000000000083e-02,-2.637590772482954482e-01,-2.882664645679187676e-01,-4.227511671777665903e-02
4.100000000000000172e-02,-3.363998356734329009e-01,-1.531920242359592621e-01,-2.228720748441867239e-01
4.200000000000000261e-02,3.329925921023989266e-02,1.552732797197951542e-01,-1.077494288736335765e-01
4.299999999999999656e-02,3.514176007083967268e-01,2.644825145854112214e-01,1.689894616554660500e-01
4.399999999999999745e-02,2.290032006871507153e-01,2.464381669397893576e-02,2.073840562838606405e-01
4.499999999999999833e-02,-1.632194319255654558e-01,-2.500137546459146320e-01,1.284856505714617424e-02
4.599999999999999922e-02,-3.477663300337270336e-01,-2.519694571684456541e-01,-1.894957452598480252e-01
4.700000000000000011e-02,-1.174072073502637481e-01,8.133170448044732548e-02,-1.716919481194389696e-01
4.800000000000000100e-02,2.876424165163251057e-01,2.944476901800301971e-01,7.403419310889769456e-02
4.900000000000000189e-02,3.019877063088559077e-01,1.174826451215304352e-01,2.137273259346599841e-01
5.000000000000000278e-02,-4.380070773424691449e-02,-2.040750203959070530e-01,8.869815549283834033e-02
5.099999999999999672e-02,-3.464407279837395937e-01,-2.629747316821416381e-01,-1.421805474285206261e-01
5.199999999999999761e-02,-2.331536511831148462e-01,2.685399789052598032e-02,-2.043211028410338026e-01
5.299999999999999850e-02,2.006012519898443536e-01,2.678489634392936525e-01,-3.710185699469655332e-03
5.399999999999999939e-02,3.390916208121970143e-01,1.974110894953890472e-01,2.001279927733703445e-01
5.500000000000000028e-02,6.482351547453903129e-02,-1.382406215753443635e-01,1.536874150141172013e-01
5.600000000000000117e-02,-3.042477687921930629e-01,-2.824063112401086761e-01,-8.446523305130271275e-02
5.700000000000000205e-02,-2.817817553261693364e-01,-7.496686891067004532e-02,-1.988339653725421652e-01
5.800000000000000294e-02,9.801451371142341773e-02,2.536087133358423396e-01,-9.834083383685379709e-02
5.899999999999999689e-02,3.816204906548588127e-01,2.334091852624693986e-01,1.361032094166046147e-01
5.999999999999999778e-02,1.793540582886480605e-01,-8.932606810551087240e-02,2.161899498867619895e-01
6.099999999999999867e-02,-2.387770310110597372e-01,-3.032571048700620220e-01,4.747906774573813597e-03
6.199999999999999956e-02,-3.583933492273340127e-01,-1.258593475286447494e-01,-2.014865944919091156e-01
6.300000000000000044e-02,-2.665205348986264891e-02,1.923027657548045666e-01,-1.545811107643443594e-01
6.400000000000000133e-02,3.350068885689073128e-01,2.744879037073445494e-01,7.798703444369875504e-02
6.500000000000000222e-02,2.623030320340580812e-01,1.528595901568727267e-02,2.355466352583103495e-01
6.600000000000000311e-02,-1.235469527862649436e-01,-2.889686819437881082e-01,1.071186879503570749e-01
6.700000000000000400e-02,-3.662794407552822928e-01,-1.903016642395766733e-01,-1.533861054392944012e-01
6.800000000000000488e-02,-1.408542232165715669e-01,1.348172673380913233e-01,-2.163352456938179291e-01
6.900000000000000577e-02,2.699520256710415400e-01,2.866723735240349069e-01,-2.015939293738859897e-02
7.000000000000000666e-02,3.261234860332632990e-01,9.407266146173921817e-02,1.869153897963150013e-01
7.099999999999999367e-02,-6.606527310682757358e-03,-2.392082315022353023e-01,1.773558283321514939e-01
7.199999999999999456e-02,-3.410008917391130212e-01,-2.588438684224217412e-01,-8.114460889706195945e-02
7.299999999999999545e-02,-2.232882040677096336e-01,6.641215923508515806e-02,-2.132682497410562927e-01
7.399999999999999634e-02,1.501967229374693569e-01,2.862811551589006243e-01,-8.040327916015703458e-02
7.499999999999999722e-02,3.621640601927875736e-01,1.436360432983597446e-01,1.676123327837164001e-01
7.599999999999999811e-02,9.602896863240595327e-02,-1.632686787610692913e-01,1.992621892564720998e-01
7.699999999999999900e-02,-2.822562377620689844e-01,-2.879843398442641922e-01,-1.052216013597142251e-02
7.799999999999999989e-02,-2.928322225718631988e-01,-4.295081750062586939e-02,-2.097715393800102246e-01
7.900000000000000078e-02,5.888864952638239031e-02,2.598546048471171432e-01,-1.708415558763576036e-01
8.000000000000000167e-02,3.503130829999417939e-01,2.289995102803137617e-01,7.497483700313496702e-02
8.100000000000000255e-02,2.082187037249907113e-01,-1.038539407583033980e-01,2.271207898980349138e-01
8.200000000000000344e-02,-2.050708298510579009e-01,-3.155266278141975467e-01,8.692970608213063111e-02
8.300000000000000433e-02,-3.492327668500715410e-01,-1.101770955851336525e-01,-1.542981380622971965e-01
8.400000000000000522e-02,-5.222224187081862118e-02,2.091819222191867722e-01,-2.138398914835963616e-01
8.500000000000000611e-02,2.943755379615248802e-01,2.717039699579671952e-01,-7.746151406309736455e-04
8.599999999999999312e-02,2.923612396844291750e-01,-2.792518578446174030e-02,2.149094760632964674e-01
8.699999999999999400e-02,-9.354204645586147726e-02,-2.679294874352013411e-01,1.681063100489848805e-01
8.799999999999999489e-02,-3.661867093440615561e-01,-1.679136704781391543e-01,-7.953015345766939470e-02
8.899999999999999578e-02,-1.672183306829296279e-01,1.692798548255137758e-01,-2.082131692263751721e-01
8.999999999999999667e-02,2.309441671151973297e-01,3.171865493299464989e-01,-7.536100321055018425e-02
9.099999999999999756e-02,3.530575223983178357e-01,5.818243433266086229e-02,1.616252259469961317e-01
9.199999999999999845e-02,5.262711053863756289e-02,-2.553882261141585119e-01,1.977236555189290368e-01
9.299999999999999933e-02,-3.300599711600422648e-01,-2.196331120607820375e-01,-8.345866957719588058e-03
9.400000000000000022e-02,-2.659872805497735526e-01,1.080693994438881589e-01,-2.145719475582855973e-01
9.500000000000000111e-02,1.303192734284134013e-01,2.996723439840148773e-01,-1.510426803029887022e-01
9.600000000000000200e-02,3.720360490781249863e-01,1.273120838247012165e-01,7.822852346789778422e-02
9.700000000000000289e-02,1.514498647050660507e-01,-2.075961563723620618e-01,2.227855256704085185e-01
9.800000000000000377e-02,-2.549113716995419776e-01,-2.579262922277695824e-01,9.417756121542404657e-02
9.900000000000000466e-02,-3.170139961554278574e-01,2.913230287612829719e-02,-1.630013129579656883e-01
1.000000000000000056e-01,1.184275154531974801e-02,2.925313309116041594e-01,-2.003311325958918865e-01
1.010000000000000064e-01,3.519185044432764919e-01,1.832860612895978181e-01,-1.491491399505032308e-03
1.019999999999999934e-01,2.302753572362426504e-01,-1.437542246873723117e-01,2.040335359219771494e-01
1.029999999999999943e-01,-1.645676752832604950e-01,-2.821252630606386202e-01,1.624421018274743167e-01
1.039999999999999952e-01,-3.777237907904315573e-01,-6.715848661269531450e-02,-7.848615412291884419e-02
1.049999999999999961e-01,-9.238779445732760165e-02,2.179885463658993439e-01,-2.161167114152229562e-01
1.059999999999999970e-01,2.857441531217799757e-01,2.363325364387473815e-01,-8.274468636747851769e-02
1.069999999999999979e-01,3.246798874525109180e-01,-7.210263128158822532e-02,1.484488921577348519e-01
1.079999999999999988e-01,-3.191276692476671673e-02,-2.810833941914058220e-01,2.182305992664592409e-01
1.089999999999999997e-01,-3.599436756701522300e-01,-1.315044216102452257e-01,-6.328387648108791666e-04
1.100000000000000006e-01,-2.174750723501183147e-01,1.846437301892122074e-01,-2.125764135316237924e-01
1.110000000000000014e-01,2.030640145316427170e-01,2.673761766319676103e-01,-1.544258265802274099e-01
1.120000000000000023e-01,3.667104172023840647e-01,4.473253820992245493e-03,8.148319798396648495e-02
1.130000000000000032e-01,6.582276975375771222e-02,-2.664578239813487071e-01,2.429863052402480017e-01
1.140000000000000041e-01,-3.003560737690538773e-01,-2.275332864296858992e-01,7.721478810444515339e-02
1.150000000000000050e-01,-2.929778623363138990e-01,1.163524215235763604e-01,-1.688597806328537843e-01
1.160000000000000059e-01,1.101744066711820708e-01,3.092192666239783061e-01,-2.077007398574741148e-01
1.170000000000000068e-01,3.573885864737795792e-01,7.815227654180385841e-02,-1.173645359809873980e-02
1.179999999999999938e-01,1.697989451940951078e-01,-2.573186931813584155e-01,2.079736042388659056e-01
1.189999999999999947e-01,-2.341680934531745195e-01,-2.567942791345868558e-01,1.492601680931668895e-01
1.199999999999999956e-01,-3.431716458901790112e-01,5.687806141851857455e-02,-8.729581680718742631e-02
1.209999999999999964e-01,-3.451890838353169344e-02,2.770210409598296009e-01,-2.128834822210584066e-01
1.219999999999999973e-01,3.283830088330613739e-01,1.476783369383465605e-01,-7.818035843555233566e-02
1.229999999999999982e-01,2.669726748292273744e-01,-1.827869625136542553e-01,1.489109445690146860e-01
1.239999999999999991e-01,-1.360432516690232296e-01,-2.859698989342228659e-01,1.986624775866669412e-01
1.250000000000000000e-01,-3.695522393504468983e-01,-3.854074779372562709e-02,-9.062936905651842318e-03
1.260000000000000009e-01,-1.502644394955713336e-01,2.773785562550395434e-01,-2.013614462110062397e-01
1.270000000000000018e-01,2.359032231854870931e-01,1.956058641784539087e-01,-1.456631913804859457e-01
1.280000000000000027e-01,3.396242505347269458e-01,-1.099787327101844486e-01,5.766725179695117443e-02
1.290000000000000036e-01,-2.114040112250785679e-03,-2.817118493498628751e-01,2.273994941100600242e-01
1.300000000000000044e-01,-3.376048268913975359e-01,-9.440611355721328923e-02,8.147152523753060926e-02
1.310000000000000053e-01,-2.459106352388318595e-01,2.122512971772984869e-01,-1.647697363533742743e-01
1.320000000000000062e-01,1.592650396898717680e-01,2.495432234742690769e-01,-2.042534929714311664e-01
1.330000000000000071e-01,3.902428639118377673e-01,-3.944580986135596407e-02,-6.006622381740883785e-04
1.340000000000000080e-01,1.430789066775975948e-01,-2.825008958059489483e-01,2.133687123166153887e-01
1.350000000000000089e-01,-2.841762058028045601e-01,-1.770921149370565384e-01,1.447414463747411784e-01
1.360000000000000098e-01,-3.297722324991539389e-01,1.556916969859559463e-01,-1.072676198970954065e-01
1.370000000000000107e-01,4.064813422755984840e-02,2.986159584140798962e-01,-2.177492451939542772e-01
1.380000000000000115e-01,3.451423590594522861e-01,6.129332800942575293e-02,-9.209000733946887118e-02
1.390000000000000124e-01,2.192763276211315560e-01,-2.598816613873591863e-01,1.469570650520903299e-01
1.400000000000000133e-01,-2.039328656046042465e-01,-2.595320861893269382e-01,2.129964161301490799e-01
1.409999999999999865e-01,-3.588890522952828954e-01,8.863444533968872774e-02,6.075908443901644265e-03
1.419999999999999873e-01,-6.506088680007812708e-02,2.897030414836497259e-01,-1.951244977749319598e-01
1.429999999999999882e-01,2.901401351964550956e-01,9.369827492316956663e-02,-1.537346419768508554e-01
1.439999999999999891e-01,3.291339576629959129e-01,-2.134260384367068497e-01,9.003611546028571222e-02
1.449999999999999900e-01,-8.421704247919784003e-02,-2.705371034748836334e-01,2.325770238700911874e-01
1.459999999999999909e-01,-3.586183316769513407e-01,-6.266810359977476041e-03,6.798915382853037981e-02
1.469999999999999918e-01,-1.667823372643182367e-01,2.931165750718093821e-01,-1.605174864198127271e-01
1.479999999999999927e-01,2.125375175150633067e-01,1.812978515341980013e-01,-1.961571265328843350e-01
1.489999999999999936e-01,3.594950009124647794e-01,-1.349038727072038868e-01,-4.330020329502603550e-03
1.499999999999999944e-01,3.107662094170567102e-02,-2.886000012954325067e-01,1.915411200491774768e-01
1.509999999999999953e-01,-3.119377803608682220e-01,-6.441658825266900756e-02,1.454898261001422444e-01
1.519999999999999962e-01,-2.920506836195893019e-01,2.547574290306005018e-01,-9.533030240798834321e-02
1.529999999999999971e-01,1.330285572557692308e-01,2.375469040625371175e-01,-2.174411579344843470e-01
1.539999999999999980e-01,3.744460513586699291e-01,-6.510374683463968082e-02,-6.109074151576168732e-02
1.549999999999999989e-01,1.491487084882835157e-01,-2.990156157046961471e-01,1.709801573380881623e-01
1.559999999999999998e-01,-2.578078117481939491e-01,-1.409463085772416080e-01,1.927217116252751827e-01
1.570000000000000007e-01,-3.431554820286346619e-01,1.885636038331398034e-01,-9.049533935344843474e-03
1.580000000000000016e-01,-1.914917902106604355e-02,2.578030292305432680e-01,-2.160809842639003220e-01
1.590000000000000024e-01,3.564160748271115731e-01,8.010652463713501675e-03,-1.276242636235897232e-01
1.600000000000000033e-01,2.475545467596360905e-01,-2.671839912000971151e-01,1.008920153619756038e-01
1.610000000000000042e-01,-1.368185276686365026e-01,-1.860757681756372295e-01,2.138848457368732470e-01
1.620000000000000051e-01,-3.849271700976595323e-01,1.122407783407374932e-01,7.583749829286828836e-02
1.630000000000000060e-01,-1.060523441922386900e-01,2.918317267088915701e-01,-1.858709861966044430e-01
1.640000000000000069e-01,2.748603739344567809e-01,7.093260322749846136e-02,-1.874088549800288772e-01
1.650000000000000078e-01,3.188571014607685661e-01,-2.334332276516880023e-01,1.895692745310491312e-02
1.660000000000000087e-01,-2.434988191566025278e-02,-2.385280400389754585e-01,2.036085383771126245e-01
1.670000000000000095e-01,-3.477569682514989324e-01,4.592981571353377257e-02,1.473527157832396073e-01
1.680000000000000104e-01,-2.233867751224554443e-01,2.875899962089416007e-01,-9.696148442125405997e-02
1.690000000000000113e-01,1.921346677422989535e-01,1.462272738060000909e-01,-2.328738736324169611e-01
1.700000000000000122e-01,3.745347333095886411e-01,-1.756192344147367856e-01,-7.404829580412079781e-02
1.710000000000000131e-01,7.400425711806325746e-02,-2.894942524354078839e-01,1.676878488470998074e-01
1.719999999999999862e-01,-3.046127165684704985e-01,-3.583119736683882534e-02,2.067361372237336292e-01
1.729999999999999871e-01,-3.126377678809633687e-01,2.545134861638442825e-01,-2.139334406304167074e-02
1.739999999999999880e-01,9.700263162034933329e-02,2.055892565997901600e-01,-2.112653024591595874e-01
1.749999999999999889e-01,3.631848965209626967e-01,-1.137016531605264946e-01,-1.288027947798082440e-01
1.759999999999999898e-01,2.041042410666084883e-01,-2.908474109688859999e-01,1.029152027301552114e-01
1.769999999999999907e-01,-2.355117203510635193e-01,-8.769547452016863975e-02,2.118333810062137113e-01
1.779999999999999916e-01,-3.578982610679932175e-01,2.334956482746685935e-01,7.955211212073798333e-02
1.789999999999999925e-01,-2.101857792419677129e-02,2.549114441855268587e-01,-1.739376983413731259e-01
1.799999999999999933e-01,3.174398064234714156e-01,-3.427752342172456917e-02,-1.894301672833650085e-01
1.809999999999999942e-01,2.763971218255742435e-01,-2.823751705631347697e-01,1.301773125170369722e-03
1.819999999999999951e-01,-1.378971991195443725e-01,-1.767102706307235316e-01,2.198410179496971817e-01
1.829999999999999960e-01,-3.582772806552027012e-01,1.663120009611167849e-01,1.310699504762689871e-01
1.839999999999999969e-01,-1.348532934539960482e-01,2.908317451777904794e-01,-1.050143147437717916e-01
1.849999999999999978e-01,2.556374141857624127e-01,3.876294802337117845e-02,-2.219085973573043380e-01
1.859999999999999987e-01,3.370479420249564151e-01,-2.645975451612900819e-01,-7.726646202386355800e-02
1.869999999999999996e-01,-7.227371962492781451e-03,-2.277050508187346556e-01,1.543916872260860385e-01
1.880000000000000004e-01,-3.568444414437895729e-01,1.047465070046634944e-01,1.848517128791035968e-01
1.890000000000000013e-01,-2.236034034187933672e-01,3.009620287417247853e-01,-2.682970106647738009e-02
1.900000000000000022e-01,1.603622313319125470e-01,1.114474077462280360e-01,-2.071877657935691786e-01
1.910000000000000031e-01,3.626169367870927251e-01,-2.266185108554609473e-01,-1.541038850714757935e-01
1.920000000000000040e-01,1.129193647538258988e-01,-2.842162565664514973e-01,9.875610131788406520e-02
1.930000000000000049e-01,-2.982764756787783522e-01,1.383454149903918205e-02,2.203241512155084403e-01
1.940000000000000058e-01,-3.372960187696760204e-01,2.785146558783260784e-01,4.229266984241409483e-02
1.950000000000000067e-01,4.431714078135003121e-02,1.823134382692398470e-01,-1.620970729283461864e-01
1.960000000000000075e-01,3.555204069193654282e-01,-1.450903108328711888e-01,-1.856123987048552137e-01
1.970000000000000084e-01,2.463861639551379323e-01,-2.782240125049575963e-01,1.954900321454898504e-02
1.980000000000000093e-01,-1.771882889890914747e-01,-5.783112951708703486e-02,2.252675297658540965e-01
1.990000000000000102e-01,-3.962189733814239223e-01,2.563517283898992249e-01,1.219819906119883890e-01
2.000000000000000111e-01,-8.818446353759418210e-02,2.258399895429474280e-01,-1.059979283708301911e-01
2.010000000000000120e-01,2.893841054511200328e-01,-9.034816246495612491e-02,-2.080659442179812746e-01
2.020000000000000129e-01,3.081869511024377672e-01,-2.922822837267757268e-01,-7.803110797896968542e-02
2.030000000000000138e-01,-7.958031252972914971e-02,-1.479991710258263815e-01,1.963179819677960958e-01
2.039999999999999869e-01,-3.677094762713427056e-01,1.916781287552636603e-01,1.929113930800179233e-01
2.049999999999999878e-01,-1.833571731283440975e-01,2.859207999066785133e-01,-3.947671747842432244e-02
2.059999999999999887e-01,2.426615326803920059e-01,-8.865159184391856878e-03,-2.073674282183391726e-01
2.069999999999999896e-01,3.627412478767428339e-01,-2.661403063613464459e-01,-1.259268485381244695e-01
2.079999999999999905e-01,3.303552755032225507e-02,-2.169374411178409401e-01,1.111029257413751470e-01
2.089999999999999913e-01,-3.214919928175462016e-01,1.434550445079299241e-01,2.205541395795721504e-01
2.099999999999999922e-01,-2.759773521187493528e-01,3.066505454000488795e-01,7.114181784967325839e-02
2.109999999999999931e-01,1.243456138091057761e-01,9.946157429530476379e-02,-1.733401353520447885e-01
2.119999999999999940e-01,3.632988384368865398e-01,-2.500753959504755652e-01,-1.810389313320076854e-01
2.129999999999999949e-01,1.734131830040623601e-01,-2.366769590848567528e-01,2.114534343646269979e-02
2.139999999999999958e-01,-2.621982665820654645e-01,6.539477133206851589e-02,2.392933253508505165e-01
2.149999999999999967e-01,-3.514552754981887239e-01,2.725858813195799479e-01,1.278432618248051267e-01
2.159999999999999976e-01,9.297518417080619449e-03,1.634601967434604342e-01,-1.116031236850841962e-01
2.169999999999999984e-01,3.516012439444382576e-01,-1.743559212029852090e-01,-2.243515518679903564e-01
2.179999999999999993e-01,2.340802173130447084e-01,-2.781329171864929117e-01,-6.003295324112233045e-02
2.190000000000000002e-01,-1.517394279627020948e-01,-2.930746860140264615e-02,1.920555581051518745e-01
2.200000000000000011e-01,-3.699355043250445729e-01,2.578690689905249744e-01,1.844411872739418201e-01
2.210000000000000020e-01,-1.284477122825978257e-01,2.217105347711999241e-01,-4.530679603232963537e-02
2.220000000000000029e-01,2.724086128806748053e-01,-1.160471317942047553e-01,-2.235244280591745236e-01
2.230000000000000038e-01,3.286481599833171452e-01,-2.942495612746634515e-01,-1.458340386499565600e-01
2.240000000000000047e-01,-4.156411239297976706e-02,-1.166073426072298802e-01,1.053128138870507574e-01
2.250000000000000056e-01,-3.544202442918577001e-01,2.218462659259609615e-01,2.127005891653647174e-01
2.260000000000000064e-01,-2.367607085421484792e-01,2.626004413619638655e-01,5.262839158640693349e-02
2.270000000000000073e-01,1.949918314913508532e-01,-2.725099755334873738e-02,-1.743406731357209083e-01
2.280000000000000082e-01,3.646984675277677446e-01,-2.679537057246804688e-01,-1.683298946878643843e-01
2.290000000000000091e-01,6.741778881491421183e-02,-1.547613849838904987e-01,4.638698098581565954e-02
2.300000000000000100e-01,-2.887733153429592470e-01,1.529170639159146694e-01,2.193951322115891556e-01
2.310000000000000109e-01,-3.180562292933122870e-01,2.945039462810629116e-01,1.436024862840678540e-01
2.320000000000000118e-01,9.966174836039402851e-02,4.696062652897010914e-02,-1.246847212907181840e-01
2.330000000000000127e-01,3.405254930467433994e-01,-2.290423475290504496e-01,-2.269222048296664629e-01
2.340000000000000135e-01,1.843544284553317869e-01,-2.362491402833353238e-01,-6.842277489954728953e-02
2.349999999999999867e-01,-2.197672875180930185e-01,9.189348707142985795e-02,1.635657976726220542e-01
2.359999999999999876e-01,-3.475094233675966038e-01,2.926417898286206576e-01,1.846571507934727518e-01
2.369999999999999885e-01,-4.569779505768416239e-02,1.294233608281617764e-01,-3.726185909409068103e-02
2.379999999999999893e-01,3.105400443133258248e-01,-2.024362302572909056e-01,-2.027889013574021848e-01
2.389999999999999902e-01,3.013885993417263487e-01,-2.603590042765365209e-01,-1.346199683904814315e-01
2.399999999999999911e-01,-1.158088173788204972e-01,1.938086535569032848e-02,1.323498282408606119e-01
2.409999999999999920e-01,-3.665888884040409135e-01,2.884321379267310026e-01,2.076685521020865954e-01
2.419999999999999929e-01,-1.658215005293778299e-01,1.682754406076429343e-01,3.373351876734480975e-02
2.429999999999999938e-01,2.455999736344561535e-01,-1.580243106224130667e-01,-1.990818120143313941e-01
2.439999999999999947e-01,3.254393513718290554e-01,-2.757179960353799419e-01,-1.717891358160584248e-01
2.449999999999999956e-01,2.516358885644302042e-03,-5.745300746425655025e-02,3.022016454910314218e-02
2.459999999999999964e-01,-3.367089625075169734e-01,2.419035828419650869e-01,2.177431452807075396e-01
2.469999999999999973e-01,-2.409527322569836039e-01,2.338334978350584958e-01,1.357374877651796596e-01
2.479999999999999982e-01,1.671431559228527264e-01,-9.098714536512800266e-02,-1.258843857816161205e-01
2.489999999999999991e-01,3.739516815502638147e-01,-2.957800748674900837e-01,-2.213219272285144590e-01
2.500000000000000000e-01,1.287212532264206954e-01,-1.337138459347375907e-01,-6.571032206582810842e-02
2.510000000000000009e-01,-2.908147027281322017e-01,2.035220901632688872e-01,1.806832222729090054e-01
2.520000000000000018e-01,-3.309237916332305462e-01,2.635152512673104575e-01,1.916502095299897346e-01
2.530000000000000027e-01,2.114453201370175908e-02,1.193824165055502699e-02,-5.634003025609839871e-02
2.540000000000000036e-01,3.620083102355542981e-01,-2.828593845454380196e-01,-2.197548038334252440e-01
2.550000000000000044e-01,2.274037318725171397e-01,-2.002712716399917825e-01,-1.262056011301175562e-01
2.560000000000000053e-01,-1.899770056396758722e-01,1.280630398532361658e-01,1.432019849207151474e-01
2.570000000000000062e-01,-3.691365507802870649e-01,2.718917787241474371e-01,2.350639559334734008e-01
2.580000000000000071e-01,-8.570572905603050795e-02,8.299403147912072509e-02,5.221452783910707218e-02
2.590000000000000080e-01,2.914362969655295843e-01,-2.480024499196107624e-01,-1.774113039523160795e-01
2.600000000000000089e-01,3.067630746077265602e-01,-2.486052752911355468e-01,-1.843318378260035695e-01
2.610000000000000098e-01,-6.724890387814651260e-02,6.773073578078221690e-02,3.989895841603577353e-02
2.620000000000000107e-01,-3.699654538043636864e-01,2.814693440836540939e-01,2.398006305407777428e-01
2.630000000000000115e-01,-1.926936452325181126e-01,1.442014209291319349e-01,1.216527255270358210e-01
2.640000000000000124e-01,2.131249042396897997e-01,-1.731402831832342115e-01,-1.264428146840015643e-01
2.650000000000000133e-01,3.544139300342582510e-01,-2.752671159745259111e-01,-2.082850611082042447e-01
2.660000000000000142e-01,5.499699992936227244e-02,-4.186443991409966037e-02,-4.656993135869945399e-02
2.670000000000000151e-01,-3.128293569627402237e-01,2.809033191176349975e-01,1.839885426211207986e-01
2.680000000000000160e-01,-2.686366337019560624e-01,1.917551064072612055e-01,1.812500749773803266e-01
2.690000000000000169e-01,1.211665137495179234e-01,-1.141452882090163851e-01,-4.902057616587360972e-02
2.700000000000000178e-01,3.731263995159481706e-01,-3.053377699625561270e-01,-2.446054926319504441e-01
2.710000000000000187e-01,1.488743266233998608e-01,-9.039879751655634232e-02,-1.197545705231477242e-01
2.720000000000000195e-01,-2.637788901508061890e-01,2.073444446375154182e-01,1.197467246563942017e-01
2.730000000000000204e-01,-3.281876026824300796e-01,2.631023936414961240e-01,2.016677366689920425e-01
2.740000000000000213e-01,9.495349480148101984e-03,-5.057886135747842460e-02,4.667428324461785766e-02
2.750000000000000222e-01,3.349722576933952256e-01,-2.910188582893560860e-01,-1.992599954202474988e-01
2.760000000000000231e-01,2.511622534601636314e-01,-1.562417648993481567e-01,-1.642401251917407490e-01
2.770000000000000240e-01,-1.400903266032829386e-01,1.641939665796622594e-01,5.849400923288416293e-02
2.780000000000000249e-01,-3.620346643730175118e-01,2.835706354029760012e-01,2.119500659768026873e-01
2.790000000000000258e-01,-1.116843823358449339e-01,5.686227635364248661e-02,1.214555496381835159e-01
2.800000000000000266e-01,2.691630345222318921e-01,-2.374069688322497651e-01,-1.121783321874357670e-01
2.810000000000000275e-01,3.224600048560513077e-01,-2.349132914083122414e-01,-2.027561852945068410e-01
2.819999999999999729e-01,-2.269293136901030794e-02,9.727674437628273940e-02,-3.705106945499440918e-02
2.829999999999999738e-01,-3.418670154440100473e-01,3.016361219595052878e-01,1.765791479353532589e-01
2.839999999999999747e-01,-2.446420852959822201e-01,1.069787688252668012e-01,1.748596093898599491e-01
2.849999999999999756e-01,1.795068909089300169e-01,-1.896340730093203641e-01,-5.008909997840419598e-02
2.859999999999999765e-01,3.605626730825059467e-01,-2.645545889773021075e-01,-2.253995695855396664e-01
2.869999999999999774e-01,6.883364067254359175e-02,-5.847723211908397063e-03,-1.138799520893278849e-01
2.879999999999999782e-01,-2.989029909264457885e-01,2.669269052635987460e-01,1.297303799029783378e-01
2.889999999999999791e-01,-3.135406764642338917e-01,1.693510384326168960e-01,2.147985408883925085e-01
2.899999999999999800e-01,6.226112912916953457e-02,-1.475840841439924056e-01,1.923797799648008233e-02
2.909999999999999809e-01,3.774905471692086012e-01,-2.859223435089264798e-01,-1.917593329767704191e-01
2.919999999999999818e-01,1.962114744330067384e-01,-3.248418334068814417e-02,-1.857981464039830388e-01
2.929999999999999827e-01,-2.255916371813902754e-01,2.686852512645164226e-01,5.184747866846048381e-02
2.939999999999999836e-01,-3.658206948917245294e-01,2.291676459387491371e-01,2.040379430169958208e-01
2.949999999999999845e-01,-4.343730839544018146e-02,-8.268448173916868871e-02,1.234535180822318445e-01
2.959999999999999853e-01,3.125972941088606682e-01,-2.965030390969956020e-01,-1.458511152930072885e-01
2.969999999999999862e-01,2.903707319645822960e-01,-1.341710014838279619e-01,-2.211555609255504151e-01
2.979999999999999871e-01,-1.140970945045059332e-01,2.102908837487298677e-01,-3.205385087571926278e-02
2.989999999999999880e-01,-3.659933122436498376e-01,2.616840452053731947e-01,1.879135707428777058e-01
2.999999999999999889e-01,-1.501832447572468698e-01,-3.922899372731141615e-03,1.964746091922344451e-01
3.009999999999999898e-01,2.619944579708142762e-01,-2.619140170391321409e-01,-7.011932441067013355e-02
3.019999999999999907e-01,3.451141885024113787e-01,-1.759619247299667733e-01,-2.218459874861095082e-01
3.029999999999999916e-01,1.637119025830973892e-02,1.345655472551320342e-01,-1.243093794965514504e-01
3.039999999999999925e-01,-3.280830313804488085e-01,2.874148365845304864e-01,1.430698087333137081e-01
3.049999999999999933e-01,-2.598012233732099885e-01,8.407678270644372565e-02,2.071464327058131771e-01
3.059999999999999942e-01,1.314635424617366377e-01,-2.225085259669896398e-01,3.974120540508795096e-02
3.069999999999999951e-01,3.649070111685321915e-01,-2.408293439638658773e-01,-1.866243644149180869e-01
3.079999999999999960e-01,1.240321533228004452e-01,5.794315524725759253e-02,-1.802589297557269099e-01
3.089999999999999969e-01,-2.746921856812928886e-01,3.025651927029830435e-01,6.511175474891650605e-02
3.099999999999999978e-01,-3.304292158522463829e-01,1.462533463654289712e-01,2.213608907830644790e-01
3.109999999999999987e-01,1.398527577621601868e-02,-1.915647845662581117e-01,1.030377006294122127e-01
3.119999999999999996e-01,3.457960266814629202e-01,-2.797517336566027746e-01,-1.290594387057004133e-01
3.130000000000000004e-01,2.226792223884069832e-01,-9.722644830877332986e-03,-2.143135062470435670e-01
3.140000000000000013e-01,-1.968505041493490149e-01,2.661303735252731340e-01,-1.028581261284633799e-02
3.150000000000000022e-01,-3.458219443086510969e-01,1.955365713376355785e-01,1.906342106482458998e-01
3.160000000000000031e-01,-8.939701368702653028e-02,-1.315188833867068641e-01,1.743163528047654842e-01
3.170000000000000040e-01,2.974081530695660280e-01,-3.031493702694798009e-01,-6.919639495291581011e-02
3.180000000000000049e-01,3.120093869552749699e-01,-9.360436521031369195e-02,-2.116258061677469271e-01
3.190000000000000058e-01,-6.140075884316078397e-02,2.172468646035916051e-01,-9.999223111704418077e-02
3.200000000000000067e-01,-3.515330590778938391e-01,2.654935595294856676e-01,1.562469038230039908e-01
3.210000000000000075e-01,-2.023938436130954532e-01,-4.771125567346635316e-02,2.130442912450410953e-01
3.220000000000000084e-01,2.007350047190223363e-01,-2.995620773107405266e-01,1.499617636436658373e-02
3.230000000000000093e-01,3.428686599205323371e-01,-1.762466527045508657e-01,-1.797037381001692358e-01
3.240000000000000102e-01,4.111709098643138299e-02,1.651162095302061983e-01,-1.671061810971297135e-01
3.250000000000000111e-01,-3.227265995751323890e-01,2.802054683680247349e-01,7.617839273329762850e-02
3.260000000000000120e-01,-2.816292427414927579e-01,4.201403155988210625e-02,2.275985621497876865e-01
3.270000000000000129e-01,1.234411963231131920e-01,-2.434789660602217076e-01,9.259010460715530466e-02
3.280000000000000138e-01,3.820308639380514681e-01,-2.254913877649098175e-01,-1.331031509958295889e-01
3.290000000000000147e-01,1.641565259291165590e-01,1.076943835495144525e-01,-2.008126204527065917e-01
3.300000000000000155e-01,-2.509886472482036890e-01,2.920779486641409406e-01,-1.858499616201843979e-02
3.310000000000000164e-01,-3.556879222748627334e-01,1.273441350690900087e-01,1.983299473749381148e-01
3.320000000000000173e-01,1.179679002636356945e-03,-2.109291770531315224e-01,1.504984582713802255e-01
3.330000000000000182e-01,3.226894720082719159e-01,-2.556626196825609321e-01,-6.179341233227402669e-02
3.340000000000000191e-01,2.632227666726651982e-01,2.697440293840602452e-02,-2.065541503397291534e-01
3.350000000000000200e-01,-1.516612475286542583e-01,2.744074964916171089e-01,-1.066349861872187693e-01
3.360000000000000209e-01,-3.704745812476237243e-01,1.899410328511742796e-01,1.529101625023702449e-01
3.370000000000000218e-01,-1.091871956163117802e-01,-1.427443612070996015e-01,2.197354860522968134e-01
3.380000000000000226e-01,2.681711605532760556e-01,-2.706514969945676974e-01,2.993223786545804940e-02
3.390000000000000235e-01,3.396321545391894903e-01,-5.975586232635853728e-02,-2.083714980611958423e-01
3.400000000000000244e-01,-4.253488953632784259e-02,2.194969369299202555e-01,-1.633078483054573871e-01
3.410000000000000253e-01,-3.346691945991450701e-01,2.322984025001869623e-01,6.373276895235166495e-02
3.420000000000000262e-01,-2.429073579086993007e-01,-9.604375707287818309e-02,1.927325735001238771e-01
3.430000000000000271e-01,1.750543797560961956e-01,-2.961064639361629669e-01,9.049675070902181429e-02
3.439999999999999725e-01,3.572870219712649953e-01,-1.216017901748092378e-01,-1.300800105985612520e-01
3.449999999999999734e-01,1.100470640987247506e-01,1.990637895440538208e-01,-2.072271610609214276e-01
3.459999999999999742e-01,-2.931642881742023699e-01,2.820057413142514346e-01,4.813222904852809680e-03
3.469999999999999751e-01,-3.047577087674050444e-01,4.438946527405602735e-03,2.289363055040163630e-01
3.479999999999999760e-01,6.123415167702091905e-02,-2.882679308697070897e-01,1.570510557366893711e-01
3.489999999999999769e-01,3.809275473269020940e-01,-1.826283967180972745e-01,-7.162096699230187380e-02
3.499999999999999778e-01,2.077357763963413040e-01,1.385260275848500811e-01,-2.110587675307230293e-01
3.509999999999999787e-01,-2.102624427609273428e-01,2.975854921570985634e-01,-9.192197370374388665e-02
3.519999999999999796e-01,-3.557135711481780316e-01,8.258309605282065924e-02,1.558653596422779897e-01
3.529999999999999805e-01,-5.453091777832224513e-02,-2.400099152914547951e-01,2.268038177236625652e-01
3.539999999999999813e-01,3.030102409031603661e-01,-2.529344607583842719e-01,1.923305827146978494e-02
3.549999999999999822e-01,2.829465542818712653e-01,5.887845165738839204e-02,-2.150266492841131916e-01
3.559999999999999831e-01,-1.095425699957789517e-01,3.012737659238257648e-01,-1.679835588220882636e-01
3.569999999999999840e-01,-3.544064561045043860e-01,1.435541892733862568e-01,7.443792687876410463e-02
3.579999999999999849e-01,-1.589166406846538038e-01,-1.880397796392523635e-01,2.187219801411654785e-01
3.589999999999999858e-01,2.385473456152100158e-01,-2.891129479991879636e-01,9.441116307885076553e-02
3.599999999999999867e-01,3.400489511391421305e-01,-2.178898500260664783e-02,-1.548271881847656239e-01
3.609999999999999876e-01,3.138734486888661995e-02,2.808441348667049531e-01,-1.988528542605473570e-01
3.619999999999999885e-01,-3.223510377140549887e-01,2.222638453878295894e-01,-6.767089609774889006e-03
3.629999999999999893e-01,-2.561021199183206587e-01,-1.181208338773329924e-01,2.025397468147443203e-01
3.639999999999999902e-01,1.496044899223989144e-01,-2.937991852720733821e-01,1.670945151156421060e-01
3.649999999999999911e-01,3.689176961061577109e-01,-8.078962578563790575e-02,-7.413785639124678695e-02
3.659999999999999920e-01,1.211419242275063868e-01,2.351255957627354509e-01,-2.010990166236756027e-01
3.669999999999999929e-01,-2.710560978459757853e-01,2.603013960116597469e-01,-9.280478228412830655e-02
3.679999999999999938e-01,-3.363928556674185000e-01,-5.082932654363254282e-02,1.552894788185960884e-01
3.689999999999999947e-01,1.292169578874035815e-02,-2.768596093973413885e-01,1.940856074634676187e-01
3.699999999999999956e-01,3.780468913885605131e-01,-1.533282379670294071e-01,1.670999251256723855e-02
3.709999999999999964e-01,2.355871800478478995e-01,1.622358417493214022e-01,-1.994308277170583898e-01
3.719999999999999973e-01,-1.582229938807872549e-01,2.950247479815168994e-01,-1.731134359564014402e-01
3.729999999999999982e-01,-3.511417343971808824e-01,3.906330404224073183e-02,6.880850894806565810e-02
3.739999999999999991e-01,-1.058605823627312148e-01,-2.613865087126118758e-01,2.225952859871348222e-01
3.750000000000000000e-01,3.017248233949155201e-01,-2.369421774835065997e-01,7.380045282314351418e-02
3.760000000000000009e-01,3.024067822571726571e-01,9.130888141649731726e-02,-1.361328247518891199e-01
3.770000000000000018e-01,-6.021726950072930906e-02,2.982502533144076318e-01,-2.141319827396636899e-01
3.780000000000000027e-01,-3.534188368569839978e-01,1.207998528346531930e-01,5.151616161775367112e-04
3.790000000000000036e-01,-1.993464537452658281e-01,-2.002954322473964044e-01,1.970445762101176168e-01
3.800000000000000044e-01,1.933367418613171629e-01,-2.551062440571989498e-01,1.601231142683501307e-01
3.810000000000000053e-01,3.478454484779052724e-01,3.576084865291945247e-02,-7.816070166314750822e-02
3.820000000000000062e-01,6.969896629545310751e-02,2.747819076903849633e-01,-2.348569978780427336e-01
3.830000000000000071e-01,-3.106186483433934775e-01,1.663781323803055212e-01,-9.163307823873642621e-02
3.840000000000000080e-01,-2.851448924261874573e-01,-1.552217962497434989e-01,1.563499985372819590e-01
3.850000000000000089e-01,1.085699465854063905e-01,-3.210304606644279191e-01,2.130050046433208943e-01
3.860000000000000098e-01,3.605708639247109937e-01,-7.141707966028790211e-02,5.011333359158640956e-03
3.870000000000000107e-01,1.797827453295314237e-01,2.523912233961781992e-01,-1.873347833387022099e-01
3.880000000000000115e-01,-2.537260499476365339e-01,2.475235826277991102e-01,-1.594876595417111798e-01
3.890000000000000124e-01,-3.515025050705039011e-01,-7.219827850856994078e-02,7.154690987344446140e-02
3.900000000000000133e-01,-3.590087627960090316e-02,-2.906542175015576213e-01,2.171813274314611797e-01
3.910000000000000142e-01,3.346682136559753773e-01,-1.191693082294977696e-01,8.286601594413584015e-02
3.920000000000000151e-01,2.680389411974825054e-01,2.043344083628566010e-01,-1.481869134770645857e-01
3.930000000000000160e-01,-1.554262507705595486e-01,2.537685465137322627e-01,-1.883303356259373729e-01
3.940000000000000169e-01,-3.628657431697716595e-01,7.416180255721403769e-03,4.246153931499260445e-03
3.950000000000000178e-01,-1.398665545839897217e-01,-3.000494832578646798e-01,2.116316331953807528e-01
3.960000000000000187e-01,2.724883961225377238e-01,-1.744424045437460158e-01,1.590655983580592236e-01
3.970000000000000195e-01,3.469318668614597145e-01,1.395150373602816740e-01,-6.125302002613275398e-02
3.980000000000000204e-01,-5.858295983226512876e-02,2.759661249557469054e-01,-2.187346950019465053e-01
3.990000000000000213e-01,-3.470167036889468815e-01,6.871626232958477631e-02,-8.515655121142239048e-02
4.000000000000000222e-01,-2.432678795363863722e-01,-2.374848418522886861e-01,1.765116098369593767e-01
4.010000000000000231e-01,1.768386408801239373e-01,-2.277103205166469690e-01,1.983821850524751518e-01
4.020000000000000240e-01,3.432154089978821099e-01,4.198687057454206922e-02,2.049879280416895197e-02
4.030000000000000249e-01,9.850517259276808657e-02,2.931058901503961200e-01,-1.937517751120756138e-01
4.040000000000000258e-01,-3.089650079111184722e-01,1.353919126900721692e-01,-1.633454082145118780e-01
4.050000000000000266e-01,-2.992911983904312789e-01,-1.787056204248581859e-01,1.063927689350471772e-01
4.060000000000000275e-01,6.663081624469771591e-02,-2.744416428260024188e-01,2.223428349244829794e-01
4.069999999999999729e-01,3.704921238435833764e-01,-5.387445473719158773e-03,1.095660824413432072e-01
4.079999999999999738e-01,2.001624871809351280e-01,2.515590805335232716e-01,-1.797056538876081189e-01
4.089999999999999747e-01,-2.081247539074811692e-01,2.099792458610298118e-01,-2.098636612203309271e-01
4.099999999999999756e-01,-3.438051797633792650e-01,-1.167775716906013367e-01,-1.319551699404034007e-03
4.109999999999999765e-01,-8.070164078420175024e-02,-2.984003127836507563e-01,2.226289140542714873e-01
4.119999999999999774e-01,3.156080825264458989e-01,-8.736647352518503440e-02,1.634695356538215238e-01
4.129999999999999782e-01,3.075687527294928558e-01,2.232404319699663742e-01,-7.885538722890984842e-02
4.139999999999999791e-01,-1.060744247948879615e-01,2.396527517407837093e-01,-2.091458204428585377e-01
4.149999999999999800e-01,-3.681406027354525712e-01,-5.118801913928496677e-02,-7.466427705575898188e-02
4.159999999999999809e-01,-1.783180132835208986e-01,-2.865255530948230822e-01,1.655101539375236908e-01
4.169999999999999818e-01,2.306029181091573121e-01,-1.625151560455070643e-01,1.873922951304557993e-01
4.179999999999999827e-01,3.636233521836266802e-01,1.569051411339645319e-01,-1.388071686037195031e-02
4.189999999999999836e-01,3.217794456221158284e-02,3.029178922426383758e-01,-2.025208880280784107e-01
4.199999999999999845e-01,-3.321377656917940957e-01,4.181104814344864529e-02,-1.488783677980025921e-01
4.209999999999999853e-01,-2.715407562238292272e-01,-2.727426440371264471e-01,7.921851468316011557e-02
4.219999999999999862e-01,1.507277109800459758e-01,-2.079006876244504087e-01,2.278896515767112885e-01
4.229999999999999871e-01,3.584071120243385034e-01,9.915772972947561881e-02,7.040800573010341790e-02
4.239999999999999880e-01,1.254511741492880528e-01,3.084453169094299452e-01,-1.503843465173115568e-01
4.249999999999999889e-01,-2.598746873794824386e-01,1.056545940291904878e-01,-2.058783330035822146e-01
4.259999999999999898e-01,-3.403269270222608611e-01,-2.150000767863850248e-01,2.850558267126816064e-02
4.269999999999999907e-01,3.486935017951543758e-02,-2.816752179753268526e-01,2.093041235846682668e-01
4.279999999999999916e-01,3.421533565661744603e-01,2.200087051060518190e-02,1.655874926091630561e-01
4.289999999999999925e-01,2.407753288975709727e-01,2.857048119777567119e-01,-1.021000665298524845e-01
4.299999999999999933e-01,-1.883360573901652624e-01,1.726158916492374351e-01,-2.209377317049926182e-01
4.309999999999999942e-01,-3.623481988310652824e-01,-1.492631129021703140e-01,-8.975206794667453525e-02
4.319999999999999951e-01,-8.677067394505713627e-02,-3.018883732363788486e-01,1.584851569498348933e-01
4.329999999999999960e-01,2.791899588877610472e-01,-4.972884485946742206e-02,1.819772625562925406e-01
4.339999999999999969e-01,3.232239336870131319e-01,2.624167471968090748e-01,-8.726073788101928325e-03
4.349999999999999978e-01,-6.044904173301299949e-02,2.313284932340372579e-01,-2.129384411647153863e-01
4.359999999999999987e-01,-3.643002465005198975e-01,-9.956778027259874375e-02,-1.719676398024108377e-01
4.369999999999999996e-01,-2.110275790899632242e-01,-2.941643149358766363e-01,8.831448088380319805e-02
4.380000000000000004e-01,2.081886581354855381e-01,-1.335167449968985565e-01,2.277690933368199944e-01
4.390000000000000013e-01,3.600145372136250854e-01,2.094197478220591879e-01,6.487156629552082165e-02
4.400000000000000022e-01,4.843327959763959328e-02,2.730923117086470620e-01,-1.658592355241225724e-01
4.410000000000000031e-01,-3.170989163483824425e-01,-4.035278424905806502e-05,-1.841858298887959489e-01
4.420000000000000040e-01,-2.992706705589738836e-01,-2.756064130925269251e-01,2.490889104536016946e-02
4.430000000000000049e-01,8.780992447158218750e-02,-1.922175925452057066e-01,2.096340453448307384e-01
4.440000000000000058e-01,3.756881780933927217e-01,1.241394636976999311e-01,1.492948629546066164e-01
4.450000000000000067e-01,1.839306075697721143e-01,3.006650687434818670e-01,-9.894991172676664837e-02
4.460000000000000075e-01,-2.395222803449479076e-01,8.103957572959318012e-02,-2.133363340552081877e-01
4.470000000000000084e-01,-3.633512923949014373e-01,-2.294509424412384535e-01,-6.337837203629005656e-02
4.480000000000000093e-01,-2.545344955481348981e-02,-2.370295783125455358e-01,1.668198375921749466e-01
4.490000000000000102e-01,3.260069543511345258e-01,6.107988753504623586e-02,1.934207276288722188e-01
4.500000000000000111e-01,2.673256144322015970e-01,2.995151331429861674e-01,-1.399635273473459444e-02
4.510000000000000120e-01,-1.367654123394116406e-01,1.558595817788550331e-01,-2.041898950367943832e-01
4.520000000000000129e-01,-3.756946867737315232e-01,-1.995371293423276737e-01,-1.528348792030175263e-01
4.530000000000000138e-01,-1.250537320868758129e-01,-2.671545148352353904e-01,8.359477009301188866e-02
4.540000000000000147e-01,2.756111563623517835e-01,-2.005464139138228921e-02,2.073462373379304224e-01
4.550000000000000155e-01,3.217035315960771746e-01,2.706681254744859322e-01,6.466485024640164503e-02
4.560000000000000164e-01,-1.290820815460571279e-02,2.036353976925504017e-01,-1.677410216944139054e-01
4.570000000000000173e-01,-3.525001039908400857e-01,-1.115692865942849721e-01,-1.958150334651463098e-01
4.580000000000000182e-01,-2.462129726503520799e-01,-2.996750483204803639e-01,2.811954280690870736e-02
4.590000000000000191e-01,1.785478354041337701e-01,-9.721962936805873812e-02,2.209456204817691893e-01
4.600000000000000200e-01,3.559273368411438598e-01,2.436048801428402633e-01,1.527389946737885973e-01
4.610000000000000209e-01,9.076215336484125262e-02,2.540035102098146536e-01,-9.240517642556694833e-02
4.620000000000000218e-01,-2.738229399828142618e-01,-4.496983357426979910e-02,-2.287305767564121461e-01
4.630000000000000226e-01,-3.264374798635262809e-01,-2.805908116092399873e-01,-5.752867294054121727e-02
4.640000000000000235e-01,6.190665552384039261e-02,-1.779502917419854557e-01,1.880939975130276887e-01
4.650000000000000244e-01,3.769344308430792045e-01,1.812445287519171278e-01,2.066469694638236598e-01
4.660000000000000253e-01,2.053461279412805152e-01,2.956110605310960371e-01,-1.540974322018401517e-02
4.670000000000000262e-01,-1.998881353339700684e-01,3.769106341607791899e-02,-2.060908702395946590e-01
4.680000000000000271e-01,-3.557594580208737756e-01,-2.526667300216600132e-01,-1.509800552185820155e-01
4.689999999999999725e-01,-4.171331796834160111e-02,-2.168008284248563733e-01,1.170216331873241006e-01
4.699999999999999734e-01,3.058303211971036273e-01,1.041925077844138431e-01,2.157122639769222805e-01
4.709999999999999742e-01,2.867436348932442258e-01,3.063575663483379397e-01,5.946445906101423262e-02
4.719999999999999751e-01,-9.749332405020726122e-02,1.293810140899262495e-01,-1.749682980949043287e-01
4.729999999999999760e-01,-3.664016428396656422e-01,-2.058791680578203609e-01,-1.895059796634445126e-01
4.739999999999999769e-01,-1.734426531430702800e-01,-2.749451536694891285e-01,4.082702660250001059e-03
4.749999999999999778e-01,2.296790856609698950e-01,1.388142295498463741e-02,2.132113551881464064e-01
4.759999999999999787e-01,3.564507191462832902e-01,3.000899945911317812e-01,1.362733811406615647e-01
4.769999999999999796e-01,3.402004742452740399e-02,1.776093107499064905e-01,-9.402879249910793547e-02
4.779999999999999805e-01,-3.256433391033202729e-01,-1.639414570947741179e-01,-2.237180261018292815e-01
4.789999999999999813e-01,-2.520670363040709017e-01,-2.828725473671779844e-01,-6.191955233639401951e-02
4.799999999999999822e-01,1.209248319915608993e-01,-5.907649149474590577e-02,1.591700355998499627e-01
4.809999999999999831e-01,3.682484637115113757e-01,2.784426555772190337e-01,1.863641472253214915e-01
4.819999999999999840e-01,1.397087102806131576e-01,2.328974037961349663e-01,-5.075135988676895971e-02
4.829999999999999849e-01,-2.707745412060219015e-01,-9.272199383908853731e-02,-2.216329819970390969e-01
4.839999999999999858e-01,-3.557201062102288147e-01,-2.916990572232913137e-01,-1.297149593048885496e-01
4.849999999999999867e-01,6.708113856731836439e-03,-1.425325235952341618e-01,1.147119285399657435e-01
4.859999999999999876e-01,3.499947549118639367e-01,1.987049189527005655e-01,2.163628963442504327e-01
4.869999999999999885e-01,2.468413926262914559e-01,2.800182653473050620e-01,8.089180691144713664e-02
4.879999999999999893e-01,-1.738880417892383901e-01,-7.125195397675082067e-03,-1.571499119121965438e-01
4.889999999999999902e-01,-3.626574467882984210e-01,-2.831653452060150511e-01,-1.919583756802546726e-01
4.899999999999999911e-01,-9.630129324901641474e-02,-1.814933986121996523e-01,4.032247255707945705e-02
4.909999999999999920e-01,2.893096088509626296e-01,1.272729012533884430e-01,1.920529130772435089e-01
4.919999999999999929e-01,3.263831760654024028e-01,2.944958336551122269e-01,1.504294621587962122e-01
4.929999999999999938e-01,-4.418246336149792008e-02,6.475835215498421116e-02,-1.217537506086796145e-01
4.939999999999999947e-01,-3.584150045527287332e-01,-2.357626052211521106e-01,-2.244800844216531810e-01
4.949999999999999956e-01,-2.096592123873929625e-01,-2.582448342070721159e-01,-5.398117099564495730e-02
4.959999999999999964e-01,2.139074944420006341e-01,5.713289330273760291e-02,1.785446297189779430e-01
4.969999999999999973e-01,3.617340737363478609e-01,2.992009439265608806e-01,1.921556686623483445e-01
4.979999999999999982e-01,8.121692543237095385e-02,1.393739030183876182e-01,-4.057860361557368706e-02
4.989999999999999991e-01,-2.992967442601156547e-01,-1.878324714667083395e-01,-2.282598369524517778e-01
5.000000000000000000e-01,-2.866870058208083605e-01,-2.640947798848395922e-01,-1.466575376492548766e-01
5.010000000000000009e-01,7.739254342746032522e-02,1.957191060305117289e-03,1.207162158718127210e-01
5.020000000000000018e-01,3.710544478661356171e-01,2.637330264056241269e-01,2.239725111917612310e-01
5.030000000000000027e-01,1.915978066692256288e-01,2.086705113527402844e-01,7.445473787017044265e-02
5.040000000000000036e-01,-2.417172503668520434e-01,-1.316277225048951283e-01,-1.785806792872670912e-01
5.050000000000000044e-01,-3.389807422884753563e-01,-2.875477447256785113e-01,-1.931516201132825183e-01
5.060000000000000053e-01,-4.080633185109580618e-02,-1.037128070183996886e-01,3.122930368346648125e-02
5.070000000000000062e-01,3.317613499293194379e-01,2.303197710086148098e-01,2.143371348692193201e-01
5.080000000000000071e-01,2.920795839201849042e-01,2.377956137234046308e-01,1.549664146594149361e-01
5.090000000000000080e-01,-1.289975892909774324e-01,-4.184330505878214312e-02,-1.007594138761801067e-01
5.100000000000000089e-01,-3.653411485669405545e-01,-2.829469147927273776e-01,-2.235200584641837407e-01
5.110000000000000098e-01,-1.499232056935062007e-01,-1.664459614643212237e-01,-4.752584218041199654e-02
5.120000000000000107e-01,2.569220803384824614e-01,1.787800427351168842e-01,1.836179532103340561e-01
5.130000000000000115e-01,3.529592532703912378e-01,2.775927304865440925e-01,1.835042560366634268e-01
5.140000000000000124e-01,-1.892133575577259127e-02,3.350997063407238491e-02,-1.197927834700138368e-02
5.150000000000000133e-01,-3.586067204559021393e-01,-2.697169176256672962e-01,-2.082666106145150409e-01
5.160000000000000142e-01,-2.498944661958280578e-01,-2.341551487780446916e-01,-1.316212223393429248e-01
5.170000000000000151e-01,1.646466771805049634e-01,8.543288838746544711e-02,1.166075384340782284e-01
5.180000000000000160e-01,3.702836297969150370e-01,2.828578926445013964e-01,2.149070140472119084e-01
5.190000000000000169e-01,9.709073954559850617e-02,1.015180187167677300e-01,4.779347004965887186e-02
5.200000000000000178e-01,-3.132676364970959360e-01,-2.195082517455513860e-01,-1.792523544376324607e-01
5.210000000000000187e-01,-3.065586174674226339e-01,-2.640509950165462749e-01,-1.694833365875499653e-01
5.220000000000000195e-01,2.964052722124981692e-02,2.567818469182700167e-02,4.924389749429797930e-02
5.230000000000000204e-01,3.586842788474451371e-01,2.932239451636095562e-01,2.072523130248037637e-01
5.240000000000000213e-01,1.948417626708722206e-01,1.715283970597977770e-01,1.251895997190190513e-01
5.250000000000000222e-01,-1.937617504635855137e-01,-1.271963406904058624e-01,-1.008302853143694527e-01
5.260000000000000231e-01,-3.556349459899683652e-01,-3.088392500343047353e-01,-1.971313152405414215e-01
5.270000000000000240e-01,-6.241945439051022060e-02,-3.235656285926824527e-02,-4.513604002100019691e-02
5.280000000000000249e-01,3.015869831345372454e-01,2.516817599544309836e-01,1.760686959499471460e-01
5.290000000000000258e-01,2.872280170755603934e-01,2.384545146451864106e-01,1.863055746466574791e-01
5.300000000000000266e-01,-7.874218389499046400e-02,-1.036504261508325447e-01,-2.978089773376280114e-02
5.310000000000000275e-01,-3.574580858041528919e-01,-2.841070996565851492e-01,-2.166340459389665685e-01
5.320000000000000284e-01,-1.910074900044009261e-01,-1.312452155511095730e-01,-1.307191346734723481e-01
5.330000000000000293e-01,2.352002182609792824e-01,1.990674522550754111e-01,1.178754882341877946e-01
5.340000000000000302e-01,3.567701502764973331e-01,2.646244312096058815e-01,2.258691115587563858e-01
5.350000000000000311e-01,2.397540622602064436e-02,-4.111834448157810750e-04,4.480234813575206809e-02
5.360000000000000320e-01,-3.115347950628991058e-01,-2.625206696414151275e-01,-1.900319261451338948e-01
5.370000000000000329e-01,-2.676048411951318928e-01,-1.835121133606788246e-01,-1.820739945653925274e-01
5.380000000000000338e-01,1.306834360663816919e-01,1.333451613813121106e-01,3.373323755345639802e-02
5.390000000000000346e-01,3.643784768063070834e-01,2.843617748083642760e-01,2.164720002826014955e-01
5.400000000000000355e-01,1.256754428652171185e-01,5.425996678962923675e-02,1.091381948963565524e-01
5.410000000000000364e-01,-2.835456619692796054e-01,-2.552095640793065057e-01,-1.412650366430434068e-01
5.420000000000000373e-01,-3.501590007202645127e-01,-2.423928137080189060e-01,-2.320683457587801313e-01
5.430000000000000382e-01,1.984318568681679371e-02,8.014920533447868201e-02,-7.644372235289607909e-02
5.440000000000000391e-01,3.433006879039199322e-01,2.668925016739524536e-01,2.084358518803442195e-01
5.450000000000000400e-01,2.617154306538694852e-01,1.329086361597794363e-01,1.837381877088072879e-01
5.460000000000000409e-01,-1.712843507129300502e-01,-1.819691698344139130e-01,-3.197413306452176474e-02
5.470000000000000417e-01,-3.508442379240420128e-01,-2.988693810112837967e-01,-2.222591705702110509e-01
5.480000000000000426e-01,-1.266800010888274874e-01,-9.796794457451031210e-03,-1.077154043887488116e-01
5.490000000000000435e-01,2.775623311198831544e-01,2.747911273343521255e-01,1.458845315174307489e-01
5.500000000000000444e-01,3.199349768855374587e-01,2.012289797438321926e-01,2.371590517382088648e-01
5.510000000000000453e-01,-2.962274697657187386e-02,-1.131371989867422795e-01,5.819153466394062779e-02
5.520000000000000462e-01,-3.696734873859076065e-01,-2.990988513954763173e-01,-2.150320846339189296e-01
5.530000000000000471e-01,-2.129734370324225801e-01,-9.991123810676943995e-02,-1.657434814413830948e-01
5.540000000000000480e-01,2.019734821300293304e-01,2.346793418458451574e-01,6.379291861239892725e-02
5.550000000000000488e-01,3.506905852753375852e-01,2.688088941102951268e-01,2.088409437392302059e-01
5.560000000000000497e-01,7.339682402747359224e-02,-4.374584040016603337e-02,1.444360256578192114e-01
5.570000000000000506e-01,-3.071278896858638530e-01,-3.109518637491156534e-01,-1.384475878553516892e-01
5.580000000000000515e-01,-3.005282545860166188e-01,-1.336811936860964611e-01,-2.098361868694109955e-01
5.590000000000000524e-01,7.450732058627038135e-02,1.657004677769247647e-01,-4.362277092903638770e-02
5.600000000000000533e-01,3.704389164019417646e-01,2.825967850829712580e-01,2.168175230817803445e-01
5.610000000000000542e-01,1.949286673163999339e-01,3.285142610509781541e-02,1.799027301684720526e-01
5.620000000000000551e-01,-2.025816070853449502e-01,-2.634666336522994423e-01,-3.009536159203795094e-02
5.629999999999999449e-01,-3.448731797982778624e-01,-2.094636833261935560e-01,-2.202863229370653209e-01
5.639999999999999458e-01,-1.616298884311167736e-02,1.109437277042321646e-01,-1.007211029463380841e-01
5.649999999999999467e-01,3.220916024026590496e-01,2.891013739185508413e-01,1.147713915104753707e-01
5.659999999999999476e-01,2.829375949041054716e-01,1.164906053525768814e-01,2.189735224863230967e-01
5.669999999999999485e-01,-1.161260670667024070e-01,-2.007559955292971265e-01,3.913849452367419712e-02
5.679999999999999494e-01,-3.656402546281607435e-01,-2.766782561506332394e-01,-1.830328820473993701e-01
5.689999999999999503e-01,-1.520303026198783214e-01,3.616439215831636356e-02,-1.878112166304081176e-01
5.699999999999999512e-01,2.696257876001721954e-01,2.873504458193275601e-01,5.198437948736640141e-02
5.709999999999999520e-01,3.531923038992690889e-01,1.832236445583166340e-01,2.114493508122761156e-01
5.719999999999999529e-01,-5.390090481127959680e-03,-1.491805176412750178e-01,1.241965844330749497e-01
5.729999999999999538e-01,-3.405122101178310601e-01,-2.746671626448842773e-01,-1.140721079476644667e-01
5.739999999999999547e-01,-2.313016009795219596e-01,-6.102949515067472575e-02,-2.243306722020174671e-01
5.749999999999999556e-01,1.615721152356538182e-01,2.585792491067224752e-01,-3.836176796314999526e-02
5.759999999999999565e-01,3.586826168284448224e-01,2.334768647591442536e-01,1.919784753504721053e-01
5.769999999999999574e-01,9.517348555606444660e-02,-8.292288978173653624e-02,1.711039529814567806e-01
5.779999999999999583e-01,-2.862252393119071869e-01,-2.865345302923207882e-01,-5.474242447092676073e-02
5.789999999999999591e-01,-3.324221722072568386e-01,-1.116977247241913856e-01,-2.205126276580316735e-01
5.799999999999999600e-01,4.271898819033290162e-02,1.943852637069694855e-01,-1.026131205866714080e-01
5.809999999999999609e-01,3.599030550417835483e-01,2.846634846530649021e-01,1.220109531813788201e-01
5.819999999999999618e-01,2.241162120045629702e-01,-8.649457383790477849e-03,2.132309307910133789e-01
5.829999999999999627e-01,-1.830575011659891227e-01,-2.744973372599668893e-01,2.405115615870389092e-02
5.839999999999999636e-01,-3.694707042717743639e-01,-2.024044967473091761e-01,-1.662483550679003663e-01
5.849999999999999645e-01,-6.935947595890384898e-02,1.500951778312105411e-01,-1.762509610089064982e-01
5.859999999999999654e-01,3.214686340271440401e-01,2.951529944040306441e-01,7.936021437184796745e-02
5.869999999999999662e-01,3.136181964671913014e-01,7.478196440827183933e-02,2.131415010056995074e-01
5.879999999999999671e-01,-7.545796186746656087e-02,-2.541007090868578899e-01,9.611142536425759664e-02
5.889999999999999680e-01,-3.754892052361307742e-01,-2.482026010824623929e-01,-1.368890030031036098e-01
5.899999999999999689e-01,-1.583210641026733534e-01,7.626223835297533948e-02,-2.149100727529715260e-01
5.909999999999999698e-01,2.248069197689377963e-01,2.651919419960435675e-01,-1.360338336226283619e-02
5.919999999999999707e-01,3.508179684439213797e-01,1.363111634139419492e-01,1.817967182531672887e-01
5.929999999999999716e-01,1.609965197300871134e-02,-1.970991173129915675e-01,1.872997479575623514e-01
5.939999999999999725e-01,-3.468124720996199617e-01,-2.908023398690558481e-01,-6.932803468199968955e-02
5.949999999999999734e-01,-2.753417175992058930e-01,-1.599411865825645096e-02,-2.155394068203868307e-01
5.959999999999999742e-01,1.166386988262062413e-01,2.631465059050661637e-01,-1.031680868357603836e-01
5.969999999999999751e-01,3.617226845780371902e-01,2.048465778479704458e-01,1.428354444011800117e-01
5.979999999999999760e-01,1.603233616632647462e-01,-1.374428074870720773e-01,2.044959050854642801e-01
5.989999999999999769e-01,-2.762643139909439216e-01,-2.991663578100194898e-01,2.716743740319463307e-02
5.999999999999999778e-01,-3.576732599230634801e-01,-8.662153559901054900e-02,-2.024744456490037425e-01
6.009999999999999787e-01,5.462466802190002815e-03,2.317085612165667441e-01,-1.781323821123372841e-01
6.019999999999999796e-01,3.475077419121845868e-01,2.767357009167665249e-01,5.263801410146602688e-02
6.029999999999999805e-01,2.513802083690842570e-01,-5.613725587455439814e-02,2.291570999691969202e-01
6.039999999999999813e-01,-1.475585474350211979e-01,-2.871324996184715372e-01,9.262903171494987764e-02
6.049999999999999822e-01,-3.758354355857327356e-01,-1.555298340908740362e-01,-1.418346867477055517e-01
6.059999999999999831e-01,-1.100916719110438396e-01,1.613363386046187953e-01,-2.062254464600938031e-01
6.069999999999999840e-01,2.978937968669770342e-01,2.845229620090432565e-01,-1.666501865061961740e-02
6.079999999999999849e-01,3.234543693943065512e-01,1.649189170343103722e-02,1.759216095376917866e-01
6.089999999999999858e-01,-2.599125928135740879e-02,-2.743367682482938941e-01,1.780472911615072484e-01
6.099999999999999867e-01,-3.588948048941975055e-01,-2.164661194822892487e-01,-5.144901679204869072e-02
6.109999999999999876e-01,-2.107358469805262480e-01,1.175754268555302545e-01,-2.239777705929739682e-01
6.119999999999999885e-01,2.094751329280813701e-01,2.882054684523684407e-01,-1.151297822162415246e-01
6.129999999999999893e-01,3.669328844884295893e-01,9.190467908130356411e-02,1.446040295570470702e-01
6.139999999999999902e-01,6.831008545692564271e-02,-2.322569592684397555e-01,1.996766609296449224e-01
6.149999999999999911e-01,-3.206395459516439006e-01,-2.707114095952574684e-01,2.973281411342672612e-02
6.159999999999999920e-01,-2.977421681740884951e-01,4.186699190152290417e-02,-2.014232998083890225e-01
6.169999999999999929e-01,7.686037383949144430e-02,2.828396323077099206e-01,-1.711322371147421806e-01
6.179999999999999938e-01,3.633654439925959601e-01,1.698536221097269316e-01,6.186553576443443170e-02
6.189999999999999947e-01,1.719431852279131034e-01,-1.550429716285106618e-01,2.172493914946886651e-01
6.199999999999999956e-01,-2.311404722354999941e-01,-3.033137406913602452e-01,1.042573874793636113e-01
6.209999999999999964e-01,-3.366512983656650970e-01,-5.488557490349282864e-02,-1.422663134959926690e-01
6.219999999999999973e-01,-3.723092683627437366e-02,2.733865806616977423e-01,-2.041871744073018025e-01
6.229999999999999982e-01,3.247547591879149653e-01,2.214774652173934488e-01,-1.598801553739491454e-02
6.239999999999999991e-01,2.884794402569396676e-01,-8.554993235414751207e-02,1.956604042201019744e-01
6.250000000000000000e-01,-1.221138177086999316e-01,-2.969337104838320474e-01,1.771361924856241221e-01
6.260000000000000009e-01,-3.727286820264671952e-01,-1.022407922205058467e-01,-6.361184531462525660e-02
6.270000000000000018e-01,-1.439187579819542762e-01,1.983027137764452885e-01,-2.299330938005094138e-01
6.280000000000000027e-01,2.396153549433594765e-01,2.798244603672677133e-01,-1.059415322026910494e-01
6.290000000000000036e-01,3.337417975855849761e-01,-2.353261991230281430e-02,1.433904785530881465e-01
6.300000000000000044e-01,-1.484283563214560016e-02,-2.777207125428156065e-01,2.058805340620296909e-01
6.310000000000000053e-01,-3.415063690674737251e-01,-1.732924051286919565e-01,1.289316050266827579e-02
6.320000000000000062e-01,-2.628974346618402902e-01,1.289981564832096694e-01,-2.075126299248644945e-01
6.330000000000000071e-01,1.554351014879196136e-01,2.886021824290427307e-01,-1.765115199990400785e-01
6.340000000000000080e-01,3.573304903553676803e-01,7.068447116439842415e-02,6.136250424125725550e-02
6.350000000000000089e-01,1.171478820188245895e-01,-2.376316588761480386e-01,2.202224751159993499e-01
6.360000000000000098e-01,-2.969586060420457141e-01,-2.375696177578499602e-01,1.116848592882000030e-01
6.370000000000000107e-01,-3.166441535111469974e-01,9.561204836928151318e-02,-1.451829141474236529e-01
6.380000000000000115e-01,3.649825693835574703e-02,2.848023835831761108e-01,-2.036579432053229055e-01
6.390000000000000124e-01,3.538740019822418370e-01,1.446478964123465716e-01,-4.746643925979164916e-03
6.400000000000000133e-01,2.264193063042620746e-01,-2.051125805216804654e-01,1.815869896682425211e-01
6.410000000000000142e-01,-1.817792301142626132e-01,-2.563519790240250118e-01,1.651226996915978740e-01
6.420000000000000151e-01,-3.534469886883634393e-01,-9.043356000888074994e-03,-5.939003583642136347e-02
6.430000000000000160e-01,-8.209807674388645837e-02,2.808550630779931279e-01,-2.341426007284686805e-01
6.440000000000000169e-01,2.970251172267919793e-01,2.115033782372822413e-01,-9.156544122305533551e-02
6.450000000000000178e-01,3.017479343681369053e-01,-1.321095750002889146e-01,1.400694335462486229e-01
6.460000000000000187e-01,-9.197578356966154556e-02,-3.031114491850246395e-01,1.977816957548223786e-01
6.470000000000000195e-01,-3.517492497493518444e-01,-8.402390032148893129e-02,2.129068280669812671e-02
6.480000000000000204e-01,-1.859972463019370637e-01,2.405278669920728751e-01,-2.037763673067924941e-01
6.490000000000000213e-01,2.182117530084037582e-01,2.312247521490532753e-01,-1.568352581519669442e-01
6.500000000000000222e-01,3.544107324077766519e-01,-6.493327445706771617e-02,8.217071997244834725e-02
6.510000000000000231e-01,2.761777505552057838e-02,-2.836356509881050592e-01,2.029299231820027860e-01
6.520000000000000240e-01,-3.217979969611758362e-01,-1.730545011975275216e-01,9.588402298036846627e-02
6.530000000000000249e-01,-2.849912353496998896e-01,1.744865138161361684e-01,-1.356950282875743208e-01
6.540000000000000258e-01,1.259386814914270902e-01,2.942981619429594908e-01,-1.916591194349622496e-01
6.550000000000000266e-01,3.600822662091363591e-01,2.299571230260207336e-02,-1.213306655778520482e-02
6.560000000000000275e-01,1.307509915224410180e-01,-2.648619740510020359e-01,2.138485386673966981e-01
6.570000000000000284e-01,-2.496282797976278056e-01,-2.259635568420634844e-01,1.465253433192734711e-01
6.580000000000000293e-01,-3.541268528308374464e-01,1.076409760975416824e-01,-8.133474743074843583e-02
6.590000000000000302e-01,-1.280897109737756667e-02,2.897735129419258260e-01,-2.132982467212855004e-01
6.600000000000000311e-01,3.549040576700861482e-01,1.030192427930498311e-01,-1.071963365543446567e-01
6.610000000000000320e-01,2.584069583169809059e-01,-2.423901140871020377e-01,1.378345865820484462e-01
6.620000000000000329e-01,-1.398232226049420934e-01,-2.490683396613698197e-01,2.108654543002294601e-01
6.630000000000000338e-01,-3.729681015729481852e-01,2.043057875294942982e-02,1.994266388245873739e-02
6.640000000000000346e-01,-1.337249793681049570e-01,2.980828218504577576e-01,-2.173577241262975579e-01
6.650000000000000355e-01,2.803260078314041004e-01,1.617125968832721916e-01,-1.577434604139980601e-01
6.660000000000000364e-01,3.294347446241507327e-01,-1.541995234161563089e-01,7.488180065948400743e-02
6.670000000000000373e-01,-5.071574292582887999e-02,-2.810067445758988036e-01,2.184454839646066959e-01
6.680000000000000382e-01,-3.478077644262101975e-01,-3.111116529904303651e-02,8.907003091861068200e-02
6.690000000000000391e-01,-2.445331366139296692e-01,2.587664072645474156e-01,-1.711806256515628899e-01
6.700000000000000400e-01,1.973358120459150766e-01,2.184893784483784018e-01,-2.204010999142339555e-01
6.710000000000000409e-01,3.433008410262976540e-01,-1.032688298400014359e-01,-1.628204683358397279e-03
6.720000000000000417e-01,6.159961462275540672e-02,-2.942419648472275329e-01,2.040440038199990980e-01
6.730000000000000426e-01,-2.932712274814917031e-01,-1.284272767288962558e-01,1.519999541561489198e-01
6.740000000000000435e-01,-2.991002813428915164e-01,2.158320164690902820e-01,-7.278307225091180943e-02
6.750000000000000444e-01,7.974920036021646008e-02,2.527383762287040425e-01,-2.165618567202352573e-01
6.760000000000000453e-01,3.770529922611680629e-01,-7.864177319696385657e-03,-8.405957238176324509e-02
6.770000000000000462e-01,1.885935662296241433e-01,-2.722272447278834551e-01,1.444092004141016850e-01
6.780000000000000471e-01,-2.160791763806849952e-01,-1.857411048889291705e-01,2.024860128559362316e-01
6.790000000000000480e-01,-3.709015846354803969e-01,1.416775989975304351e-01,4.153501231427206807e-03
6.800000000000000488e-01,-3.155046061614481118e-02,2.887594051930600370e-01,-2.071007640627721691e-01
6.810000000000000497e-01,3.263036246220980541e-01,7.111651681376526812e-02,-1.470009057134966934e-01
6.820000000000000506e-01,2.820549888153307538e-01,-2.508956276383295658e-01,7.713378035510547182e-02
6.830000000000000515e-01,-1.191796018756657305e-01,-2.549720806434370712e-01,2.181422055370441926e-01
6.840000000000000524e-01,-3.589528626342016193e-01,8.554473828455605444e-02,9.603360232979238353e-02
6.850000000000000533e-01,-1.466951792433502377e-01,2.894365602452745878e-01,-1.411879678565366170e-01
6.860000000000000542e-01,2.454399279435070802e-01,1.344558403627635068e-01,-2.074210353940600660e-01
6.870000000000000551e-01,3.388906110711256692e-01,-2.029828802662613230e-01,-7.739399071769963341e-03
6.879999999999999449e-01,1.276283064917056341e-03,-2.629768285934275251e-01,1.932298530599411979e-01
6.889999999999999458e-01,-3.323140820348832181e-01,-1.886111113569185300e-03,1.697949507143476644e-01
6.899999999999999467e-01,-2.585665025497967395e-01,2.754860012433880678e-01,-8.351838007653648865e-02
6.909999999999999476e-01,1.464215439977868960e-01,2.194567583332996397e-01,-2.062125941043439770e-01
6.919999999999999485e-01,3.769910780360850588e-01,-1.303153484142475504e-01,-7.742029727894873814e-02
6.929999999999999494e-01,1.267132700668268108e-01,-2.735691190342969814e-01,1.478587989011594106e-01
6.939999999999999503e-01,-2.903913468701548872e-01,-8.201554786660493479e-02,1.943235794110088066e-01
6.949999999999999512e-01,-3.255266269980771066e-01,2.431620340164301342e-01,-3.133701013208709755e-03
6.959999999999999520e-01,3.547850203839298527e-02,2.592767380447181247e-01,-1.961404277227798143e-01
6.969999999999999529e-01,3.417082359954161652e-01,-6.482574044283323511e-02,-1.455007285227629121e-01
6.979999999999999538e-01,2.405455570362132200e-01,-2.765733558200642594e-01,7.033576349623482660e-02
6.989999999999999547e-01,-1.993824973305354520e-01,-1.491186078222407618e-01,1.958643616542322941e-01
6.999999999999999556e-01,-3.474599766861268813e-01,1.745406412969107146e-01,9.753734623214460608e-02
7.009999999999999565e-01,-8.665380638244414568e-02,2.936493802092352556e-01,-1.420031497382478469e-01
7.019999999999999574e-01,3.121795215111849431e-01,4.064043072482115271e-02,-1.997765722732319504e-01
7.029999999999999583e-01,2.968667413426177015e-01,-2.723837078949542523e-01,1.153367665189872389e-02
7.039999999999999591e-01,-7.235326301419015005e-02,-2.101375173320558232e-01,2.117643825467271923e-01
7.049999999999999600e-01,-3.483227342391677084e-01,1.199448447476209462e-01,1.493357558555881426e-01
7.059999999999999609e-01,-1.967541488130075122e-01,2.906494117093662011e-01,-8.065832240449387347e-02
7.069999999999999618e-01,1.984775546628256004e-01,8.261462352072536375e-02,-2.331326289078902991e-01
7.079999999999999627e-01,3.573937732692375469e-01,-2.076522273673526986e-01,-8.342760522680038593e-02
7.089999999999999636e-01,4.403767117938469505e-02,-2.533889992711038097e-01,1.688548869589173718e-01
7.099999999999999645e-01,-3.376021251048942906e-01,3.957996997930304794e-02,1.899493035158636711e-01
7.109999999999999654e-01,-2.842441145686101511e-01,2.752558903283838787e-01,-1.387666965883231629e-02
7.119999999999999662e-01,1.209437863960490522e-01,1.755197309865041688e-01,-2.025896395249717485e-01
7.129999999999999671e-01,3.559277780005329905e-01,-1.783604428035475142e-01,-1.707213128817890446e-01
7.139999999999999680e-01,1.686343228765164737e-01,-2.785649731110789173e-01,1.128401084865535697e-01
7.149999999999999689e-01,-2.427414022848399522e-01,-3.814599187414590559e-02,2.186326795191567141e-01
7.159999999999999698e-01,-3.479177350370778465e-01,2.762780027827448359e-01,6.430037888336354035e-02
7.169999999999999707e-01,-2.431177310122497118e-02,2.467096294921630184e-01,-1.621680054924518610e-01
7.179999999999999716e-01,3.554419679548677102e-01,-9.152211524817766009e-02,-1.995495545241068869e-01
7.189999999999999725e-01,2.741370786302289586e-01,-2.953973873386013804e-01,2.231693469945843222e-02
7.199999999999999734e-01,-1.436208150466070366e-01,-1.343153696273347297e-01,2.178554621917991041e-01
7.209999999999999742e-01,-3.780944238648389355e-01,2.147052846436804940e-01,1.532736868361996574e-01
7.219999999999999751e-01,-1.091823527212096162e-01,2.577078462153865046e-01,-1.110450763217478709e-01
7.229999999999999760e-01,2.709536377234496030e-01,-3.587144476079083544e-02,-2.348062235929725128e-01
7.239999999999999769e-01,3.307144266415337208e-01,-2.829775775165476182e-01,-9.601631980215652451e-02
7.249999999999999778e-01,-2.936463725603016828e-02,-1.624160283310153163e-01,1.726914886427774187e-01
7.259999999999999787e-01,-3.547609784319177284e-01,1.640388104793367996e-01,2.036594259063534140e-01
7.269999999999999796e-01,-2.404279139871011439e-01,2.976044318576950287e-01,-1.116606661536116360e-02
7.279999999999999805e-01,1.929431655600051254e-01,5.969438602829441054e-02,-2.126346986980574283e-01
7.289999999999999813e-01,3.533669666117096875e-01,-2.199494842115956028e-01,-1.403192858590653347e-01
7.299999999999999822e-01,7.351590209512486040e-02,-2.352274994791814233e-01,1.024123317601921268e-01
7.309999999999999831e-01,-2.781654261296971353e-01,6.945570891229181643e-02,2.089714496818834699e-01
7.319999999999999840e-01,-3.167485175684405241e-01,2.955661897390963744e-01,7.262865482028101061e-02
7.329999999999999849e-01,8.111818252073046964e-02,1.315314409105891036e-01,-1.668242201856565965e-01
7.339999999999999858e-01,3.517001779010777707e-01,-1.955878586337239378e-01,-1.873196549323911941e-01
7.349999999999999867e-01,1.979704739444180517e-01,-2.870366582330592387e-01,2.107642473589983745e-02
7.359999999999999876e-01,-2.210127068366439240e-01,-1.327533581371070914e-02,1.960946020060685135e-01
7.369999999999999885e-01,-3.634173623483940019e-01,2.706028299619784305e-01,1.365915275141924845e-01
7.379999999999999893e-01,-4.580685197855256102e-02,2.146444224339619511e-01,-7.602549200678512809e-02
7.389999999999999902e-01,3.176708330786753298e-01,-1.247613700701911271e-01,-2.247232082839055733e-01
7.399999999999999911e-01,2.782696905524040809e-01,-2.849822430140938612e-01,-6.022169325532841094e-02
7.409999999999999920e-01,-1.134932356584387458e-01,-7.181558993121399392e-02,1.728525701299133688e-01
7.419999999999999929e-01,-3.772037500015122391e-01,2.440009731685999494e-01,2.097647563714912233e-01
7.429999999999999938e-01,-1.747089374729019484e-01,2.337712001504408110e-01,-3.968998129118458951e-02
7.439999999999999947e-01,2.449325659094075125e-01,-4.359100326734554470e-02,-1.971865424440623349e-01
7.449999999999999956e-01,3.553592831489009729e-01,-2.760305747449757208e-01,-1.484788527967969562e-01
7.459999999999999964e-01,1.998056822682268280e-02,-1.443287073681696897e-01,9.158592724706648980e-02
7.469999999999999973e-01,-3.429866820250804249e-01,1.944252795009039914e-01,2.200832320225383498e-01
7.479999999999999982e-01,-2.567802483637700584e-01,2.962711814953964407e-01,5.499609433506510298e-02
7.489999999999999991e-01,1.419104604327906527e-01,3.244840127660529594e-02,-1.651348121121129775e-01
7.500000000000000000e-01,3.816660125362492662e-01,-2.670918409835619234e-01,-1.823482981619338750e-01
7.510000000000000009e-01,1.110450130831628496e-01,-2.250066226075807529e-01,1.357478729654435640e-02
7.520000000000000018e-01,-2.682652129287949050e-01,1.211363136566619286e-01,2.192686237068355581e-01
7.530000000000000027e-01,-3.291980927212952435e-01,2.857668230243114449e-01,1.259187565848106372e-01
7.540000000000000036e-01,2.893463972522125269e-02,1.010161624611669445e-01,-1.081046616470488497e-01
7.550000000000000044e-01,3.596188012470754036e-01,-2.293733567832669518e-01,-2.054623654926463205e-01
7.560000000000000053e-01,2.349193791908013307e-01,-2.545095979252290364e-01,-5.931054573041874556e-02
7.570000000000000062e-01,-1.850715331083466475e-01,5.567142062838335848e-02,1.597133474784004914e-01
7.580000000000000071e-01,-3.565808099841404899e-01,2.866668519970730356e-01,1.931338044936738441e-01
7.590000000000000080e-01,-7.972832466588973543e-02,1.795440901997407968e-01,-1.226572561716108775e-02
7.600000000000000089e-01,2.865295168994293484e-01,-1.583821266790436388e-01,-2.072300599660263365e-01
7.610000000000000098e-01,3.004281341226572311e-01,-2.960911118209959003e-01,-1.504401025596699137e-01
7.620000000000000107e-01,-6.715043674886973790e-02,-3.104627961498687000e-02,1.175627830854430872e-01
7.630000000000000115e-01,-3.700989462416667819e-01,2.518780791387945639e-01,2.069013290603004540e-01
7.640000000000000124e-01,-2.139885588780063852e-01,1.944699238537394848e-01,5.658785483793585258e-02
7.650000000000000133e-01,2.101884729455303080e-01,-8.983262364743922757e-02,-1.696609936805540397e-01
7.660000000000000142e-01,3.555567952976472768e-01,-2.887965138177115976e-01,-1.895139773232620284e-01
7.670000000000000151e-01,5.563719078141673990e-02,-1.254672990741957095e-01,2.386821305750540592e-02
7.680000000000000160e-01,-3.106505586297883537e-01,2.177877039007636850e-01,2.056321393209445403e-01
7.690000000000000169e-01,-2.687315448421394581e-01,2.613105215665084691e-01,1.387930096801744118e-01
7.700000000000000178e-01,9.688125256474033886e-02,-2.375436358945128001e-02,-9.901723035242926407e-02
7.710000000000000187e-01,3.843254783508004979e-01,-2.805240818664408997e-01,-2.323671865477590637e-01
7.720000000000000195e-01,1.325937973388146840e-01,-1.916867525644294357e-01,-5.076673050181199770e-02
7.730000000000000204e-01,-2.325866624171290808e-01,1.356410101518631395e-01,1.805498016643632964e-01
7.740000000000000213e-01,-3.524298754107588194e-01,2.721291070711143734e-01,1.933782778639568656e-01
7.750000000000000222e-01,-1.267691178443118398e-02,5.384918822841524427e-02,-2.944317475972325557e-02
7.760000000000000231e-01,3.193595201692481789e-01,-2.599957786231004153e-01,-2.070489498731566125e-01
7.770000000000000240e-01,2.591773107998496251e-01,-2.492646471854773615e-01,-1.467744475476233379e-01
7.780000000000000249e-01,-1.545763081250906557e-01,8.924529024501526298e-02,1.027839099059322109e-01
7.790000000000000258e-01,-3.612946515110655454e-01,2.693725689808573742e-01,2.100110527571421859e-01
7.800000000000000266e-01,-1.444600834066533945e-01,1.231369034966671300e-01,5.438683027520559848e-02
7.810000000000000275e-01,2.644847207670045219e-01,-2.007088488368313217e-01,-1.785116042325367025e-01
7.820000000000000284e-01,3.533958231473245393e-01,-2.821922882194636273e-01,-1.649504825475936742e-01
7.830000000000000293e-01,-3.503147627456706936e-02,4.096809682249460786e-03,2.135771659637931627e-02
7.840000000000000302e-01,-3.716330426496785022e-01,2.701865026282435078e-01,2.340585946268469719e-01
7.850000000000000311e-01,-2.300659657538420277e-01,2.167191933275843807e-01,1.357850880528616022e-01
7.860000000000000320e-01,1.697110387822968747e-01,-1.239285375448916510e-01,-1.070276417896099952e-01
7.870000000000000329e-01,3.623988864994252546e-01,-3.022496699720366720e-01,-1.951878087152806029e-01
7.880000000000000338e-01,9.757681896832504087e-02,-7.926822950333074769e-02,-6.467706630981530369e-02
7.890000000000000346e-01,-2.983651700496277037e-01,2.458678900955492408e-01,1.824192012211039993e-01
7.900000000000000355e-01,-2.909541787774543864e-01,2.385006817386784439e-01,1.771130552994091001e-01
7.910000000000000364e-01,6.364073228967825901e-02,-6.776680788619295071e-02,-4.383609788768309812e-02
7.920000000000000373e-01,3.491121537419691334e-01,-2.899577940484361904e-01,-2.072868385539979041e-01
7.930000000000000382e-01,2.127662241533787024e-01,-1.547088215996432481e-01,-1.325774598782799019e-01
7.940000000000000391e-01,-2.116291858937414117e-01,1.891026335615594856e-01,1.104728361825038918e-01
7.950000000000000400e-01,-3.463158691697356129e-01,2.888900603083246477e-01,2.377987676060830946e-01
7.960000000000000409e-01,-4.726449384795450986e-02,5.824580070876888768e-03,3.779134500878116726e-02
7.970000000000000417e-01,3.206543688564442718e-01,-2.718171994050185836e-01,-1.820615809087170744e-01
7.980000000000000426e-01,2.727388782837717462e-01,-2.023907281892742549e-01,-1.892029252042471688e-01
7.990000000000000435e-01,-1.078275770388776311e-01,1.102284482960188133e-01,2.992929794222924308e-02
8.000000000000000444e-01,-3.555918902207163557e-01,3.149654941815190345e-01,2.220289455554622093e-01
8.010000000000000453e-01,-1.999667778681543662e-01,1.023155879884426744e-01,1.253984441015362772e-01
8.020000000000000462e-01,2.451518035984336652e-01,-2.225358146048693475e-01,-1.298147277646303499e-01
8.030000000000000471e-01,3.340381195869021047e-01,-2.621282516430506471e-01,-2.093817864561345887e-01
8.040000000000000480e-01,-2.350863102570795139e-04,5.089777582650788224e-02,-4.977183523600103854e-02
8.050000000000000488e-01,-3.371757900007731901e-01,2.805985333306624252e-01,2.001849799819291620e-01
8.060000000000000497e-01,-2.757854508806121263e-01,1.679008104293640002e-01,1.919539050678520653e-01
8.070000000000000506e-01,1.774872601867966138e-01,-1.740466839005397337e-01,-4.568699135645236387e-02
8.080000000000000515e-01,3.773290407322286710e-01,-2.873627229437477060e-01,-2.058949745808454079e-01
8.090000000000000524e-01,1.426251671510170016e-01,-2.914410374200860840e-02,-1.350202643329949104e-01
8.100000000000000533e-01,-2.635417364010054220e-01,2.520836405834254168e-01,1.091394803287574072e-01
8.110000000000000542e-01,-3.236520683609191429e-01,2.285592023868983635e-01,2.270692919383876796e-01
8.120000000000000551e-01,3.270869168145674327e-02,-1.214251135787049185e-01,5.146986192910233543e-02
8.129999999999999449e-01,3.573814514162069744e-01,-3.038783184783112046e-01,-1.529265544870042626e-01
8.139999999999999458e-01,2.361394370324697844e-01,-1.100209373632011073e-01,-2.019511957864176532e-01
8.149999999999999467e-01,-1.576808821849313147e-01,2.240286419025463716e-01,3.155250394171345979e-02
8.159999999999999476e-01,-3.627739791987034113e-01,2.817098894621791749e-01,2.186078656996131020e-01
8.169999999999999485e-01,-8.338201553281678058e-02,-7.852166212513337490e-03,1.297466401743938014e-01
8.179999999999999494e-01,3.003575478309278290e-01,-2.688795094775031091e-01,-1.231390183190206045e-01
8.189999999999999503e-01,3.069012134373582668e-01,-1.746175128825798450e-01,-2.344585770146920267e-01
8.199999999999999512e-01,-6.109702067345866572e-02,1.507631016928979439e-01,-3.597484692636598869e-02
8.209999999999999520e-01,-3.581132498198710268e-01,2.845029210195394453e-01,1.983504316813292645e-01
8.219999999999999529e-01,-2.107278244439444725e-01,6.099972339443818226e-02,1.806093306500051177e-01
8.229999999999999538e-01,2.239856363761014713e-01,-2.646639679734570927e-01,-2.187977139534967932e-02
8.239999999999999547e-01,3.374991103620450517e-01,-2.317409544441920155e-01,-1.947622967644288550e-01
8.249999999999999556e-01,6.270166236978640117e-02,8.377361962415749708e-02,-1.194504008713088983e-01
8.259999999999999565e-01,-3.036367092468419959e-01,2.882237308389208330e-01,1.155502381537869272e-01
8.269999999999999574e-01,-2.864583838474469291e-01,1.134569064963527468e-01,2.214748775303478356e-01
8.279999999999999583e-01,9.338659979121974319e-02,-2.089808809988372151e-01,5.921031674083035434e-02
8.289999999999999591e-01,3.778588658350521268e-01,-2.864274730531629065e-01,-1.773091457787046299e-01
8.299999999999999600e-01,1.627499139077689949e-01,7.168603171050477773e-04,-1.923725757589954399e-01
8.309999999999999609e-01,-2.335741704055773749e-01,2.895308508407685721e-01,3.493521589133612160e-02
8.319999999999999618e-01,-3.482003340361498611e-01,1.882870590253204468e-01,2.271979897063068077e-01
8.329999999999999627e-01,-2.957351479006686476e-02,-1.388418525428477268e-01,1.375558521225392072e-01
8.339999999999999636e-01,3.445449324124783552e-01,-2.800028412939135625e-01,-1.376713947997085796e-01
8.349999999999999645e-01,2.495707940164454131e-01,-9.801465476158674472e-02,-2.203065359294439640e-01
8.359999999999999654e-01,-1.353903387497983613e-01,2.531924324705625007e-01,-3.282246299981373544e-02
8.369999999999999662e-01,-3.706971549402793276e-01,2.362130958222402877e-01,2.049162576070651387e-01
8.379999999999999671e-01,-1.467268701404493281e-01,-5.283483428331293280e-02,1.632484452755131599e-01
8.389999999999999680e-01,2.801873645618092046e-01,-2.954150701082989272e-01,-4.359038787771956497e-02
8.399999999999999689e-01,3.198365372511111082e-01,-1.441341184902421024e-01,-2.209499464429776905e-01
8.409999999999999698e-01,-2.072689779484675199e-02,1.667569126386893030e-01,-1.087399360971105372e-01
8.419999999999999707e-01,-3.499535755495177813e-01,2.796844742775874137e-01,1.306813154769401186e-01
8.429999999999999716e-01,-2.504029004885087173e-01,2.590232257122838683e-03,2.176408600561628437e-01
8.439999999999999725e-01,1.714751632232087430e-01,-2.776529559772304423e-01,2.213701209022803096e-02
8.449999999999999734e-01,3.795695921351407431e-01,-2.206636869805861378e-01,-1.610155906393733183e-01
8.459999999999999742e-01,1.009688443641232752e-01,1.230165189606980125e-01,-1.756831195506574073e-01
8.469999999999999751e-01,-2.886436286586789857e-01,3.075399867809239240e-01,5.697361775633374981e-02
8.479999999999999760e-01,-3.146270848490114180e-01,9.123974443379660737e-02,2.126287367656323757e-01
8.489999999999999769e-01,5.630126768927665865e-02,-2.332348409739963546e-01,1.205391340465756106e-01
8.499999999999999778e-01,3.566086542738614584e-01,-2.545161404045858111e-01,-1.375275945142221123e-01
8.509999999999999787e-01,2.024866273167283404e-01,2.819680764060289446e-02,-2.292064703880786480e-01
8.519999999999999796e-01,-2.040622306918733198e-01,2.644633916969973408e-01,-4.091969356639336280e-02
8.529999999999999805e-01,-3.634669916022345015e-01,1.604193132638457586e-01,1.841014625262696325e-01
8.539999999999999813e-01,-7.705199376553958923e-02,-1.671571464951209507e-01,1.917485808157456673e-01
8.549999999999999822e-01,2.946557232348322453e-01,-3.024808986762663188e-01,-7.038803756991349192e-02
8.559999999999999831e-01,2.989426974460270281e-01,-3.964596194867732459e-02,-2.234581196858444196e-01
8.569999999999999840e-01,-9.204734316114711323e-02,2.590063733282252367e-01,-1.257618797748054351e-01
8.579999999999999849e-01,-3.689989755015643524e-01,2.395605402759030389e-01,1.562454673122313231e-01
8.589999999999999858e-01,-1.711833145311631443e-01,-9.866508527492531822e-02,2.098697745017872041e-01
8.599999999999999867e-01,2.385358864311158678e-01,-3.191881638485252748e-01,3.046280586017141231e-02
8.609999999999999876e-01,3.633006192689294256e-01,-1.020201917449541917e-01,-1.768337315425436429e-01
8.619999999999999885e-01,6.713455190023893439e-03,1.908275155608362417e-01,-1.785603061141964043e-01
8.629999999999999893e-01,-3.247720322999368414e-01,2.550335492467122878e-01,5.854882478742665791e-02
8.639999999999999902e-01,-2.745517227143452477e-01,-2.794897236318799952e-02,1.891476222405524266e-01
8.649999999999999911e-01,1.218376451767004820e-01,-2.638621519231256207e-01,1.024590262405633834e-01
8.659999999999999920e-01,3.586749881923359529e-01,-1.762596158945764491e-01,-1.219280351596262330e-01
8.669999999999999929e-01,1.573603272603580627e-01,1.651168434746293212e-01,-2.049501501355898703e-01
8.679999999999999938e-01,-2.689367533679023481e-01,2.964394651738255226e-01,-3.582662662386484204e-02
8.689999999999999947e-01,-3.381516411877577566e-01,5.000707392855321259e-02,2.014734929646770090e-01
8.699999999999999956e-01,6.882550342896857909e-03,-2.708775839346256875e-01,1.892981394740910761e-01
8.709999999999999964e-01,3.559884920716984147e-01,-2.321635891993511780e-01,-5.351165976756006026e-02
8.719999999999999973e-01,2.297051504346205864e-01,8.758497259080585962e-02,-2.066233835868417634e-01
8.729999999999999982e-01,-1.488349389010893697e-01,2.917552230392033707e-01,-1.085642028954831168e-01
8.739999999999999991e-01,-3.556455454621445522e-01,1.176846211684052096e-01,1.362973877566747982e-01
8.750000000000000000e-01,-1.015441767920781391e-01,-2.011829162970564799e-01,2.135880076495609847e-01
8.760000000000000009e-01,2.881048390764828215e-01,-2.633022909054284488e-01,2.719474744002612840e-02
8.770000000000000018e-01,3.143567461778327132e-01,1.690677314934627140e-02,-1.935230193185442094e-01
8.780000000000000027e-01,-4.765991047995936369e-02,2.742860986011517732e-01,-1.800746309748004481e-01
8.790000000000000036e-01,-3.651582314307676991e-01,1.843569844976602479e-01,6.911346279458227548e-02
8.800000000000000044e-01,-2.122930767896643867e-01,-1.260510624813773461e-01,2.132475055129205155e-01
8.810000000000000053e-01,1.985867274359663648e-01,-2.856293384459985818e-01,9.851439947509031680e-02
8.820000000000000062e-01,3.611254701447006443e-01,-7.999093695867787179e-02,-1.109294709062761813e-01
8.830000000000000071e-01,6.446611653890094162e-02,2.429094657975350846e-01,-2.150930728805395264e-01
8.840000000000000080e-01,-3.277769554097282323e-01,2.423447026542371596e-01,-2.675529323680110247e-02
8.850000000000000089e-01,-2.897344894473183885e-01,-4.970545906468065711e-02,1.839000214912018261e-01
8.860000000000000098e-01,9.678043930448700094e-02,-2.871659928893340319e-01,1.664865507311205362e-01
8.870000000000000107e-01,3.619554344043737770e-01,-1.402650062410557841e-01,-6.687872238716495443e-02
8.880000000000000115e-01,1.611660903083774743e-01,1.892870239718506542e-01,-1.962338216132490376e-01
8.890000000000000124e-01,-2.173853371570622917e-01,2.838946913993721233e-01,-1.086793388946235284e-01
8.900000000000000133e-01,-3.430074385378359403e-01,1.116659017356003841e-02,1.204758761076847734e-01
8.910000000000000142e-01,-1.194585202910342786e-02,-2.532752851466790189e-01,2.040974107780921809e-01
8.920000000000000151e-01,3.202697073324877741e-01,-2.201110311583624468e-01,2.457246066792379349e-02
8.930000000000000160e-01,2.694008631712691004e-01,1.135610692703637459e-01,-1.994205516483500695e-01
8.940000000000000169e-01,-1.420644927820566283e-01,2.977097542214671155e-01,-1.808529925877706557e-01
8.950000000000000178e-01,-3.570055125904560422e-01,7.347646633052061504e-02,4.458509550682349110e-02
8.960000000000000187e-01,-1.375315238862794276e-01,-2.283090870844890208e-01,1.947765887236776738e-01
8.970000000000000195e-01,2.576917621264717129e-01,-2.641264178408186392e-01,9.695690431021408706e-02
8.980000000000000204e-01,3.307497346443417086e-01,3.435035745458967643e-02,-1.455794355623886427e-01
8.990000000000000213e-01,-3.176791069580413036e-03,2.826662886415018949e-01,-1.989538695630856391e-01
9.000000000000000222e-01,-3.397285011819743961e-01,1.551554676540209954e-01,-2.868368988213418694e-02
9.010000000000000231e-01,-2.408530686316243952e-01,-1.490011080672540844e-01,1.978744796988012034e-01
9.020000000000000240e-01,1.655413118786676352e-01,-2.687480322208579686e-01,1.554586802156114056e-01
9.030000000000000249e-01,3.694411092000350338e-01,-2.700024226532848556e-02,-6.047139586599832584e-02
9.040000000000000258e-01,1.011256331154004873e-01,2.593804223221778393e-01,-2.306059159379915402e-01
9.050000000000000266e-01,-3.087917979667346713e-01,2.144638769109345755e-01,-9.126315911307480988e-02
9.060000000000000275e-01,-3.154182319754527675e-01,-1.137549932372645400e-01,1.561089507689774614e-01
9.070000000000000284e-01,6.442804860039642867e-02,-2.983457616890839992e-01,1.989014944389826678e-01
9.080000000000000293e-01,3.650087157152986372e-01,-1.263764407264298673e-01,1.897321012779254468e-02
9.090000000000000302e-01,2.127603648753834675e-01,2.173901849635100358e-01,-1.856070196839021968e-01
9.100000000000000311e-01,-1.931076306375383300e-01,2.719237011852068675e-01,-1.802043408513926692e-01
9.110000000000000320e-01,-3.468299729415181276e-01,-2.352537265982604722e-02,5.842175176692697425e-02
9.120000000000000329e-01,-6.552085590172349039e-02,-2.877258196120337508e-01,2.109701674548614125e-01
9.130000000000000338e-01,3.245222881185146901e-01,-1.815629239965020070e-01,1.013549580489583463e-01
9.140000000000000346e-01,2.988688253200264544e-01,1.572034795232785942e-01,-1.408698102916316475e-01
9.150000000000000355e-01,-8.926399082858728351e-02,2.799328093593319022e-01,-2.146598984572846980e-01
9.160000000000000364e-01,-3.784781445819346279e-01,6.925956406163297219e-02,-2.467031199431726773e-02
9.170000000000000373e-01,-1.790437356419657955e-01,-2.405228004765724015e-01,1.686831595950724350e-01
9.180000000000000382e-01,2.182790181498620585e-01,-2.297516680841587000e-01,1.679903316112295042e-01
9.190000000000000391e-01,3.281845190390576539e-01,7.590051977777310943e-02,-7.907957139292647042e-02
9.200000000000000400e-01,3.934654369166147581e-02,3.003243304988120754e-01,-2.167789383872889553e-01
9.210000000000000409e-01,-3.459623977712092957e-01,1.385441455582825943e-01,-9.910596599347656910e-02
9.220000000000000417e-01,-2.712337575229274989e-01,-2.038345935672118414e-01,1.441916852850674280e-01
9.230000000000000426e-01,1.232399623343609224e-01,-2.913086880176698479e-01,2.065548161431945695e-01
9.240000000000000435e-01,3.429959447959862184e-01,1.624997899199863080e-02,1.972580024650173042e-02
9.250000000000000444e-01,1.371205074040575123e-01,2.762183303810026858e-01,-2.132442309711252426e-01
9.260000000000000453e-01,-2.433489983602289686e-01,2.125713868855300670e-01,-1.578549365552163186e-01
9.270000000000000462e-01,-3.425863480538945405e-01,-1.239145435419519298e-01,7.145223337977044120e-02
9.280000000000000471e-01,1.144189707414670042e-02,-3.021894996181942461e-01,2.107062705125273550e-01
9.290000000000000480e-01,3.431726618520230532e-01,-7.896211562451867227e-02,9.032553401423507045e-02
9.300000000000000488e-01,2.455833788593704270e-01,2.220451040640697982e-01,-1.511243639216804935e-01
9.310000000000000497e-01,-1.513186519224342386e-01,2.535976932518158034e-01,-1.957113151850178034e-01
9.320000000000000506e-01,-3.636691154110227031e-01,-5.953514534592601465e-02,-4.816597781649096729e-03
9.330000000000000515e-01,-1.257694500534937421e-01,-2.881764006873441253e-01,1.925079372335480321e-01
9.340000000000000524e-01,3.119538621527172539e-01,-1.456889520415765860e-01,1.651910215685916949e-01
9.350000000000000533e-01,3.124979247116359549e-01,1.882146912546154849e-01,-8.015075689979180018e-02
9.360000000000000542e-01,-6.561859531632133202e-02,2.575228003479183014e-01,-2.038351364435872504e-01
9.370000000000000551e-01,-3.377047180137899285e-01,4.479838052252090551e-03,-9.033067534395765319e-02
9.379999999999999449e-01,-2.085705391450953794e-01,-2.689275980716834824e-01,1.503710501369816543e-01
9.389999999999999458e-01,2.174706830854875594e-01,-1.911409834201164282e-01,1.933536173439886208e-01
9.399999999999999467e-01,3.514464173068156949e-01,1.172054846248224563e-01,2.561126921725549992e-03
9.409999999999999476e-01,4.146767445225169740e-02,2.813445951984731019e-01,-2.041473927725603321e-01
9.419999999999999485e-01,-3.134282147938943774e-01,8.565742302827808463e-02,-1.487544912693478938e-01
9.429999999999999494e-01,-2.952768860912112769e-01,-2.201659918285737705e-01,7.387521533110225080e-02
9.439999999999999503e-01,8.539579908440803058e-02,-2.491438639171736913e-01,2.240814083820862335e-01
9.449999999999999512e-01,3.692778695624545637e-01,5.928350457626326703e-02,8.538535854375375878e-02
9.459999999999999520e-01,1.732530829916315851e-01,2.917312914241317889e-01,-1.465182248676249188e-01
9.469999999999999529e-01,-2.084350240256369891e-01,1.572112909738483111e-01,-2.097714079425937461e-01
9.479999999999999538e-01,-3.455505929210136440e-01,-1.620782296856891347e-01,-2.126972151894343174e-02
9.489999999999999547e-01,-2.820832258478453078e-02,-2.980464970897480081e-01,1.959434599019548862e-01
9.499999999999999556e-01,3.288959746846791266e-01,-3.057223258300758792e-02,1.588878172905624220e-01
9.509999999999999565e-01,2.781480928902191896e-01,2.487809387604552613e-01,-7.279638298905319327e-02
9.519999999999999574e-01,-1.192963333063953302e-01,2.265276847217097822e-01,-2.189755309148409268e-01
9.529999999999999583e-01,-3.755587324570349717e-01,-1.091643986541212946e-01,-1.084517317448987078e-01
9.539999999999999591e-01,-1.375542234996305069e-01,-2.809107202153689475e-01,1.810383695336555965e-01
9.549999999999999600e-01,2.524995743286689298e-01,-1.119133297539905009e-01,2.080804507168774464e-01
9.559999999999999609e-01,3.180636258230340463e-01,2.219562482132617365e-01,6.417965242736444094e-03
9.569999999999999618e-01,-8.143778565159865909e-03,2.722394654919275681e-01,-1.936895248018647708e-01
9.579999999999999627e-01,-3.642763517561130593e-01,-2.038727150205067382e-02,-1.598215707201504632e-01
9.589999999999999636e-01,-2.403782065437511384e-01,-2.850750607681146742e-01,1.221302911292321547e-01
9.599999999999999645e-01,1.672869364381540658e-01,-1.890985280250942202e-01,2.104111146462599169e-01
9.609999999999999654e-01,3.677285300558464365e-01,1.535417121722081335e-01,8.835824426719068869e-02
9.619999999999999662e-01,1.243302448059405985e-01,2.887819003992044276e-01,-1.445711294698620863e-01
9.629999999999999671e-01,-2.766712076943837473e-01,3.803336504293723663e-02,-2.087126946739506772e-01
9.639999999999999680e-01,-3.132898336396832129e-01,-2.612022933263338786e-01,-2.181188507109391855e-02
9.649999999999999689e-01,4.410093745074831345e-02,-2.591515509053573529e-01,1.970856319449293959e-01
9.659999999999999698e-01,3.649601563241007818e-01,8.726645020428998312e-02,1.748342674283278053e-01
9.669999999999999707e-01,2.494843915904111087e-01,2.893322835957086725e-01,-9.593775886485929327e-02
9.679999999999999716e-01,-1.928604915631811079e-01,1.107606386073165805e-01,-2.170449760434109976e-01
9.689999999999999725e-01,-3.676127474757810987e-01,-2.013716409964188547e-01,-9.429738470315990329e-02
9.699999999999999734e-01,-7.126795596846755010e-02,-2.720485327778003892e-01,1.736795666533683113e-01
9.709999999999999742e-01,3.151885267958663417e-01,-1.488495615203737875e-02,1.988574267201918266e-01
9.719999999999999751e-01,3.104601209476562373e-01,2.815785728332512172e-01,9.585697292104995368e-03
9.729999999999999760e-01,-8.249160646314485090e-02,1.923277824305103523e-01,-2.048431933069587985e-01
9.739999999999999769e-01,-3.561182810603426563e-01,-1.379526194504522296e-01,-1.278961079508000309e-01
9.749999999999999778e-01,-1.981972425372827418e-01,-2.844930787371888758e-01,9.628093116424085718e-02
9.759999999999999787e-01,2.358049141272595128e-01,-8.750980868864163820e-02,2.301036317438876488e-01
9.769999999999999796e-01,3.377141423642134321e-01,2.509114035481099791e-01,8.119255817927284458e-02
9.779999999999999805e-01,3.444406690168579088e-02,2.542543101820770590e-01,-1.473699837796423606e-01
9.789999999999999813e-01,-3.103209743039209711e-01,-4.423302319470333310e-02,-2.070464845026870337e-01
9.799999999999999822e-01,-2.827797688169792489e-01,-2.720335353269354162e-01,-9.477445422179853933e-04
9.809999999999999831e-01,1.483436485009768657e-01,-1.456859186273979090e-01,2.100390815039097081e-01
9.819999999999999840e-01,3.560709840545969729e-01,2.022449267377764426e-01,1.689981160725910203e-01
9.829999999999999849e-01,1.495165851259080969e-01,2.847579040928832628e-01,-1.070183501971467138e-01
9.839999999999999858e-01,-2.813279465945369151e-01,1.210655224098292244e-02,-2.516967509158719585e-01
9.849999999999999867e-01,-3.401160848356795108e-01,-2.838358007078261580e-01,-6.195508535791776489e-02
9.859999999999999876e-01,6.087137323843600650e-03,-1.967114827731173132e-01,1.740850329976997291e-01
9.869999999999999885e-01,3.459922485162703065e-01,1.337374303235818740e-01,2.086936818315427433e-01
9.879999999999999893e-01,2.615643187712022866e-01,2.826219605258858958e-01,-1.183206571962411822e-02
9.889999999999999902e-01,-1.667387714079482386e-01,8.533548631492912651e-02,-2.044599983692965417e-01
9.899999999999999911e-01,-3.723460341960410647e-01,-2.152528021163521432e-01,-1.614927667115111098e-01
9.909999999999999920e-01,-1.187843150718809193e-01,-2.325011650386372974e-01,7.389947042642602826e-02
9.919999999999999929e-01,2.895382372046266251e-01,5.304673058370814459e-02,1.949319918696360288e-01
9.929999999999999938e-01,3.258646311576306465e-01,2.977408560674763560e-01,7.440253428417442638e-02
9.939999999999999947e-01,-2.510757694039030680e-02,1.586243972932176449e-01,-1.785454836883159924e-01
9.949999999999999956e-01,-3.362116690429951538e-01,-1.764651282600563365e-01,-2.050676104139553535e-01
9.959999999999999964e-01,-2.031583361950119182e-01,-2.901434884330196251e-01,7.471824696141496185e-03
9.969999999999999973e-01,1.882454286468459026e-01,-2.771754325124404367e-02,2.118349122650637073e-01
9.979999999999999982e-01,3.720229168814905285e-01,2.810723408991990802e-01,1.423139881007053353e-01
9.989999999999999991e-01,8.298771882790777210e-02,1.965982478668284461e-01,-1.015733372424739711e-01
1.000000000000000000e+00,-3.078931272719943046e-01,-1.143011127785358988e-01,-2.326815826238646245e-01
1.000999999999999890e+00,-2.986581584520011101e-01,-3.033797263271777456e-01,-8.076982439683200177e-02
1.002000000000000002e+00,9.095940151650383498e-02,-1.022518029869600303e-01,1.579556652857912746e-01
1.002999999999999892e+00,3.613942830878451584e-01,2.076372847981470537e-01,1.893155389242053011e-01
1.004000000000000004e+00,1.739208654886260919e-01,2.747441579299945702e-01,-1.957623573674541553e-02
1.004999999999999893e+00,-2.290179703412366652e-01,-1.898509864446500800e-02,-2.048093595204136252e-01
1.006000000000000005e+00,-3.454229502104729232e-01,-2.977868844090980072e-01,-1.233187984174355101e-01
1.006999999999999895e+00,-2.654251175882176711e-02,-1.785051144254314048e-01,1.055521310157185172e-01
1.008000000000000007e+00,3.279051622615920536e-01,1.618858800318408175e-01,1.998543193913131788e-01
1.008999999999999897e+00,2.748683297427350625e-01,2.776526206285995224e-01,7.410410591040676731e-02
1.010000000000000009e+00,-1.260823518525689968e-01,4.947717250494270552e-02,-1.687950677414643830e-01
1.010999999999999899e+00,-3.806098352115074301e-01,-2.193550265067204796e-01,-1.926539924099733569e-01
1.012000000000000011e+00,-1.557818672495279166e-01,-2.224061721584622286e-01,1.445426236558084235e-02
1.012999999999999901e+00,2.494128827286211658e-01,9.526664399512145553e-02,1.986792481137943656e-01
1.014000000000000012e+00,3.361902207322372549e-01,2.921017638465640553e-01,1.360940182349952010e-01
1.014999999999999902e+00,3.095135489428095001e-03,1.175008622222903781e-01,-1.098775531841208880e-01
1.016000000000000014e+00,-3.339244557535889224e-01,-1.950463744849026682e-01,-2.179713053445232196e-01
1.016999999999999904e+00,-2.606410513332809153e-01,-2.788339312729993802e-01,-6.439093064558563950e-02
1.018000000000000016e+00,1.730714878473390561e-01,3.975827365682449953e-03,1.669968728345543885e-01
1.018999999999999906e+00,3.615291287058326475e-01,2.691791141882319272e-01,1.986379195273042242e-01
1.020000000000000018e+00,1.013899877462523941e-01,1.792334251211550600e-01,-2.648543773080113545e-03
1.020999999999999908e+00,-2.844468833554187892e-01,-1.288829747550499505e-01,-2.053292503298592420e-01
1.022000000000000020e+00,-3.083949474915752553e-01,-2.938604056417687405e-01,-1.339377452172844374e-01
1.022999999999999909e+00,3.936210877273572245e-02,-6.968923296150587865e-02,9.600193808789496408e-02
1.024000000000000021e+00,3.592446888704573515e-01,2.352837701668741566e-01,2.289404740199614818e-01
1.024999999999999911e+00,2.051810624851695963e-01,2.510449657727601425e-01,6.936303410434317696e-02
1.026000000000000023e+00,-2.022686060338023395e-01,-7.039145205856907339e-02,-1.561567037817320758e-01
1.026999999999999913e+00,-3.661029775918325235e-01,-2.927380952347009013e-01,-1.947079176496883668e-01
1.028000000000000025e+00,-9.004375973592351756e-02,-1.426580752024780852e-01,3.101807120260418119e-02
1.028999999999999915e+00,3.088849105448551735e-01,1.969296634522391398e-01,1.993677655270903182e-01
1.030000000000000027e+00,3.174893478812096936e-01,2.703905562581154776e-01,1.547686024346247302e-01
1.030999999999999917e+00,-9.300636087064771684e-02,1.152069907453791807e-02,-1.137741746502683032e-01
1.032000000000000028e+00,-3.672806249619711139e-01,-2.729896257170252305e-01,-2.357604292839259041e-01
1.032999999999999918e+00,-1.918141250290914535e-01,-1.958171295575938942e-01,-6.679523439412525521e-02
1.034000000000000030e+00,2.281981410369945118e-01,1.479464961968974257e-01,1.597901697690227996e-01
1.034999999999999920e+00,3.528850964427621695e-01,2.849259048685379159e-01,1.983603662397746825e-01
1.036000000000000032e+00,3.634042941748370781e-02,8.492943479510192684e-02,-2.826854235871497159e-02
1.036999999999999922e+00,-3.260445747174038900e-01,-2.366738956824841755e-01,-2.001438901183265895e-01
1.038000000000000034e+00,-2.710668195308536532e-01,-2.397906897082212885e-01,-1.479303376032583828e-01
1.038999999999999924e+00,1.271001940162126975e-01,3.284214214135504351e-02,9.963287741660246943e-02
1.040000000000000036e+00,3.680021184647867538e-01,3.006463114834134753e-01,2.189121502242276085e-01
1.040999999999999925e+00,1.723752101013378002e-01,1.802055489070027161e-01,6.554757229848984235e-02
1.042000000000000037e+00,-2.616406383381189582e-01,-1.708389028268744170e-01,-1.574178125356266167e-01
1.042999999999999927e+00,-3.390032786377811247e-01,-2.783621916313741562e-01,-2.023353735461267400e-01
1.044000000000000039e+00,3.251308667264944316e-03,-3.003838949675892087e-02,3.073507227874227449e-02
1.044999999999999929e+00,3.387822711141132426e-01,2.759854496749282737e-01,2.270913393625476617e-01
1.046000000000000041e+00,2.588093667960031374e-01,2.262295867461370791e-01,1.393602014325442950e-01
1.046999999999999931e+00,-1.649002908961944569e-01,-9.517312731156790662e-02,-1.063680971726069791e-01
1.048000000000000043e+00,-3.540894988256377274e-01,-3.001840462435521051e-01,-2.187690094111623684e-01
1.048999999999999932e+00,-1.182092282117876425e-01,-9.709331960231479264e-02,-4.572513630349615832e-02
1.050000000000000044e+00,2.916540791080748374e-01,1.985077523305460168e-01,1.867608669961988432e-01
1.050999999999999934e+00,3.046313137919463565e-01,2.684193481331659803e-01,1.780927140702756040e-01
1.052000000000000046e+00,-6.115340936655786624e-02,-1.228961955961445189e-02,-2.242066841978609948e-02
1.052999999999999936e+00,-3.684266388170724382e-01,-2.727051223147682335e-01,-2.154562202758015521e-01
1.054000000000000048e+00,-1.926748183495214373e-01,-1.944171688102627193e-01,-1.300979063983178363e-01
1.054999999999999938e+00,1.921486863602861195e-01,1.488278314755464848e-01,1.146942228989745044e-01
1.056000000000000050e+00,3.523686967036131490e-01,2.917942346889356720e-01,2.179981111201184651e-01
1.056999999999999940e+00,9.444503762317578432e-02,4.031920944788829758e-02,6.506158008560725126e-02
1.058000000000000052e+00,-3.040232430057178137e-01,-2.526071940885505351e-01,-1.663089871956072996e-01
1.058999999999999941e+00,-3.010401200980974412e-01,-2.429560980264762748e-01,-1.960140535880841584e-01
1.060000000000000053e+00,5.371802900302715539e-02,8.533372764038343883e-02,3.250211353437557071e-02
1.060999999999999943e+00,3.743699038215091424e-01,2.711462401610050810e-01,1.891210524606472543e-01
1.062000000000000055e+00,1.942355333879212387e-01,1.239487735324068252e-01,1.294460208445385729e-01
1.062999999999999945e+00,-2.224831746125066623e-01,-2.081359781386024066e-01,-1.225286222781296896e-01
1.064000000000000057e+00,-3.650689320419135964e-01,-2.576283227127397768e-01,-2.145492603339846927e-01
1.064999999999999947e+00,-2.822556429359472999e-02,1.704029865855792580e-02,-4.307232281041146332e-02
1.066000000000000059e+00,3.248720711041970799e-01,2.822366803793628365e-01,1.612227786994837042e-01
1.066999999999999948e+00,2.734887403495699365e-01,1.790737915782012468e-01,1.934672032831289690e-01
1.068000000000000060e+00,-1.400160486168824936e-01,-1.219650923908660034e-01,-4.491252287397222431e-02
1.068999999999999950e+00,-3.617303673159358302e-01,-2.885896928924951976e-01,-1.991482622631299826e-01
1.070000000000000062e+00,-1.498293077950564045e-01,-6.474434036439608020e-02,-1.184089387004816085e-01
1.070999999999999952e+00,2.372792479483768480e-01,2.661260552501890642e-01,1.126743274726545591e-01
1.072000000000000064e+00,3.515279622047330355e-01,2.379513306572767217e-01,2.126805980613139524e-01
1.072999999999999954e+00,1.206981573275364185e-02,-7.503250756597515392e-02,4.429070825326212463e-02
1.074000000000000066e+00,-3.413934137867688512e-01,-2.944515143922060707e-01,-1.758455356473861697e-01
1.074999999999999956e+00,-2.547619277769292978e-01,-1.406201953209133548e-01,-1.783070365626809317e-01
1.076000000000000068e+00,1.619163627679208184e-01,2.009169329717200858e-01,2.973663667989739218e-02
1.076999999999999957e+00,3.673614927419026621e-01,2.828262182199074992e-01,2.318329528163280695e-01
1.078000000000000069e+00,1.356899251597747380e-01,2.139183633112188079e-02,1.211737192995031298e-01
1.078999999999999959e+00,-2.607393848871147335e-01,-2.743391666809337215e-01,-1.060031367646437905e-01
1.080000000000000071e+00,-3.461950973321032965e-01,-2.111377638691424030e-01,-2.215340074927979741e-01
1.080999999999999961e+00,3.978792021720203159e-02,1.307785340007739106e-01,-5.976415828662334090e-02
1.082000000000000073e+00,3.537437497974015299e-01,3.003975270389099284e-01,1.634308002070380128e-01
1.082999999999999963e+00,2.153894198293893336e-01,8.917943555991675320e-02,1.998945055155075257e-01
1.084000000000000075e+00,-1.833106725242162893e-01,-2.326792491873939106e-01,-3.414734317576993694e-02
1.084999999999999964e+00,-3.726342165340121859e-01,-2.638290576321160597e-01,-2.224568636478504169e-01
1.086000000000000076e+00,-8.565805879378450560e-02,4.431877542558330940e-02,-1.240799704786858526e-01
1.086999999999999966e+00,3.279517495682791051e-01,2.869939296312876698e-01,1.353361566357860202e-01
1.088000000000000078e+00,2.913857644945078151e-01,1.554526707223357063e-01,2.279531710766046770e-01
1.088999999999999968e+00,-6.388331456464420299e-02,-1.551432200689246421e-01,4.922637499765779301e-02
1.090000000000000080e+00,-3.650930603130036478e-01,-2.755263499972280261e-01,-1.528250586925719023e-01
1.090999999999999970e+00,-1.992512025961209188e-01,-2.070549887423489901e-02,-1.957691849774021720e-01
1.092000000000000082e+00,2.165525021746055323e-01,2.565779387321149296e-01,2.869720120881300712e-02
1.092999999999999972e+00,3.483555858516333981e-01,2.299190636722944492e-01,2.009588590587030876e-01
1.094000000000000083e+00,3.000728114838579694e-02,-1.204182572830691245e-01,1.220363851067368249e-01
1.094999999999999973e+00,-3.237611216307152429e-01,-2.998869886083833647e-01,-1.113845201190551831e-01
1.096000000000000085e+00,-2.728345218092279034e-01,-1.217753203605189405e-01,-2.300520298726716484e-01
1.096999999999999975e+00,9.622742544572499002e-02,2.106711398863000961e-01,-5.898992203013225799e-02
1.098000000000000087e+00,3.679004690582398651e-01,2.549382234734814401e-01,1.751250895286975140e-01
1.098999999999999977e+00,1.555265630272178456e-01,-4.265918946155226182e-02,1.911675742873241157e-01
1.100000000000000089e+00,-2.400601109637095221e-01,-2.675517835801753397e-01,-4.662745187442206285e-02
1.100999999999999979e+00,-3.268524845294365488e-01,-1.769346103366025436e-01,-2.128064963750752880e-01
1.102000000000000091e+00,-1.029836523507558776e-02,1.574833745188377598e-01,-1.296455686131115226e-01
1.102999999999999980e+00,3.423065678712803872e-01,2.745873840802436905e-01,1.236780860983656416e-01
1.104000000000000092e+00,2.546619378850035198e-01,4.789290655522472628e-02,2.063438682418876902e-01
1.104999999999999982e+00,-1.328607048046258621e-01,-2.522310424311892674e-01,2.228462771607280651e-02
1.106000000000000094e+00,-3.745932395122289482e-01,-2.172521458558474283e-01,-1.734276057513478020e-01
1.106999999999999984e+00,-1.216404716039095751e-01,6.946675267551027932e-02,-1.797462120656333207e-01
1.108000000000000096e+00,2.891368353461410412e-01,3.109340713707821058e-01,4.259078889743543594e-02
1.108999999999999986e+00,3.277707383579879230e-01,1.282977661656406754e-01,2.139647369097953944e-01
1.110000000000000098e+00,-2.979712579008654549e-02,-2.193003978631162532e-01,1.120712428561310287e-01
1.110999999999999988e+00,-3.431606610959375137e-01,-2.494515328810526233e-01,-1.105672346006500023e-01
1.112000000000000099e+00,-2.185964141320338450e-01,1.315332209341423496e-02,-2.282700782764587044e-01
1.112999999999999989e+00,1.882236846787972984e-01,2.834894014384444216e-01,-4.282153279759135650e-02
1.114000000000000101e+00,3.648604599675008830e-01,1.838199661563918730e-01,1.843571882152015284e-01
1.114999999999999991e+00,8.957516886225719288e-02,-1.453760808967733686e-01,1.898234238746230873e-01
1.116000000000000103e+00,-3.128240966990297189e-01,-2.763394406155181837e-01,-3.739486555276326507e-02
1.116999999999999993e+00,-2.920262800573272255e-01,-7.537891284461016583e-02,-2.182715407962662335e-01
1.118000000000000105e+00,8.340831749848155729e-02,2.346551487985359674e-01,-1.400982227358226750e-01
1.118999999999999995e+00,3.731163198495334177e-01,2.451438620789737899e-01,1.139518467918133743e-01
1.120000000000000107e+00,1.964503624700961737e-01,-8.840104069218342187e-02,2.154256179359302636e-01
1.120999999999999996e+00,-2.163411081116872747e-01,-3.175776419079438528e-01,3.386913045491787150e-02
1.122000000000000108e+00,-3.524107606653147928e-01,-1.335488254779556017e-01,-1.855536991655287737e-01
1.122999999999999998e+00,-4.199497443570476829e-02,2.056489081870432889e-01,-1.982320279367892901e-01
1.124000000000000110e+00,3.256946460630488205e-01,2.811528840273939123e-01,3.943446433029967196e-02
1.125000000000000000e+00,2.626602625895154142e-01,2.029573340033491435e-02,2.090765588547788267e-01
1.125999999999999890e+00,-9.665055969698384264e-02,-2.819790918423698556e-01,1.154903168193605612e-01
1.127000000000000002e+00,-3.503542744392643127e-01,-2.112778814204195610e-01,-1.252863505973385028e-01
1.127999999999999892e+00,-1.764061031494718601e-01,1.362149957972036418e-01,-2.177196126619317662e-01
1.129000000000000004e+00,2.495841029409377188e-01,2.932957488294389847e-01,-3.848709450483848993e-02
1.129999999999999893e+00,3.586894849446866096e-01,8.042152800004871704e-02,1.960345271268858214e-01
1.131000000000000005e+00,-6.418665325469199816e-03,-2.386551250713648542e-01,1.983598523276517978e-01
1.131999999999999895e+00,-3.405855077117310725e-01,-2.367453148321804479e-01,-4.972221512681827826e-02
1.133000000000000007e+00,-2.533626893915477130e-01,4.760581524661938735e-02,-2.132019462773220853e-01
1.133999999999999897e+00,1.479002477307123642e-01,2.839193635599907006e-01,-1.288563708226108107e-01
1.135000000000000009e+00,3.664062569285821414e-01,1.408583717517845613e-01,1.137014672726038150e-01
1.135999999999999899e+00,1.243366806444460432e-01,-1.823224935217089837e-01,2.238053241642757596e-01
1.137000000000000011e+00,-2.669094700736995840e-01,-2.740945911689014469e-01,5.443014234298231002e-02
1.137999999999999901e+00,-3.217056124224357272e-01,-3.277945332768696790e-02,-1.908209899915048191e-01
1.139000000000000012e+00,3.613024970181216017e-02,2.607516392480041523e-01,-1.769517370667328948e-01
1.139999999999999902e+00,3.658913131086735659e-01,1.904225333682234012e-01,6.533538472958379251e-02
1.141000000000000014e+00,2.178312552693883464e-01,-7.807693166421260378e-02,2.216839346914494802e-01
1.141999999999999904e+00,-1.726772922009525979e-01,-2.903910501166865887e-01,1.195103639478713314e-01
1.143000000000000016e+00,-3.583540765964255415e-01,-8.996026294575114324e-02,-1.340724647181164852e-01
1.143999999999999906e+00,-1.014306617152432727e-01,2.420335109865799916e-01,-2.168528426751254456e-01
1.145000000000000018e+00,3.066317322408696477e-01,2.527871796694595719e-01,-2.226291801809713103e-02
1.145999999999999908e+00,3.094106423735539790e-01,-3.496299955589528968e-02,1.684387505552355779e-01
1.147000000000000020e+00,-7.188256983612599516e-02,-2.894409228225159891e-01,1.668744140025195388e-01
1.147999999999999909e+00,-3.341371280683012035e-01,-1.711005934396425121e-01,-5.848503151566393499e-02
1.149000000000000021e+00,-1.803366460257762038e-01,1.611740044312605924e-01,-2.124660997055284051e-01
1.149999999999999911e+00,2.176682557618963010e-01,2.950023285748807900e-01,-1.064669529477576398e-01
1.151000000000000023e+00,3.609994405865280531e-01,4.846204365217063326e-02,1.520710719043164849e-01
1.151999999999999913e+00,4.408021550850834552e-02,-2.452786319941736015e-01,2.141922402311639828e-01
1.153000000000000025e+00,-3.111466709941877462e-01,-2.256834241738206182e-01,2.034032018722339505e-02
1.153999999999999915e+00,-2.756417541398044069e-01,9.748025747817730402e-02,-2.076674246951862590e-01
1.155000000000000027e+00,1.117454879261647049e-01,2.795951570440267653e-01,-1.874945546661061224e-01
1.155999999999999917e+00,3.736367502459503886e-01,1.321286018689763753e-01,4.637537471296736269e-02
1.157000000000000028e+00,1.744909334523313815e-01,-2.092990273989175642e-01,2.222213029622429614e-01
1.157999999999999918e+00,-2.462497365694867324e-01,-2.700110637433419392e-01,9.914786942888918764e-02
1.159000000000000030e+00,-3.327056718138169944e-01,1.351170029581203608e-02,-1.429229966250755435e-01
1.159999999999999920e+00,-9.397449085251070519e-03,2.889473663591731745e-01,-1.954755025502778742e-01
1.161000000000000032e+00,3.469825354944081064e-01,2.016945703948693214e-01,-2.665977765492627202e-02
1.161999999999999922e+00,2.727702126383915182e-01,-1.567405295914190422e-01,1.922901945846204885e-01
1.163000000000000034e+00,-1.393836996030652087e-01,-2.986095845066193410e-01,1.759920212954931840e-01
1.163999999999999924e+00,-3.629798978326910786e-01,-5.772804182954553720e-02,-4.704348937081166693e-02
1.165000000000000036e+00,-1.144943513707748078e-01,2.434722682837296981e-01,-2.253714836191799686e-01
1.165999999999999925e+00,2.480952394455288590e-01,2.477186382555442712e-01,-1.382748155358507758e-01
1.167000000000000037e+00,3.330135644339437540e-01,-7.003825968701116178e-02,1.546270412551641327e-01
1.167999999999999927e+00,-4.861200612168296853e-02,-2.751148251596659544e-01,1.993311599001683920e-01
1.169000000000000039e+00,-3.450500161418650347e-01,-1.284066803609747454e-01,2.921747198407119786e-02
1.169999999999999929e+00,-2.439787907894296337e-01,2.037980821303843060e-01,-1.890704867656877453e-01
1.171000000000000041e+00,1.982842544445433952e-01,2.635625844865241429e-01,-1.739404037605834508e-01
1.171999999999999931e+00,3.691370805046287895e-01,1.769288576175942485e-02,6.127533201362695553e-02
1.173000000000000043e+00,1.010460518788420525e-01,-2.951253511115620731e-01,2.287938235348405125e-01
1.173999999999999932e+00,-3.044857552198489414e-01,-1.872136548166477565e-01,1.206144514383004074e-01
1.175000000000000044e+00,-3.131251331614499644e-01,1.236716961900716644e-01,-1.262439149311569697e-01
1.175999999999999934e+00,4.937135462165952865e-02,2.796478551447197369e-01,-2.320982369404389900e-01
1.177000000000000046e+00,3.544096375997441428e-01,9.141164742311218283e-02,-3.441683537255552094e-02
1.177999999999999936e+00,2.037245437992387387e-01,-2.243211339834265683e-01,1.911172982440700330e-01
1.179000000000000048e+00,-2.117923926386848232e-01,-2.354156410061406246e-01,1.750355133522170925e-01
1.179999999999999938e+00,-3.383807682349997403e-01,4.719562446552547086e-02,-7.643990044968466957e-02
1.181000000000000050e+00,-4.489656026796926686e-02,2.806816658808233278e-01,-2.279452900398775961e-01
