time,acc_x,acc_y,acc_z
0.000000000000000000e+00,1.687400388156369904e-02,4.947563669753365923e-03,4.749406079361800231e-02
1.000000000000000021e-03,-3.831415440759601831e-01,-2.906827656620629696e-01,-2.116211346436328022e-01
2.000000000000000042e-03,-5.437840500936048649e-01,-3.452405691046661063e-01,-3.606282015672166441e-01
3.000000000000000062e-03,-3.919987673209822665e-01,-1.586489910088946242e-01,-3.158970191180486276e-01
4.000000000000000083e-03,-1.681589427126682912e-01,-5.929934793491006828e-03,-1.707468429299544843e-01
5.000000000000000104e-03,-1.584667694844552888e-01,-6.632431264597064835e-02,-1.343351942376584118e-01
6.000000000000000125e-03,-3.682003827422115627e-01,-2.347600035985004940e-01,-2.390793616057944604e-01
7.000000000000000146e-03,-5.108118671353960583e-01,-2.676534780249325562e-01,-3.562494076010512267e-01
8.000000000000000167e-03,-3.051413433266573771e-01,-1.221977111336508114e-03,-3.161334639571532490e-01
8.999999999999999320e-03,1.384008843659898791e-01,3.380028658942050845e-01,-9.211956787430107541e-02
1.000000000000000021e-02,4.305648923295318231e-01,4.734201884059660026e-01,1.438790356649930768e-01
1.099999999999999936e-02,3.184438329621568364e-01,2.516980656792684456e-01,1.970563739076005849e-01
1.200000000000000025e-02,-1.171929773954807075e-01,-1.243596031556367942e-01,-2.450533903466334609e-02
1.299999999999999940e-02,-4.950319980273701903e-01,-3.178250658291610908e-01,-2.758955954607682504e-01
1.400000000000000029e-02,-5.070623577465693810e-01,-2.137737184520785982e-01,-4.036069059170907525e-01
1.499999999999999944e-02,-2.214987636098296464e-01,4.899008956120231434e-02,-2.877370814683372080e-01
1.600000000000000033e-02,2.393054812313787430e-02,1.664445786957538254e-01,-1.170778761839206955e-01
1.700000000000000122e-02,1.253630147113314434e-02,6.375817166371629263e-02,-5.717042557745737746e-02
1.799999999999999864e-02,-1.843274732583320419e-01,-6.031339125774062837e-02,-1.452787490666262726e-01
1.899999999999999953e-02,-2.109527663832060362e-01,3.181972586333420283e-02,-2.281859906673077976e-01
2.000000000000000042e-02,6.098758832651064027e-02,3.142983686689192480e-01,-1.602677332660357723e-01
2.100000000000000130e-02,4.080123236989636193e-01,5.353858997685920773e-01,6.171226548194813644e-02
2.199999999999999872e-02,5.331616526533520251e-01,4.488110184566968530e-01,2.274254228682041634e-01
2.299999999999999961e-02,2.379365023107600230e-01,9.459643806975014113e-02,1.744561514547767478e-01
2.400000000000000050e-02,-2.330752044674119505e-01,-2.222591155626198745e-01,-8.875103365833228453e-02
2.500000000000000139e-02,-4.812056296162388058e-01,-2.443563664303388949e-01,-3.207315725075426394e-01
2.599999999999999881e-02,-3.142689520070300890e-01,2.970037058917764788e-02,-3.632362963547876022e-01
2.699999999999999969e-02,6.589085806674409296e-02,3.062993939390644682e-01,-1.763266943207690840e-01
2.800000000000000058e-02,3.121296219429721130e-01,3.331005571051384173e-01,2.881104872547097379e-02
2.900000000000000147e-02,2.388129379462487212e-01,2.028650170588917057e-01,8.460645388201544492e-02
2.999999999999999889e-02,4.072437756634979256e-02,1.232619070395233885e-01,-7.649115386024480344e-03
3.099999999999999978e-02,7.165561788765441309e-02,2.594031622564037520e-01,-8.583064498365033934e-02
3.200000000000000067e-02,3.305172111366610488e-01,4.918416995922356705e-01,6.972983111090450513e-03
3.300000000000000155e-02,5.816969351286340739e-01,5.257789241654021728e-01,1.824437627061210321e-01
3.400000000000000244e-02,5.050313671596570186e-01,2.878588157952923221e-01,2.800936902781766547e-01
3.500000000000000333e-02,9.533578394739000705e-02,-8.933827831819247944e-02,1.515107922632539794e-01
3.599999999999999728e-02,-3.071128554091068219e-01,-2.431847870351571683e-01,-1.221049054344104101e-01
3.699999999999999817e-02,-3.541485530098104628e-01,-5.269474895176835122e-02,-3.043099278751555392e-01
3.799999999999999906e-02,4.878469194676998341e-03,2.991248746263499569e-01,-2.353045216551289120e-01
3.899999999999999994e-02,4.193923456784389159e-01,4.948570841503623363e-01,3.776757513894348026e-03
4.000000000000000083e-02,5.626609717589695636e-01,4.251179515719792912e-01,2.198940834838001013e-01
4.100000000000000172e-02,3.916272427666560030e-01,2.398651044221180306e-01,2.346510028685774851e-01
4.200000000000000261e-02,1.945734648522209898e-01,1.862612319953207418e-01,1.271116682238183082e-01
4.299999999999999656e-02,2.419218441418256593e-01,3.356545559461052708e-01,3.645274663890918365e-02
4.399999999999999745e-02,4.607662929164685339e-01,4.770880640191094146e-01,1.202654828691632205e-01
4.499999999999999833e-02,5.832984551489681646e-01,3.842458523678422000e-01,2.537597763546522445e-01
4.599999999999999922e-02,3.708238513992953567e-01,6.070287211948453138e-02,2.892813351619763496e-01
4.700000000000000011e-02,-3.911262268436331568e-02,-2.147010712766675433e-01,1.215856650963352131e-01
4.800000000000000100e-02,-2.943626535276147038e-01,-1.611019416516153713e-01,-1.277652988799614087e-01
4.900000000000000189e-02,-1.225497092622522127e-01,1.964048041382265297e-01,-2.302459526931010803e-01
5.000000000000000278e-02,3.346741432549484863e-01,5.207532174793447766e-01,-7.414193738027251290e-02
5.099999999999999672e-02,6.959239989063488174e-01,5.679818631391666539e-01,2.129810694224362755e-01
5.199999999999999761e-02,6.904882248437106407e-01,3.624843910754406151e-01,3.958570126927276056e-01
5.299999999999999850e-02,4.086593108320724088e-01,1.504876198587734026e-01,3.414120682835766196e-01
5.399999999999999939e-02,2.066099711763554336e-01,1.309444564437114711e-01,1.789577295604209695e-01
5.500000000000000028e-02,2.564136493763732316e-01,2.801886468248069861e-01,9.632184770802863782e-02
5.600000000000000117e-02,4.394255071476239616e-01,3.319215012625735262e-01,1.502169655296474726e-01
5.700000000000000205e-02,4.608261776006300492e-01,1.449195449464269481e-01,2.609968223619597572e-01
5.800000000000000294e-02,1.965019415105803968e-01,-1.509531796267400416e-01,2.576696588332320625e-01
5.899999999999999689e-02,-1.633067540903180848e-01,-2.317895694492251857e-01,6.037259431315140229e-02
5.999999999999999778e-02,-2.097136527355741853e-01,1.601699127494943253e-02,-1.221267660134382343e-01
6.099999999999999867e-02,1.306274738802325475e-01,4.019250561529573718e-01,-1.290317970064415454e-01
6.199999999999999956e-02,6.174508352700093239e-01,5.858146472691151407e-01,1.055337367298833234e-01
6.300000000000000044e-02,8.281173729465796107e-01,4.420083729162695430e-01,3.798389506003717608e-01
6.400000000000000133e-02,6.348524201606484674e-01,1.364045496466041174e-01,5.020198058974336686e-01
6.500000000000000222e-02,2.420676012735511473e-01,-5.876548963187182978e-02,3.509850552080271413e-01
6.600000000000000311e-02,4.022063045698529710e-02,5.197462573513076355e-03,1.527182742290468243e-01
6.700000000000000400e-02,1.502118735178608055e-01,1.485763396145705073e-01,5.848426607494049134e-02
6.800000000000000488e-02,3.135586503540336856e-01,1.310450564365194803e-01,1.143352323811455545e-01
6.900000000000000577e-02,2.878931682872704623e-01,-7.598134885226379143e-02,2.267907639368172967e-01
7.000000000000000666e-02,1.400826471837707775e-02,-2.610459461901483702e-01,1.947158278598164760e-01
7.099999999999999367e-02,-2.014411518350514851e-01,-1.781433594577158941e-01,3.307785187675693628e-02
7.199999999999999456e-02,-8.835977852326913629e-02,1.628871858899083036e-01,-8.733110170186539345e-02
7.299999999999999545e-02,3.526733070481982701e-01,4.724156313602126400e-01,-1.387003619543018471e-02
7.399999999999999634e-02,7.128635832823189133e-01,4.454279774166128858e-01,2.406691437037943859e-01
7.499999999999999722e-02,7.177721486399986084e-01,1.319226202194992703e-01,4.757016929564326646e-01
7.599999999999999811e-02,3.318781000068466436e-01,-1.977341995287824061e-01,4.975345968178928602e-01
7.699999999999999900e-02,-8.731267983665232102e-02,-2.708482256995690118e-01,2.833002254660305641e-01
7.799999999999999989e-02,-1.981153336135701437e-01,-1.208460945609165782e-01,3.322032237770198432e-02
7.900000000000000078e-02,-5.113702925616991392e-03,2.529031509473361403e-02,-4.731439374995660696e-02
8.000000000000000167e-02,1.785228937863589938e-01,-3.417298051962889410e-02,4.942305834536043357e-02
8.100000000000000255e-02,1.086352947151894427e-01,-2.255902892074165278e-01,1.726275932509686584e-01
8.200000000000000344e-02,-1.294842569811585076e-01,-2.903515802628653941e-01,1.582801172493809028e-01
8.300000000000000433e-02,-2.107940485568366717e-01,-7.239994684893508170e-02,1.339393271665348384e-02
8.400000000000000522e-02,2.548561292999226846e-02,2.446734775471177126e-01,-5.896202497343738108e-02
8.500000000000000611e-02,4.250939021150324515e-01,3.648960851337172406e-01,4.448493836963636483e-02
8.599999999999999312e-02,6.169590989135154135e-01,1.307796152234540765e-01,2.941156072204571537e-01
8.699999999999999400e-02,4.039851350623867576e-01,-2.623786279946169753e-01,4.602696439268476603e-01
8.799999999999999489e-02,-8.186494736963492724e-02,-4.926425494552764128e-01,3.706905658432319561e-01
8.899999999999999578e-02,-4.319254220069039252e-01,-3.998751821402673490e-01,9.041607721981341494e-02
8.999999999999999667e-02,-4.090917955966906217e-01,-1.591236534993237528e-01,-1.392412360455438369e-01
9.099999999999999756e-02,-1.074588869499198962e-01,-4.224098006731266675e-02,-1.678066786121566178e-01
9.199999999999999845e-02,8.999582129009255083e-02,-1.396432124255129470e-01,-1.856469886918058962e-02
9.299999999999999933e-02,-2.280996143439630031e-02,-2.765421840281348520e-01,1.219986609207461686e-01
9.400000000000000022e-02,-2.171727653802379421e-01,-2.424312858541839977e-01,9.761446067802349857e-02
9.500000000000000111e-02,-2.261286902030655577e-01,1.334526942773666802e-03,-2.078113798589973152e-02
9.600000000000000200e-02,5.663427817120377655e-02,2.161448545904683660e-01,-6.329205493859357823e-02
9.700000000000000289e-02,3.691767877901642181e-01,1.337937852002016592e-01,6.937817209097339732e-02
9.800000000000000377e-02,3.506726955886879660e-01,-2.315543580038114668e-01,2.684085099266811381e-01
9.900000000000000466e-02,-3.737755490059425922e-02,-5.799037936517096314e-01,3.398003335287825832e-01
1.000000000000000056e-01,-5.097684548837414509e-01,-6.149785025918129699e-01,1.546800788316858299e-01
1.010000000000000064e-01,-7.000359387703155578e-01,-3.700099039932769340e-01,-1.305456593413355515e-01
1.019999999999999934e-01,-4.775464096256455959e-01,-9.123961300516303385e-02,-3.195409091359991405e-01
1.029999999999999943e-01,-1.218344042518239717e-01,-3.338819443640968915e-02,-2.643218338066177786e-01
1.039999999999999952e-01,4.317887355820438505e-02,-1.895285896708353568e-01,-4.276495004847651049e-02
1.049999999999999961e-01,-9.578123024850039580e-02,-3.006461504539897911e-01,9.913291390696120364e-02
1.059999999999999970e-01,-2.900359832477373834e-01,-1.909960021001879671e-01,6.308632586674792209e-02
1.069999999999999979e-01,-2.475831298090560573e-01,2.134440869037098135e-02,-6.395760058187349717e-02
1.079999999999999988e-01,1.462907419684391849e-02,8.021619521560474642e-02,-1.022102378516686200e-01
1.089999999999999997e-01,1.940004995314009995e-01,-1.550879866220770120e-01,1.416797473195383593e-02
1.100000000000000006e-01,1.847412436393162244e-02,-5.311946699288325746e-01,1.646161482403543652e-01
1.110000000000000014e-01,-4.483202442941303101e-01,-7.029239252281612726e-01,1.571255260677375254e-01
1.120000000000000023e-01,-8.131202325289879074e-01,-5.438095449783038049e-01,-7.268393882904318481e-02
1.130000000000000032e-01,-7.727812611973964296e-01,-1.807908177563806174e-01,-3.476503268536704216e-01
1.140000000000000041e-01,-3.920515330315995084e-01,5.155311886150636819e-02,-4.472026238453034042e-01
1.150000000000000050e-01,-8.036996310060214727e-03,-7.288913460772438596e-03,-2.886627407887560337e-01
1.160000000000000059e-01,4.914832339719749088e-02,-2.028895399356928086e-01,-3.665619093551686358e-02
1.170000000000000068e-01,-1.680799886104465957e-01,-2.791036632862566869e-01,9.445433275871352452e-02
1.179999999999999938e-01,-3.503216897991522916e-01,-1.487972062580965871e-01,3.554334720627629063e-02
1.189999999999999947e-01,-2.891583080453767329e-01,-6.112973725854669617e-03,-1.289415699768806101e-01
1.199999999999999956e-01,-6.573680832352425674e-02,-6.432434919982066290e-02,-1.714787110668715420e-01
1.209999999999999964e-01,-1.027754009272494051e-02,-3.683034140984944860e-01,-6.243442205110307647e-02
1.219999999999999973e-01,-2.808544267590328269e-01,-6.402852133517351607e-01,4.417642794638090842e-02
1.229999999999999982e-01,-6.954105344858005910e-01,-5.874067464949007666e-01,-2.469347684105027696e-02
1.239999999999999991e-01,-8.772917827349264730e-01,-2.435218165165588533e-01,-2.624391167851177764e-01
1.250000000000000000e-01,-6.104922650730932876e-01,1.139381712589245255e-01,-4.657597539047808599e-01
1.260000000000000009e-01,-1.417189967863821398e-01,1.897136637436569462e-01,-4.652465489322397674e-01
1.270000000000000018e-01,1.628355121243542647e-01,-1.038483732961345898e-02,-2.282050208752394171e-01
1.280000000000000027e-01,7.942891029198331787e-02,-2.236531805967039710e-01,2.772388029433738715e-02
1.290000000000000036e-01,-2.293532229015334822e-01,-2.364724692220323277e-01,9.600901772643301302e-02
1.300000000000000044e-01,-3.971670075239587261e-01,-8.311278072691793972e-02,-2.661029633914471434e-02
1.310000000000000053e-01,-3.129378911429178123e-01,-1.249312694240016335e-02,-1.925195554261819597e-01
1.320000000000000062e-01,-1.156132092778375114e-01,-1.542880057360049573e-01,-2.456096891678265781e-01
1.330000000000000071e-01,-1.426432263845847648e-01,-4.289516608789035734e-01,-1.421020414354758066e-01
1.340000000000000080e-01,-4.408727878297879488e-01,-5.183510149437950965e-01,-5.484588608757436090e-02
1.350000000000000089e-01,-7.231388918237557917e-01,-2.674728918803229716e-01,-1.508689197174801488e-01
1.360000000000000098e-01,-6.999728181906056390e-01,1.329498855673416635e-01,-3.601639245956516633e-01
1.370000000000000107e-01,-2.716144360234749033e-01,3.488492643235461821e-01,-4.965982229929210567e-01
1.380000000000000115e-01,1.840598191616893697e-01,2.551668226297507669e-01,-3.847662520705854017e-01
1.390000000000000124e-01,3.258777072975105882e-01,-6.055687489541131813e-02,-1.165276738101066467e-01
1.400000000000000133e-01,5.922417148081988297e-02,-2.430749950287824923e-01,1.215703474421314934e-01
1.409999999999999865e-01,-2.997931278784181086e-01,-1.690518934150312680e-01,1.150319332238141506e-01
1.419999999999999873e-01,-4.358047996092653809e-01,2.125106792446769099e-03,-6.558534341139568569e-02
1.429999999999999882e-01,-2.714617851036573160e-01,3.142688437550850838e-02,-2.608931452782619620e-01
1.439999999999999891e-01,-8.315324439761145880e-02,-1.541167145773573721e-01,-2.870582633910614967e-01
1.449999999999999900e-01,-1.445028019857368118e-01,-3.139848746471351482e-01,-1.659357382005249293e-01
1.459999999999999909e-01,-4.042731258723281096e-01,-2.148110585385277771e-01,-1.078649975671135686e-01
1.469999999999999918e-01,-5.564570270695322618e-01,1.373581813829518328e-01,-1.810026647070489825e-01
1.479999999999999927e-01,-3.474119279212813383e-01,4.618860305271425548e-01,-3.442791597248865409e-01
1.489999999999999936e-01,1.264529317505570793e-01,4.746504062093200305e-01,-3.861186742575258291e-01
1.499999999999999944e-01,4.714135036650562438e-01,1.990297203879536903e-01,-2.208333708415821939e-01
1.509999999999999953e-01,3.920540422639373079e-01,-1.289890824301668515e-01,5.959476704525176055e-02
1.519999999999999962e-01,-7.817773789402038612e-03,-2.053849623090252818e-01,2.241027732353240709e-01
1.529999999999999971e-01,-3.509295316202009074e-01,-4.119033318176644476e-02,1.287258045761381087e-01
1.539999999999999980e-01,-3.840706725347445838e-01,1.486902727440157779e-01,-1.280848122026843339e-01
1.549999999999999989e-01,-1.472571777355973777e-01,1.263006779573253024e-01,-3.119719258510660898e-01
1.559999999999999998e-01,5.171004531329626008e-02,-3.729486150769573821e-02,-2.927876863864129486e-01
1.570000000000000007e-01,-3.279328386132112499e-02,-8.480466129925036400e-02,-1.395173527701676353e-01
1.580000000000000016e-01,-2.307070034752563836e-01,1.293108510533742261e-01,-4.830380534204188614e-02
1.590000000000000024e-01,-2.476414091106467763e-01,4.684357936169524228e-01,-1.184973908591461372e-01
1.600000000000000033e-01,5.947959039508056434e-02,6.084650166348926081e-01,-2.471785452584804865e-01
1.610000000000000042e-01,4.815240201851990753e-01,4.264083501507721086e-01,-2.306984949678403674e-01
1.620000000000000051e-01,6.334336366633153137e-01,2.426980130649761952e-02,-3.258385093151536238e-02
1.630000000000000060e-01,3.537092150016973857e-01,-2.090029098108417416e-01,2.146322347766782823e-01
1.640000000000000069e-01,-1.322893215205374617e-01,-1.075070417798078409e-01,2.917754478405657492e-01
1.650000000000000078e-01,-3.688423005100091023e-01,1.585720674812740871e-01,1.046216324775555984e-01
1.660000000000000087e-01,-2.251417836882214363e-01,3.128766409305878682e-01,-1.682074825294184173e-01
1.670000000000000095e-01,9.565803605278390409e-02,2.389369237926433076e-01,-3.138514613482675797e-01
1.680000000000000104e-01,2.795211091127124958e-01,1.062593919886921090e-01,-2.158572012406227425e-01
1.690000000000000113e-01,1.713018756106452212e-01,1.348909520240622884e-01,-2.687687766450566965e-02
1.700000000000000122e-01,3.244703312704492765e-03,3.801924564451175659e-01,6.739330859302684884e-02
1.710000000000000131e-01,7.623463008255577933e-02,6.080480585596294008e-01,1.072728884759216635e-02
1.719999999999999862e-01,3.990445698876899927e-01,5.400853834405162646e-01,-8.769841192570428101e-02
1.729999999999999871e-01,6.819876308854528890e-01,2.054471184488432800e-01,-4.358625255853756930e-02
1.739999999999999880e-01,6.186601437757003330e-01,-1.283586918250412545e-01,1.433516264109225835e-01
1.749999999999999889e-01,1.959556044167271027e-01,-1.919292762397529495e-01,3.272526140258881777e-01
1.759999999999999898e-01,-2.295442814820664312e-01,6.073106517361515772e-02,3.094061598915524014e-01
1.769999999999999907e-01,-2.988520648743965835e-01,3.578110674933383528e-01,6.838449138233332336e-02
1.779999999999999916e-01,-1.015791572909568834e-02,4.406518005539135086e-01,-1.972891880932311215e-01
1.789999999999999925e-01,3.789050032340010588e-01,2.853295942360269954e-01,-2.539105922605147114e-01
1.799999999999999933e-01,4.891910315720308100e-01,1.670215230471739365e-01,-8.803501814894089395e-02
1.809999999999999942e-01,3.392221632218350713e-01,2.537455201501486735e-01,1.329605775300994053e-01
1.819999999999999951e-01,1.888007076471303614e-01,4.721414831711119309e-01,2.228776252926057411e-01
1.829999999999999960e-01,2.887865740435018314e-01,5.384479546198784883e-01,1.522953021951015673e-01
1.839999999999999969e-01,5.458030574216237163e-01,3.201639897812189606e-01,5.527217127022929916e-02
1.849999999999999978e-01,6.938987345163483145e-01,-5.691830187155524912e-02,9.716564689900326901e-02
1.859999999999999987e-01,4.680397813733441770e-01,-2.432663432351012678e-01,2.595205307010961526e-01
1.869999999999999996e-01,-1.383755051180286756e-03,-9.238034456063902444e-02,3.695406573690537266e-01
1.880000000000000004e-01,-2.975273406827269596e-01,2.662842686016511640e-01,2.764457775180402255e-01
1.890000000000000013e-01,-1.493127923393174905e-01,4.990122979470313913e-01,5.008392536444226245e-03
1.900000000000000022e-01,2.811175195423901707e-01,4.511880234636758136e-01,-1.868926332100051269e-01
1.910000000000000031e-01,6.201345212918560890e-01,2.331386669216499175e-01,-1.602765347894481440e-01
1.920000000000000040e-01,6.247957791298613950e-01,1.241102634495713092e-01,6.813781301945530389e-02
1.930000000000000049e-01,3.751962741393239376e-01,2.271900648354618080e-01,3.092157152655789498e-01
1.940000000000000058e-01,2.136267326113184262e-01,3.812899937634669500e-01,3.702629359102419526e-01
1.950000000000000067e-01,3.235415408475709742e-01,3.072946999006017088e-01,2.444728772257601379e-01
1.960000000000000075e-01,5.383173298611062529e-01,1.138246708028504452e-02,1.295723017475466365e-01
1.970000000000000084e-01,5.217850391633206408e-01,-2.589605318621374108e-01,1.563957249893555834e-01
1.980000000000000093e-01,2.054327277629962034e-01,-2.403895607872333084e-01,2.965079905414608197e-01
1.990000000000000102e-01,-1.855688299633842242e-01,6.840373049575546038e-02,3.416835254670440025e-01
2.000000000000000111e-01,-2.789731615704947321e-01,4.191427706510927886e-01,2.004002793185490350e-01
2.010000000000000120e-01,5.204886716745876080e-02,5.050096288215117912e-01,-4.667197315568912680e-02
2.020000000000000129e-01,5.260150501216744878e-01,2.980527749278747973e-01,-1.752183662845394896e-01
2.030000000000000138e-01,7.364123203101463622e-01,3.454861047477637143e-02,-4.931690550101013037e-02
2.039999999999999869e-01,5.838512747515979262e-01,-1.727820364681471876e-02,2.397801589811636713e-01
2.049999999999999878e-01,2.524346832485413472e-01,1.092649625543051506e-01,4.383904633148908991e-01
2.059999999999999887e-01,1.028292015549697597e-01,1.883148845144213546e-01,4.184818600279983647e-01
2.069999999999999896e-01,2.077094805680402556e-01,3.956945794351375556e-02,2.485693518899679821e-01
2.079999999999999905e-01,3.676635951392786539e-01,-2.450267355024262905e-01,1.152937349784588644e-01
2.089999999999999913e-01,2.840012902100655379e-01,-3.581242133720741738e-01,1.401593901843210810e-01
2.099999999999999922e-01,-4.411591942110593828e-02,-1.575564994100446536e-01,2.504796574217765803e-01
2.109999999999999931e-01,-3.110503399078552444e-01,2.338242444605859449e-01,2.655795586416143106e-01
2.119999999999999940e-01,-1.960748915121442726e-01,4.461598613833848148e-01,1.029761754336277618e-01
2.129999999999999949e-01,2.274307130704002478e-01,3.240526050388518042e-01,-8.261057450312486727e-02
2.139999999999999958e-01,6.309660400116042789e-01,-1.378372840154180358e-02,-1.274070471131594495e-01
2.149999999999999967e-01,6.594620224016859433e-01,-2.327878858486979452e-01,7.390068331431604021e-02
2.159999999999999976e-01,3.214695215348302160e-01,-1.950311732054858804e-01,3.435955572584300510e-01
2.169999999999999984e-01,-4.388366240477568903e-02,-4.103889024266559049e-02,4.957978702360097967e-01
2.179999999999999993e-01,-1.441037893746113241e-01,-8.069385449664717019e-03,3.833047916076389172e-01
2.190000000000000002e-01,2.315102484778333927e-02,-1.869161124729052936e-01,1.580740483778471928e-01
2.200000000000000011e-01,1.578100917247470258e-01,-3.875988015100846895e-01,2.072330032866080349e-03
2.210000000000000020e-01,3.101510567751264436e-02,-3.242227265877516418e-01,4.541335000395269744e-02
2.220000000000000029e-01,-2.415525769773996800e-01,-1.265928524479789652e-02,1.561431885376826645e-01
2.230000000000000038e-01,-3.535863545435888877e-01,3.026413225425007014e-01,1.554462233588902731e-01
2.240000000000000047e-01,-9.952250612125196350e-02,3.089523782905287952e-01,2.503610604369619491e-02
2.250000000000000056e-01,3.378126032137023782e-01,2.807265387599222877e-03,-1.233118995267385443e-01
2.260000000000000064e-01,5.918252339435725595e-01,-3.521662298410417891e-01,-8.701962485570405303e-02
2.270000000000000073e-01,3.961684807559899268e-01,-4.564016948003692398e-01,1.522792671205921711e-01
2.280000000000000082e-01,-5.891459322125246895e-02,-3.115081462168790005e-01,3.861526571043978340e-01
2.290000000000000091e-01,-4.073701775537278968e-01,-1.341266096684499975e-01,4.302963596491057308e-01
2.300000000000000100e-01,-3.757421266099479906e-01,-1.427434084862768959e-01,2.269640736878908438e-01
2.310000000000000109e-01,-1.310318353073450792e-01,-3.161504307205897923e-01,-3.468214653638566902e-02
2.320000000000000118e-01,-6.740544113803969076e-03,-3.994056725791867435e-01,-1.653260351732708522e-01
2.330000000000000127e-01,-1.481252473406410031e-01,-2.224049646434217431e-01,-6.410852423789163701e-02
2.340000000000000135e-01,-3.617823222526078131e-01,9.430077007224191288e-02,5.895427645634860464e-02
2.349999999999999867e-01,-3.372842240720821949e-01,2.474248334176730735e-01,6.738139175613733212e-02
2.359999999999999876e-01,-1.144386701347540475e-02,3.724104844999132774e-02,-5.673386339582052462e-02
2.369999999999999885e-01,3.459256739129075719e-01,-3.468418991872754265e-01,-1.568516348305414587e-01
2.379999999999999893e-01,3.813123764495368051e-01,-6.127696424034821954e-01,-6.879482844639336903e-02
2.389999999999999902e-01,7.124258139044042405e-03,-5.420813235744987857e-01,1.628825503535142882e-01
2.399999999999999911e-01,-4.850223428112845347e-01,-2.683764593519800123e-01,3.268176853919528280e-01
2.409999999999999920e-01,-6.800189438147076215e-01,-1.139440142223675928e-01,2.663447400602038662e-01
2.419999999999999929e-01,-5.026093593122521463e-01,-1.692916339709925888e-01,9.840720954918089763e-03
2.429999999999999938e-01,-1.838221478697019129e-01,-3.341218176950818131e-01,-2.514826469573290257e-01
2.439999999999999947e-01,-7.828904136938247271e-02,-3.267867798885949471e-01,-3.154065332901729857e-01
2.449999999999999956e-01,-2.169075714348736861e-01,-9.037609167917469433e-02,-1.592614249719286335e-01
2.459999999999999964e-01,-3.821837874066929541e-01,1.287443240435280079e-01,-2.442283772230370315e-03
2.469999999999999973e-01,-2.863956027765698908e-01,8.315417562322946488e-02,9.814741218951178459e-03
2.479999999999999982e-01,2.361777559805190371e-02,-2.570815286866133809e-01,-1.014677809267303665e-01
2.489999999999999991e-01,2.366872090983348498e-01,-6.120275750574630802e-01,-1.696478033726029344e-01
2.500000000000000000e-01,7.728283006651569254e-02,-6.683561982932461065e-01,-7.710780873264359847e-02
2.510000000000000009e-01,-3.985066450957150952e-01,-4.236646651323467405e-01,1.215253438559518173e-01
2.520000000000000018e-01,-7.880742052295016675e-01,-1.032988071302780725e-01,2.149155835637856227e-01
2.530000000000000027e-01,-7.895637317486704498e-01,-4.512089613324975386e-03,6.362237851008271938e-02
2.540000000000000036e-01,-4.402968434608580117e-01,-1.387395630297776350e-01,-2.209901484015177053e-01
2.550000000000000044e-01,-9.766884507031950435e-02,-2.670254077057766517e-01,-4.381200296559389362e-01
2.560000000000000053e-01,-5.438345274327659878e-02,-2.046486413807989957e-01,-3.925370395737621254e-01
2.570000000000000062e-01,-2.332422111657216079e-01,3.898659675491906399e-03,-1.919779947313328405e-01
2.580000000000000071e-01,-3.758189034520554306e-01,9.891896181110042263e-02,-7.319336172233850517e-03
2.590000000000000080e-01,-2.509790177592611249e-01,-9.904708059388539487e-02,-1.012753120258243211e-02
2.600000000000000089e-01,1.382566386353476125e-02,-4.515986581146424483e-01,-1.304326902218538309e-01
2.610000000000000098e-01,7.608056547056916974e-02,-6.587834860051918762e-01,-1.975259046301424126e-01
2.620000000000000107e-01,-2.229817389214411860e-01,-4.934558048027822830e-01,-1.109272338135668251e-01
2.630000000000000115e-01,-6.690470479805397108e-01,-1.206076879771854765e-01,4.478797335398957552e-02
2.640000000000000124e-01,-8.864122101518917551e-01,1.485416512336144856e-01,6.479518621351905427e-02
2.650000000000000133e-01,-6.605728016660032953e-01,1.038936941203293246e-01,-1.321814356882249630e-01
2.660000000000000142e-01,-2.066759483447419277e-01,-8.426453125961955171e-02,-4.025087121109624522e-01
2.670000000000000151e-01,9.228755396197135807e-02,-1.988320727215519834e-01,-5.278429353949873892e-01
2.680000000000000160e-01,2.645368116028430638e-02,-9.202491929333378451e-02,-3.820580142604301233e-01
2.690000000000000169e-01,-2.364826249958331406e-01,7.813895992280101011e-02,-1.299687512773380627e-01
2.700000000000000178e-01,-3.426092678947011416e-01,3.969406550762393654e-02,3.737976672093056701e-02
2.710000000000000187e-01,-1.991687362852060106e-01,-2.194388090753748299e-01,5.729991064642489529e-03
2.720000000000000195e-01,-1.859793369858128058e-04,-4.935048016577548990e-01,-1.521913636095317268e-01
2.730000000000000204e-01,-5.343873197652726503e-02,-4.717300413087552324e-01,-2.238823992453004286e-01
2.740000000000000213e-01,-4.055716100138704872e-01,-1.328505512994154203e-01,-1.436017053609287553e-01
2.750000000000000222e-01,-7.399378303936736678e-01,2.385279243078212152e-01,-2.232769867770669284e-02
2.760000000000000231e-01,-7.387517201434755654e-01,3.602308676622600903e-01,-5.953312393356321314e-02
2.770000000000000240e-01,-3.340273190296614847e-01,1.654490216785375334e-01,-2.500112759934078333e-01
2.780000000000000249e-01,1.451879885195308251e-01,-7.432793097803780391e-02,-4.753773254029478035e-01
2.790000000000000258e-01,2.960418447958747534e-01,-1.378866059160821778e-01,-4.928224362696712046e-01
2.800000000000000266e-01,9.926594596885057742e-02,1.538435728514811300e-02,-2.715160779449708461e-01
2.810000000000000275e-01,-2.182201955648371550e-01,1.227111438991711351e-01,5.596234853376470461e-03
2.819999999999999729e-01,-3.017085235791251985e-01,2.081846642829039348e-02,1.275682198272364565e-01
2.829999999999999738e-01,-1.310690644180030895e-01,-2.293777097630843032e-01,2.464819711579442282e-02
2.839999999999999747e-01,6.757379556207542687e-03,-3.329815682611698135e-01,-1.714362890587962096e-01
2.849999999999999756e-01,-1.004567457183618978e-01,-1.274500766854894940e-01,-2.422590363741114472e-01
2.859999999999999765e-01,-4.163466567093543347e-01,2.711200499532165908e-01,-1.634307814742522180e-01
2.869999999999999774e-01,-5.961604077965619863e-01,5.207625592647591173e-01,-6.270818123668792099e-02
2.879999999999999782e-01,-3.756400304505127519e-01,4.322791154535456926e-01,-1.037654368632289353e-01
2.889999999999999791e-01,1.108198708229174850e-01,1.197532571740353574e-01,-2.899732162956566439e-01
2.899999999999999800e-01,4.813573057836216251e-01,-1.020348120642987355e-01,-4.261172106710055529e-01
2.909999999999999809e-01,4.471112859778902382e-01,-5.335031579443767769e-02,-3.486611511669674424e-01
2.919999999999999818e-01,8.139521875948177443e-02,1.243116987812064450e-01,-8.454920868135860912e-02
2.929999999999999827e-01,-2.271111071653835189e-01,1.813442132422006248e-01,1.705052744932671338e-01
2.939999999999999836e-01,-2.395617020949367404e-01,4.515423485623382832e-02,2.025725206777340137e-01
2.949999999999999845e-01,-2.286651582805580146e-02,-1.284594629654571274e-01,1.689498739355679152e-02
2.959999999999999853e-01,9.786769614313273191e-02,-6.039364174695578680e-02,-1.820657940763792948e-01
2.969999999999999862e-01,-3.402073239329116844e-02,2.582419431604565108e-01,-2.399953870969233072e-01
2.979999999999999871e-01,-2.728046885936263877e-01,5.788193693626351166e-01,-1.388459755255395667e-01
2.989999999999999880e-01,-2.808250401997221535e-01,6.195618503008835098e-01,-2.911332955969225811e-02
2.999999999999999889e-01,5.559294838575157272e-02,3.285730841191328300e-01,-7.667214736580556245e-02
3.009999999999999898e-01,5.136671557123049237e-01,-1.439378864027879897e-03,-2.247028635119616979e-01
3.019999999999999907e-01,7.010611514684969015e-01,-1.186396548352327551e-01,-2.998013887406869582e-01
3.029999999999999916e-01,4.501027615492457779e-01,4.554240912965148297e-02,-1.505641830205007026e-01
3.039999999999999925e-01,8.032817815503115813e-03,2.492250507930875159e-01,1.315999227478347189e-01
3.049999999999999933e-01,-2.475854011838689861e-01,2.667936329470030898e-01,3.206794210971993242e-01
3.059999999999999942e-01,-1.358517145173368246e-01,1.132284567141948889e-01,2.592414662346291254e-01
3.069999999999999951e-01,1.385578451613891926e-01,3.346014232279340139e-02,1.439494899405987030e-02
3.079999999999999960e-01,2.571840969527815490e-01,2.010403787501882367e-01,-2.014988202585062393e-01
3.089999999999999969e-01,1.175504923635665860e-01,5.182786543469853902e-01,-2.058522246856713811e-01
3.099999999999999978e-01,-5.331314373189840333e-02,6.867151970925881033e-01,-4.911992999814927124e-02
3.109999999999999987e-01,4.948120245127173716e-02,5.036202812254441108e-01,6.108259832692891633e-02
3.119999999999999996e-01,4.200776700995365598e-01,1.218554737031690982e-01,2.644545984677846434e-02
3.130000000000000004e-01,7.578642412241700654e-01,-1.545740776157721319e-01,-9.662289323402639685e-02
3.140000000000000013e-01,7.210752701344678162e-01,-9.955198219533509252e-02,-1.112510222837376078e-01
3.150000000000000022e-01,3.040981245444323022e-01,1.754347436080724854e-01,6.587294407135894925e-02
3.160000000000000031e-01,-1.285986492194466924e-01,3.660083907663739256e-01,2.991418098886896582e-01
3.170000000000000040e-01,-2.295489919952001245e-01,3.160361400717598412e-01,4.039277890189747477e-01
3.180000000000000049e-01,4.060626286496354237e-02,1.587765760318497477e-01,2.427921988652071150e-01
3.190000000000000058e-01,3.401406062782019735e-01,1.478584977678545631e-01,-2.943641040334569678e-02
3.200000000000000067e-01,4.240025535784164856e-01,3.555559653402970977e-01,-2.122601043906717777e-01
3.210000000000000075e-01,2.561262838395923502e-01,5.721527997150237521e-01,-1.320635137977510809e-01
3.220000000000000084e-01,1.347973427154829096e-01,5.456230143573094216e-01,5.753837371114450122e-02
3.230000000000000093e-01,2.891501541540316134e-01,2.157271302396602253e-01,1.943797612815918729e-01
3.240000000000000102e-01,6.203500803984830503e-01,-1.496401512298234093e-01,1.599858033643737354e-01
3.250000000000000111e-01,7.748387643347283138e-01,-2.401170251173711800e-01,5.868177991389397774e-02
3.260000000000000120e-01,5.455164264713352473e-01,-1.356204111876651436e-02,5.607729659236523889e-02
3.270000000000000129e-01,6.356002938494872967e-02,3.013175425125407814e-01,2.181392943135690710e-01
3.280000000000000138e-01,-2.534293321334891158e-01,4.253034855688520577e-01,4.160760218750980677e-01
3.290000000000000147e-01,-1.635534341367074762e-01,2.841086258590794777e-01,4.009991845439009328e-01
3.300000000000000155e-01,2.268859871183734334e-01,1.213204944196525220e-01,1.935303316931254181e-01
3.310000000000000164e-01,5.381756956783230184e-01,1.591590599091007308e-01,-9.157312993503004261e-02
3.320000000000000173e-01,5.299878231356545122e-01,3.524395829655718182e-01,-1.859943075559304104e-01
3.330000000000000182e-01,3.072987773907327469e-01,4.475908450199638788e-01,-3.178935935340194974e-02
3.340000000000000191e-01,2.175140220905142918e-01,2.375297735168639957e-01,2.067048958653907031e-01
3.350000000000000200e-01,3.786924070883944116e-01,-1.262406677746427119e-01,3.196684875007712590e-01
3.360000000000000209e-01,6.117853128079399072e-01,-3.385809914386164743e-01,2.591630057115063557e-01
3.370000000000000218e-01,5.993096603044453241e-01,-2.245792550778653029e-01,1.491647714757133869e-01
3.380000000000000226e-01,2.479218278613375959e-01,1.282386917326253373e-01,1.541094201844266653e-01
3.390000000000000235e-01,-1.880112276022578854e-01,3.936846942352828504e-01,2.892118475564494640e-01
3.400000000000000244e-01,-3.275936729725401619e-01,3.719082453522956633e-01,4.121182387225272858e-01
3.410000000000000253e-01,-3.918837569670981236e-02,1.295790603071239611e-01,3.368064539600583163e-01
3.420000000000000262e-01,4.179252887865784749e-01,-1.328950961694139524e-02,9.156377526908442144e-02
3.430000000000000271e-01,6.306199841139380480e-01,6.156031084756179855e-02,-1.345350544956078753e-01
3.439999999999999725e-01,4.846158614417496735e-01,2.096037653304807791e-01,-1.442225603379670151e-01
3.449999999999999734e-01,2.165662869142907510e-01,1.687839180082421897e-01,8.286708175637627627e-02
3.459999999999999742e-01,1.280746020095682725e-01,-1.050491121208156770e-01,3.341873368496477426e-01
3.469999999999999751e-01,2.721369096574495772e-01,-4.013141463433239076e-01,4.198234622286880491e-01
3.479999999999999760e-01,4.283232090446478790e-01,-4.068465983146996590e-01,2.884702514272141083e-01
3.489999999999999769e-01,2.978751653382089581e-01,-1.075802557377344565e-01,1.476867065475577501e-01
3.499999999999999778e-01,-8.463947783898816135e-02,2.635273949873112587e-01,1.396252052855028458e-01
3.509999999999999787e-01,-4.004380263831179843e-01,3.669691873317801334e-01,2.504643917466755076e-01
3.519999999999999796e-01,-3.093289328099962376e-01,1.713282838195986368e-01,3.173639637902122557e-01
3.529999999999999805e-01,1.162998816957553777e-01,-1.194818919422636488e-01,2.043292827355024932e-01
3.539999999999999813e-01,5.285626572474688700e-01,-2.057282886238451514e-01,-3.447393881854397130e-02
3.549999999999999822e-01,5.866617250837480313e-01,-8.370524436356135967e-02,-1.780082980351475053e-01
3.559999999999999831e-01,2.991487718205542157e-01,8.744702617794379920e-03,-1.016294623199942987e-01
3.569999999999999840e-01,-4.693141754298384843e-02,-1.061958031489366600e-01,1.788354501837163546e-01
3.579999999999999849e-01,-8.914221263792693195e-02,-3.582770057545919817e-01,4.095096341257653538e-01
3.589999999999999858e-01,7.393892816059562112e-02,-4.970922693398237557e-01,4.131145340216492712e-01
3.599999999999999867e-01,1.717415317302382338e-01,-3.242934370523212761e-01,2.330242733655818466e-01
3.609999999999999876e-01,-1.865949270184608100e-02,5.699606939944189266e-02,4.043697950825374254e-02
3.619999999999999885e-01,-3.481810972319284159e-01,2.973981947950096183e-01,4.199417292336873192e-02
3.629999999999999893e-01,-4.860384217815266195e-01,2.075744285332362382e-01,1.494665008167593845e-01
3.639999999999999902e-01,-2.300787127804486132e-01,-1.272757723689216525e-01,1.854119150036479813e-01
3.649999999999999911e-01,2.449033029170535336e-01,-3.910543680255388344e-01,6.341470493935247310e-02
3.659999999999999920e-01,5.114112088660387467e-01,-3.726003707586719726e-01,-1.370905621092583238e-01
3.669999999999999929e-01,3.632206086785078614e-01,-2.158663533170022408e-01,-1.999451308606836342e-01
3.679999999999999938e-01,-5.425328384281054989e-02,-1.422671116341193975e-01,-3.284440617686282954e-02
3.689999999999999947e-01,-3.467489298635414996e-01,-2.830368352564107126e-01,2.417378366289433811e-01
3.699999999999999956e-01,-3.263878685005439095e-01,-4.699381181182176737e-01,4.036721533353701541e-01
3.709999999999999964e-01,-1.260602614220836526e-01,-4.475976265854301195e-01,3.065482254979262633e-01
3.719999999999999973e-01,-5.817817941489695360e-02,-1.479980150061043775e-01,6.297541518976818020e-02
3.729999999999999982e-01,-2.570308694344873857e-01,1.664319894492184981e-01,-1.253105482615090860e-01
3.739999999999999991e-01,-4.951865267996352071e-01,2.205973671429521388e-01,-1.005928733336318853e-01
3.750000000000000000e-01,-4.603899130249938798e-01,-5.285022699480027703e-02,2.374753012458420340e-02
3.760000000000000009e-01,-9.667594809558767432e-02,-4.357272321527091985e-01,5.901122798481321652e-02
3.770000000000000018e-01,2.992519358210424252e-01,-5.666751146865472988e-01,-5.198513620980721450e-02
3.780000000000000027e-01,3.838533955837261091e-01,-4.248509188457800789e-01,-2.096684153170173814e-01
3.790000000000000036e-01,2.958684523804674255e-02,-2.144547638396029909e-01,-2.034048856116884019e-01
3.800000000000000044e-01,-4.356415218247282617e-01,-1.812559881621562952e-01,3.752327317025145464e-03
3.810000000000000053e-01,-6.411700195095419996e-01,-3.238197051634622015e-01,2.497033501346281326e-01
3.820000000000000062e-01,-4.824619793062354112e-01,-4.099509743590492028e-01,3.178264476385818105e-01
3.830000000000000071e-01,-2.314126066884365229e-01,-2.766866278238033772e-01,1.312487816664010543e-01
3.840000000000000080e-01,-1.681991498406475161e-01,1.775915459564635437e-02,-1.421763754954770143e-01
3.850000000000000089e-01,-3.541060470562623630e-01,1.960873524921717403e-01,-2.949767690565746614e-01
3.860000000000000098e-01,-5.013504004046400730e-01,4.981928036059163345e-02,-2.297180572445425284e-01
3.870000000000000107e-01,-3.559424381610947763e-01,-3.449451341581046826e-01,-8.049610688614360077e-02
3.880000000000000115e-01,6.597744163235341915e-03,-6.158446960291575900e-01,-2.381326420101676986e-02
3.890000000000000124e-01,2.590672243819339693e-01,-5.836709274496423294e-01,-1.249022816292958277e-01
3.900000000000000133e-01,1.181503223774614114e-01,-2.908889765870295574e-01,-2.373710038928753541e-01
3.910000000000000142e-01,-3.364284412335904473e-01,-7.663051796084995038e-02,-1.854741217912749263e-01
3.920000000000000151e-01,-7.441053128193191313e-01,-1.012424667909934684e-01,1.591279056128403271e-02
3.930000000000000160e-01,-7.704249928131350345e-01,-2.491082639036792112e-01,2.008103716692849483e-01
3.940000000000000169e-01,-4.598328020878256761e-01,-2.882800307661670947e-01,1.714307720795290313e-01
3.950000000000000178e-01,-1.620365464722482163e-01,-8.227197326909231612e-02,-6.880795107384569953e-02
3.960000000000000187e-01,-1.467598421104510664e-01,1.536635101965818928e-01,-3.491874053433411396e-01
3.970000000000000195e-01,-3.355893604097431870e-01,1.502497048697448434e-01,-4.377105000864051076e-01
3.980000000000000204e-01,-4.283707089926492850e-01,-1.536817557163611681e-01,-2.978905414197816071e-01
3.990000000000000213e-01,-2.348056208916418086e-01,-5.132330205763709907e-01,-1.058854539709216253e-01
4.000000000000000222e-01,8.402992211783191778e-02,-6.131065728160088879e-01,-5.413640626781860560e-02
4.010000000000000231e-01,1.649533637740678294e-01,-3.669581442198540655e-01,-1.467137530096758735e-01
4.020000000000000240e-01,-1.287235431894324933e-01,-2.316473777707237988e-02,-2.387164842482966121e-01
4.030000000000000249e-01,-6.110755192328575225e-01,1.191943199419421284e-01,-1.691347687657593912e-01
4.040000000000000258e-01,-8.494806583015627188e-01,6.816543270468370351e-03,-3.691994843240641901e-03
4.050000000000000266e-01,-6.662521294069950750e-01,-1.459012262674545535e-01,1.174259453609786813e-01
4.060000000000000275e-01,-2.576907787746210987e-01,-1.072180773336325332e-01,2.016035413247840510e-02
4.069999999999999729e-01,1.947193128722033914e-02,8.663257448540932770e-02,-2.726532548135309764e-01
4.079999999999999738e-01,-4.596457075049600882e-02,1.934774924083536296e-01,-4.923469505952642322e-01
4.089999999999999747e-01,-2.375166212458742487e-01,5.020152885303523493e-02,-4.824317665132330513e-01
4.099999999999999756e-01,-3.093758314028426382e-01,-2.994381721385765416e-01,-2.589418260340397016e-01
4.109999999999999765e-01,-9.545570277993294106e-02,-5.104370610997385205e-01,-5.347322912668383416e-02
4.119999999999999774e-01,1.198906514693943715e-01,-3.744065093246050635e-01,-1.055628635957614816e-02
4.129999999999999782e-01,5.394182388703937236e-02,-4.771420639496860155e-03,-1.221886836881560523e-01
4.139999999999999791e-01,-3.343497546550225907e-01,3.019167587578597267e-01,-2.282705270789454344e-01
4.149999999999999800e-01,-7.082432639568723154e-01,3.008438529586826560e-01,-1.632685778917885577e-01
4.159999999999999809e-01,-7.365059146476392593e-01,9.591184756499759878e-02,-3.130708739462585190e-03
4.169999999999999818e-01,-3.500927283174259941e-01,-4.315779975836742804e-02,4.306478723875535597e-02
4.179999999999999827e-01,8.804992388247068202e-02,2.606498204407573308e-02,-1.134145437307379767e-01
4.189999999999999836e-01,2.774339564054993934e-01,1.835415287530999806e-01,-3.763058653356589622e-01
4.199999999999999845e-01,8.193391097065373663e-02,1.963038311497447841e-01,-5.221273565520703208e-01
4.209999999999999853e-01,-1.676815274934617961e-01,-4.222133909606064911e-02,-4.095275702069627322e-01
4.219999999999999862e-01,-1.858013536494778073e-01,-2.985229514919701121e-01,-1.224668746927177893e-01
4.229999999999999871e-01,8.131408262601653655e-03,-3.162484304452972128e-01,6.295417792843836791e-02
4.239999999999999880e-01,1.393182788776497205e-01,-6.268845623898011699e-03,5.726615229941735274e-02
4.249999999999999889e-01,-2.723544305834118759e-02,3.832332031344325429e-01,-9.200350643297118547e-02
4.259999999999999898e-01,-3.950840502117609621e-01,5.389226244487143047e-01,-1.853238007701692169e-01
4.269999999999999907e-01,-6.060905849350249897e-01,3.655106178848669951e-01,-1.276151197727635189e-01
4.279999999999999916e-01,-4.028864616335874893e-01,9.288746043421672316e-02,-1.778032593305474418e-02
4.289999999999999925e-01,7.553310649006586552e-02,-1.765360639489409189e-02,-4.595818710121534379e-04
4.299999999999999933e-01,4.662384487710483638e-01,1.112138276971363915e-01,-1.723737551460605699e-01
4.309999999999999942e-01,4.577499205915663283e-01,2.456852934734555793e-01,-3.918482030373297564e-01
4.319999999999999951e-01,1.468847881608839889e-01,1.839771682854887680e-01,-4.250884799780767498e-01
4.329999999999999960e-01,-1.183171986201422554e-01,-4.512751066459791405e-02,-2.270793440566855337e-01
4.339999999999999969e-01,-9.337750592434850005e-02,-1.897170373328365967e-01,5.445149831684605729e-02
4.349999999999999978e-01,1.139928362224052749e-01,2.931986213357778634e-03,2.270588070723095764e-01
4.359999999999999987e-01,1.895342040871239309e-01,3.831510521114991907e-01,1.257085029779959062e-01
4.369999999999999996e-01,-9.505045014186039656e-03,6.578317162793503314e-01,-6.339396507480020426e-02
4.380000000000000004e-01,-2.969473836921847076e-01,5.822946284988336219e-01,-1.805202139324655619e-01
4.390000000000000013e-01,-3.311540575159896416e-01,2.781405894105398735e-01,-1.126544142796356979e-01
4.400000000000000022e-01,1.830925765135709218e-02,-4.973328680215871860e-04,1.246801468011856165e-02
4.410000000000000031e-01,5.166382768121897673e-01,9.427154973733874871e-03,8.475706125896747406e-03
4.420000000000000040e-01,7.183175718252979847e-01,1.851213517718874879e-01,-1.552926263150988806e-01
4.430000000000000049e-01,5.097718353061918561e-01,2.844792847382685008e-01,-2.997367705661219128e-01
4.440000000000000058e-01,1.142188643223611411e-01,1.816388636676766200e-01,-2.600794937670602436e-01
4.450000000000000067e-01,-1.159148954786003438e-01,-9.974670825516255765e-03,6.565993853984142953e-03
4.460000000000000075e-01,-2.356568455416915148e-02,7.861682255227880542e-03,2.647542980228573262e-01
4.470000000000000084e-01,2.196365571105708958e-01,2.975860451195024292e-01,3.360880077794031195e-01
4.480000000000000093e-01,2.600483746374175897e-01,6.232278786470429877e-01,1.790896015234678396e-01
4.490000000000000102e-01,6.894943645090750861e-02,6.804120531659885174e-01,-7.068681941135955549e-02
4.500000000000000111e-01,-1.162570731470012469e-01,4.186024446425472556e-01,-1.516548163636039503e-01
4.510000000000000120e-01,8.017603547564349648e-03,4.178929658494533877e-02,-5.511525554368477270e-02
4.520000000000000129e-01,4.249857732329852533e-01,-1.191324107943840666e-01,6.401446922047196453e-02
4.530000000000000138e-01,7.850942558944313809e-01,2.362257958585037634e-02,6.997038861206152094e-02
4.540000000000000147e-01,7.833519308374479184e-01,2.498031120942075523e-01,-6.547024897405887001e-02
4.550000000000000155e-01,3.872593130671325157e-01,3.094312417926840530e-01,-1.540394578528900271e-01
4.560000000000000164e-01,-2.551933698295724348e-02,1.636409661834697660e-01,-4.840436995209222715e-02
4.570000000000000173e-01,-1.403162274506865870e-01,6.039086479621598447e-02,2.135851672487179553e-01
4.580000000000000182e-01,7.368402321809537636e-02,1.740712756697218033e-01,4.304105225418630165e-01
4.590000000000000191e-01,3.356052803113583893e-01,4.677526915721023637e-01,3.852863468656539392e-01
4.600000000000000200e-01,3.490152600706712960e-01,6.396081142814458165e-01,1.477250559765755367e-01
4.610000000000000209e-01,1.696311173624477919e-01,4.709343735682429699e-01,-7.853858423967333136e-02
4.620000000000000218e-01,7.692470275926124867e-02,1.017710557458946230e-01,-1.334937046614755873e-01
4.630000000000000226e-01,2.719797823687745697e-01,-1.978430936843630639e-01,2.076672251639108055e-02
4.640000000000000235e-01,6.474452915544356424e-01,-1.836710372393641488e-01,1.648772865903864182e-01
4.650000000000000244e-01,8.432653905388312054e-01,7.510618915947346597e-02,1.616876978033917611e-01
4.660000000000000253e-01,6.189818882865172345e-01,2.918939966067360947e-01,5.014945269305702558e-02
4.670000000000000262e-01,1.413800080878151177e-01,2.822935647899321721e-01,1.316266233519850773e-03
4.680000000000000271e-01,-2.013788548507448040e-01,1.213081479638113691e-01,1.380979304178942269e-01
4.689999999999999725e-01,-1.352109995332070602e-01,6.043195769855202321e-02,3.654279407084478071e-01
4.699999999999999734e-01,1.971721042549071656e-01,2.318926396111436750e-01,4.925640988863854708e-01
4.709999999999999742e-01,4.460020119950381945e-01,4.446106988878114619e-01,3.533222947377522849e-01
4.719999999999999751e-01,4.248337427515747056e-01,4.366273935469937029e-01,6.596036767632434961e-02
4.729999999999999760e-01,2.194235479742986383e-01,1.321671240783401369e-01,-1.264544953714360487e-01
4.739999999999999769e-01,1.660340766630798992e-01,-2.554824379392057199e-01,-9.450748936687904111e-02
4.749999999999999778e-01,3.818114507666129365e-01,-3.782342028216361118e-01,1.090115507354894459e-01
4.759999999999999787e-01,6.560063831087913355e-01,-1.653776700347728001e-01,2.636074240545517311e-01
4.769999999999999796e-01,6.780631318392341678e-01,1.584769649276284720e-01,2.518477543907037264e-01
4.779999999999999805e-01,3.005026800028635647e-01,3.080737079196456674e-01,1.390000262823789523e-01
4.789999999999999813e-01,-1.773531488380312993e-01,1.832909664267507455e-01,1.082911528578201499e-01
4.799999999999999822e-01,-3.571654072667314606e-01,5.872247891797171410e-03,2.398243439849607750e-01
4.809999999999999831e-01,-9.350535499055977195e-02,-1.546433688408228868e-02,4.085872948921162040e-01
4.819999999999999840e-01,3.162212843760563996e-01,1.610584808432122261e-01,4.488782815232637557e-01
4.829999999999999849e-01,5.141976551398131923e-01,2.635228522868495182e-01,2.483045659513127279e-01
4.839999999999999858e-01,3.910426520859799360e-01,1.007709201511768071e-01,-4.372246264715805297e-02
4.849999999999999867e-01,1.578275964230938799e-01,-2.548023497334671039e-01,-1.786788071664794919e-01
4.859999999999999876e-01,1.301505501934138442e-01,-4.971060954931057485e-01,-4.760978264260869175e-02
4.869999999999999885e-01,3.190847590145181045e-01,-3.964543543775492229e-01,1.926874043353800081e-01
4.879999999999999893e-01,4.874144997389796563e-01,-4.958556983756570724e-02,3.317680826521125503e-01
4.889999999999999902e-01,3.194822046340972665e-01,2.376630076624703936e-01,3.001659591395717253e-01
4.899999999999999911e-01,-1.012774770245256223e-01,2.373662808891232046e-01,1.723649925267739802e-01
4.909999999999999920e-01,-4.434554361633418762e-01,1.109239400649716760e-02,1.204453491617780009e-01
4.919999999999999929e-01,-4.116078659015321439e-01,-1.684881069153779665e-01,2.257899966645886547e-01
4.929999999999999938e-01,6.452587909490384126e-03,-1.433442564618123971e-01,3.564902066855402674e-01
4.939999999999999947e-01,4.058213402290018479e-01,1.259844422443205138e-02,3.206078153036563405e-01
4.949999999999999956e-01,4.792393013681344183e-01,1.326952108632100877e-02,8.192100842439610509e-02
4.959999999999999964e-01,2.207996216356968855e-01,-2.305847952728931893e-01,-1.712820448246490379e-01
4.969999999999999973e-01,-3.103341744487109199e-02,-5.086723923293352545e-01,-1.983762012970900768e-01
4.979999999999999982e-01,-4.933348347311538457e-02,-5.632688409627637505e-01,-5.092675389640532796e-04
4.989999999999999991e-01,1.342171904921719283e-01,-2.821038948673041391e-01,2.689060316670282558e-01
5.000000000000000000e-01,1.977666724132588760e-01,1.036016291658054533e-01,3.712034797155093213e-01
5.010000000000000009e-01,-4.809666002046029953e-02,2.597349833861091750e-01,2.633235114779600705e-01
5.020000000000000018e-01,-4.191921415863089084e-01,7.705439065384017683e-02,9.691209224344415896e-02
5.030000000000000027e-01,-5.921477771867585949e-01,-2.304799198453667819e-01,3.786524715254843687e-02
5.040000000000000036e-01,-3.440638004324234611e-01,-3.622370756427524263e-01,1.420334324597080367e-01
5.050000000000000044e-01,1.281604990146653356e-01,-2.646753970093911335e-01,2.175383718846782277e-01
5.060000000000000053e-01,4.233349054696636804e-01,-1.407457747369402767e-01,1.320879331709950422e-01
5.070000000000000062e-01,3.119861899565105623e-01,-1.915769807132103320e-01,-8.638255009125965500e-02
5.080000000000000071e-01,-5.694767795431899399e-02,-4.210843709159558523e-01,-2.574717762169687618e-01
5.090000000000000080e-01,-3.129527231269001453e-01,-5.693880821267232051e-01,-1.997677578380410435e-01
5.100000000000000089e-01,-2.716356376971302833e-01,-4.294325079553361624e-01,5.823915218802507010e-02
5.110000000000000098e-01,-9.078561529966609756e-02,-7.057548912598253510e-02,2.983611049429782391e-01
5.120000000000000107e-01,-8.335358756422607540e-02,2.179708227843396573e-01,3.322219912902090178e-01
5.130000000000000115e-01,-3.346416868899718122e-01,1.592939812410140432e-01,1.594845560539825124e-01
5.140000000000000124e-01,-6.140222777512414076e-01,-1.671429647056688894e-01,-5.081444146468598599e-02
5.150000000000000133e-01,-5.866504194668874517e-01,-4.575835445378461097e-01,-9.143958297230896093e-02
5.160000000000000142e-01,-2.059792044144531931e-01,-4.763340563771266134e-01,-7.970222759491678646e-03
5.170000000000000151e-01,2.327258849932055673e-01,-2.942305216386805200e-01,6.500948182279477072e-02
5.180000000000000160e-01,3.534582513042088814e-01,-1.855447648273835792e-01,-3.069126916898682819e-02
5.190000000000000169e-01,4.214506410056820945e-02,-2.771013319022112009e-01,-2.199444131901959476e-01
5.200000000000000178e-01,-3.884961521119955075e-01,-4.520309095253297049e-01,-2.991318361399339376e-01
5.210000000000000187e-01,-5.672938943018962510e-01,-4.523357598221884879e-01,-1.772591919421796502e-01
5.220000000000000195e-01,-4.423454402234463512e-01,-1.920156183647972747e-01,9.435674320756179401e-02
5.230000000000000204e-01,-2.318583178458050731e-01,1.470699131464617004e-01,2.847873407049438810e-01
5.240000000000000213e-01,-2.308962062226677381e-01,2.341779614923015784e-01,2.110860891911324200e-01
5.250000000000000222e-01,-4.631755040597003159e-01,-2.760163469511867779e-02,-1.956617661250062076e-02
5.260000000000000231e-01,-6.188350543930665193e-01,-4.065616074298500915e-01,-2.350839243876070850e-01
5.270000000000000240e-01,-4.427882059773881052e-01,-5.674023196728200658e-01,-2.466139155532968974e-01
5.280000000000000249e-01,-2.355463838811017868e-02,-4.389818241222794293e-01,-1.408600554846469732e-01
5.290000000000000258e-01,2.783859744405566827e-01,-1.861978652444621907e-01,-5.971469604859153818e-02
5.300000000000000266e-01,1.648375300101509178e-01,-1.031140694037451233e-01,-1.391801456853187235e-01
5.310000000000000275e-01,-2.781414177322716341e-01,-2.317874673608138758e-01,-2.832913389395567694e-01
5.320000000000000284e-01,-6.698138336238889101e-01,-3.339584251759502576e-01,-3.035037935861155667e-01
5.330000000000000293e-01,-7.127195769581503582e-01,-2.184178566903572927e-01,-1.419026484649622000e-01
5.340000000000000302e-01,-4.510464067797358423e-01,6.353991697464811406e-02,1.193513969344639769e-01
5.350000000000000311e-01,-2.135295426966080101e-01,2.749589860958211451e-01,2.137241801068203439e-01
5.360000000000000320e-01,-2.456907082633709716e-01,1.403273570248311508e-01,6.026388266391061871e-02
5.370000000000000329e-01,-4.268815787826734098e-01,-2.285283353233268921e-01,-2.227567848426156294e-01
5.380000000000000338e-01,-4.779762640337955060e-01,-5.225707003120519945e-01,-3.931991969618418570e-01
5.390000000000000346e-01,-2.330490022162116925e-01,-4.974721784800867352e-01,-3.608959056259695153e-01
5.400000000000000355e-01,1.233723051088742029e-01,-2.238626359687822531e-01,-1.900364335855657671e-01
5.410000000000000364e-01,2.476790651899676010e-01,3.730985886547960595e-02,-9.690093321045006869e-02
5.420000000000000373e-01,-4.674381373608245405e-02,5.525685853165193673e-02,-1.748078898877572784e-01
5.430000000000000382e-01,-5.297313693092143838e-01,-8.728749710130324913e-02,-2.842347860890508948e-01
5.440000000000000391e-01,-7.954943347588540048e-01,-1.479461203630291211e-01,-2.754910447522110339e-01
5.450000000000000400e-01,-6.506775838099776443e-01,1.837130892179682923e-02,-8.176621483439301674e-02
5.460000000000000409e-01,-2.665008427171431382e-01,2.413177277661917863e-01,1.143851712242455188e-01
5.470000000000000417e-01,-3.744892940417514360e-02,2.899827508680021260e-01,1.289681909218240996e-01
5.480000000000000426e-01,-1.134194118695795034e-01,1.147084659603144624e-02,-9.617756895102293202e-02
5.490000000000000435e-01,-2.869360405480392839e-01,-3.418899190894313378e-01,-3.915732187741713943e-01
5.500000000000000444e-01,-2.876368343926926641e-01,-4.732252386183187776e-01,-5.028901768074377499e-01
5.510000000000000453e-01,-3.918859816464526080e-02,-2.381339768806660651e-01,-3.710996636715678254e-01
5.520000000000000462e-01,2.453354945301849943e-01,1.208009876937319593e-01,-1.580982476904680412e-01
5.530000000000000471e-01,1.671857182262424801e-01,2.992732071740348831e-01,-5.766661226786740091e-02
5.540000000000000480e-01,-2.277120413015618350e-01,2.085243176163350809e-01,-1.311480060487287547e-01
5.550000000000000488e-01,-6.356752252744529708e-01,3.723563321694221134e-02,-2.266780474403112255e-01
5.560000000000000497e-01,-7.051718521220726732e-01,1.650299800700646621e-02,-1.979094312917502874e-01
5.570000000000000506e-01,-3.726478671771087381e-01,1.946807874739531763e-01,-4.749872655567951435e-02
5.580000000000000515e-01,5.255124722564364498e-02,3.409568929478916099e-01,1.024178426711709194e-01
5.590000000000000524e-01,2.228577872426383832e-01,2.094369593154895848e-01,2.353914647067469057e-02
5.600000000000000533e-01,5.616461943050137656e-02,-1.054072749396974679e-01,-2.290325157135664202e-01
5.610000000000000542e-01,-1.335692950024840175e-01,-3.391482861710953256e-01,-4.652465349550371498e-01
5.620000000000000551e-01,-9.314598331568101075e-02,-2.473560175656370763e-01,-4.722320202904309316e-01
5.629999999999999449e-01,1.404003177576738093e-01,1.302150791103994509e-01,-2.597912745749158536e-01
5.639999999999999458e-01,2.898290228614645025e-01,4.504953790468722574e-01,-1.941975169206416191e-02
5.649999999999999467e-01,8.012577468028783678e-02,4.819908337547318955e-01,5.670662479536586753e-02
5.659999999999999476e-01,-3.403164210636351328e-01,2.804434922278559728e-01,-5.460674843286254798e-02
5.669999999999999485e-01,-5.872574859805232972e-01,8.881327877969436013e-02,-1.661523952490709666e-01
5.679999999999999494e-01,-4.268641033775746330e-01,1.132076294613015705e-01,-1.328262307110833484e-01
5.689999999999999503e-01,5.112081608422037321e-02,2.771213538852522196e-01,8.870860785533122433e-03
5.699999999999999512e-01,4.369039431702365639e-01,3.334636870082548499e-01,8.803818647683404885e-02
5.709999999999999520e-01,4.528527876521921125e-01,1.230990262911224459e-01,-3.761022709077798537e-02
5.719999999999999529e-01,1.836354554118787841e-01,-1.531298686380950236e-01,-2.746869003122891506e-01
5.729999999999999538e-01,-2.360648762496934602e-02,-1.882329126017048548e-01,-4.373131460631687895e-01
5.739999999999999547e-01,3.763291878383853012e-02,8.693053626931859790e-02,-3.507278860415867783e-01
5.749999999999999556e-01,2.425449823254258452e-01,4.864625956531288264e-01,-8.234928090198903594e-02
5.759999999999999565e-01,2.930624803737732487e-01,6.604479896766878300e-01,1.462471117303805468e-01
5.769999999999999574e-01,2.586637605229122339e-02,4.928872471064776883e-01,1.832633459258624087e-01
5.779999999999999583e-01,-3.026250765567897183e-01,1.921817047582384252e-01,1.743527129266550513e-02
5.789999999999999591e-01,-3.583816523913210816e-01,5.217952881380728131e-02,-9.606378906668533446e-02
5.799999999999999600e-01,-2.139275208477358844e-02,1.534940578669729272e-01,-7.451428379440201699e-02
5.809999999999999609e-01,4.817598536697204059e-01,3.058456733128765426e-01,5.347397899341648636e-02
5.819999999999999618e-01,7.236192398365905998e-01,2.653130270993976358e-01,9.536223435180064822e-02
5.829999999999999627e-01,5.597149246139769829e-01,5.434337477916929837e-02,-4.133040004825417474e-02
5.839999999999999636e-01,1.887949784295857303e-01,-9.308642668353067640e-02,-2.577559278934782316e-01
5.849999999999999645e-01,-3.709392960687569584e-03,3.451385515611649774e-02,-3.235991544330619751e-01
5.859999999999999654e-01,1.098818345991475209e-01,3.838947317379802215e-01,-1.450948246736615266e-01
5.869999999999999662e-01,3.004417268560606313e-01,6.816820269705371471e-01,1.500118534377241908e-01
5.879999999999999671e-01,2.970366558456852824e-01,6.421932939114088912e-01,3.361259156542443782e-01
5.889999999999999680e-01,4.589611668532356248e-02,3.081221368582647835e-01,2.785361064261687170e-01
5.899999999999999689e-01,-1.794688882406605679e-01,8.177556535456643322e-03,7.834039645809531827e-02
5.909999999999999698e-01,-5.853312733944119467e-02,-3.780175841776494544e-02,-7.091015730179542342e-02
5.919999999999999707e-01,3.830798734394456617e-01,1.409043884481569475e-01,-2.430488776942707485e-02
5.929999999999999716e-01,7.880339504404889617e-01,2.738322680674209475e-01,1.007463269512937909e-01
5.939999999999999725e-01,8.162020280802999572e-01,1.934996540185881242e-01,1.279690860365454985e-01
5.949999999999999734e-01,4.773997026868279647e-01,1.734087081394932589e-02,-3.724585713118837727e-03
5.959999999999999742e-01,5.604074911388170349e-02,-1.350569089061100410e-02,-1.589144809921563817e-01
5.969999999999999751e-01,-4.705284281424760434e-02,2.351082174610683861e-01,-1.416409378370105110e-01
5.979999999999999760e-01,1.410577626538459806e-01,5.424463401951316044e-01,9.447089159580245032e-02
5.989999999999999769e-01,3.494641109001640489e-01,6.256745339850272591e-01,3.664906388954158323e-01
5.999999999999999778e-01,3.110445009022499985e-01,3.783407644396388769e-01,4.594424742725366495e-01
6.009999999999999787e-01,8.843914763381748034e-02,-1.485916826120751641e-02,3.087799786382054990e-01
6.019999999999999796e-01,-9.280505582747185234e-03,-2.082426499495330929e-01,5.365871482589991415e-02
6.029999999999999805e-01,2.248345434964136025e-01,-1.018840372393332028e-01,-6.288217755231821637e-02
6.039999999999999813e-01,6.460582526511173818e-01,1.453467173353464870e-01,1.017839122227172724e-02
6.049999999999999822e-01,8.815180361930567976e-01,2.304719167862202545e-01,1.468560929826918660e-01
6.059999999999999831e-01,6.678874650018401526e-01,1.242382688418264824e-01,1.736098874946354620e-01
6.069999999999999840e-01,2.089182198194182161e-01,-3.044866505938065640e-02,6.359417796875529993e-02
6.079999999999999849e-01,-1.329029885181891302e-01,4.708386400763725499e-02,-2.662705921862447769e-02
6.089999999999999858e-01,-1.213066056522445896e-01,3.078153351838809337e-01,3.701199605112232699e-02
6.099999999999999867e-01,1.734964962151268331e-01,4.968943942252132540e-01,2.830440546806808344e-01
6.109999999999999876e-01,3.797550740037358152e-01,3.739595431794421332e-01,4.874731468386811484e-01
6.119999999999999885e-01,2.979003471476378562e-01,-1.126577640037151364e-02,4.840698737226608594e-01
6.129999999999999893e-01,1.011659622100612582e-01,-3.395955907303361276e-01,2.428208909335339283e-01
6.139999999999999902e-01,9.375403057478313984e-02,-3.537487147736286253e-01,-7.906600506425323291e-03
6.149999999999999911e-01,3.750314240641527963e-01,-9.558575943961353238e-02,-8.060583109809553448e-02
6.159999999999999920e-01,7.020952691408927082e-01,1.634070417530603669e-01,3.833044924817059079e-02
6.169999999999999929e-01,7.196796037317702011e-01,1.832654046958182570e-01,2.047074459135907742e-01
6.179999999999999938e-01,3.328065264797663292e-01,1.913400430203111846e-02,2.458342495559137642e-01
6.189999999999999947e-01,-1.493578777584051442e-01,-9.389286314385986154e-02,1.267046829124536256e-01
6.199999999999999956e-01,-3.546132734062625858e-01,4.098889014175267215e-02,5.343572935484032504e-02
6.209999999999999964e-01,-1.465067375551104001e-01,2.471875957708281057e-01,1.481835313406452692e-01
6.219999999999999973e-01,2.255469005282832728e-01,2.789702691937938073e-01,3.576024117258650992e-01
6.229999999999999982e-01,3.823113752335878801e-01,2.216761585791367489e-03,4.953739305722463238e-01
6.239999999999999991e-01,2.536473600769932335e-01,-3.893852055482985297e-01,3.841322750632759075e-01
6.250000000000000000e-01,5.779927251526467691e-02,-5.502742035775740614e-01,1.103650543350943175e-01
6.260000000000000009e-01,9.581893995425067034e-02,-3.551841410948389788e-01,-1.220118288166134324e-01
6.270000000000000018e-01,3.427594165605066245e-01,-7.646732367140033487e-03,-1.280389243933129917e-01
6.280000000000000027e-01,5.235128953635038718e-01,1.764144377913959005e-01,7.017233106787632013e-02
6.290000000000000036e-01,3.713281447463871454e-01,7.932676754372398886e-02,2.543998987199534434e-01
6.300000000000000044e-01,-9.417068312482411441e-02,-1.306601660189508629e-01,2.747897470011721466e-01
6.310000000000000053e-01,-4.783580119986954315e-01,-1.725853275558139055e-01,1.588205924189994567e-01
6.320000000000000062e-01,-4.545575611796859872e-01,-4.390676907068933460e-02,8.300793412898119228e-02
6.330000000000000071e-01,-1.006834344505306150e-01,7.557696063931555741e-02,1.670071237625757876e-01
6.340000000000000080e-01,2.872917245723129454e-01,-3.530929752037034741e-02,3.476829587234279151e-01
6.350000000000000089e-01,3.515202140224521488e-01,-3.676372678985869169e-01,3.920595126348793702e-01
6.360000000000000098e-01,1.330405755399735879e-01,-6.238403600470596722e-01,2.136141812927175865e-01
6.370000000000000107e-01,-8.600039731860062431e-02,-5.586597034764168024e-01,-6.362286557824410604e-02
6.380000000000000115e-01,-1.819643516571242681e-02,-2.104935941195313354e-01,-2.338126357293010271e-01
6.390000000000000124e-01,1.789377823903815778e-01,1.177493993216365969e-01,-1.395901488080772135e-01
6.400000000000000133e-01,2.322530693157620341e-01,1.451678910997826755e-01,9.139997169859336024e-02
6.410000000000000142e-01,-3.434204076906210296e-02,-7.054316067366367404e-02,2.839062217432105073e-01
6.420000000000000151e-01,-4.686447303976238876e-01,-2.806098126398439696e-01,2.602246506941298110e-01
6.430000000000000160e-01,-6.692168246892431505e-01,-2.934288011682676389e-01,1.189717025447380033e-01
6.440000000000000169e-01,-4.513340437636544356e-01,-1.396993796454756021e-01,2.335267787376157228e-02
6.450000000000000178e-01,8.900078247438381052e-03,-9.597992731735785488e-02,1.087758897624899745e-01
6.460000000000000187e-01,3.142579082200789298e-01,-2.970508715567054536e-01,2.235334119573144374e-01
6.470000000000000195e-01,2.254717560321508885e-01,-5.628625438206198428e-01,2.147870653134267560e-01
6.480000000000000204e-01,-8.832329622570463112e-02,-6.275912306175878141e-01,1.131708694346081172e-02
6.490000000000000213e-01,-2.942288468693687875e-01,-3.688514604799270624e-01,-2.452730215749061582e-01
6.500000000000000222e-01,-2.119848133521303746e-01,2.317314647699995900e-02,-3.141913228326161933e-01
6.510000000000000231e-01,-3.409192235673707411e-02,1.978913605988813218e-01,-1.298054290861777871e-01
6.520000000000000240e-01,-6.005870475489356874e-02,4.912268915582246320e-02,1.476307613290380738e-01
6.530000000000000249e-01,-3.751890363851953514e-01,-2.539420354927044987e-01,2.890715881429297696e-01
6.540000000000000258e-01,-6.867155634642025941e-01,-4.244921214167687307e-01,2.000374099151753793e-01
6.550000000000000266e-01,-6.857682479334115122e-01,-3.609489748598705972e-01,1.175661895191045317e-02
6.560000000000000275e-01,-2.912058081651026642e-01,-1.895773287049665468e-01,-8.287634018499170918e-02
6.570000000000000284e-01,1.448877404472486974e-01,-1.919150542233346302e-01,-1.815917415285116243e-02
6.580000000000000293e-01,2.906535488508167897e-01,-3.913946562366883986e-01,7.084082287625165231e-02
6.590000000000000302e-01,2.396257435915009198e-02,-5.512995141459348103e-01,3.526289453970084253e-02
6.600000000000000311e-01,-3.607366880191803515e-01,-4.293456075916344261e-01,-1.743903869526023942e-01
6.610000000000000320e-01,-5.117234960050742743e-01,-7.106121908325148395e-02,-3.543309990431099399e-01
6.620000000000000329e-01,-3.659868722065607871e-01,2.269404838008232950e-01,-3.269155531165345852e-01
6.630000000000000338e-01,-1.979590110374250811e-01,2.011539434641985702e-01,-9.423308382112506598e-02
6.640000000000000346e-01,-2.725039434729812360e-01,-1.055865915967499208e-01,1.734032189327535944e-01
6.650000000000000355e-01,-5.406346353975748364e-01,-4.173258228864552555e-01,2.484165759400323026e-01
6.660000000000000364e-01,-7.037213436019564838e-01,-4.642281654274340585e-01,7.435292683932771818e-02
6.670000000000000373e-01,-5.221619340019320044e-01,-2.885493876026629656e-01,-1.526067164107832441e-01
6.680000000000000382e-01,-7.218403346760809969e-02,-1.278135932887163317e-01,-2.377809770167779446e-01
6.690000000000000391e-01,2.594801364054852844e-01,-1.688654549659826809e-01,-1.568548546211998296e-01
6.700000000000000400e-01,1.904230803400936145e-01,-3.328301361158072513e-01,-6.521210847258125665e-02
6.710000000000000409e-01,-2.049079120051995329e-01,-3.686522930897391803e-01,-1.179923899886356625e-01
6.720000000000000417e-01,-5.838142218679692741e-01,-1.259038641410486492e-01,-2.801571946894975684e-01
6.730000000000000426e-01,-6.237639462467264861e-01,2.064069198037506714e-01,-3.844450585527772191e-01
6.740000000000000435e-01,-4.070645568465968145e-01,3.293646901603014543e-01,-2.944854033374030289e-01
6.750000000000000444e-01,-2.213209593484354587e-01,9.495613698389489266e-02,-3.476162233214562247e-02
6.760000000000000453e-01,-3.052233414647023135e-01,-2.714587885006312651e-01,1.813178225497003304e-01
6.770000000000000462e-01,-5.118833051230937681e-01,-4.760947086709219622e-01,1.485745322750445796e-01
6.780000000000000471e-01,-5.500716830725052020e-01,-3.556092565431508978e-01,-8.553494413942674957e-02
6.790000000000000480e-01,-2.597105746197726495e-01,-9.498325577003438602e-02,-3.125409759700008006e-01
6.800000000000000488e-01,1.565459632432217030e-01,4.751231555316500627e-02,-3.610903951679035329e-01
6.810000000000000497e-01,3.196186913538657803e-01,-3.564153560755353028e-02,-2.495984798903106983e-01
6.820000000000000506e-01,4.835038441933621478e-02,-1.711503286442562777e-01,-1.358649453639319271e-01
6.830000000000000515e-01,-4.277000975721854115e-01,-9.261341330474026634e-02,-1.719729568116161456e-01
6.840000000000000524e-01,-7.060619300747251748e-01,1.659977820611264199e-01,-3.166329325412694518e-01
6.850000000000000533e-01,-5.745551203593378675e-01,3.931729931961181479e-01,-3.605222977603197432e-01
6.860000000000000542e-01,-2.592215749526514679e-01,3.024619970564588201e-01,-2.150330407266133059e-01
6.870000000000000551e-01,-7.639471442413885149e-02,-4.113132405427002286e-02,2.995693970141540680e-02
6.879999999999999449e-01,-1.839172234965257557e-01,-3.767504845055419382e-01,1.743617441473475638e-01
6.889999999999999458e-01,-3.474075557648733104e-01,-3.765518176829577568e-01,4.682712746502184359e-02
6.899999999999999467e-01,-2.903479473848461501e-01,-8.899050469259667251e-02,-2.399095666764955448e-01
6.909999999999999476e-01,2.824369160990317443e-02,2.023843842844498808e-01,-4.427110425252058223e-01
6.919999999999999485e-01,3.280759229133164423e-01,2.557224669427958785e-01,-4.205665129613630482e-01
6.929999999999999494e-01,2.841506114420601081e-01,1.095316543692543276e-01,-2.379919362194316823e-01
6.939999999999999503e-01,-1.168888093521815996e-01,2.578757619952590924e-02,-1.042866310585138095e-01
6.949999999999999512e-01,-5.615929479157273363e-01,1.479397958498742949e-01,-1.394817975000070542e-01
6.959999999999999520e-01,-6.383146329292873622e-01,3.784777234057009609e-01,-2.518991003691405939e-01
6.969999999999999529e-01,-3.551380932921432421e-01,4.237794136350993557e-01,-2.609919136099699277e-01
6.979999999999999538e-01,3.783975307204753141e-02,1.777288260417768939e-01,-1.015166133574806617e-01
6.989999999999999547e-01,1.645193042679050088e-01,-1.705911361182403108e-01,1.023755648575291749e-01
6.999999999999999556e-01,2.198584164525597615e-02,-3.265055475812065344e-01,1.535848886791228718e-01
7.009999999999999565e-01,-1.170090972024038084e-01,-1.277321030874803143e-01,-3.879239976635405485e-02
7.019999999999999574e-01,-2.170082783880768890e-02,2.428708527084644797e-01,-3.375568263148869819e-01
7.029999999999999583e-01,2.456314052345531795e-01,4.722307586692560122e-01,-4.765723878486422538e-01
7.039999999999999591e-01,4.136295373561288402e-01,3.966207586273900465e-01,-3.621295100207350126e-01
7.049999999999999600e-01,2.119387849973372595e-01,1.974848902673287110e-01,-1.336061414319757168e-01
7.059999999999999609e-01,-2.497284983068526476e-01,1.402804836777526987e-01,1.945375550996865594e-03
7.069999999999999618e-01,-5.297369710586502523e-01,2.760686901697827489e-01,-3.147683693575614033e-02
7.079999999999999627e-01,-4.038724213782910466e-01,4.274359740550415787e-01,-1.379264225047470427e-01
7.089999999999999636e-01,2.469923428623432143e-02,3.444057967312709745e-01,-1.457586451972198438e-01
7.099999999999999645e-01,3.991791918630264724e-01,3.761186812028299853e-02,3.939964877886907059e-03
7.109999999999999654e-01,4.217816704200370026e-01,-2.160677102895694202e-01,1.467667177244889598e-01
7.119999999999999662e-01,1.903293250136309234e-01,-1.593425294603846021e-01,1.157226289307778794e-01
7.129999999999999671e-01,4.239372421552016490e-02,2.037607173188059340e-01,-1.157705006930398323e-01
7.139999999999999680e-01,1.593371501051999706e-01,5.455390351099144164e-01,-3.591929770457630289e-01
7.149999999999999689e-01,3.862993444799371345e-01,6.010402468289532951e-01,-3.987305080929699486e-01
7.159999999999999698e-01,3.929024759735271211e-01,3.946130203753486221e-01,-2.047201457806442082e-01
7.169999999999999707e-01,1.144240653992858459e-01,1.672219197480761532e-01,5.786949537962615686e-02
7.179999999999999716e-01,-2.827407964475981972e-01,1.469664474167577672e-01,1.656847191633828154e-01
7.189999999999999725e-01,-3.770362984295081432e-01,2.996375184420099202e-01,9.695582959105338017e-02
7.199999999999999734e-01,-4.163930783800957186e-02,3.671083371547577689e-01,-3.864216714825799426e-02
7.209999999999999742e-01,4.367500195713293620e-01,1.938821460762946147e-01,-3.790402425561573141e-02
7.219999999999999751e-01,6.990114845447307212e-01,-8.259891446750283750e-02,8.509354073695103715e-02
7.229999999999999760e-01,5.595755009838089267e-01,-1.432970265458714532e-01,1.930300706620180218e-01
7.239999999999999769e-01,2.456727179725285148e-01,9.364819912342152441e-02,9.983811422561941762e-02
7.249999999999999778e-01,1.000501621224167137e-01,4.770785054308349094e-01,-1.359062039882389106e-01
7.259999999999999787e-01,2.443330543176632230e-01,6.821028462148986948e-01,-3.132907456336145313e-01
7.269999999999999796e-01,4.119358216006406281e-01,5.383431518489799616e-01,-2.495529988366698426e-01
7.279999999999999805e-01,3.392140054013053074e-01,2.049563257324658605e-01,6.055295865119467852e-03
7.289999999999999813e-01,3.412274008156985367e-02,1.597819953219803066e-02,2.742972602120134495e-01
7.299999999999999822e-01,-2.207666690059745251e-01,7.364394339951606250e-02,3.189876008020154918e-01
7.309999999999999831e-01,-1.130405847346374754e-01,2.275531734175393617e-01,1.739083282188728097e-01
7.319999999999999840e-01,3.243228955962352833e-01,2.355615331701250981e-01,2.610205150337953015e-02
7.329999999999999849e-01,7.524812694298114168e-01,4.986710128179236423e-02,1.931272740108318578e-02
7.339999999999999858e-01,8.247187209336490632e-01,-1.201147113421560109e-01,1.340429554483704155e-01
7.349999999999999867e-01,5.188440924682289346e-01,-3.488279085374495353e-02,2.053769187977986244e-01
7.359999999999999876e-01,1.479574932219305805e-01,3.013920385454495476e-01,1.029541086507714531e-01
7.369999999999999885e-01,4.775997960961930050e-02,5.938905489636024937e-01,-1.001096734607634514e-01
7.379999999999999893e-01,2.308407060828819024e-01,5.821186202881172278e-01,-2.032098564343483571e-01
7.389999999999999902e-01,3.812764700240837135e-01,2.542837600571307699e-01,-5.460906458093336968e-02
7.399999999999999911e-01,2.695286881654061495e-01,-9.832528006365694184e-02,2.396688701714141112e-01
7.409999999999999920e-01,-3.999738752963172793e-03,-1.703151262532699994e-01,4.362588299762373834e-01
7.419999999999999929e-01,-1.125568727937963226e-01,-1.011137633645585931e-03,4.102409739780862319e-01
7.429999999999999938e-01,1.422034584773682053e-01,1.607980056036391880e-01,2.046733191659541040e-01
7.439999999999999947e-01,6.039019662831991431e-01,1.109119083710706916e-01,2.348118978571273052e-02
7.449999999999999956e-01,8.728199494051711582e-01,-6.621144474116730239e-02,3.800465937568547198e-02
7.459999999999999964e-01,7.084725056681828725e-01,-1.236782645099164524e-01,1.507818891289649521e-01
7.469999999999999973e-01,2.658810487602704664e-01,7.935183150206985558e-02,2.038600690885199740e-01
7.479999999999999982e-01,-7.597051087788379842e-02,3.913059450657502825e-01,1.066809714999888553e-01
7.489999999999999991e-01,-6.206367710366390844e-02,5.044798320561177940e-01,-5.093692306976931039e-02
7.500000000000000000e-01,1.774263278465160742e-01,2.671815718008987428e-01,-7.139103052896574042e-02
7.510000000000000009e-01,3.189603993784487224e-01,-1.432550934802607201e-01,1.280888722564245130e-01
7.520000000000000018e-01,1.929290381192781401e-01,-3.720269805009514541e-01,4.123571580209234311e-01
7.530000000000000027e-01,-1.182899197821936886e-02,-2.898444009860644544e-01,5.264384956162760920e-01
7.540000000000000036e-01,-8.647843657442311205e-03,-3.117274461562799526e-02,3.940406916227640055e-01
7.550000000000000044e-01,3.129108762215311867e-01,1.060334066543143494e-01,1.233559482189861001e-01
7.560000000000000053e-01,6.867034703101511095e-01,7.630974241115150852e-03,-2.795515494519077576e-02
7.570000000000000062e-01,7.467935889113371806e-01,-1.365063848619301745e-01,1.848041308018553291e-02
7.580000000000000071e-01,3.770667601014802139e-01,-1.155578231492457308e-01,1.458438162670238347e-01
7.590000000000000080e-01,-1.173834999450700384e-01,1.060182037987212056e-01,2.203260846272151741e-01
7.600000000000000089e-01,-3.179925967952914045e-01,3.135074225907913403e-01,1.269553626255203738e-01
7.610000000000000098e-01,-1.622994890253796063e-01,2.288258668989019695e-01,1.463757243811011736e-02
7.620000000000000107e-01,1.498543733338958406e-01,-1.393000635629474682e-01,4.305520357787509522e-02
7.630000000000000115e-01,2.732847982633385686e-01,-4.930099462974061875e-01,2.501480844790300306e-01
7.640000000000000124e-01,1.192180704762423604e-01,-5.335710450576973685e-01,4.696136949532838112e-01
7.650000000000000133e-01,-5.825658311292531560e-02,-2.790232986577585450e-01,4.843700768749805707e-01
7.660000000000000142e-01,2.625783369138929429e-02,5.627565333588754014e-03,2.673133486026396111e-01
7.670000000000000151e-01,3.330220559970185068e-01,7.471873413491846028e-02,-1.711787516513283564e-02
7.680000000000000160e-01,5.629261173830371057e-01,-9.488291528820425036e-02,-1.334329780760141193e-01
7.690000000000000169e-01,4.024159028906488245e-01,-2.198672719375021900e-01,-2.160216266231489157e-02
7.700000000000000178e-01,-6.919991238874111106e-02,-1.363939076684772544e-01,1.502191265209943949e-01
7.710000000000000187e-01,-4.876535488298778254e-01,7.429825145241807094e-02,2.287537378528352039e-01
7.720000000000000195e-01,-5.049367344381023859e-01,1.091076092286724364e-01,1.329731662245904611e-01
7.730000000000000204e-01,-1.885244135917431008e-01,-1.103915457131747629e-01,3.586592478935464456e-02
7.740000000000000213e-01,1.572529188983585180e-01,-4.900123128132796158e-01,8.366208945524845897e-02
7.750000000000000222e-01,1.988918739440327932e-01,-6.766142049467135378e-01,2.848830461998592134e-01
7.760000000000000231e-01,9.039791027907466414e-03,-5.016434966992101563e-01,4.254876999654867986e-01
7.770000000000000240e-01,-1.391675092420809334e-01,-1.343131987228891044e-01,3.412019594776288800e-01
7.780000000000000249e-01,-3.107461408419365245e-02,9.506294706088622148e-02,7.240691575923167977e-02
7.790000000000000258e-01,2.259082159410638058e-01,2.154951007785269393e-02,-1.841616870861566557e-01
7.800000000000000266e-01,2.902027182099468083e-01,-1.935990070075166714e-01,-2.276276946519785183e-01
7.810000000000000275e-01,-2.341050440435105823e-02,-2.878783128975176409e-01,-5.268590630173285855e-02
7.820000000000000284e-01,-4.855719635750475049e-01,-1.724750804878771582e-01,1.649747083762483912e-01
7.830000000000000293e-01,-7.251730108910935391e-01,-3.489512822467850939e-02,2.239967992181808309e-01
7.840000000000000302e-01,-5.328008623080082717e-01,-1.101696562679528452e-01,1.062355185237528338e-01
7.850000000000000311e-01,-1.027909180028449970e-01,-4.025384419168144268e-01,1.276824294263752008e-03
7.860000000000000320e-01,1.852374557775281760e-01,-6.560137363643072650e-01,6.059904557700773048e-02
7.870000000000000329e-01,1.248883082429881053e-01,-6.190971780509920697e-01,2.070484154684004707e-01
7.880000000000000338e-01,-1.434383278822742858e-01,-2.684104953073411792e-01,2.768110988209441792e-01
7.890000000000000346e-01,-2.837747862475240024e-01,8.186967267189323993e-02,1.348338247426477399e-01
7.900000000000000355e-01,-1.616736954018152816e-01,1.579118782899489593e-01,-1.472779468392140523e-01
7.910000000000000364e-01,3.296257267458556350e-02,-6.186003838708339919e-02,-3.368395056541096944e-01
7.920000000000000373e-01,-1.634869920144570860e-02,-3.063949845436987340e-01,-2.804088832241005136e-01
7.930000000000000382e-01,-3.777963347952864037e-01,-3.340393142182519481e-01,-3.720373290456570337e-02
7.940000000000000391e-01,-7.485462222350571793e-01,-1.953952959114797217e-01,1.744089759868217293e-01
7.950000000000000400e-01,-7.867134247445527473e-01,-1.136787898660091695e-01,1.862272131894000815e-01
7.960000000000000409e-01,-4.057132703806472507e-01,-2.420217222896776377e-01,4.340488902090400281e-02
7.970000000000000417e-01,6.726612312467111776e-02,-5.055394449995938011e-01,-7.248880502925696134e-02
7.980000000000000426e-01,2.173344733136572393e-01,-5.826344013911252118e-01,-4.256449679377095896e-02
7.990000000000000435e-01,-2.673826889681759494e-03,-3.509684399739166349e-01,7.235058982089402624e-02
8.000000000000000444e-01,-3.198946248727995711e-01,4.224702875299684440e-02,8.835286605810420413e-02
8.010000000000000453e-01,-4.284146371680521703e-01,2.676961652355541177e-01,-7.950598357118369985e-02
8.020000000000000462e-01,-2.844864857594128216e-01,1.411187240285708688e-01,-3.335079554285974024e-01
8.030000000000000471e-01,-1.335236525341390035e-01,-1.750351330037160924e-01,-4.207059765886754787e-01
8.040000000000000480e-01,-2.614166463745536406e-01,-3.716088233579822320e-01,-2.719249903837974713e-01
8.050000000000000488e-01,-5.923010941599311519e-01,-3.295894212684695179e-01,7.893386497763383094e-03
8.060000000000000497e-01,-7.963657902125996779e-01,-1.391763826063044940e-01,1.749702546018026827e-01
8.070000000000000506e-01,-6.199279566442891243e-01,-9.757118994676214352e-02,1.160504328170647165e-01
8.080000000000000515e-01,-1.423325123981001028e-01,-2.571293138055186223e-01,-8.089205182923965565e-02
8.090000000000000524e-01,2.331664868149233016e-01,-4.249287597234525093e-01,-2.077264701305173711e-01
8.100000000000000533e-01,1.994727099990373509e-01,-3.310210998669824711e-01,-1.594124150134177964e-01
8.110000000000000542e-01,-1.517936530084868507e-01,1.448990634792902965e-02,-5.373316150113188056e-02
8.120000000000000551e-01,-4.970321866477462325e-01,3.357425057403130575e-01,-6.227941102065411710e-02
8.129999999999999449e-01,-5.184363653405938965e-01,3.499711968139778140e-01,-2.379736638413048888e-01
8.139999999999999458e-01,-3.187532228237935916e-01,4.304274841380562044e-02,-4.316873254412579297e-01
8.149999999999999467e-01,-1.844636926109089192e-01,-2.922217025894237596e-01,-4.246956198577252484e-01
8.159999999999999476e-01,-3.449642193212838492e-01,-3.702867219127290443e-01,-2.041273828257688105e-01
8.169999999999999485e-01,-5.889166186163663497e-01,-1.826166318895105778e-01,7.291647505927506545e-02
8.179999999999999494e-01,-6.092898595486824220e-01,4.785330796056070854e-03,1.581560592355787664e-01
8.189999999999999503e-01,-2.986904924324123578e-01,7.255949902259174744e-03,3.014428972024950706e-02
8.199999999999999512e-01,1.629936827999498017e-01,-1.508747107519231023e-01,-2.127285376526047989e-01
8.209999999999999520e-01,3.605249432631451034e-01,-1.979862262923392513e-01,-3.254935045214906730e-01
8.219999999999999529e-01,1.228740016488632514e-01,3.396983031796418483e-03,-2.625243573317356804e-01
8.229999999999999538e-01,-3.222570629321417912e-01,3.374085040792830226e-01,-1.425805418809682201e-01
8.239999999999999547e-01,-5.938313605364140546e-01,4.900242186995191207e-01,-1.593110186815921703e-01
8.249999999999999556e-01,-4.925614665581858898e-01,2.820412291973274921e-01,-2.882219895194227388e-01
8.259999999999999565e-01,-2.140151548375657242e-01,-1.033521319382677689e-01,-4.209440783073218895e-01
8.269999999999999574e-01,-9.494889853844301619e-02,-3.315898297043998744e-01,-3.355601137385619825e-01
8.279999999999999583e-01,-2.283934668829115389e-01,-2.398260817178693161e-01,-8.838147746479894928e-02
8.289999999999999591e-01,-4.088461341856702291e-01,5.408730298868437425e-02,1.465527584296360264e-01
8.299999999999999600e-01,-3.122466562738526186e-01,2.217488149629984751e-01,1.476308133491652519e-01
8.309999999999999609e-01,5.922600882097015657e-02,1.700690983917262089e-01,-7.007502418711687719e-02
8.319999999999999618e-01,4.136592524707348173e-01,2.959066026831589855e-02,-3.176311123493316124e-01
8.329999999999999627e-01,3.876515825949568006e-01,6.376219217605043343e-02,-3.912557915267994013e-01
8.339999999999999636e-01,4.696692952590953742e-03,2.928787620417384607e-01,-2.775702503527643916e-01
8.349999999999999645e-01,-4.398236085762740055e-01,5.052469032960690276e-01,-1.468656807563756550e-01
8.359999999999999654e-01,-5.613639773783182241e-01,4.568532306130058118e-01,-1.398045571243147767e-01
8.369999999999999662e-01,-3.110657980067998984e-01,1.278889901162157394e-01,-2.569550023442190856e-01
8.379999999999999671e-01,3.108133065104760548e-02,-2.197224922863745544e-01,-3.166443686794974677e-01
8.389999999999999680e-01,1.175583935894578547e-01,-2.512579825806698919e-01,-2.021770073167642734e-01
8.399999999999999689e-01,-2.303681176414486276e-02,8.250714732574750132e-03,5.351490584407137679e-02
8.409999999999999698e-01,-1.412820659208575413e-01,3.189571359168362208e-01,2.035944741852519779e-01
8.419999999999999707e-01,1.409749878415912476e-02,4.243377161416636012e-01,1.103040119062082686e-01
8.429999999999999716e-01,3.656832899223739219e-01,2.860477012855993095e-01,-1.595320824774929258e-01
8.439999999999999725e-01,5.350119470068752658e-01,1.568117972231206914e-01,-3.796423706396380715e-01
8.449999999999999734e-01,3.297170513455672802e-01,2.194747413106252765e-01,-3.890740581193832814e-01
8.459999999999999742e-01,-1.474256813074598660e-01,4.356877402026352319e-01,-2.033491292808982109e-01
8.469999999999999751e-01,-4.622345735785470811e-01,5.180491405463111265e-01,-4.117457961189528032e-02
8.479999999999999760e-01,-3.657107540116912858e-01,2.987284268532583442e-01,-3.626973490803157146e-02
8.489999999999999769e-01,2.999478463979766626e-02,-5.997045018779904868e-02,-1.376338575445379964e-01
8.499999999999999778e-01,3.545787865678897144e-01,-2.456710288634635642e-01,-1.635421773670955592e-01
8.509999999999999787e-01,3.777037408264044549e-01,-5.994725851749484885e-02,-4.093772362564148531e-02
8.519999999999999796e-01,1.832102323530606369e-01,3.046418862300372399e-01,1.546061146162722444e-01
8.529999999999999805e-01,8.211147859642349556e-02,5.502368130606107854e-01,2.363645584736791538e-01
8.539999999999999813e-01,2.595202271176955677e-01,4.970243229106811045e-01,6.748389686339106852e-02
8.549999999999999822e-01,5.085308542078001981e-01,2.906657891770097479e-01,-2.176007267972102366e-01
8.559999999999999831e-01,5.344746822509668371e-01,1.624980787991287534e-01,-3.728733309278519648e-01
8.569999999999999840e-01,2.015394384311741116e-01,2.689230343554153690e-01,-2.865991204605375930e-01
8.579999999999999849e-01,-2.297569521993960417e-01,4.212662350307925796e-01,-4.290568347873105481e-02
8.589999999999999858e-01,-3.609982793894190856e-01,3.658291241951620587e-01,1.354340571470665222e-01
8.599999999999999867e-01,-7.069688601899881686e-02,8.743072702862365875e-02,1.032330312057449101e-01
8.609999999999999876e-01,3.922246252651623855e-01,-1.883003705755637858e-01,-7.263029113256225418e-03
8.619999999999999885e-01,6.465618625357205662e-01,-1.639485758754203326e-01,-3.548137732497395891e-02
8.629999999999999893e-01,5.263515128249331987e-01,1.754158692799748509e-01,7.866001231149678807e-02
8.639999999999999902e-01,2.716654946699765816e-01,5.223845668107823803e-01,2.378511063423215111e-01
8.649999999999999911e-01,1.801969007259811573e-01,5.957704754761404820e-01,2.333312794012188107e-01
8.659999999999999920e-01,3.462112702404344100e-01,3.906125302062389837e-01,1.850550125161869869e-02
8.669999999999999929e-01,5.232277650475835040e-01,1.379216486264046582e-01,-2.181128536453109668e-01
8.679999999999999938e-01,4.191462588713799620e-01,6.219415010906682861e-02,-2.952746035148649528e-01
8.689999999999999947e-01,4.804295057794150114e-02,1.946293316821058605e-01,-1.215318712264580880e-01
8.699999999999999956e-01,-2.554290762583131813e-01,2.854555967644546999e-01,1.663111944277523568e-01
8.709999999999999964e-01,-1.708601699406135099e-01,1.519161231403400314e-01,3.111975244140132713e-01
8.719999999999999973e-01,2.661994341993492164e-01,-1.166760138256962148e-01,2.536596681087728844e-01
8.729999999999999982e-01,6.992442870431182511e-01,-2.204961468133627700e-01,9.780315891070961998e-02
8.739999999999999991e-01,7.865183604462721023e-01,-1.034530644029016573e-02,4.843030320682605028e-02
8.750000000000000000e-01,5.094666529718745451e-01,3.677386816446623352e-01,1.554456148611336186e-01
8.760000000000000009e-01,2.125310075953063260e-01,5.911723843645224630e-01,2.615661110933327205e-01
8.770000000000000018e-01,1.463933115911131011e-01,4.522444249918571302e-01,2.219507323021121803e-01
8.780000000000000027e-01,3.199614043980512079e-01,1.272155699070750823e-01,2.689980076404749950e-03
8.790000000000000036e-01,4.397649967209515953e-01,-1.113983285185385225e-01,-1.929109451999831415e-01
8.800000000000000044e-01,2.631416782263781839e-01,-8.590361065144476449e-02,-1.612772365409270159e-01
8.810000000000000053e-01,-6.638663250985676889e-02,7.806440895335219066e-02,9.178494060407217658e-02
8.820000000000000062e-01,-1.900342379631167755e-01,1.167758252376267236e-01,3.578954142725169207e-01
8.830000000000000071e-01,6.020204545513960920e-02,-4.139136551310237250e-02,4.429641096866697714e-01
8.840000000000000080e-01,5.331626967830612740e-01,-2.245373846469469192e-01,3.057037513034370768e-01
8.850000000000000089e-01,8.279796554710474599e-01,-1.751117788414029708e-01,1.216425443880308904e-01
8.860000000000000098e-01,7.078577587762140411e-01,1.347509253524892259e-01,7.265245759885530230e-02
8.870000000000000107e-01,3.023714906578675587e-01,4.328010112221737371e-01,1.787991346522091463e-01
8.880000000000000115e-01,2.532005524254038117e-03,4.420596299277397279e-01,2.518545595945942406e-01
8.890000000000000124e-01,5.052288350014686770e-03,1.346051028133897487e-01,1.922245285557118710e-01
8.900000000000000133e-01,2.244542967217527385e-01,-2.255816666112041846e-01,-9.818984511384352618e-03
8.910000000000000142e-01,2.930313808441664669e-01,-3.571595655372881151e-01,-1.156742875859795711e-01
8.920000000000000151e-01,9.816558372139265465e-02,-1.967153882825351530e-01,-1.336120447739794909e-02
8.930000000000000160e-01,-1.376520162987627804e-01,-1.580109138341177777e-02,2.706076603261133307e-01
8.940000000000000169e-01,-1.163804042446652531e-01,-1.125316200532598850e-02,4.948173140971518502e-01
8.950000000000000178e-01,2.289780002629158429e-01,-1.774127773907445138e-01,4.855113674879663055e-01
8.960000000000000187e-01,6.521873237258202227e-01,-2.552195959575830342e-01,2.772606413696697136e-01
8.970000000000000195e-01,7.215872855113101281e-01,-1.030579636347607048e-01,6.580687837198100076e-02
8.980000000000000204e-01,4.025293133286635960e-01,1.988100734008001191e-01,2.365616717640928873e-02
8.990000000000000213e-01,-7.307338376361623145e-02,3.313034045401293537e-01,1.351176136972118413e-01
9.000000000000000222e-01,-2.844513795350606111e-01,1.307129347877159509e-01,2.094132305283807061e-01
9.010000000000000231e-01,-1.501374097141216779e-01,-2.803559718745622376e-01,1.427165010645587151e-01
9.020000000000000240e-01,1.046917001416982351e-01,-5.406521897013505384e-01,-8.846871073866694954e-03
9.030000000000000249e-01,1.533851184549386848e-01,-4.795785460857630578e-01,-5.944021181175616897e-02
9.040000000000000258e-01,-2.489480183362322366e-02,-2.044540335557957778e-01,1.020167663795050611e-01
9.050000000000000266e-01,-1.836457113242725980e-01,-3.991472371520507489e-02,3.618427835769743028e-01
9.060000000000000275e-01,-7.143261288838664846e-02,-9.292219648028920975e-02,5.176728316311809408e-01
9.070000000000000284e-01,2.946885758516833986e-01,-2.524025682319266384e-01,3.994185008474953058e-01
9.080000000000000293e-01,5.611951135092539955e-01,-2.535264282342842845e-01,1.236017414375569640e-01
9.090000000000000302e-01,4.237345683733064750e-01,-4.634400893977397989e-02,-7.744283138882461504e-02
9.100000000000000311e-01,-3.346549501959789757e-02,1.591140543033278398e-01,-6.017283298171988148e-02
9.110000000000000320e-01,-4.513578513181434881e-01,1.023708648259551435e-01,8.426613210017400157e-02
9.120000000000000329e-01,-5.084055604506614312e-01,-2.302330561764708294e-01,1.880382875103131235e-01
9.130000000000000338e-01,-2.385106527797404563e-01,-6.041192811532755114e-01,1.162308288701991155e-01
9.140000000000000346e-01,4.310085551611556737e-02,-6.728602744338950670e-01,-7.312770159783127388e-03
9.150000000000000355e-01,6.805348824152344933e-02,-4.135914719266216566e-01,-2.481503009553872457e-02
9.160000000000000364e-01,-1.289575075803110205e-01,-9.805695599408070784e-02,1.568909939218214589e-01
9.170000000000000373e-01,-2.489043223018970741e-01,1.369401677867036760e-02,3.704256762997619190e-01
9.180000000000000382e-01,-5.915374579525663201e-02,-1.298508373681254435e-01,4.140584689693070919e-01
9.190000000000000391e-01,2.370209949589344167e-01,-2.865027511927315529e-01,2.283979067747930747e-01
9.200000000000000400e-01,3.248603234750756519e-01,-2.356451187984949236e-01,-6.649103022167300592e-02
9.210000000000000409e-01,2.304359751850680940e-02,-4.168802424088186021e-02,-2.296307521990696709e-01
9.220000000000000417e-01,-4.798047669784032410e-01,3.791748436303923192e-02,-1.445771188418337461e-01
9.230000000000000426e-01,-7.579259949703758270e-01,-1.601550067357434270e-01,5.156834459631168960e-02
9.240000000000000435e-01,-5.875981522460230755e-01,-5.078179490378651462e-01,1.421900644636162891e-01
9.250000000000000444e-01,-2.018544182673148168e-01,-7.033937260320326512e-01,8.429136834542916290e-02
9.260000000000000453e-01,6.631663229840825680e-02,-5.457700186935308118e-01,-3.365524341115160023e-02
9.270000000000000462e-01,6.715400220456821910e-03,-1.739959908828426216e-01,-3.310375771878164980e-02
9.280000000000000471e-01,-2.242204383983869287e-01,9.133434062460274450e-02,1.371891472552237146e-01
9.290000000000000480e-01,-3.014112202949677521e-01,4.756827444389569864e-02,2.790771175015778760e-01
9.300000000000000488e-01,-1.264431092271731116e-01,-1.678256465963435806e-01,2.358153263183382642e-01
9.310000000000000497e-01,8.993601361346584278e-02,-2.907642246278015485e-01,-1.329180545703733188e-02
9.320000000000000506e-01,3.353378906098538476e-02,-2.167968341797611997e-01,-2.838859503149741559e-01
9.330000000000000515e-01,-3.736647355848241037e-01,-4.680178482067211265e-02,-3.728492804086137591e-01
9.340000000000000524e-01,-7.751168772506830118e-01,-7.324638829536686546e-02,-1.867187098523063749e-01
9.350000000000000533e-01,-8.327764186313454386e-01,-3.403711550850114786e-01,4.529093904337953141e-02
9.360000000000000542e-01,-4.890066415906286212e-01,-5.869197212660925977e-01,1.126092315895074331e-01
9.370000000000000551e-01,-3.762156851109800526e-02,-5.711215761288143122e-01,2.038522311538365495e-02
9.379999999999999449e-01,1.248530774693211581e-01,-2.393094062692875945e-01,-9.119256697860320116e-02
9.389999999999999458e-01,-5.397911118597734093e-02,1.575649719604841348e-01,-8.677456819379630870e-02
9.399999999999999467e-01,-3.248500787705526638e-01,2.457662870022984392e-01,5.551837856163690382e-02
9.409999999999999476e-01,-3.645450146671437297e-01,5.181340046012761213e-02,1.404782779013217242e-01
9.419999999999999485e-01,-1.852340919121678031e-01,-2.113661714854361273e-01,2.370138374141144560e-02
9.429999999999999494e-01,-7.070821944787492042e-02,-2.833896501135416690e-01,-2.345837421322555794e-01
9.439999999999999503e-01,-2.255186756825955374e-01,-1.526672905130744828e-01,-4.414386233087913558e-01
9.449999999999999512e-01,-6.058260787133575853e-01,-3.090690047197267032e-02,-4.087557147884832709e-01
9.459999999999999520e-01,-8.351819909347929505e-01,-1.240486922355203275e-01,-1.764632216216684424e-01
9.469999999999999529e-01,-6.812883106365675845e-01,-3.517028280889725189e-01,5.572635725202464141e-02
9.479999999999999538e-01,-2.028391889950025839e-01,-4.471038054486300428e-01,9.737515337711905028e-02
9.489999999999999547e-01,1.927171186171847128e-01,-2.509929773569055667e-01,-2.879558522077844268e-02
9.499999999999999556e-01,1.823812609492982961e-01,1.542424925162034777e-01,-1.691241158273589229e-01
9.509999999999999565e-01,-1.278932510204099648e-01,4.089080510945925506e-01,-1.682253411295111800e-01
9.519999999999999574e-01,-4.144893023756690553e-01,3.078895184698577370e-01,-5.066896503203154045e-02
9.529999999999999583e-01,-4.067930954458582882e-01,-1.288786205876497025e-02,-8.957706060368452600e-03
9.539999999999999591e-01,-2.070325662381773124e-01,-2.581168574504938973e-01,-1.452893874661859153e-01
9.549999999999999600e-01,-1.305906959890198171e-01,-2.242892208022753964e-01,-3.846580104399091038e-01
9.559999999999999609e-01,-3.461023370514246245e-01,-3.006146127088524245e-02,-5.012370112134097999e-01
9.569999999999999618e-01,-6.247343720235835063e-01,6.391077993549371117e-02,-3.719224418397200083e-01
9.579999999999999627e-01,-6.871034954046731924e-01,-6.245650181316324961e-02,-8.550576064784677632e-02
9.589999999999999636e-01,-3.416110408876863458e-01,-2.302712617482349511e-01,1.277933019005427218e-01
9.599999999999999645e-01,1.433964069333582558e-01,-1.808627180822153790e-01,9.258202586289165925e-02
9.609999999999999654e-01,3.745687320918875685e-01,1.355008690868235721e-01,-1.014206664574527905e-01
9.619999999999999662e-01,1.738764162658545387e-01,4.678691229817242281e-01,-2.654333060667810607e-01
9.629999999999999671e-01,-2.326579404766017933e-01,5.034202381880683586e-01,-2.497516696162439265e-01
9.639999999999999680e-01,-4.708961611970589045e-01,2.189415607907230776e-01,-1.315920380797266642e-01
9.649999999999999689e-01,-3.622783995902824627e-01,-1.242339157659419491e-01,-1.056488480308548777e-01
9.659999999999999698e-01,-1.367566606177583466e-01,-2.343634687906158143e-01,-2.284114134311537869e-01
9.669999999999999707e-01,-7.764620240734647350e-02,-6.821483154517464509e-02,-4.099719154462840298e-01
9.679999999999999716e-01,-2.781000372504019436e-01,1.444934318215329583e-01,-4.481821453345517514e-01
9.689999999999999725e-01,-4.702693463362162540e-01,1.986260214961656223e-01,-2.445587434177656783e-01
9.699999999999999734e-01,-3.403650892742735579e-01,6.252973220299917756e-02,4.656428164288120564e-02
9.709999999999999742e-01,6.509360833584242056e-02,-2.160327205794075611e-02,1.777996569537095006e-01
9.719999999999999751e-01,4.534736019462415335e-01,1.433871691704837192e-01,5.413164434059069413e-02
9.729999999999999760e-01,4.890447342060718072e-01,4.448550564851899702e-01,-1.731699027240477251e-01
9.739999999999999769e-01,1.066757046651970742e-01,6.059643897417702485e-01,-3.260866488973866439e-01
9.749999999999999778e-01,-3.198254870395677574e-01,4.360861454089928757e-01,-2.789082098086467787e-01
9.759999999999999787e-01,-4.488294886066981348e-01,3.611774686613249130e-02,-1.434099084895230081e-01
9.769999999999999796e-01,-2.237740144168141598e-01,-2.133371782578815934e-01,-1.118564730900086929e-01
9.779999999999999805e-01,5.064519380480526217e-02,-1.542000571772136064e-01,-2.254478896942099519e-01
9.789999999999999813e-01,9.315250650716171144e-02,1.498816333277074309e-01,-3.547761130476633218e-01
9.799999999999999822e-01,-8.576051982122824546e-02,3.544228989629876758e-01,-3.048555813428034944e-01
9.809999999999999831e-01,-1.869090157517103445e-01,3.253629764807052238e-01,-7.909378514292650375e-02
9.819999999999999840e-01,2.368547571256356121e-02,1.703679484414593326e-01,1.730914153039160297e-01
9.829999999999999849e-01,4.159003967047223416e-01,1.546395289103500992e-01,2.103271977942005322e-01
9.839999999999999858e-01,6.419989787242961210e-01,3.487903361548174153e-01,1.869768074875769945e-02
9.849999999999999867e-01,4.470724436733312657e-01,5.734833606607054879e-01,-2.332388104589445399e-01
9.859999999999999876e-01,-1.599019280113720895e-02,5.267678423588141312e-01,-3.475144062580012294e-01
9.869999999999999885e-01,-3.605541444794586048e-01,2.261207948940351653e-01,-2.403104253030482196e-01
9.879999999999999893e-01,-3.026164481108877813e-01,-1.370011272467277219e-01,-7.839293456409532346e-02
9.889999999999999902e-01,4.483806153053681437e-02,-2.168743572357492710e-01,-2.316447464911799634e-02
9.899999999999999911e-01,3.198924580136228712e-01,3.783549566017311433e-02,-1.179360127101968109e-01
9.909999999999999920e-01,3.156503554899536268e-01,3.728749891458878474e-01,-2.105919483438767059e-01
9.919999999999999929e-01,1.267939997151842912e-01,4.845957706735432580e-01,-1.161279587212063480e-01
9.929999999999999938e-01,8.997680242293527864e-02,3.657245491632410972e-01,1.014797540112726687e-01
9.939999999999999947e-01,3.087961469377302204e-01,1.962152472424535943e-01,2.766822129155435128e-01
9.949999999999999956e-01,6.168934458875806603e-01,2.277172687967431997e-01,2.294127221374419046e-01
9.959999999999999964e-01,6.464147992832056655e-01,4.042353804637487391e-01,-2.399925173828476241e-02
9.969999999999999973e-01,3.000791277413430991e-01,4.924087257388574113e-01,-2.740615639812579163e-01
9.979999999999999982e-01,-1.570164328811979315e-01,3.032611788541951792e-01,-2.965829408518041443e-01
9.989999999999999991e-01,-3.383299713558503563e-01,-4.138934086834155507e-02,-1.182526394868126246e-01
1.000000000000000000e+00,-6.059160274204718893e-02,-2.515399837408223704e-01,7.146263768459458487e-02
1.000999999999999890e+00,3.465561447489364788e-01,-1.154734503537882401e-01,1.146730723116738959e-01
1.002000000000000002e+00,5.778651215048750123e-01,2.413710786998448099e-01,2.312419998767713952e-02
1.002999999999999892e+00,4.746009600394738848e-01,5.163479679851652460e-01,-5.496109536699579634e-02
1.004000000000000004e+00,2.527383744833365253e-01,4.984261644997100005e-01,4.390479165624591035e-02
1.004999999999999893e+00,2.276886093061271377e-01,2.492967813823918632e-01,2.513373711445008318e-01
1.006000000000000005e+00,4.534280376919122557e-01,9.582492600983275044e-02,3.366161970605681120e-01
1.006999999999999895e+00,6.314673513745150402e-01,1.539432867406638761e-01,1.992405269833631976e-01
1.008000000000000007e+00,4.979561569158319490e-01,3.012239218373177208e-01,-7.566543632844574541e-02
1.008999999999999897e+00,1.068460212667268761e-01,2.831077426035744637e-01,-2.445058335628723378e-01
1.010000000000000009e+00,-2.542730329338965811e-01,2.694219573228787482e-02,-1.960751289126805852e-01
1.010999999999999899e+00,-2.080705224209573323e-01,-2.532052363272348505e-01,5.408757477109396583e-02
1.012000000000000011e+00,1.955857965308011870e-01,-2.575807084285248738e-01,2.487235310305670188e-01
1.012999999999999901e+00,6.171042756987656919e-01,3.759819596964165955e-02,2.661518379126022738e-01
1.014000000000000012e+00,7.184947127703948944e-01,4.119009504752075279e-01,1.488765319477137195e-01
1.014999999999999902e+00,4.844871767817191532e-01,5.094551516636929289e-01,7.398129999376878985e-02
1.016000000000000014e+00,2.311486599508401907e-01,3.226383327904720488e-01,1.590666492370622909e-01
1.016999999999999904e+00,2.223599736778252567e-01,1.578919048882574186e-02,3.068301502535466518e-01
1.018000000000000016e+00,4.176513745059520777e-01,-9.770590627993984423e-02,3.297816174909815046e-01
1.018999999999999906e+00,5.080529512525562286e-01,9.865633047837406300e-03,1.535812754434558725e-01
1.020000000000000018e+00,2.759080262077197032e-01,1.296290637361341702e-01,-9.193164147634287631e-02
1.020999999999999908e+00,-1.165677565922784292e-01,3.238230769884416216e-02,-2.046024744508881388e-01
1.022000000000000020e+00,-2.766311402668735209e-01,-2.111771830749671897e-01,-3.822769129187512244e-02
1.022999999999999909e+00,-4.096490887909224471e-02,-3.473610120681339120e-01,2.377642407329645102e-01
1.024000000000000021e+00,4.420782924226262511e-01,-1.682007209446355900e-01,4.090736955320136148e-01
1.024999999999999911e+00,7.555178657604681991e-01,1.901765985302945605e-01,3.639434303213564537e-01
1.026000000000000023e+00,6.565640507783958579e-01,4.438091888092225989e-01,1.960387932750205509e-01
1.026999999999999913e+00,2.999492231900898198e-01,3.289744122199694254e-01,1.120823470045902437e-01
1.028000000000000025e+00,4.565293664853770778e-02,-1.432856489843548770e-02,1.835603826493528157e-01
1.028999999999999915e+00,8.135403347618688774e-02,-2.773196739062107619e-01,3.039429667473867447e-01
1.030000000000000027e+00,2.688153254164326045e-01,-2.855648766452303366e-01,2.808866175774090701e-01
1.030999999999999917e+00,2.797036076423434769e-01,-1.216924348348310952e-01,9.592464760479037233e-02
1.032000000000000028e+00,3.086476410987487248e-02,-3.526072741426306695e-02,-1.113823464122821738e-01
1.032999999999999918e+00,-2.502837281822361537e-01,-1.594926849943774094e-01,-1.342846493488907278e-01
1.034000000000000030e+00,-2.472405907292322402e-01,-3.422880692741293585e-01,9.346501542765642268e-02
1.034999999999999920e+00,1.230172834966547224e-01,-3.343308498152737229e-01,3.807563437511716775e-01
1.036000000000000032e+00,5.638404158850736092e-01,-6.051414012591337099e-02,4.927459815322260961e-01
1.036999999999999922e+00,6.981035430146825815e-01,2.523925605442104425e-01,3.643668468290070517e-01
1.038000000000000034e+00,3.915552055160084199e-01,2.970514556173344256e-01,1.552847631377021476e-01
1.038999999999999924e+00,-3.176235725169545415e-02,1.022111982964364965e-02,6.500167991579486326e-02
1.040000000000000036e+00,-2.315354988669049430e-01,-3.814832051233461030e-01,1.343610671510539201e-01
1.040999999999999925e+00,-1.149653906712616303e-01,-5.193966725896127512e-01,2.412062660323400221e-01
1.042000000000000037e+00,8.079659829725865938e-02,-3.672370153626047240e-01,1.989717471586179842e-01
1.042999999999999927e+00,7.735517918372636359e-02,-1.650117382168068969e-01,1.967169481182923924e-02
1.044000000000000039e+00,-1.562814640542065647e-01,-1.110152088893174988e-01,-1.160136795039801022e-01
1.044999999999999929e+00,-3.233199110208058724e-01,-2.475011853008551865e-01,-4.685543442305616785e-02
1.046000000000000041e+00,-1.818551076165021707e-01,-3.648036631569589461e-01,2.082831732755293652e-01
1.046999999999999931e+00,2.268967120546211136e-01,-2.363636411676023064e-01,4.519120327150066840e-01
1.048000000000000043e+00,5.396321762808018452e-01,5.504134013113974599e-02,4.674944916614425794e-01
1.048999999999999932e+00,4.323422561702602307e-01,2.160570955881783717e-01,2.652505895017640003e-01
1.050000000000000044e+00,3.686585491739854600e-03,2.596602375163221607e-02,1.236880638904848742e-02
1.050999999999999934e+00,-4.201355600343901764e-01,-3.486209085295670640e-01,-5.679138159930888219e-02
1.052000000000000046e+00,-4.987751527860123657e-01,-6.421136341237972944e-01,4.848038016654560717e-02
1.052999999999999936e+00,-2.655907510206451660e-01,-5.955261345225476566e-01,1.431491581379934763e-01
1.054000000000000048e+00,-3.084535247142209530e-02,-3.061071515321061032e-01,1.134060774091995571e-01
1.054999999999999938e+00,-7.119351799176812379e-02,-8.831187015617325553e-02,-3.594622901235507845e-02
1.056000000000000050e+00,-2.680491235146189588e-01,-1.116889529383946755e-01,-1.193285878936894001e-01
1.056999999999999940e+00,-3.463771485627034075e-01,-2.549582152207050534e-01,2.440206545373278595e-04
1.058000000000000052e+00,-1.284100651264113713e-01,-3.084652884522534055e-01,2.530644813062177811e-01
1.058999999999999941e+00,2.307347498500643135e-01,-1.436605015499010096e-01,4.172416188846536089e-01
1.060000000000000053e+00,3.468998035557764315e-01,7.446142456720247771e-02,3.313255763058318704e-01
1.060999999999999943e+00,5.339898992299769998e-02,7.428074889515619283e-02,6.013807448946944384e-02
1.062000000000000055e+00,-4.395227686825572411e-01,-2.228373763332334723e-01,-1.750852014397032974e-01
1.062999999999999945e+00,-7.340719269042302875e-01,-5.961259217105263630e-01,-1.991224279025059773e-01
1.064000000000000057e+00,-6.183334254550242326e-01,-6.884341919208447624e-01,-4.376422101063989767e-02
1.064999999999999947e+00,-2.677170440519798800e-01,-4.451349687880581385e-01,7.835851181058668680e-02
1.066000000000000059e+00,-3.473311834746092147e-02,-1.011548706091130179e-01,3.333541359605938365e-02
1.066999999999999948e+00,-1.201661754539978116e-01,6.561068053061776262e-02,-7.991795912151071490e-02
1.068000000000000060e+00,-3.134561107409276071e-01,-5.627228709854602273e-02,-1.307092490614607805e-01
1.068999999999999950e+00,-3.404044604282427389e-01,-2.346685604352039822e-01,1.543486430161334320e-02
1.070000000000000062e+00,-9.716535425196889952e-02,-2.238612546380187862e-01,2.354126815564704656e-01
1.070999999999999952e+00,1.504626018735681636e-01,-4.920363779066645737e-02,3.025486760749437343e-01
1.072000000000000064e+00,1.003901144263135287e-01,7.949118210038876031e-02,1.327469942625733035e-01
1.072999999999999954e+00,-3.245418453272354564e-01,-8.921300791113080664e-02,-1.737253596804837763e-01
1.074000000000000066e+00,-7.673949397349782986e-01,-4.228341402991425690e-01,-3.572200127730923991e-01
1.074999999999999956e+00,-8.509322409981021629e-01,-6.277415439647884288e-01,-3.034715614423395547e-01
1.076000000000000068e+00,-5.356756415850708608e-01,-4.983736229408479157e-01,-1.067328836630346972e-01
1.076999999999999957e+00,-1.219386422551356486e-01,-1.147859312036259849e-01,3.643674875612987196e-02
1.078000000000000069e+00,4.090739269363464353e-02,1.910329088370368855e-01,2.043987210283918898e-04
1.078999999999999959e+00,-1.219507697938176510e-01,1.870112270378706809e-01,-1.287519452227251504e-01
1.080000000000000071e+00,-3.388267911074316352e-01,-3.169592139231672961e-02,-1.475170290227436065e-01
1.080999999999999961e+00,-3.234005650356436279e-01,-2.076154583317223468e-01,-6.157178869164954549e-03
1.082000000000000073e+00,-9.450617931663322924e-02,-1.348407100013572224e-01,1.439018846682242891e-01
1.082999999999999963e+00,3.373878337703006131e-02,2.753476650937368778e-02,1.287880981117408008e-01
1.084000000000000075e+00,-1.544532119786441449e-01,5.168661633139215450e-02,-9.855231527234571687e-02
1.084999999999999964e+00,-5.825870245140084558e-01,-1.802469139364853423e-01,-3.709975865048767418e-01
1.086000000000000076e+00,-8.543911150814221811e-01,-4.411894577827398245e-01,-4.796749362223124979e-01
1.086999999999999966e+00,-7.182783362606710575e-01,-4.364498299400409453e-01,-3.268325482916173974e-01
1.088000000000000078e+00,-2.747772331391125089e-01,-1.201743246099297308e-01,-8.997228101737458905e-02
1.088999999999999968e+00,1.142928689040823287e-01,2.659977160536276530e-01,4.732854343962924343e-02
1.090000000000000080e+00,1.512519879672974965e-01,4.043263952299006037e-01,-3.212047024765790626e-02
1.090999999999999970e+00,-1.118848657188127454e-01,2.313646094905691675e-01,-1.550329945163328726e-01
1.092000000000000082e+00,-3.452785589798167409e-01,-5.052381848740618298e-02,-1.939187662474099183e-01
1.092999999999999972e+00,-2.872114855495244146e-01,-1.625698404186959878e-01,-6.876057846254488015e-02
1.094000000000000083e+00,-8.717499589785596137e-02,-5.228556357990470776e-02,4.841917127832452011e-02
1.094999999999999973e+00,-4.630186356378526713e-02,1.070595589755039267e-01,-2.723627358572473095e-02
1.096000000000000085e+00,-2.962510638136445773e-01,5.426522105072154739e-02,-2.686000482729279937e-01
1.096999999999999975e+00,-6.444936839363140102e-01,-1.577196678095079685e-01,-5.010812328759467471e-01
1.098000000000000087e+00,-7.136250504738176348e-01,-2.645035255416526843e-01,-4.868309662827695616e-01
1.098999999999999977e+00,-3.776970618569325810e-01,-9.544187873578864612e-02,-2.507477190286464541e-01
1.100000000000000089e+00,1.111791336174625111e-01,2.789215917555964985e-01,2.780804392854221811e-03
1.100999999999999979e+00,3.704871170087351562e-01,5.526071410331612199e-01,8.827953884393724415e-02
1.102000000000000091e+00,2.193545278606690574e-01,4.848484469719146484e-01,-4.021540458393736001e-02
1.102999999999999980e+00,-1.439676168226701747e-01,1.523104787752974365e-01,-2.114990665157553684e-01
1.104000000000000092e+00,-3.449933905346933005e-01,-1.028866866894722482e-01,-2.405804413166569289e-01
1.104999999999999982e+00,-2.345373365741250660e-01,-1.041702593839019114e-01,-1.257811322983137525e-01
1.106000000000000094e+00,-3.391435407913889061e-02,8.410578245365483985e-02,-4.285386940816801604e-02
1.106999999999999984e+00,-3.469994868924197035e-02,2.085301712397211737e-01,-1.394246217870394600e-01
1.108000000000000096e+00,-2.802359141571050816e-01,1.345705523686761274e-01,-3.630471606844525856e-01
1.108999999999999986e+00,-5.009082986455060116e-01,-4.558002813925020325e-02,-5.013876553558471727e-01
1.110000000000000098e+00,-3.789926794341560434e-01,-2.834202545023553621e-02,-3.933077309776519814e-01
1.110999999999999988e+00,4.859462044529979513e-02,2.495590265209284841e-01,-1.058858500970808608e-01
1.112000000000000099e+00,4.792705250296663833e-01,5.688696561396994200e-01,1.219691754073905093e-01
1.112999999999999989e+00,5.390295106205933440e-01,6.495958529813984361e-01,1.295199987897546756e-01
1.114000000000000101e+00,2.138530832428078010e-01,3.765985262855159332e-01,-4.952374632734433957e-02
1.114999999999999991e+00,-1.873853021414692566e-01,-9.328108733419023316e-04,-2.318889480348134136e-01
1.116000000000000103e+00,-2.999830916798765790e-01,-1.548470095053708084e-01,-2.525634366723002455e-01
1.116999999999999993e+00,-1.187451851701284283e-01,2.262631859318400048e-03,-1.346049480555791267e-01
1.118000000000000105e+00,9.550364585297996256e-02,2.436214892831729817e-01,-7.588942905100420910e-02
1.118999999999999995e+00,7.927405909137906492e-02,3.274970080279011042e-01,-1.608956715919990510e-01
1.120000000000000107e+00,-1.373035655704493707e-01,1.916616196584579879e-01,-3.424381390644411494e-01
1.120999999999999996e+00,-2.232210881242881195e-01,9.270924958340640010e-02,-3.799424381255806504e-01
1.122000000000000108e+00,1.610806446725536120e-02,1.922788496513443413e-01,-2.033955226336197353e-01
1.122999999999999998e+00,4.532128412011490193e-01,4.799494210960637552e-01,8.630064528626957276e-02
1.124000000000000110e+00,7.143812547374057687e-01,6.568612249228888977e-01,2.466969213400301009e-01
1.125000000000000000e+00,5.396886633240196574e-01,5.036024956270997999e-01,1.591225065324857191e-01
1.125999999999999890e+00,9.054904687772995231e-02,1.347490118696339501e-01,-8.639231808877932683e-02
1.127000000000000002e+00,-2.576183325040938832e-01,-1.718286836323863753e-01,-2.559068384525265971e-01
1.127999999999999892e+00,-2.215979322266519447e-01,-1.451221084511640780e-01,-2.264274661896061025e-01
1.129000000000000004e+00,9.222679846138073789e-02,1.376884231697451111e-01,-8.675496844183856748e-02
1.129999999999999893e+00,3.024102325533110647e-01,3.830496471424845173e-01,-2.625826448914092906e-02
1.131000000000000005e+00,2.573107155900236642e-01,3.758327124862773649e-01,-9.665237083754721348e-02
1.131999999999999895e+00,6.930424238871324416e-02,2.117950208318341576e-01,-2.225379312295780176e-01
1.133000000000000007e+00,6.365483979090835742e-02,1.556934210968957677e-01,-2.020890186044205228e-01
1.133999999999999897e+00,3.437520389481154015e-01,2.972412528118459352e-01,3.812479467214868051e-03
1.135000000000000009e+00,6.867454174789683341e-01,5.211739509246549051e-01,2.621322281855747449e-01
1.135999999999999899e+00,7.523476574358815006e-01,5.090755206327158833e-01,3.376869517546661759e-01
1.137000000000000011e+00,3.909190957125765475e-01,2.133642047382511286e-01,1.534474205260310531e-01
1.137999999999999901e+00,-7.002148391307426445e-02,-1.667778296355705570e-01,-1.182663205458776706e-01
1.139000000000000012e+00,-2.666024846228647882e-01,-2.740521136651619116e-01,-2.616874977140818403e-01
1.139999999999999902e+00,-6.374277272448877762e-02,-4.550121134065264472e-02,-1.670359808427067660e-01
1.141000000000000014e+00,3.132444155164640920e-01,2.967269850806045217e-01,2.114203998626062661e-02
1.141999999999999904e+00,4.957345027737204979e-01,4.627309690887363991e-01,9.937571868031599975e-02
1.143000000000000016e+00,3.836835632382099570e-01,3.350960311628568555e-01,3.768299354166843723e-02
1.143999999999999906e+00,2.069628962363198044e-01,1.298574130371576152e-01,-7.261452687925916416e-02
1.145000000000000018e+00,2.402665643167375964e-01,1.164209367106671805e-01,-1.524678086092002421e-02
1.145999999999999908e+00,5.216463415635504974e-01,2.607644202213151852e-01,2.041762111844795391e-01
1.147000000000000020e+00,7.283204980850177535e-01,3.720676315404760071e-01,3.718726369117806851e-01
1.147999999999999909e+00,5.943333388970511999e-01,2.149982497530505965e-01,3.580472965974497157e-01
1.149000000000000021e+00,1.489101000361305327e-01,-1.265994441073128585e-01,1.265159504041048211e-01
1.149999999999999911e+00,-2.336847010461875485e-01,-3.601370828380557887e-01,-1.334861423186670670e-01
1.151000000000000023e+00,-2.292331855905546667e-01,-2.539441658706177440e-01,-2.188280106971975947e-01
1.151999999999999913e+00,1.346586289876356701e-01,1.028053043183463217e-01,-5.038966074010685359e-02
1.153000000000000025e+00,5.244816023902687530e-01,4.008379383447958633e-01,1.736220081522097669e-01
1.153999999999999915e+00,6.212768449828679485e-01,3.967654001788871732e-01,2.428522832964896128e-01
1.155000000000000027e+00,4.189748724483650100e-01,1.510740682807814039e-01,1.666495033782320889e-01
1.155999999999999917e+00,2.086667228711385769e-01,-4.592404457348479158e-02,7.495941442605250082e-02
1.157000000000000028e+00,2.688539507421205399e-01,-2.633149533266187364e-02,1.307197798285401891e-01
1.157999999999999918e+00,4.856148800230535856e-01,1.268826354884343699e-01,3.102276396225803201e-01
1.159000000000000030e+00,5.713841783159209209e-01,1.269685843498233602e-01,4.187142722840723197e-01
1.159999999999999920e+00,3.057096148079810338e-01,-9.328486422023711533e-02,3.154419718983594856e-01
1.161000000000000032e+00,-1.263132142377026146e-01,-3.697749025567127479e-01,4.669357835005540081e-02
1.161999999999999922e+00,-3.415421801390877699e-01,-4.139219270335557921e-01,-1.704797862039965362e-01
1.163000000000000034e+00,-1.283045260059600123e-01,-1.390044844218223385e-01,-1.452405452926884832e-01
1.163999999999999924e+00,3.406958979440971036e-01,2.396363699475078934e-01,7.775559053466710169e-02
1.165000000000000036e+00,6.492948343238852393e-01,3.728771734379967562e-01,3.246855874384103058e-01
1.165999999999999925e+00,5.817005766981295789e-01,1.827128401089701260e-01,3.576312049774575952e-01
1.167000000000000037e+00,2.856980586879314110e-01,-1.395695318290753884e-01,2.349219613619943636e-01
1.167999999999999927e+00,6.422984079790020062e-02,-2.793146662825465310e-01,1.361396346387877543e-01
1.169000000000000039e+00,1.459172539586585937e-01,-2.038775228519482674e-01,1.916223136882672373e-01
1.169999999999999929e+00,3.170716090730838488e-01,-4.831346823335462559e-02,3.113257591011538428e-01
1.171000000000000041e+00,2.972019993824743800e-01,-9.166735828534311459e-02,3.709516222552639575e-01
1.171999999999999931e+00,-3.286219901037577829e-03,-3.180378655804578791e-01,2.160528488695418470e-01
1.173000000000000043e+00,-3.498074082216878211e-01,-4.695878548243573869e-01,-4.093473296272170936e-02
1.173999999999999932e+00,-3.630179003806900395e-01,-3.295144637631565732e-01,-1.777222785820756212e-01
1.175000000000000044e+00,2.095279808756461346e-02,2.095303488491184751e-02,-5.639267506875013380e-02
1.175999999999999934e+00,4.684239210047204116e-01,2.743221010451339370e-01,2.184431487397267557e-01
1.177000000000000046e+00,6.201063195353258006e-01,2.183449135660567308e-01,4.265616719006064539e-01
1.177999999999999936e+00,3.740182312388122265e-01,-1.209718728136853078e-01,4.018473996911013923e-01
1.179000000000000048e+00,-1.777843072699461166e-02,-4.323321926540902305e-01,2.239763854715973168e-01
1.179999999999999938e+00,-1.955039977607134216e-01,-4.644713684269857201e-01,1.047225747627026221e-01
1.181000000000000050e+00,-8.536287851010200545e-02,-2.742206582050376040e-01,1.399496349150218255e-01
