time,acc_x,acc_y,acc_z
0.000000000000000000e+00,-4.598590815290405920e-01,-9.833615346713690808e-02,-3.415488079445299641e-01
1.000000000000000021e-03,-2.163692273691910639e-01,1.088164017161872971e-01,-2.781135827667834959e-01
2.000000000000000042e-03,7.498927823550488592e-02,2.857051241909946415e-01,-1.669474719114025230e-01
3.000000000000000062e-03,3.215793396569759377e-01,4.541885522371221229e-01,-3.388029947112759094e-02
4.000000000000000083e-03,5.861492853459394636e-01,5.401933834143753943e-01,1.200018288878024197e-01
5.000000000000000104e-03,6.418469922036366127e-01,4.859731619796810453e-01,3.212149457642847761e-01
6.000000000000000125e-03,6.002129495556917105e-01,3.386281405270161748e-01,3.292574818381143742e-01
7.000000000000000146e-03,4.630598410266790199e-01,1.798603285714963085e-01,3.308926732424811723e-01
8.000000000000000167e-03,2.655821526100864416e-01,-6.640683837421011704e-02,2.989454379694714836e-01
8.999999999999999320e-03,1.186821253507263675e-02,-2.304042196316860025e-01,2.020860225934895948e-01
1.000000000000000021e-02,-1.720409747478381379e-01,-3.372092605081430938e-01,8.622446833405021660e-02
1.099999999999999936e-02,-3.274876868812573449e-01,-3.755834185404809400e-01,-2.875567944931676362e-02
1.200000000000000025e-02,-3.920782722999229253e-01,-3.433066557653949857e-01,-1.328381249970608247e-01
1.299999999999999940e-02,-3.835880442239151811e-01,-2.664660348271808976e-01,-1.752643536841370087e-01
1.400000000000000029e-02,-3.019091165478784977e-01,-1.428762194832059185e-01,-2.224562598624496013e-01
1.499999999999999944e-02,-1.898280847124295678e-01,-2.949086427095732807e-02,-1.668663514724506303e-01
1.600000000000000033e-02,-1.187321387395398747e-01,3.710728995733276331e-02,-1.207442689099078731e-01
1.700000000000000122e-02,-2.145144250156908253e-02,9.366927169745833948e-02,-7.260939093938870159e-02
1.799999999999999864e-02,1.775421961357650028e-02,1.301710368372197280e-01,-6.359053025692248950e-02
1.899999999999999953e-02,8.951858111566785361e-03,6.056223606853115837e-02,-3.474045624710729585e-02
2.000000000000000042e-02,9.679549170389101231e-03,2.631626996750553726e-02,-5.687282464803222748e-02
2.100000000000000130e-02,4.233327576339634274e-02,9.430490574874747511e-02,-3.954921040262209669e-02
2.199999999999999872e-02,4.049985227629007700e-02,9.232832615689735845e-02,-6.914618532577070098e-02
2.299999999999999961e-02,7.124432483107151493e-02,1.339727077305119529e-01,-4.483097921348808135e-02
2.400000000000000050e-02,2.002888688972513931e-01,2.277249079018940914e-01,-4.782140237594660788e-03
2.500000000000000139e-02,2.899932211984244668e-01,2.411623216028504213e-01,9.513317292918999080e-02
2.599999999999999881e-02,3.421027749078623392e-01,2.517999621814069333e-01,1.469979836417412700e-01
2.699999999999999969e-02,4.075208801903629219e-01,1.498927698928355090e-01,2.380942899781016420e-01
2.800000000000000058e-02,3.112549690906091793e-01,8.010101881580167227e-02,2.910965362039097393e-01
2.900000000000000147e-02,1.949708054576937133e-01,-1.149418997391047775e-01,2.596465915265188107e-01
2.999999999999999889e-02,-2.384549065672185442e-02,-2.898555224396931473e-01,1.815361956821237854e-01
3.099999999999999978e-02,-2.619080957346712757e-01,-4.184627066491011238e-01,7.149305903294603248e-02
3.200000000000000067e-02,-4.513065910411867554e-01,-4.648269023524257970e-01,-7.062910992515024355e-02
3.300000000000000155e-02,-5.681782112161430920e-01,-4.591413998273159436e-01,-1.857703868550742987e-01
3.400000000000000244e-02,-6.024993987056198597e-01,-3.527695077471684204e-01,-2.818322590178884979e-01
3.500000000000000333e-02,-5.299530840568789092e-01,-1.696606200029593670e-01,-3.759979991170587232e-01
3.599999999999999728e-02,-3.700294460247796069e-01,7.140419503188673300e-02,-3.392538774018273307e-01
3.699999999999999817e-02,-1.410250229461599003e-01,2.507155361689836770e-01,-2.972539940968735306e-01
3.799999999999999906e-02,1.689887417541594827e-01,4.472879946597129730e-01,-1.637367144871569868e-01
3.899999999999999994e-02,4.146885276934657583e-01,4.901069071000609401e-01,-7.934051620016608491e-03
4.000000000000000083e-02,5.959722144573773583e-01,4.910842598183505214e-01,1.716078585446670357e-01
4.100000000000000172e-02,6.081660788986225086e-01,3.732683809624280369e-01,2.297790437198769520e-01
4.200000000000000261e-02,5.465316140763990527e-01,1.848911928345629840e-01,3.307189704356786608e-01
4.299999999999999656e-02,3.411955133876268254e-01,2.336938254951474725e-02,3.230592849903948793e-01
4.399999999999999745e-02,1.539084186108079788e-01,-1.658949537096717497e-01,2.805542088940026213e-01
4.499999999999999833e-02,-1.884114912345433851e-02,-2.574897944855740195e-01,1.841884814764854772e-01
4.599999999999999922e-02,-1.823304211118503826e-01,-3.378357112708033627e-01,3.948551920245058772e-02
4.700000000000000011e-02,-3.270082492946985164e-01,-2.487815169238140611e-01,-2.497578177519926834e-02
4.800000000000000100e-02,-2.975457051716948187e-01,-2.637364126201856562e-01,-9.176436966391313121e-02
4.900000000000000189e-02,-2.896375958211577784e-01,-1.440844749162362992e-01,-1.349797507596022794e-01
5.000000000000000278e-02,-2.377870783455421355e-01,-7.747248226510818070e-02,-1.387354053945266119e-01
5.099999999999999672e-02,-1.394896198732308856e-01,-9.611750787964324499e-03,-1.120548016187554313e-01
5.199999999999999761e-02,-1.319239122403573494e-01,1.091290664354691194e-02,-1.109725586568072603e-01
5.299999999999999850e-02,-7.085584234371759826e-02,-3.062671864656144743e-02,-8.446854461345636167e-02
5.399999999999999939e-02,-6.342037351001976464e-02,-1.505345903691537293e-04,-7.495776782936612592e-02
5.500000000000000028e-02,-9.833765689218300354e-02,7.273372068467929413e-03,-8.411109761632107329e-02
5.600000000000000117e-02,-1.009090455068761688e-01,3.842363253855500538e-02,-8.456642640445509451e-02
5.700000000000000205e-02,-7.929494720213371706e-02,8.895878278965196895e-02,-1.213282344911204014e-01
5.800000000000000294e-02,2.111700692302655169e-02,1.607462479914303077e-01,-1.152101178565047152e-01
5.899999999999999689e-02,1.132418243480378950e-01,2.288040641374788631e-01,-7.141424362688260363e-02
5.999999999999999778e-02,2.968039807562612986e-01,2.946156262396970593e-01,7.126584813073212100e-03
6.099999999999999867e-02,3.650934974907034114e-01,3.075109991904930173e-01,9.367685090578876939e-02
6.199999999999999956e-02,4.510547537889391112e-01,2.461473828778228679e-01,1.851823791859827650e-01
6.300000000000000044e-02,4.538167028912202805e-01,1.010522823931017944e-01,2.837538430326934646e-01
6.400000000000000133e-02,3.521525214219741740e-01,-6.618670105567665829e-02,3.069701625091659780e-01
6.500000000000000222e-02,1.419217702311746099e-01,-2.301122994697459567e-01,2.870660501750906257e-01
6.600000000000000311e-02,-8.683982545984339496e-02,-4.052826767223514648e-01,1.886495214326897041e-01
6.700000000000000400e-02,-3.058896063499205176e-01,-4.827566496968346277e-01,7.400358071643700630e-02
6.800000000000000488e-02,-5.316097437506337453e-01,-4.898057777033527627e-01,-1.185540968898547709e-01
6.900000000000000577e-02,-6.204785311015621474e-01,-3.848446636856306391e-01,-2.414003981746853100e-01
7.000000000000000666e-02,-6.249337429917204423e-01,-2.349154502673151401e-01,-3.295938098982791886e-01
7.099999999999999367e-02,-4.757107759356895560e-01,6.185880525968103644e-03,-3.550148451689016382e-01
7.199999999999999456e-02,-2.529804003346046160e-01,2.194914752188756313e-01,-3.506039117986891607e-01
7.299999999999999545e-02,1.072144228097239929e-02,3.902571083538080576e-01,-2.895547909046247703e-01
7.399999999999999634e-02,2.363656211013702713e-01,4.734375640571068522e-01,-1.685143054211734603e-01
7.499999999999999722e-02,4.576490667598441253e-01,4.720191994525322343e-01,-2.084183439528746948e-02
7.599999999999999811e-02,5.402663402525162972e-01,3.577243229535774782e-01,1.197235274149666545e-01
7.699999999999999900e-02,5.803602880100988681e-01,2.368114444377230898e-01,2.367924083623264286e-01
7.799999999999999989e-02,4.392157828863181845e-01,6.959918159296299423e-02,2.912849675197003996e-01
7.900000000000000078e-02,2.613748728443532343e-01,-1.193394072588318949e-01,2.875172751107640812e-01
8.000000000000000167e-02,1.099988900649292722e-01,-1.927507147671969623e-01,2.690191602732613929e-01
8.100000000000000255e-02,-5.604599056803028639e-02,-2.513096221663631002e-01,1.902598032049493959e-01
8.200000000000000344e-02,-1.891570046174406994e-01,-2.886260172120273526e-01,7.940353690326745761e-02
8.300000000000000433e-02,-2.449648802242245793e-01,-2.063818702735698007e-01,1.071671759574850842e-02
8.400000000000000522e-02,-2.749034309530104525e-01,-1.469569499590164530e-01,-6.543570712615265350e-02
8.500000000000000611e-02,-2.267200834614554461e-01,-8.099875317771440542e-02,-1.056517936277363567e-01
8.599999999999999312e-02,-1.646862275430849565e-01,-5.200091955223606205e-02,-1.201744090563298395e-01
8.699999999999999400e-02,-9.770352591810158027e-02,-4.637369157523493768e-02,-8.932043394498327682e-02
8.799999999999999489e-02,-1.222759722374873737e-01,-6.035192086758554841e-02,-2.215602560147807154e-02
8.899999999999999578e-02,-1.430101170259979182e-01,-7.742665703711847092e-02,-7.717508141697074220e-02
8.999999999999999667e-02,-1.393739124030577425e-01,-3.460278641180278281e-02,-1.056983407846856099e-01
9.099999999999999756e-02,-1.822458987115427032e-01,-3.740968238088433848e-03,-9.127577233093721321e-02
9.199999999999999845e-02,-1.545330196721172722e-01,5.185292469823055139e-02,-1.414479735512388092e-01
9.299999999999999933e-02,-7.624968003950731432e-02,1.756134211655982214e-01,-1.152182786300836037e-01
9.400000000000000022e-02,4.316304518378431820e-02,3.051631775965802373e-01,-1.001459137200045729e-01
9.500000000000000111e-02,2.161096368003458390e-01,3.510730014096403728e-01,-1.141576860769975693e-01
9.600000000000000200e-02,3.632490454155983262e-01,3.278342175487601873e-01,7.038713104492695140e-03
9.700000000000000289e-02,4.925373574466352378e-01,3.373709047265773253e-01,9.935079687421644046e-02
9.800000000000000377e-02,5.545838507988702926e-01,1.869119026298516617e-01,2.130813651200257897e-01
9.900000000000000466e-02,4.499140504480209080e-01,5.868918931239858541e-03,2.969233830141356778e-01
1.000000000000000056e-01,2.624129561185298831e-01,-2.185765401095382532e-01,3.533918792122996977e-01
1.010000000000000064e-01,4.819355782753451806e-02,-3.744779729352965547e-01,2.929795512171780580e-01
1.019999999999999934e-01,-2.055210618932787336e-01,-4.710123048317877981e-01,2.424242298403487261e-01
1.029999999999999943e-01,-3.975748223738995168e-01,-4.955707162352153694e-01,5.840778490367690839e-02
1.039999999999999952e-01,-6.376311063825551573e-01,-4.268182768602264421e-01,-7.051019832819821476e-02
1.049999999999999961e-01,-6.546875663107216692e-01,-2.752138647148550388e-01,-2.084727115136017772e-01
1.059999999999999970e-01,-6.103811865784324331e-01,-3.447981722583984276e-02,-3.396119633167107854e-01
1.069999999999999979e-01,-4.322948246874558365e-01,1.637219419451156899e-01,-3.501798845533388160e-01
1.079999999999999988e-01,-2.130062881820381504e-01,3.253341192097454204e-01,-3.687906110161232043e-01
1.089999999999999997e-01,1.049235948644278438e-01,4.061015223917353589e-01,-3.085495048144168417e-01
1.100000000000000006e-01,3.342483168702921614e-01,4.459228574174788351e-01,-1.437138280090032305e-01
1.110000000000000014e-01,4.705878680552950111e-01,4.052676328775447478e-01,7.451869588024267153e-03
1.120000000000000023e-01,5.599654632330394177e-01,2.414023880364755681e-01,1.061207613538334010e-01
1.130000000000000032e-01,4.770945825565873211e-01,9.443047003549157048e-02,2.197737384871840671e-01
1.140000000000000041e-01,3.621443684806577856e-01,-2.388064394010088604e-02,2.885018738092618440e-01
1.150000000000000050e-01,1.986939929164698027e-01,-1.503532333831705536e-01,2.642908087143490681e-01
1.160000000000000059e-01,5.275776615416303411e-02,-2.148265962454844469e-01,2.049459822076863391e-01
1.170000000000000068e-01,-7.559921357350385396e-02,-1.988619173018861819e-01,1.446279810346408068e-01
1.179999999999999938e-01,-1.847787803235251269e-01,-1.700485747635754052e-01,7.423580187810871478e-02
1.189999999999999947e-01,-1.602203226997542251e-01,-1.211672786763976079e-01,7.650130671198497601e-04
1.199999999999999956e-01,-1.724794346275783929e-01,-9.323647658260464377e-02,-2.917477310336628882e-02
1.209999999999999964e-01,-1.482134164617338601e-01,-7.451180134500830221e-02,-6.851741938595105885e-02
1.219999999999999973e-01,-9.843550480407163572e-02,-1.015667365933849570e-01,-5.662557872160154521e-02
1.229999999999999982e-01,-1.409361535726252335e-01,-1.089086973451331292e-01,-3.113720889086183177e-02
1.239999999999999991e-01,-1.211442678961827252e-01,-1.298879306753591145e-01,-1.384450979521653462e-02
1.250000000000000000e-01,-1.658384182591638445e-01,-1.290292400851867360e-01,-7.418298074831074229e-02
1.260000000000000009e-01,-2.096525412719394688e-01,-6.693447785135345218e-02,-7.130574502108757984e-02
1.270000000000000018e-01,-2.656113107749243363e-01,1.301342792413964430e-02,-1.423513543620616439e-01
1.280000000000000027e-01,-1.764414390881839378e-01,1.985337992712963018e-01,-2.127584285823046484e-01
1.290000000000000036e-01,-3.670944687442433130e-02,2.879119889388928599e-01,-2.117953163626665469e-01
1.300000000000000044e-01,1.093305411214712253e-01,3.798280585349831928e-01,-1.969956646092217989e-01
1.310000000000000053e-01,3.359556950148385179e-01,3.826489211361288056e-01,-7.919457015804344524e-02
1.320000000000000062e-01,4.777874731426036137e-01,3.594124100204766359e-01,-1.251471630802456110e-02
1.330000000000000071e-01,5.549958706589099844e-01,2.496695851142423372e-01,9.819691419976310509e-02
1.340000000000000080e-01,5.460047243467985867e-01,3.893593820583048787e-02,2.047716877402173397e-01
1.350000000000000089e-01,4.293455864659848631e-01,-1.199879727494014836e-01,3.267887509722458561e-01
1.360000000000000098e-01,2.408969372918483010e-01,-3.629194163153691144e-01,3.650464560703423067e-01
1.370000000000000107e-01,-2.623066500352875044e-02,-4.680743547867802778e-01,3.335632632286880672e-01
1.380000000000000115e-01,-3.267326363879197726e-01,-5.141821552549886709e-01,2.565574934339699964e-01
1.390000000000000124e-01,-4.828125229661441864e-01,-4.530419875969679544e-01,8.850887915301676456e-02
1.400000000000000133e-01,-6.271792430111484684e-01,-3.193158003956989566e-01,-4.252202733747538488e-02
1.409999999999999865e-01,-6.644681125876824579e-01,-1.522569876202567729e-01,-1.868618826426703405e-01
1.419999999999999873e-01,-5.416821107599185670e-01,7.272199307023223536e-02,-3.463743230944281715e-01
1.429999999999999882e-01,-3.547712967907198367e-01,2.325322273428468145e-01,-4.038636121239951859e-01
1.439999999999999891e-01,-7.636655355821587998e-02,4.044137502056103228e-01,-3.412261287683537314e-01
1.449999999999999900e-01,1.571555631942289921e-01,4.226073971322950595e-01,-2.925584014681014144e-01
1.459999999999999909e-01,3.184544916776969603e-01,3.674108471676777454e-01,-1.156473550518836990e-01
1.469999999999999918e-01,4.283534862868252358e-01,2.431592640464177169e-01,2.825937484851513259e-03
1.479999999999999927e-01,4.589706811424398847e-01,1.378288102353049938e-01,1.283324603224411109e-01
1.489999999999999936e-01,3.596413703767689096e-01,1.511948933379784858e-02,2.254588449835030206e-01
1.499999999999999944e-01,2.872046775469800362e-01,-6.533050973966973707e-02,2.500143431721381648e-01
1.509999999999999953e-01,1.224850864719956023e-01,-1.303160796533760490e-01,2.359236169438828357e-01
1.519999999999999962e-01,2.483993100420547190e-02,-1.460945163720783757e-01,2.118905304780073218e-01
1.529999999999999971e-01,-6.152843661216112620e-02,-1.641590000537045124e-01,1.158700396324524734e-01
1.539999999999999980e-01,-9.202167731050242550e-02,-1.428157536128204230e-01,3.921678871360431695e-02
1.549999999999999989e-01,-9.527828430393643633e-02,-9.902284481212171585e-02,1.450107226939780641e-02
1.559999999999999998e-01,-6.372569750123138754e-02,-1.318448161665227991e-01,2.496074002465582461e-02
1.570000000000000007e-01,-9.968558931687675206e-02,-1.452317883308448243e-01,1.091497835621573799e-02
1.580000000000000016e-01,-8.971334170228494054e-02,-1.682860632755854013e-01,-4.758319202748481636e-02
1.590000000000000024e-01,-1.684637592754281432e-01,-1.409377630055287933e-01,1.912183515358322622e-02
1.600000000000000033e-01,-2.334745268627597681e-01,-1.852501625608898861e-01,-1.490455845896301347e-02
1.610000000000000042e-01,-2.967497535151117916e-01,-1.090363032967679308e-01,-2.899686153900925267e-02
1.620000000000000051e-01,-3.105000722616882425e-01,3.321451925965386576e-02,-1.239202865617064220e-01
1.630000000000000060e-01,-2.931459607945510748e-01,1.252601508378126394e-01,-1.908178729938673768e-01
1.640000000000000069e-01,-1.657310182927536346e-01,2.562067642431977155e-01,-2.122664581070793088e-01
1.650000000000000078e-01,-2.789167869279006451e-02,3.894910907130649247e-01,-2.225235502060668724e-01
1.660000000000000087e-01,1.933718756285042195e-01,4.171723281266306871e-01,-1.967020192659819089e-01
1.670000000000000095e-01,3.899573009501995369e-01,4.244774418041029618e-01,-1.362789846845227637e-01
1.680000000000000104e-01,5.405346705787584805e-01,3.339296361388943146e-01,2.842617794235874525e-03
1.690000000000000113e-01,5.871428501271374056e-01,1.086952000594114537e-01,1.003604010367468713e-01
1.700000000000000122e-01,4.996789000059099761e-01,-8.949389023462553383e-02,2.038086267063810020e-01
1.710000000000000131e-01,3.742453364934307802e-01,-2.764266683613247344e-01,2.952106810725181885e-01
1.719999999999999862e-01,1.722660510435186088e-01,-4.423736560494018200e-01,3.684862630598066957e-01
1.729999999999999871e-01,-1.330225443224250792e-01,-4.922689749453495467e-01,3.338515612066849103e-01
1.739999999999999880e-01,-4.052553757673416079e-01,-4.959218957668993788e-01,2.834676444280726515e-01
1.749999999999999889e-01,-5.538295428327896230e-01,-3.451496841743784127e-01,1.405918018215338849e-01
1.759999999999999898e-01,-6.478996460900652288e-01,-2.048345638092746446e-01,-9.241660811997370883e-02
1.769999999999999907e-01,-5.983370990253805699e-01,3.835899141958842851e-02,-2.091514252663688178e-01
1.779999999999999916e-01,-4.650892283128484905e-01,1.714581201684642342e-01,-3.103541149492545781e-01
1.789999999999999925e-01,-2.753383127383453588e-01,3.465755764850275700e-01,-3.872365936206794701e-01
1.799999999999999933e-01,-4.892626107046147733e-03,3.567549453909164558e-01,-3.130617660632032395e-01
1.809999999999999942e-01,2.031744008094269471e-01,3.372896023592962256e-01,-2.703481931508121550e-01
1.819999999999999951e-01,3.778837292925043556e-01,2.828378125353754879e-01,-1.585991599423287324e-01
1.829999999999999960e-01,3.610114906444579774e-01,1.481798822792292636e-01,-2.340730040672427126e-02
1.839999999999999969e-01,4.019841999693148926e-01,5.698480992013774116e-02,8.394663172438136811e-02
1.849999999999999978e-01,2.620531253872924737e-01,-2.502137914395682894e-02,1.920731076018820649e-01
1.859999999999999987e-01,2.208702849349322428e-01,-7.185189114665767318e-02,1.967648433751051085e-01
1.869999999999999996e-01,1.129823752929365877e-01,-7.632647403954770371e-02,2.158190392072913688e-01
1.880000000000000004e-01,8.576873602813344863e-03,-8.375667521381355285e-02,1.347107669101525740e-01
1.890000000000000013e-01,-1.327101943536676543e-02,-8.695970701096834843e-02,1.031718373143658274e-01
1.900000000000000022e-01,-6.905822603180886143e-03,-5.789196894992156700e-02,6.206863064052121903e-02
1.910000000000000031e-01,-2.048424879489870246e-02,-1.047300618947846901e-01,2.325682558777334655e-03
1.920000000000000040e-01,-2.487976175378192947e-02,-9.376332821681267193e-02,6.140395567148593248e-02
1.930000000000000049e-01,-2.170576447147216578e-02,-2.239294188542030606e-01,5.244233554026628968e-02
1.940000000000000058e-01,-1.183569859597334295e-01,-2.182973934824434803e-01,5.082542614574721285e-02
1.950000000000000067e-01,-1.805481631614452853e-01,-2.301917010086379223e-01,3.593147396769660190e-02
1.960000000000000075e-01,-2.975970970363029378e-01,-1.460653806134499244e-01,4.037918527084743275e-02
1.970000000000000084e-01,-3.715221232943254903e-01,-5.293546442351033249e-02,-4.017354257841296294e-02
1.980000000000000093e-01,-3.869845820367913691e-01,1.194047694358800760e-01,-1.191883083012967720e-01
1.990000000000000102e-01,-3.127664047844943562e-01,2.343021737815148275e-01,-1.772879165587391836e-01
2.000000000000000111e-01,-1.423546051729859818e-01,3.714404600946423218e-01,-2.577757082337604477e-01
2.010000000000000120e-01,7.927844811741953379e-02,4.604961555647695270e-01,-2.776476935357741760e-01
2.020000000000000129e-01,2.897747406221061750e-01,4.543505747736412692e-01,-2.403640335613443646e-01
2.030000000000000138e-01,4.917911763009499837e-01,3.346961373096965509e-01,-1.205315075389920276e-01
2.039999999999999869e-01,5.886566630869435324e-01,2.012559251715978492e-01,3.994162166637673164e-04
2.049999999999999878e-01,6.366883388684601019e-01,-3.493411279655855156e-02,1.150601351709544529e-01
2.059999999999999887e-01,5.517790190128396555e-01,-2.451593873778340482e-01,2.619585566900208828e-01
2.069999999999999896e-01,3.224228628002714370e-01,-3.970470914473345769e-01,3.228639435106592792e-01
2.079999999999999905e-01,4.975125539659402268e-02,-5.198079599461545852e-01,3.572450587738796313e-01
2.089999999999999913e-01,-2.376937682866681334e-01,-4.836379164146249465e-01,3.539054333827437726e-01
2.099999999999999922e-01,-4.350919086415001580e-01,-4.004298116534466545e-01,2.373679617276766851e-01
2.109999999999999931e-01,-5.518668442672802765e-01,-2.153205211935795560e-01,9.174095820505745458e-02
2.119999999999999940e-01,-6.270805983676732698e-01,-2.513432518484833011e-02,-4.216181987308909029e-02
2.129999999999999949e-01,-5.429867145427813568e-01,1.315876574425993151e-01,-2.084203936929279188e-01
2.139999999999999958e-01,-3.305681710915431282e-01,2.894915278197561781e-01,-3.222779525619954843e-01
2.149999999999999967e-01,-1.277785569702490354e-01,3.140000966805834848e-01,-3.239083251153116461e-01
2.159999999999999976e-01,7.606349586565862297e-02,3.156700730381576392e-01,-2.938502379612194515e-01
2.169999999999999984e-01,2.115227736899556177e-01,2.577284591523916757e-01,-2.399731331700654946e-01
2.179999999999999993e-01,3.430770708643509082e-01,1.616683831959286055e-01,-1.571582241101371902e-01
2.190000000000000002e-01,3.268047223701338599e-01,6.799501769509301574e-02,-4.796599985579284853e-02
2.200000000000000011e-01,2.726087538954354850e-01,1.541181677573188157e-02,1.138229441776313078e-01
2.210000000000000020e-01,2.249560133244850879e-01,-1.644430898556524002e-03,7.977135791980707880e-02
2.220000000000000029e-01,1.224374092201336861e-01,2.984042148214173257e-03,1.671779448322204265e-01
2.230000000000000038e-01,4.458144737559310150e-02,4.672542224963985253e-05,1.162722808316953987e-01
2.240000000000000047e-01,6.515177798924498553e-02,4.028825677132697770e-03,1.464727717311312682e-01
2.250000000000000056e-01,4.886986902289273960e-02,-3.758041514052538890e-02,9.901722151400181582e-02
2.260000000000000064e-01,5.640620254011683571e-02,-9.528964776441657680e-02,3.904667223184612318e-02
2.270000000000000073e-01,3.586790423502644876e-02,-1.426118239022292900e-01,7.043026082547476641e-02
2.280000000000000082e-01,1.924439255358004197e-02,-2.018374494844648592e-01,7.217704387708384628e-02
2.290000000000000091e-01,-8.117756995245817286e-02,-2.901269302388980176e-01,7.670538879519339659e-02
2.300000000000000100e-01,-1.603081008098376781e-01,-2.845017898448156113e-01,8.815260260033547235e-02
2.310000000000000109e-01,-3.078933033059364499e-01,-2.362373141171048851e-01,7.529271173599845490e-02
2.320000000000000118e-01,-3.680019392241938858e-01,-1.035242137715234878e-01,4.723303500413705142e-02
2.330000000000000127e-01,-4.578133594609068435e-01,6.161392784740993278e-02,-5.480139147198650335e-02
2.340000000000000135e-01,-3.646050571337439150e-01,2.576065532932029778e-01,-1.452958360515349545e-01
2.349999999999999867e-01,-2.670120486987146990e-01,3.862308726695291572e-01,-2.595412188032735767e-01
2.359999999999999876e-01,-9.792816122996707284e-02,4.613398391150141387e-01,-2.679692415723935461e-01
2.369999999999999885e-01,1.459143890219310180e-01,4.820628590002491443e-01,-2.845674772457345014e-01
2.379999999999999893e-01,3.826280220632043982e-01,4.093291379284314524e-01,-2.512120025629182574e-01
2.389999999999999902e-01,5.337520013772394378e-01,2.195935042513437185e-01,-1.535020763681369249e-01
2.399999999999999911e-01,6.496959484335869117e-01,1.133167627782182820e-03,1.878518233639102884e-03
2.409999999999999920e-01,6.222747410753856068e-01,-1.937730526115374052e-01,1.521818852224424146e-01
2.419999999999999929e-01,4.268341447403363187e-01,-3.377250732984386494e-01,2.911570769286950244e-01
2.429999999999999938e-01,2.212711396529549179e-01,-4.621881658534410797e-01,3.700537410092100687e-01
2.439999999999999947e-01,-5.391663801781582804e-02,-5.177252713626612213e-01,4.152326191953272794e-01
2.449999999999999956e-01,-2.727940377928402826e-01,-4.162864220745609578e-01,3.651392136867229743e-01
2.459999999999999964e-01,-5.020730806319003703e-01,-2.515297627075060438e-01,2.198426010529625496e-01
2.469999999999999973e-01,-5.767084565866984480e-01,-1.260178213851072260e-01,1.215507243784428454e-01
2.479999999999999982e-01,-5.616874967796654516e-01,1.184037834032269643e-01,-6.521872383758917091e-02
2.489999999999999991e-01,-4.070220529902673912e-01,1.574506731325950037e-01,-2.206053643433243394e-01
2.500000000000000000e-01,-2.641330440145768232e-01,2.709647738647860682e-01,-2.706024044319561006e-01
2.510000000000000009e-01,-8.279452049591000395e-02,2.953038040696057132e-01,-3.524169666194658657e-01
2.520000000000000018e-01,1.286116909851171553e-01,2.054398079292129586e-01,-2.698433506562575857e-01
2.530000000000000027e-01,2.018632032371280860e-01,1.450019672478761457e-01,-2.298740068764456301e-01
2.540000000000000036e-01,2.686613694688846365e-01,1.354952135409827341e-01,-1.267851309117846159e-01
2.550000000000000044e-01,2.826501734021740764e-01,6.463771344794601303e-02,-4.741961824477520376e-02
2.560000000000000053e-01,2.442649485314626057e-01,4.290743062816258085e-02,7.104618727083192309e-02
2.570000000000000062e-01,1.354971131848143606e-01,-1.368870121257141376e-03,1.133644070462413583e-01
2.580000000000000071e-01,1.378479919907411311e-01,3.668462152334037857e-02,1.145717575670517352e-01
2.590000000000000080e-01,9.596974414959950905e-02,3.967544119616354947e-02,1.176332604580378194e-01
2.600000000000000089e-01,1.032460890309930407e-01,-1.344398312702202274e-02,7.437261001724222720e-02
2.610000000000000098e-01,1.284309134790525830e-01,-3.645257132417970697e-02,5.926597472898766095e-02
2.620000000000000107e-01,1.336977845984985702e-01,-1.420931099387520991e-01,6.506482819417372387e-02
2.630000000000000115e-01,1.381965964598108609e-01,-2.265490224875980896e-01,7.256795281547800958e-02
2.640000000000000124e-01,7.707981322858145634e-02,-3.164534960075990888e-01,9.188918867141082636e-02
2.650000000000000133e-01,-8.899548307254619151e-02,-3.723952862619250292e-01,1.202563895406583566e-01
2.660000000000000142e-01,-2.412957479265677718e-01,-3.143662300898826256e-01,1.216816420480005267e-01
2.670000000000000151e-01,-3.846371425981210401e-01,-2.124842961588135626e-01,8.354685279489354466e-02
2.680000000000000160e-01,-4.885932741586026529e-01,4.613793702865034117e-03,6.100529749422494569e-02
2.690000000000000169e-01,-5.288830590101708529e-01,1.882348567231696135e-01,-3.865819972733319093e-02
2.700000000000000178e-01,-4.587111980317236659e-01,3.465831075245867088e-01,-1.461586960227416465e-01
2.710000000000000187e-01,-2.614001340215043045e-01,4.667553337374397149e-01,-2.428075853149426477e-01
2.720000000000000195e-01,-1.397914746345028589e-02,5.040621883806525316e-01,-2.913720006671713936e-01
2.730000000000000204e-01,2.232852406410891222e-01,4.661631656168868099e-01,-3.124702592043006044e-01
2.740000000000000213e-01,4.955768162798532828e-01,3.000795654870633267e-01,-2.802170236965421113e-01
2.750000000000000222e-01,6.507295053151639364e-01,8.405683883796449818e-02,-1.882183396241789985e-01
2.760000000000000231e-01,6.338742940125523528e-01,-1.285119234105983055e-01,-4.400758936781450081e-02
2.770000000000000240e-01,5.379657831716648797e-01,-3.203190658862636875e-01,1.199398363416875057e-01
2.780000000000000249e-01,3.768853196809810457e-01,-3.898561855467843618e-01,2.795102749170769729e-01
2.790000000000000258e-01,9.639202941610328090e-02,-4.339641025901417870e-01,3.577189311896350477e-01
2.800000000000000266e-01,-9.925907419913976293e-02,-3.718622649905676258e-01,4.066514938448147487e-01
2.810000000000000275e-01,-3.767553631568305583e-01,-3.092438632027143530e-01,3.530627691442954075e-01
2.819999999999999729e-01,-4.907552577474517119e-01,-1.383210592311971687e-01,2.254759775356134366e-01
2.829999999999999738e-01,-5.431453553961557157e-01,-7.591009497849734652e-03,8.375160598447375926e-02
2.839999999999999747e-01,-4.771620881172876083e-01,1.516850296315676028e-01,-4.008270952862604680e-02
2.849999999999999756e-01,-3.237488878026364425e-01,1.971089770449912515e-01,-1.949349507633736933e-01
2.859999999999999765e-01,-1.566022061334895743e-01,2.028028637011624891e-01,-2.706975318436053990e-01
2.869999999999999774e-01,-1.904446607568602290e-02,1.699772893445293254e-01,-2.693912072033988747e-01
2.879999999999999782e-01,8.413822214035919511e-02,1.417350057963328580e-01,-2.600485988410265459e-01
2.889999999999999791e-01,1.503299387765209549e-01,6.865988401282475950e-02,-1.724469484030100586e-01
2.899999999999999800e-01,1.508768858333938145e-01,1.077171325624451115e-01,-1.278134448777814292e-01
2.909999999999999809e-01,1.640199845604334572e-01,1.104145942878067138e-01,-3.298882429195734017e-02
2.919999999999999818e-01,1.025256631603835705e-01,1.192248429544251614e-01,1.031261568709776304e-02
2.929999999999999827e-01,9.994702900715497773e-02,1.291592038965265199e-01,4.497126248443558683e-02
2.939999999999999836e-01,1.279840207450972378e-01,1.141340338266199628e-01,5.952369874596298571e-02
2.949999999999999845e-01,1.561632642363064705e-01,8.285785737967109321e-02,7.304124246749536808e-02
2.959999999999999853e-01,2.207448197076919694e-01,4.727620993833938842e-03,6.006351577414247717e-02
2.969999999999999862e-01,2.106293764623040909e-01,-1.242151868739602427e-01,4.913417994221018492e-02
2.979999999999999871e-01,2.241257821450404752e-01,-2.608819305084608131e-01,9.513989311070851496e-02
2.989999999999999880e-01,1.665481616741204263e-01,-3.509189168862821284e-01,9.955733995348106657e-02
2.999999999999999889e-01,4.669137784516343842e-02,-4.110895305085026652e-01,1.688990684613775328e-01
3.009999999999999898e-01,-1.369731700760982718e-01,-3.905646880900507933e-01,1.922120800776475624e-01
3.019999999999999907e-01,-3.213708369054517067e-01,-2.470656753210508649e-01,1.815119670534802998e-01
3.029999999999999916e-01,-4.745559844657467607e-01,-5.773500492872249423e-02,1.108067160305976490e-01
3.039999999999999925e-01,-5.386158785526776738e-01,1.664093763932724679e-01,6.913824175249146109e-02
3.049999999999999933e-01,-5.440570407892912907e-01,3.203436913681972920e-01,-2.068955535471945703e-02
3.059999999999999942e-01,-3.957439277566233704e-01,4.518490198668258517e-01,-1.749254557305207625e-01
3.069999999999999951e-01,-1.721528307022295867e-01,5.237151400626742781e-01,-2.490027864231442178e-01
3.079999999999999960e-01,7.393410868147529125e-02,5.074136715652273200e-01,-3.625021757135766243e-01
3.089999999999999969e-01,3.164931370163883151e-01,3.481970880183081762e-01,-3.551564875995746884e-01
3.099999999999999978e-01,5.552029328557068766e-01,1.372610173548535206e-01,-2.584920705987459599e-01
3.109999999999999987e-01,6.035418462684414287e-01,-6.861394678644953948e-02,-1.752702112131280243e-01
3.119999999999999996e-01,6.099606472668301915e-01,-2.485631871207924226e-01,6.181057691242830554e-03
3.130000000000000004e-01,4.446402447300221716e-01,-3.886969727915833284e-01,1.485287727484377041e-01
3.140000000000000013e-01,2.784202909428909467e-01,-4.030235485542867369e-01,2.576079598097756884e-01
3.150000000000000022e-01,6.649366235433434857e-02,-4.005734122449109980e-01,3.277192401021650214e-01
3.160000000000000031e-01,-2.423773256588323544e-01,-2.608959276691819595e-01,3.739691104476843275e-01
3.170000000000000040e-01,-3.714835176769050729e-01,-1.840109370397371713e-01,3.205340171700504226e-01
3.180000000000000049e-01,-4.895320383034527101e-01,-2.202530149167564524e-02,2.464382127775278930e-01
3.190000000000000058e-01,-5.020920335408849411e-01,8.175501028310173945e-02,7.224927543601109003e-02
3.200000000000000067e-01,-3.440434871208383205e-01,1.039907390911329610e-01,-3.086804118752053266e-02
3.210000000000000075e-01,-2.671350933333152544e-01,1.607094787585365003e-01,-1.456375010187822561e-01
3.220000000000000084e-01,-1.282070494325322774e-01,1.305585899464457300e-01,-2.163050559174027332e-01
3.230000000000000093e-01,3.711650173559405408e-02,1.112803456065623725e-01,-2.516762366536099971e-01
3.240000000000000102e-01,3.558074916879750554e-02,1.168664526665792180e-01,-2.444430597424445961e-01
3.250000000000000111e-01,1.207436861664698130e-01,8.997180639721592821e-02,-1.461417858260058711e-01
3.260000000000000120e-01,8.706580494274657189e-02,1.335322286054231311e-01,-7.965869980185631694e-02
3.270000000000000129e-01,7.575105697638150060e-02,1.769121249108156213e-01,-4.332106751754628143e-02
3.280000000000000138e-01,8.238162724428850503e-02,1.858667853447043827e-01,3.462420909306504480e-02
3.290000000000000147e-01,8.619114461267730898e-02,1.587865356222336599e-01,1.722029384014919437e-02
3.300000000000000155e-01,1.588285053438528160e-01,8.643744622291275881e-02,-1.721468117111743133e-03
3.310000000000000164e-01,2.127373095285207405e-01,-6.754346064166279542e-03,-6.703826292040083491e-03
3.320000000000000173e-01,3.217092172622920132e-01,-1.019175152764995873e-01,4.371255014616957923e-02
3.330000000000000182e-01,3.120067978961027499e-01,-2.529049486934281665e-01,9.329748225656612007e-03
3.340000000000000191e-01,2.917216029237041930e-01,-3.887160070687931679e-01,1.018783366274271657e-01
3.350000000000000200e-01,1.311188575980450077e-01,-4.251128533477512295e-01,1.234278015461585803e-01
3.360000000000000209e-01,-1.504129404119706331e-02,-4.176110958142222884e-01,1.596565202351032942e-01
3.370000000000000218e-01,-2.397690168552555623e-01,-3.246258682906393300e-01,2.439696221312021573e-01
3.380000000000000226e-01,-4.244179864658909618e-01,-1.092078953114705847e-01,2.254995749185202680e-01
3.390000000000000235e-01,-5.538669765752564089e-01,1.025639009914919020e-01,1.455997782675520213e-01
3.400000000000000244e-01,-5.692959217606649025e-01,2.378537358723179784e-01,1.098698574410541390e-01
3.410000000000000253e-01,-5.433459107893977569e-01,4.332557124588578001e-01,-1.037308274407526716e-02
3.420000000000000262e-01,-3.151753772587096991e-01,5.199192602481776948e-01,-1.940902783603824233e-01
3.430000000000000271e-01,-1.075634535480314707e-01,4.959182581312804872e-01,-2.768746343379099861e-01
3.439999999999999725e-01,1.604549679593327283e-01,3.785858516225429904e-01,-3.445564129090581407e-01
3.449999999999999734e-01,4.333670970392924371e-01,1.993503301712187259e-01,-3.747933998271494316e-01
3.459999999999999742e-01,5.669393033585893305e-01,2.938502387336104985e-03,-2.880788926650276194e-01
3.469999999999999751e-01,6.461224786583811275e-01,-1.859759843775724564e-01,-1.782939671682033933e-01
3.479999999999999760e-01,5.810427624661302914e-01,-3.006715935729785683e-01,-5.062150594172230844e-02
3.489999999999999769e-01,4.155936581150571074e-01,-3.937095669274565113e-01,1.137467925322911827e-01
3.499999999999999778e-01,2.173644794331475449e-01,-3.595570329229432205e-01,2.169187786233433557e-01
3.509999999999999787e-01,-4.036548206130748800e-02,-2.812635081836004636e-01,3.600386346004221250e-01
3.519999999999999796e-01,-2.562716398897917358e-01,-1.684804289577684633e-01,3.755612779093809306e-01
3.529999999999999805e-01,-3.784662490004669366e-01,-9.025730773113932459e-02,2.944851849063002125e-01
3.539999999999999813e-01,-4.433978256176627775e-01,2.085068980514769368e-02,1.917660212674250908e-01
3.549999999999999822e-01,-3.397180972540558841e-01,7.815563783619219884e-02,7.706572340686312916e-02
3.559999999999999831e-01,-2.413279957058410419e-01,1.103584048924184935e-01,-5.502647850124878920e-02
3.569999999999999840e-01,-1.601288288923957415e-01,8.950413778461351055e-02,-1.353019051756367275e-01
3.579999999999999849e-01,-3.918134558916026855e-02,7.259990701982997618e-02,-1.836127336476257865e-01
3.589999999999999858e-01,5.701639814781427323e-04,7.202283584235009972e-02,-1.806035332783468006e-01
3.599999999999999867e-01,6.041031772427575552e-03,1.099840483516713874e-01,-1.788734746336671233e-01
3.609999999999999876e-01,2.121726161412298972e-02,1.495513892363135033e-01,-1.502825133987138184e-01
3.619999999999999885e-01,2.243561467260291042e-02,2.097149555387212150e-01,-6.568420645845195194e-02
3.629999999999999893e-01,3.368890183862214421e-02,2.504941795310958730e-01,-3.157622628695223865e-02
3.639999999999999902e-01,7.560628820235028302e-02,2.451172717131988310e-01,-4.250129780776316230e-02
3.649999999999999911e-01,1.414321404838488339e-01,1.881278957386886830e-01,-4.000269012042447642e-02
3.659999999999999920e-01,1.894794260862643909e-01,9.903179858413665992e-02,-6.106851966969868012e-02
3.669999999999999929e-01,3.142289559892250672e-01,-5.461482445311069411e-02,-3.844061691647112505e-02
3.679999999999999938e-01,4.027095032067512514e-01,-2.709004565332905345e-01,-1.743655632067768121e-02
3.689999999999999947e-01,3.921806488945339675e-01,-3.685320870266463600e-01,6.604050371905366076e-03
3.699999999999999956e-01,2.947586114721882367e-01,-4.500049309472914927e-01,6.125915852551898355e-02
3.709999999999999964e-01,1.164896943774504784e-01,-4.622105287106149651e-01,1.758667215657799543e-01
3.719999999999999973e-01,-1.079621628874016109e-01,-3.703930273915502225e-01,1.970324506163548539e-01
3.729999999999999982e-01,-3.212388577363098352e-01,-1.998238833834379002e-01,2.360025130498223100e-01
3.739999999999999991e-01,-5.259356565148981533e-01,2.310016520916967353e-02,2.318118388286097564e-01
3.750000000000000000e-01,-6.110173286745570476e-01,2.004079917377870890e-01,1.876928477581775723e-01
3.760000000000000009e-01,-6.054717788294234904e-01,3.701949357339167079e-01,6.087645051908154720e-02
3.770000000000000018e-01,-4.710786100667891385e-01,4.921813664888487483e-01,-1.479310737047795192e-02
3.780000000000000027e-01,-2.369855442015282310e-01,4.835077808337975291e-01,-1.884595724989032717e-01
3.790000000000000036e-01,-1.058189502038906112e-02,4.102793093502022925e-01,-3.053577618122796378e-01
3.800000000000000044e-01,2.785051096015177530e-01,2.552548925217258402e-01,-3.858197660425791709e-01
3.810000000000000053e-01,4.754036825296817925e-01,8.644809849736072305e-02,-3.877483332063991206e-01
3.820000000000000062e-01,5.881683769723549116e-01,-1.354426930381562588e-01,-2.953288403789095518e-01
3.830000000000000071e-01,6.332198457594435670e-01,-2.575861380357756247e-01,-2.090419808900103038e-01
3.840000000000000080e-01,5.279373833832525786e-01,-3.543375967046480390e-01,-1.893087776810379111e-02
3.850000000000000089e-01,2.999424455662472178e-01,-3.397652711582797025e-01,1.284296358401673666e-01
3.860000000000000098e-01,8.993468149196225114e-02,-2.853590860659406814e-01,2.587187036771551041e-01
3.870000000000000107e-01,-8.530202110856301145e-02,-1.726547241988028447e-01,3.375289304109096999e-01
3.880000000000000115e-01,-2.985533463596169446e-01,-8.753862392680285265e-02,3.291090767605874268e-01
3.890000000000000124e-01,-3.509675546267298496e-01,-2.684426364224502468e-02,3.076458193440873568e-01
3.900000000000000133e-01,-3.422355424248910150e-01,1.691981284746281802e-02,1.928930493506065824e-01
3.910000000000000142e-01,-2.718905196132317403e-01,4.413008363828320457e-02,3.275349752593263719e-02
3.920000000000000151e-01,-2.252338348916869404e-01,1.142743390199431157e-02,-3.012470706221795705e-02
3.930000000000000160e-01,-1.108153034096689693e-01,4.180226444667540196e-03,-1.031891689675689672e-01
3.940000000000000169e-01,-4.762782158895310924e-02,4.359511317361974836e-02,-1.567862839713959344e-01
3.950000000000000178e-01,-4.102198729937268917e-02,1.175051874493445170e-01,-1.508729552649322736e-01
3.960000000000000187e-01,-7.695661995365872532e-02,1.368811448988277446e-01,-1.247014199638670912e-01
3.970000000000000195e-01,-6.128415227058277986e-02,2.301256784783478893e-01,-1.172053641564946846e-01
3.980000000000000204e-01,-5.113478918832800590e-02,2.691589263051198389e-01,-8.978997392719524628e-02
3.990000000000000213e-01,-2.153223623405933068e-02,3.248310732155965663e-01,-3.445739153233195323e-02
4.000000000000000222e-01,5.120447101831755027e-02,2.474630062071814240e-01,-3.688688146988614719e-02
4.010000000000000231e-01,1.936635585996272224e-01,1.639572877486783486e-01,-6.790013307107924112e-02
4.020000000000000240e-01,3.068828345415947623e-01,-3.600642795348415331e-02,-1.097053783496385743e-01
4.030000000000000249e-01,4.207065555603378137e-01,-2.011297593007561890e-01,-8.591488446169233406e-02
4.040000000000000258e-01,4.399699670555187181e-01,-3.390448600996548989e-01,-5.519701830669748732e-02
4.050000000000000266e-01,4.079748358455734802e-01,-4.826073704940461728e-01,-7.829126759186078423e-04
4.060000000000000275e-01,2.950624717438663502e-01,-5.113756865977390209e-01,9.209661590752871163e-02
4.069999999999999729e-01,5.763395065400558903e-02,-4.166993815708058824e-01,2.012058945640816943e-01
4.079999999999999738e-01,-1.879787870383354542e-01,-2.715674152594232393e-01,2.461387040680677873e-01
4.089999999999999747e-01,-4.264135818785081966e-01,-5.594227495221074792e-02,3.291050600328810916e-01
4.099999999999999756e-01,-5.836229099455357838e-01,1.348088154636898628e-01,2.637943127291660361e-01
4.109999999999999765e-01,-6.501959004787559726e-01,3.451911846409610463e-01,2.287459244087533816e-01
4.119999999999999774e-01,-5.890790219674053585e-01,4.701907789593520182e-01,7.281512508542756223e-02
4.129999999999999782e-01,-4.167839995519658780e-01,4.804957736911287247e-01,-3.758229675135546510e-02
4.139999999999999791e-01,-1.445770950834783519e-01,4.204973434358613149e-01,-2.188193090766317461e-01
4.149999999999999800e-01,1.096629236778906974e-01,3.117815139990586237e-01,-3.003334744155144453e-01
4.159999999999999809e-01,3.573157783338212212e-01,1.389098945888657122e-01,-4.132561554712287366e-01
4.169999999999999818e-01,5.181581246604624047e-01,-7.108265705984594118e-02,-3.869006116323628897e-01
4.179999999999999827e-01,5.485410746038147378e-01,-2.013757744003387973e-01,-2.809050299251528160e-01
4.189999999999999836e-01,5.430974580635236082e-01,-2.521699449792438874e-01,-1.745852750453301683e-01
4.199999999999999845e-01,4.272635560596745319e-01,-2.902876547298458010e-01,-1.499043314308017884e-02
4.209999999999999853e-01,1.948143598153856404e-01,-1.964815681294164174e-01,1.514744705897507482e-01
4.219999999999999862e-01,-6.223006025528747195e-03,-1.655355771770363749e-01,1.982283095037711274e-01
4.229999999999999871e-01,-1.352823417637408765e-01,-9.807124393132926610e-02,3.393221731467027102e-01
4.239999999999999880e-01,-2.144483870965488148e-01,-6.539254889165584117e-02,3.390500950947820114e-01
4.249999999999999889e-01,-2.643650531972859263e-01,-4.664935355420830876e-02,2.527712508341845021e-01
4.259999999999999898e-01,-2.660992055484344698e-01,-5.260332092276324284e-02,1.583806460051369602e-01
4.269999999999999907e-01,-1.924915823358213096e-01,-5.657806531992641552e-02,1.053919450691261361e-01
4.279999999999999916e-01,-1.382892095287259204e-01,-5.615590633030521917e-02,-4.143767172786214613e-03
4.289999999999999925e-01,-1.293532332810995722e-01,2.422294106419863036e-02,-6.794379953070693590e-02
4.299999999999999933e-01,-1.325746404631355513e-01,9.328206436066763252e-02,-9.097315122583711500e-02
4.309999999999999942e-01,-9.789398336418760060e-02,1.578344308699166643e-01,-1.440508879378214757e-01
4.319999999999999951e-01,-1.190070439543093328e-01,2.298519107248789273e-01,-1.282699281498732857e-01
4.329999999999999960e-01,-1.584414015693856037e-01,3.475674449141704092e-01,-8.645741855941360687e-02
4.339999999999999969e-01,-1.270600610998731672e-01,3.598590952775754248e-01,-4.529336924079549465e-02
4.349999999999999978e-01,-3.753808389906762577e-02,3.255821147308992636e-01,-8.555938752810414438e-02
4.359999999999999987e-01,1.271690040163353796e-01,1.975309941212287090e-01,-1.116453257691160939e-01
4.369999999999999996e-01,2.647253196741451431e-01,7.008109255274717897e-02,-9.818841199821916332e-02
4.380000000000000004e-01,3.978142749111586163e-01,-1.786007663732952222e-01,-1.108980417109215882e-01
4.390000000000000013e-01,4.807598428104265520e-01,-3.439494478704743230e-01,-1.026015146551528395e-01
4.400000000000000022e-01,4.865039110176617720e-01,-5.064425883144657581e-01,-8.941450001854009400e-02
4.410000000000000031e-01,4.026343019735565409e-01,-4.875796579528149932e-01,-6.639852424776430950e-03
4.420000000000000040e-01,2.146919931524014225e-01,-4.691071796767641300e-01,1.118037137317134250e-01
4.430000000000000049e-01,-2.600585656410947868e-02,-3.067787036553214497e-01,1.919916951801773908e-01
4.440000000000000058e-01,-2.883763553770850585e-01,-1.458395591138909042e-01,3.229633583366899874e-01
4.450000000000000067e-01,-4.731649227899194510e-01,1.095926941184186543e-01,3.017296519201848048e-01
4.460000000000000075e-01,-6.262980714198540522e-01,2.817890521990031316e-01,3.129688604062594859e-01
4.470000000000000084e-01,-6.002946958501099717e-01,4.268030768442033218e-01,2.258327168874889601e-01
4.480000000000000093e-01,-5.152255459452352859e-01,4.653072094537151759e-01,1.291156179622807987e-01
4.490000000000000102e-01,-3.265832833555550874e-01,3.994580382124541251e-01,-7.353090402506905210e-02
4.500000000000000111e-01,-5.952293206011637777e-02,3.383528746822402899e-01,-2.164754610882378139e-01
4.510000000000000120e-01,1.670073661951738397e-01,1.412324350209525903e-01,-3.460529676871775817e-01
4.520000000000000129e-01,3.847794384284066171e-01,-8.844190262143808434e-03,-3.933902220175941045e-01
4.530000000000000138e-01,5.461398988287012868e-01,-1.408352799093036123e-01,-3.626417714187064600e-01
4.540000000000000147e-01,5.100799635995842962e-01,-1.849026594628020714e-01,-2.993246041177788364e-01
4.550000000000000155e-01,4.564821713677086890e-01,-2.260070494187809975e-01,-1.779240958641838122e-01
4.560000000000000164e-01,3.261760959141630223e-01,-2.011058917570560933e-01,-5.208608674939039368e-02
4.570000000000000173e-01,1.144152260952429057e-01,-1.698143759451555268e-01,1.662358460430226337e-01
4.580000000000000182e-01,-6.167218262097541939e-03,-1.165904466617542073e-01,2.014956802005553327e-01
4.590000000000000191e-01,-1.489929230543824423e-01,-5.057439826007225497e-02,2.841475899577433073e-01
4.600000000000000200e-01,-1.911215495409103182e-01,-4.750048948934985915e-02,2.874856448365117889e-01
4.610000000000000209e-01,-1.759041704825866359e-01,-1.087976428093599124e-01,1.680708200508440053e-01
4.620000000000000218e-01,-1.553623640531165973e-01,-1.139756414575882476e-01,1.590864779317588129e-01
4.630000000000000226e-01,-1.323918129852369729e-01,-1.113071869693495058e-01,7.768738330199240205e-02
4.640000000000000235e-01,-1.226121955036368893e-01,-5.202755383714869480e-02,2.064635953685923023e-02
4.650000000000000244e-01,-1.552349870520711161e-01,9.248028006726428593e-03,-3.395974790793657161e-02
4.660000000000000253e-01,-1.516682187889215050e-01,1.444411152997704118e-01,-4.624083610427234120e-02
4.670000000000000262e-01,-2.101513694730413329e-01,2.297135210114810699e-01,-2.261053982584653593e-02
4.680000000000000271e-01,-2.157643702974973432e-01,3.465082997786700925e-01,-4.270738723484763383e-02
4.689999999999999725e-01,-1.958175606339564168e-01,3.823453104706799888e-01,-3.782935173659106309e-02
4.699999999999999734e-01,-1.447390360867998604e-01,3.398518059149139847e-01,-9.330419977663949316e-02
4.709999999999999742e-01,3.944913451384018943e-02,2.729415779660258612e-01,-1.036715057684045593e-01
4.719999999999999751e-01,1.843099835311649004e-01,7.878195297851368906e-02,-1.469070705274087563e-01
4.729999999999999760e-01,3.175259704883278133e-01,-8.083628765975660324e-02,-1.698825282837530815e-01
4.739999999999999769e-01,4.800992479167981997e-01,-2.926291275804007719e-01,-1.929000006209357909e-01
4.749999999999999778e-01,5.582471899751533240e-01,-4.252498269534848996e-01,-1.585132131888859763e-01
4.759999999999999787e-01,5.075855445873277416e-01,-4.988862229293510309e-01,-8.828718443886379719e-02
4.769999999999999796e-01,3.758623236015051772e-01,-5.319486396499655267e-01,-1.159496749217495213e-03
4.779999999999999805e-01,1.372181975289579470e-01,-3.435936012129356953e-01,7.637323617929535347e-02
4.789999999999999813e-01,-1.030448271463952348e-01,-1.895662677874581648e-01,2.057859173372380834e-01
4.799999999999999822e-01,-3.864000144760749156e-01,2.608324936613844874e-02,3.191869237786842950e-01
4.809999999999999831e-01,-5.606656889968957280e-01,2.455228332509915012e-01,3.223749420487175277e-01
4.819999999999999840e-01,-6.550720659201983986e-01,3.813402447890947844e-01,3.251109500327134527e-01
4.829999999999999849e-01,-6.023906202489492934e-01,4.500375264653080909e-01,2.153776125898060889e-01
4.839999999999999858e-01,-4.621165987919504392e-01,4.022387092412268439e-01,6.163581363640677907e-02
4.849999999999999867e-01,-2.155870876723453289e-01,3.216254835133272039e-01,-4.860262675539864935e-02
4.859999999999999876e-01,5.417297807263974155e-03,1.457110126248766235e-01,-2.160847780136975482e-01
4.869999999999999885e-01,2.155861944010558917e-01,2.418440880692284550e-02,-3.096724432528704107e-01
4.879999999999999893e-01,4.295466715058276486e-01,-6.625705345573090765e-02,-3.732595143236815405e-01
4.889999999999999902e-01,4.884101282046773296e-01,-1.428028802190319246e-01,-3.895598656537933580e-01
4.899999999999999911e-01,4.591462097209285109e-01,-1.427447601695280011e-01,-2.985527406756705027e-01
4.909999999999999920e-01,3.732000662162114901e-01,-1.714052422066447146e-01,-1.720594247116672693e-01
4.919999999999999929e-01,2.257795144774661922e-01,-1.192883237590517120e-01,-1.226469587488593707e-02
4.929999999999999938e-01,7.682315256696717332e-02,-8.459831372462142673e-02,1.288346594647792331e-01
4.939999999999999947e-01,-1.093114124598662355e-02,-9.994671966062905477e-02,2.056067346013716879e-01
4.949999999999999956e-01,-1.195221589540962637e-01,-8.551313886907112305e-02,2.426339498463324362e-01
4.959999999999999964e-01,-1.242990652518391331e-01,-1.335153114095686822e-01,2.641599309681765262e-01
4.969999999999999973e-01,-1.079558651474727682e-01,-1.542661795453085238e-01,2.128874637558532401e-01
4.979999999999999982e-01,-9.310908386598908126e-02,-1.341873998642388044e-01,1.791948950576104371e-01
4.989999999999999991e-01,-9.962306613223842477e-02,-1.476750194232901991e-01,1.011071895788769048e-01
5.000000000000000000e-01,-1.342481414435729159e-01,-3.172348463438688648e-02,3.302812860616661378e-02
5.010000000000000009e-01,-1.698170344874389004e-01,1.100820093490403745e-01,-1.061244157562538613e-02
5.020000000000000018e-01,-2.268876116204270044e-01,2.158200471133630560e-01,-4.802611598734256434e-04
5.030000000000000027e-01,-3.115764822523651723e-01,3.775722708571342956e-01,3.680085600980077375e-03
5.040000000000000036e-01,-2.910718764205228459e-01,4.568809985063183587e-01,-3.565316688274033918e-02
5.050000000000000044e-01,-2.791899893812141986e-01,3.979568450682445802e-01,-6.241926831347544696e-03
5.060000000000000053e-01,-1.220673251006381549e-01,3.238711503963854765e-01,-8.017125343534262094e-02
5.070000000000000062e-01,3.103773402537950143e-02,1.688443475731475907e-01,-1.173509331160509928e-01
5.080000000000000071e-01,2.511096350268277044e-01,-1.948127703178042028e-02,-1.538212002467906625e-01
5.090000000000000080e-01,4.304488045772902338e-01,-2.836696720285079576e-01,-2.333937235775972174e-01
5.100000000000000089e-01,5.521790736245862918e-01,-4.265505185986247505e-01,-2.188431237057505419e-01
5.110000000000000098e-01,5.779807818408444486e-01,-5.091268901863837959e-01,-1.871123345399389182e-01
5.120000000000000107e-01,4.797822942504589849e-01,-5.215669513001367497e-01,-1.425327911229452293e-01
5.130000000000000115e-01,2.735890015389929042e-01,-4.333916685553464432e-01,-1.890549442602349611e-02
5.140000000000000124e-01,3.015304648043044128e-02,-2.333736222721099207e-01,1.414862007411014366e-01
5.150000000000000133e-01,-2.202831255877894523e-01,-1.655891431826096716e-02,2.549202154771504358e-01
5.160000000000000142e-01,-4.610263805994221920e-01,1.615702817028722149e-01,3.189956903790099330e-01
5.170000000000000151e-01,-5.838033710574838109e-01,3.184762653142853006e-01,3.570712429449012237e-01
5.180000000000000160e-01,-6.631130130151935420e-01,3.939586128966772738e-01,3.220016695694735143e-01
5.190000000000000169e-01,-5.197060295886223313e-01,3.707278862127146302e-01,2.749270301671795647e-01
5.200000000000000178e-01,-3.664705747444879647e-01,3.113856317876627644e-01,1.192256929803248572e-01
5.210000000000000187e-01,-1.376738778907617977e-01,2.174883843757334512e-01,-5.037007064805578554e-02
5.220000000000000195e-01,8.600410186922798073e-02,6.598957873319458156e-02,-1.764808409002048550e-01
5.230000000000000204e-01,2.607968905407204718e-01,-1.012913874155521414e-02,-3.393930981032827199e-01
5.240000000000000213e-01,4.010341420493753750e-01,-5.100802834075187503e-02,-3.655418506848249760e-01
5.250000000000000222e-01,4.122824296741677275e-01,-9.904896059943310571e-02,-3.360525896776288546e-01
5.260000000000000231e-01,3.984892890723527037e-01,-8.237626096930340813e-02,-2.687904050000142209e-01
5.270000000000000240e-01,2.539985939034968832e-01,-9.724880724314298452e-02,-1.681311787403900193e-01
5.280000000000000249e-01,1.503059105622385205e-01,-7.278225544954998461e-02,-7.203090358438583862e-02
5.290000000000000258e-01,5.646243166263602287e-02,-1.150788018637440707e-01,7.480581879675915480e-02
5.300000000000000266e-01,-7.142727286885951384e-03,-1.254085515068890933e-01,1.680499363413723024e-01
5.310000000000000275e-01,5.265222091774025837e-03,-1.836499131227012915e-01,2.110216692698058394e-01
5.320000000000000284e-01,-2.795778888755092242e-02,-2.166489325273081024e-01,1.964623324066206156e-01
5.330000000000000293e-01,6.563949869094949131e-04,-2.140050502575855107e-01,1.764952977392066913e-01
5.340000000000000302e-01,-6.952687402414971934e-03,-2.169546075592162504e-01,1.337392819220431794e-01
5.350000000000000311e-01,-7.845746725615418415e-02,-1.214110787528766555e-01,7.067772608007641399e-02
5.360000000000000320e-01,-1.452603406511826234e-01,3.868458859335672378e-02,4.268686118526549000e-02
5.370000000000000329e-01,-2.207434951537219636e-01,2.039095452781734263e-01,6.594427310035352874e-02
5.380000000000000338e-01,-3.013110355388077810e-01,3.338318067535779865e-01,3.142393701461768801e-02
5.390000000000000346e-01,-3.708486893055719658e-01,4.731083088622320409e-01,2.535302068903617922e-02
5.400000000000000355e-01,-3.281452342307674686e-01,4.432651929095069443e-01,2.834251692260192357e-02
5.410000000000000364e-01,-2.645472387981313012e-01,3.842245119826860345e-01,1.819503643654967612e-02
5.420000000000000373e-01,-8.759781618317297180e-02,2.344890591202183072e-01,-6.847275463082007352e-02
5.430000000000000382e-01,1.366835537082611018e-01,3.014489727544814382e-02,-1.244033615564553580e-01
5.440000000000000391e-01,3.836758665102599775e-01,-2.112197125631384009e-01,-1.896775823252731530e-01
5.450000000000000400e-01,5.429712977316043521e-01,-3.774377268569972799e-01,-2.187514810461453629e-01
5.460000000000000409e-01,5.867392555389465691e-01,-5.007625499519603451e-01,-2.502298527667422001e-01
5.470000000000000417e-01,5.847399736397644876e-01,-5.081338512305997313e-01,-2.374382069891849689e-01
5.480000000000000426e-01,4.223941786087690442e-01,-4.058434305070921511e-01,-1.489299013017419959e-01
5.490000000000000435e-01,1.894957470232112307e-01,-2.323411715949245115e-01,-1.689492181915959457e-02
5.500000000000000444e-01,-7.214722562609690582e-02,-1.233161228563929152e-01,1.204805738506908447e-01
5.510000000000000453e-01,-3.217623376598245932e-01,8.271599055410511214e-02,2.634952623988117693e-01
5.520000000000000462e-01,-4.967639403490118899e-01,2.116669233726220234e-01,3.682202619749361805e-01
5.530000000000000471e-01,-5.983401537683830096e-01,3.216425441746999514e-01,4.017869022112626753e-01
5.540000000000000480e-01,-6.108987907907844628e-01,3.383276730932782694e-01,3.306487316413320166e-01
5.550000000000000488e-01,-4.488570906627850077e-01,2.485852293836499360e-01,2.494072298893993678e-01
5.560000000000000497e-01,-2.691010933849684594e-01,1.913546700353320751e-01,1.188592543188081579e-01
5.570000000000000506e-01,-8.869401066997806282e-02,9.733294586001670079e-02,-4.437226870287122593e-02
5.580000000000000515e-01,1.508109836985494778e-01,5.471362583060199875e-02,-1.642808230033711570e-01
5.590000000000000524e-01,3.091425120559756490e-01,-9.819365037880160851e-03,-3.400577316506398495e-01
5.600000000000000533e-01,3.383805256244026283e-01,-3.213132326822551454e-02,-3.273158111074711552e-01
5.610000000000000542e-01,3.266022931158568121e-01,-1.617882082506506836e-02,-3.027477243699285836e-01
5.620000000000000551e-01,2.615178651524462383e-01,-3.271016087982633186e-02,-2.337804761680337684e-01
5.629999999999999449e-01,2.478832500985653775e-01,-4.202006949497712196e-02,-1.434010050529267166e-01
5.639999999999999458e-01,1.128889802283443849e-01,-8.901245225400383765e-02,-3.261753315155968558e-02
5.649999999999999467e-01,3.470030867633121241e-02,-1.557880566571740732e-01,7.306116828512823624e-02
5.659999999999999476e-01,2.763881784413313447e-02,-2.490236787715675304e-01,1.345636809269198930e-01
5.669999999999999485e-01,4.234489553277706597e-02,-2.961814119780075694e-01,1.482318043398579421e-01
5.679999999999999494e-01,5.376053670784881888e-02,-3.336882933552513530e-01,1.709509815201071536e-01
5.689999999999999503e-01,5.292182366407001404e-02,-2.495714846099011119e-01,1.276855256842756303e-01
5.699999999999999512e-01,2.112802495328048799e-02,-1.596809999146474313e-01,7.266120269394148179e-02
5.709999999999999520e-01,-7.407404548893342655e-02,-2.212149656530482816e-02,7.664750348928696388e-02
5.719999999999999529e-01,-1.823707528972207947e-01,1.550889432091732689e-01,8.183529853177165525e-02
5.729999999999999538e-01,-3.493136721364581976e-01,3.030781122260857163e-01,7.936805592263795894e-02
5.739999999999999547e-01,-4.171572491800640270e-01,4.708389763723844212e-01,8.556825717768938577e-02
5.749999999999999556e-01,-4.843678643908307935e-01,4.658660642127709917e-01,7.303546101128984003e-02
5.759999999999999565e-01,-3.876721920048886716e-01,4.101226482190830636e-01,7.802917497812665582e-02
5.769999999999999574e-01,-2.499882150043372109e-01,2.632338829898337451e-01,4.225030528303704708e-02
5.779999999999999583e-01,-4.088296710275773904e-02,8.151822646063780486e-02,-5.919431315596303256e-02
5.789999999999999591e-01,2.208106898390575779e-01,-1.192054943114294607e-01,-1.562492251297953327e-01
5.799999999999999600e-01,4.452265175293543820e-01,-3.277042147248240278e-01,-2.162804801173000835e-01
5.809999999999999609e-01,6.133465096791876903e-01,-5.116146129980780888e-01,-2.948111127557510591e-01
5.819999999999999618e-01,6.685386235378720787e-01,-4.988992182861339830e-01,-3.199345913449761492e-01
5.829999999999999627e-01,5.569267488790199394e-01,-4.348166369208818494e-01,-2.537717610996944595e-01
5.839999999999999636e-01,3.555082302045621256e-01,-2.784280029051301453e-01,-2.095548782748840599e-01
5.849999999999999645e-01,8.620804924766931054e-02,-1.189847160178545832e-01,-1.303756905594771580e-02
5.859999999999999654e-01,-1.214983691145193334e-01,3.185386265926702654e-02,1.356438829277077651e-01
5.869999999999999662e-01,-3.884254043711607984e-01,1.858659262922754130e-01,2.721299036576076968e-01
5.879999999999999671e-01,-5.430156294445909193e-01,2.735281806678994121e-01,3.535171792751437003e-01
5.889999999999999680e-01,-5.647385158783347903e-01,2.731113683765347133e-01,3.963194503954279302e-01
5.899999999999999689e-01,-4.977694784857449317e-01,2.690640975882960806e-01,3.762773196824426569e-01
5.909999999999999698e-01,-3.609951393200454550e-01,2.197631496371852122e-01,2.604966182853616918e-01
5.919999999999999707e-01,-1.641742397485661531e-01,1.266511909065070607e-01,1.110668440028824838e-01
5.929999999999999716e-01,5.780450291934156881e-02,7.818392731715866073e-02,-7.415492093398211304e-02
5.939999999999999725e-01,1.617175292153630595e-01,3.022628871942779558e-02,-1.924260167120023235e-01
5.949999999999999734e-01,2.634219565839776567e-01,3.793076454919229457e-02,-2.823174978452679396e-01
5.959999999999999742e-01,2.600022519106783281e-01,3.591801573961436733e-02,-3.040909095801596074e-01
5.969999999999999751e-01,2.370134583095557246e-01,1.281915369955801028e-03,-3.138077171076531502e-01
5.979999999999999760e-01,2.073191168859831457e-01,3.241937815448887872e-02,-2.264066690225380873e-01
5.989999999999999769e-01,1.204034337249126063e-01,-8.220404608653424094e-02,-1.058061890568491592e-01
5.999999999999999778e-01,1.135050131752963903e-01,-1.523051295283940620e-01,-6.608550164876499100e-02
6.009999999999999787e-01,1.168868120827120938e-01,-2.297740202586580904e-01,3.848691427082601146e-02
6.019999999999999796e-01,1.309824983454088709e-01,-2.596590061367201607e-01,9.901476554469919311e-02
6.029999999999999805e-01,1.107940283803886539e-01,-3.203221523597182818e-01,8.684668682877556833e-02
6.039999999999999813e-01,8.747116642725456803e-02,-3.391942417801761533e-01,1.233532214098401331e-01
6.049999999999999822e-01,7.532313150650100930e-02,-2.143576399002995458e-01,9.293473718274186668e-02
6.059999999999999831e-01,-1.015411970786772762e-02,-8.083478540644802035e-02,7.110971273381369584e-02
6.069999999999999840e-01,-1.352366886829971249e-01,1.104321814089812004e-01,9.614396113314968573e-02
6.079999999999999849e-01,-2.909863668986206187e-01,3.196235165406015599e-01,1.234942278511435843e-01
6.089999999999999858e-01,-4.347020965844876073e-01,4.538538323723748658e-01,1.012624646957440561e-01
6.099999999999999867e-01,-4.696851131333714680e-01,4.994136004773959137e-01,1.426903671873280821e-01
6.109999999999999876e-01,-4.476399139134323302e-01,4.892114682127993719e-01,1.286172594079854903e-01
6.119999999999999885e-01,-3.618378773687865313e-01,3.247158204343278398e-01,6.561377328046677504e-02
6.129999999999999893e-01,-1.667751946249493022e-01,1.574577682828302849e-01,1.202496587135987172e-02
6.139999999999999902e-01,9.182250718193020467e-02,-5.476764200530750970e-02,-7.446818728864916526e-02
6.149999999999999911e-01,3.328770791166659193e-01,-2.790435360187226155e-01,-1.607703809714532972e-01
6.159999999999999920e-01,5.351037240060665390e-01,-3.945146771262125762e-01,-2.289427812611830315e-01
6.169999999999999929e-01,6.594806065770234538e-01,-4.367236770695908099e-01,-3.472821071635431300e-01
6.179999999999999938e-01,5.907922052853596950e-01,-4.444105641090850267e-01,-3.150895453318052764e-01
6.189999999999999947e-01,5.177998468993003645e-01,-3.190839632908232248e-01,-2.652057439594033283e-01
6.199999999999999956e-01,2.775086914506127989e-01,-1.754507602284242351e-01,-1.631294631188368316e-01
6.209999999999999964e-01,4.524359059929720928e-02,-1.494624193855727604e-02,-3.969066443085864093e-02
6.219999999999999973e-01,-2.327562399446783670e-01,9.626969137693437706e-02,1.329894032169437468e-01
6.229999999999999982e-01,-4.156412138724046579e-01,2.210171802191684687e-01,3.026572500112527653e-01
6.239999999999999991e-01,-5.342756600463429706e-01,2.063129120477420753e-01,3.774746968633152511e-01
6.250000000000000000e-01,-5.432451512951618211e-01,2.025006005144698584e-01,3.881063966579575975e-01
6.260000000000000009e-01,-4.473317175355835396e-01,1.969792380534676757e-01,3.275928965841499174e-01
6.270000000000000018e-01,-2.931785715892866739e-01,1.449994318078182964e-01,2.476525266691125826e-01
6.280000000000000027e-01,-9.966011362294896481e-02,8.508645733772868258e-02,1.094433023160286123e-01
6.290000000000000036e-01,4.533287844139389372e-02,7.304778146986690146e-02,-3.280619590447481082e-02
6.300000000000000044e-01,1.351005943436484058e-01,1.095760037492638228e-01,-1.681096567398712716e-01
6.310000000000000053e-01,1.895424384494614201e-01,1.042214332281349021e-01,-2.677482093570207611e-01
6.320000000000000062e-01,1.763145307932682537e-01,9.798264318901164782e-02,-2.840103408881389235e-01
6.330000000000000071e-01,1.531716879371224360e-01,8.340154938612279190e-02,-2.437202576559102385e-01
6.340000000000000080e-01,1.663224290271229366e-01,-7.973484527016037882e-03,-1.925584389079574021e-01
6.350000000000000089e-01,1.088627320546960153e-01,-1.069443187532046757e-01,-1.132777614274003003e-01
6.360000000000000098e-01,1.187591349181881251e-01,-2.400136979839468943e-01,-4.164062674250319784e-02
6.370000000000000107e-01,1.919793740805909033e-01,-3.199595694355840680e-01,1.319413309338619313e-02
6.380000000000000115e-01,1.991517513731445033e-01,-4.148694252585555242e-01,7.148808109583901227e-02
6.390000000000000124e-01,2.332264845433528744e-01,-3.928892561347988033e-01,6.724485303058704011e-02
6.400000000000000133e-01,1.924576782315884360e-01,-2.682428129178853204e-01,5.601175877055553087e-02
6.410000000000000142e-01,9.633228789675185588e-02,-1.277315279271822868e-01,3.435730563441388719e-02
6.420000000000000151e-01,-5.513748887367448531e-02,7.432663958689114669e-02,4.371979891169555654e-02
6.430000000000000160e-01,-1.909096582117502938e-01,2.845175324808497108e-01,5.718142780850982154e-02
6.440000000000000169e-01,-4.197449197516628927e-01,4.545546917849010438e-01,9.096283876839640625e-02
6.450000000000000178e-01,-5.195822754387594555e-01,5.120852483660323085e-01,1.507111691387692243e-01
6.460000000000000187e-01,-5.315886307442612146e-01,5.217054107858293266e-01,1.611279535855955902e-01
6.470000000000000195e-01,-4.569063625019840202e-01,3.891027358746105835e-01,1.705849268654247020e-01
6.480000000000000204e-01,-3.049212923197115455e-01,2.333437236690288075e-01,1.213004263458245940e-01
6.490000000000000213e-01,-7.399747272348979055e-02,-1.566959838509699929e-02,8.039843000726598632e-02
6.500000000000000222e-01,1.580189737029506492e-01,-2.220371124743985292e-01,-5.505283502915499921e-02
6.510000000000000231e-01,4.061547687587960809e-01,-3.778411560735059349e-01,-1.357872726714027534e-01
6.520000000000000240e-01,5.775505273114821536e-01,-4.414344327574078464e-01,-2.726694174877614119e-01
6.530000000000000249e-01,6.310578227215323244e-01,-4.331473787309755852e-01,-3.401670618909196642e-01
6.540000000000000258e-01,5.755176324424084999e-01,-3.448699675825908639e-01,-3.421831311815857202e-01
6.550000000000000266e-01,4.319641841989512177e-01,-1.912386480799726785e-01,-2.820929691795203142e-01
6.560000000000000275e-01,2.315993983854241212e-01,-7.112328257486608130e-02,-2.214535825930055990e-01
6.570000000000000284e-01,-5.965449978925402297e-02,7.782097500302755100e-02,-3.756275294687681787e-02
6.580000000000000293e-01,-2.969755344230412542e-01,1.431154778939442707e-01,1.202741729775170659e-01
6.590000000000000302e-01,-4.420465444589752879e-01,1.638072722414101734e-01,2.581270130654151340e-01
6.600000000000000311e-01,-4.802462678784238936e-01,1.327813845686015293e-01,3.756258711209104484e-01
6.610000000000000320e-01,-4.495000834625798580e-01,1.221201152182639776e-01,3.749204601639799517e-01
6.620000000000000329e-01,-3.332870842346490892e-01,9.860931125777433470e-02,3.447569409853483702e-01
6.630000000000000338e-01,-2.005482073793649622e-01,6.563688997727368246e-02,2.558481536051984140e-01
6.640000000000000346e-01,-2.985285383339128865e-02,9.214351995512524984e-02,8.962973620903665062e-02
6.650000000000000355e-01,2.784518402510170396e-02,1.413763162584439348e-01,-2.815241106351083072e-02
6.660000000000000364e-01,1.141024811430715463e-01,1.695386477450529505e-01,-1.805898936547283284e-01
6.670000000000000373e-01,9.730064287747254570e-02,1.661824989108911244e-01,-2.349237522779102916e-01
6.680000000000000382e-01,1.250176662458106491e-01,1.585358275926324334e-01,-2.528696132143405384e-01
6.690000000000000391e-01,8.642962263366159303e-02,2.294877970640465253e-02,-2.163028253646672450e-01
6.700000000000000400e-01,6.483556733241781223e-02,-9.540716247216179946e-02,-1.668152038266791093e-01
6.710000000000000409e-01,1.357362311018591450e-01,-1.974434133949210524e-01,-1.094022928403885486e-01
6.720000000000000417e-01,1.627478297741773439e-01,-3.274502420502793942e-01,-7.679082698994675604e-02
6.730000000000000426e-01,2.449835694215637127e-01,-4.213221356349696745e-01,2.821390349252522745e-03
6.740000000000000435e-01,2.889574728581897345e-01,-4.234023042197291309e-01,2.698041610299562604e-02
6.750000000000000444e-01,3.083402861203196066e-01,-3.085235738319632715e-01,-1.408304377105137027e-02
6.760000000000000453e-01,2.001377136298998216e-01,-1.924350681772154792e-01,-1.049004847115722790e-02
6.770000000000000462e-01,7.952063906383768921e-02,2.416245552414162182e-02,5.211805638965213983e-02
6.780000000000000471e-01,-9.051686160278163418e-02,2.223429263807077672e-01,1.873539731058188051e-02
6.790000000000000480e-01,-3.090089253701180372e-01,3.914479698741547553e-01,6.479777759825204597e-02
6.800000000000000488e-01,-4.562988455025757673e-01,5.088044830834962395e-01,1.388794538615291119e-01
6.810000000000000497e-01,-5.789188550851405157e-01,5.205264163005453026e-01,1.567234943928905166e-01
6.820000000000000506e-01,-5.975568947168818923e-01,3.992622138627869854e-01,2.089092967485962904e-01
6.830000000000000515e-01,-4.427707837608783059e-01,2.319277381632007806e-01,2.295191998222628760e-01
6.840000000000000524e-01,-2.638216824769553104e-01,1.351845818007261883e-02,1.539547669294792365e-01
6.850000000000000533e-01,2.905162401445165674e-02,-1.773110592500755645e-01,1.077323789625954792e-01
6.860000000000000542e-01,2.624711010603312800e-01,-3.213136620601689808e-01,-5.925034035440663455e-02
6.870000000000000551e-01,4.745290781984763395e-01,-3.946497656502488405e-01,-2.306858996466766287e-01
6.879999999999999449e-01,5.972453857625166229e-01,-3.499584484193133394e-01,-2.885837084262621310e-01
6.889999999999999458e-01,6.501765323888655246e-01,-2.844667208917519008e-01,-3.642280190875616941e-01
6.899999999999999467e-01,5.083731937166248160e-01,-2.239729620305100921e-01,-3.499794799618819452e-01
6.909999999999999476e-01,3.679422343221061542e-01,-7.703278381786179962e-02,-2.869897591023282124e-01
6.919999999999999485e-01,8.202479794866804341e-02,-1.288717846966357279e-02,-1.801405730929303006e-01
6.929999999999999494e-01,-1.532230856001756125e-01,9.479946334310788980e-02,-2.065762064349052629e-02
6.939999999999999503e-01,-3.048852100506774243e-01,1.015473651378125536e-01,1.887890686004116969e-01
6.949999999999999512e-01,-4.189183129799004535e-01,8.327639286234120308e-02,2.694365076897946021e-01
6.959999999999999520e-01,-4.178082368332204921e-01,8.865477774589107518e-02,3.448435677681529477e-01
6.969999999999999529e-01,-3.587100431143198098e-01,9.331183562066100445e-02,3.713029916105363148e-01
6.979999999999999538e-01,-2.406306085489493540e-01,5.031629823090198739e-02,3.300868989085334881e-01
6.989999999999999547e-01,-1.687381025671620960e-01,1.299790963107141095e-01,2.025158149237201444e-01
6.999999999999999556e-01,-3.804634524821446512e-02,1.633030699891293569e-01,1.053348277727766541e-01
7.009999999999999565e-01,-1.486190481887266976e-02,2.108750075890844233e-01,-5.056653036447514987e-02
7.019999999999999574e-01,3.826800471787349806e-02,2.425734181373981890e-01,-1.359858120203852605e-01
7.029999999999999583e-01,6.004245401752450386e-04,1.801671474935271633e-01,-1.906039152240326662e-01
7.039999999999999591e-01,2.263576444909725857e-02,1.074413866711024096e-01,-1.925811865310342874e-01
7.049999999999999600e-01,5.182241367336876126e-02,-5.555889441241418369e-02,-1.929406676669673526e-01
7.059999999999999609e-01,1.074371218556713220e-01,-1.939339771130413337e-01,-1.287976009933820276e-01
7.069999999999999618e-01,1.591560903451358366e-01,-3.541199224479121832e-01,-1.082990605931322958e-01
7.079999999999999627e-01,2.220527210240147709e-01,-4.494910885188341254e-01,-6.437821741758487093e-02
7.089999999999999636e-01,3.247760950604217656e-01,-4.972892401590666145e-01,-4.238611531829288015e-02
7.099999999999999645e-01,3.587043871284337215e-01,-3.850772660909408396e-01,-2.704889435634151573e-02
7.109999999999999654e-01,3.284426942357035473e-01,-2.260551493185343208e-01,-2.039466836062384450e-02
7.119999999999999662e-01,1.813031611677318189e-01,-2.607595708750545544e-03,-1.235921897020953418e-02
7.129999999999999671e-01,5.620963703725591343e-02,1.605103967708546020e-01,-3.921102148679651844e-02
7.139999999999999680e-01,-1.948984769146881735e-01,3.750713620006896898e-01,4.074174199925967993e-03
7.149999999999999689e-01,-4.473742264961930726e-01,4.968679390782459460e-01,9.332483971190326522e-02
7.159999999999999698e-01,-5.349174875703235355e-01,5.012475767281707739e-01,1.520839128634198512e-01
7.169999999999999707e-01,-6.396882907823903119e-01,4.682808589453437698e-01,2.029962233972134600e-01
7.179999999999999716e-01,-5.427709887502543129e-01,2.989114709035277651e-01,2.826387659123817397e-01
7.189999999999999725e-01,-3.850174415050769405e-01,9.701221729716796860e-02,2.979198477691311076e-01
7.199999999999999734e-01,-2.066274185048485590e-01,-6.413293952535351061e-02,2.142113192539606692e-01
7.209999999999999742e-01,1.034871081855585212e-01,-2.301948129001420706e-01,9.629503429230569511e-02
7.219999999999999751e-01,3.518372899931327957e-01,-3.373449517155330812e-01,-1.024654812813378668e-01
7.229999999999999760e-01,5.539419248042785071e-01,-3.386465297862923385e-01,-1.770220949845809355e-01
7.239999999999999769e-01,6.079685609047600359e-01,-2.861777007629254244e-01,-3.056725798225793933e-01
7.249999999999999778e-01,5.620234005166407920e-01,-2.062860051289130692e-01,-3.965954125894377569e-01
7.259999999999999787e-01,4.531334018033438271e-01,-1.321432962309599113e-01,-3.969290736492108174e-01
7.269999999999999796e-01,2.232820511931834506e-01,-3.531102557098594191e-02,-2.930795341298132461e-01
7.279999999999999805e-01,-1.504078339143121237e-02,1.188881923626547606e-02,-1.385750167723039661e-01
7.289999999999999813e-01,-1.630876480751311530e-01,4.548508476635307329e-02,-7.868115895144137811e-03
7.299999999999999822e-01,-3.208441511723502115e-01,9.871135322810278834e-02,1.380460551645142364e-01
7.309999999999999831e-01,-3.550548986821205899e-01,2.109238488166197134e-02,2.574677813675205207e-01
7.319999999999999840e-01,-3.039460343181172308e-01,3.154516272022515888e-02,3.140779786722473488e-01
7.329999999999999849e-01,-2.651818745415011058e-01,6.568267579743551632e-02,3.492312719025830181e-01
7.339999999999999858e-01,-1.447258319507807867e-01,1.140918453793187265e-01,3.113470685593506260e-01
7.349999999999999867e-01,-1.319081400764009759e-01,2.139844127980527200e-01,2.072135336438264974e-01
7.359999999999999876e-01,-4.128948007813135895e-02,2.521618668901255411e-01,9.090698132046949598e-02
7.369999999999999885e-01,-4.014625968694048724e-02,2.952425251603990053e-01,-9.673360835202808594e-03
7.379999999999999893e-01,-2.452062715152321555e-03,2.856560490629345694e-01,-1.122214141494839584e-01
7.389999999999999902e-01,-5.520565687713386432e-02,1.733219060162977943e-01,-1.605221193273230484e-01
7.399999999999999911e-01,-1.654520824845784679e-02,-3.597137649928606844e-03,-1.425924397436440505e-01
7.409999999999999920e-01,-1.807289109905948696e-02,-1.667778376743399849e-01,-1.532509196478667179e-01
7.419999999999999929e-01,1.298162270615692282e-01,-3.351586321797302426e-01,-1.423811847994379542e-01
7.429999999999999938e-01,1.991446621027430641e-01,-4.339458676636954726e-01,-9.516433900480789077e-02
7.439999999999999947e-01,3.214337430188611289e-01,-4.744854915183630006e-01,-4.518499484741719113e-02
7.449999999999999956e-01,4.103899717320093621e-01,-4.311960324019572521e-01,-7.255866744752266506e-02
7.459999999999999964e-01,4.395046074487130028e-01,-2.955054417846277870e-01,-5.602333210141910436e-02
7.469999999999999973e-01,3.200590115469719166e-01,-7.462754437798196916e-02,-8.751534150432392634e-02
7.479999999999999982e-01,1.951498542275705572e-01,1.294325045441125643e-01,-8.263430483558820150e-02
7.489999999999999991e-01,-5.584223176428005503e-02,3.145838654753599362e-01,-3.086600862630563963e-02
7.500000000000000000e-01,-2.707774484095836764e-01,4.668369093349030718e-01,7.955020288016978469e-03
7.510000000000000009e-01,-5.050304820006332740e-01,4.906602067139781420e-01,1.039809308068555260e-01
7.520000000000000018e-01,-6.129719566295294131e-01,4.362580809325892761e-01,1.837642971291081340e-01
7.530000000000000027e-01,-6.109230063428244817e-01,3.499826820384159265e-01,2.598301398999976475e-01
7.540000000000000036e-01,-5.311922657865876252e-01,1.468700276862385801e-01,2.559246226177662731e-01
7.550000000000000044e-01,-3.554887225154391150e-01,-1.506727729511719502e-03,2.924786600948321991e-01
7.560000000000000053e-01,-8.896565251738243474e-02,-1.894047520058710632e-01,2.173193560628715326e-01
7.570000000000000062e-01,1.969171146209642287e-01,-2.712988083411091988e-01,1.066843549955897447e-01
7.580000000000000071e-01,4.236385240777351679e-01,-2.932584724840966439e-01,-4.188425587915450138e-02
7.590000000000000080e-01,5.314225314160846425e-01,-2.572834142588228401e-01,-2.054490946581432886e-01
7.600000000000000089e-01,5.990095775751081986e-01,-2.314033404239872749e-01,-3.084353561499791896e-01
7.610000000000000098e-01,5.122963290662788660e-01,-7.514533974389228654e-02,-3.944803513050875177e-01
7.620000000000000107e-01,3.712984088042137754e-01,-6.426201259140404409e-02,-3.767250991812243766e-01
7.630000000000000115e-01,1.448041928574089754e-01,-4.135196829734786444e-02,-2.865929782733604436e-01
7.640000000000000124e-01,-4.010812519622898586e-02,-4.787430215647885123e-02,-1.950404214345013154e-01
7.650000000000000133e-01,-1.754599556551120765e-01,-3.296994726702238976e-02,-6.452958335549086044e-02
7.660000000000000142e-01,-2.585076781243060839e-01,-4.674530650047382246e-02,1.391925785513346281e-01
7.670000000000000151e-01,-2.829118828413602627e-01,-3.032696521540419188e-02,2.190591642045013610e-01
7.680000000000000160e-01,-2.600680265267239499e-01,6.401752236424466946e-02,3.312695477895028495e-01
7.690000000000000169e-01,-1.787241399875561798e-01,8.475981511702487814e-02,3.173136221421757885e-01
7.700000000000000178e-01,-1.104019255193562504e-01,1.811790852513701644e-01,2.877357301745399054e-01
7.710000000000000187e-01,-9.896644013353628200e-02,2.858791351839354289e-01,2.002388011975987925e-01
7.720000000000000195e-01,-1.115675394858905850e-01,3.053606618676178996e-01,7.483786969687608592e-02
7.730000000000000204e-01,-9.039172328163751213e-02,3.486599317148566524e-01,-5.945626670057177141e-03
7.740000000000000213e-01,-1.450428495813588514e-01,2.112303981327164071e-01,-5.779046466076351307e-02
7.750000000000000222e-01,-1.095047506290146300e-01,7.993671270179228405e-02,-1.238127125325096806e-01
7.760000000000000231e-01,-6.403005386251091335e-02,-7.071783142566245850e-02,-9.450609342492576059e-02
7.770000000000000240e-01,2.477468627299893658e-02,-2.764103364936593699e-01,-1.348163431555480796e-01
7.780000000000000249e-01,1.747170440452220641e-01,-4.346352888084887844e-01,-5.373831109533269701e-02
7.790000000000000258e-01,2.755003745139305016e-01,-5.068596464589673056e-01,-9.506347188825735317e-02
7.800000000000000266e-01,4.210578503836026054e-01,-4.494311810486979475e-01,-6.970584150383193900e-02
7.810000000000000275e-01,4.663815845107625035e-01,-3.558636388241359083e-01,-8.231137055895894339e-02
7.820000000000000284e-01,4.534461575600237104e-01,-1.640716305592337942e-01,-8.978360438888211004e-02
7.830000000000000293e-01,3.203295460122788652e-01,6.244758854281666494e-02,-1.303103403227831025e-01
7.840000000000000302e-01,1.043201501030839168e-01,2.502081024678838861e-01,-1.358301705461551212e-01
7.850000000000000311e-01,-1.280896587549227028e-01,3.675098426487563019e-01,-1.113267992670634587e-01
7.860000000000000320e-01,-3.687774826822712293e-01,4.516505554448071447e-01,1.664441743368431708e-03
7.870000000000000329e-01,-5.622700369252685570e-01,4.344718176205575877e-01,1.249061701538945884e-01
7.880000000000000338e-01,-6.652000150397008316e-01,3.167580789215727055e-01,2.119566480518905727e-01
7.890000000000000346e-01,-6.126878481576767399e-01,1.902870805236212826e-01,2.884710522010401901e-01
7.900000000000000355e-01,-4.720268428206931821e-01,1.045898554714273267e-02,3.388996008212704081e-01
7.910000000000000364e-01,-2.334596267791186619e-01,-1.259693773929808358e-01,3.396865065320327504e-01
7.920000000000000373e-01,3.110468672822890371e-02,-2.049895225871753435e-01,2.739300545453338120e-01
7.930000000000000382e-01,2.369636607952549101e-01,-2.540455742887711699e-01,1.341464284154041398e-01
7.940000000000000391e-01,4.105594615186731189e-01,-2.306081823138440290e-01,-2.903135244224795339e-02
7.950000000000000400e-01,5.346183813846494548e-01,-1.736680446401923095e-01,-1.815278134591720993e-01
7.960000000000000409e-01,5.304859668636257020e-01,-9.474595212261911759e-02,-2.997000000833484612e-01
7.970000000000000417e-01,4.340602689086058841e-01,-9.741609008860702135e-02,-3.828386527192166877e-01
7.980000000000000426e-01,2.505402342949685224e-01,-7.888509457222550592e-02,-4.018230197051427255e-01
7.990000000000000435e-01,1.036325156096844224e-01,-1.052294655638633669e-01,-3.207288967605952390e-01
8.000000000000000444e-01,-4.827094287292636038e-02,-8.921302052665554261e-02,-1.600662564332206439e-01
8.010000000000000453e-01,-1.704493552422095548e-01,-8.494097878360686027e-02,-4.266257442506481146e-02
8.020000000000000462e-01,-2.185939624003071513e-01,-8.369479019940546938e-02,1.226164597335635403e-01
8.030000000000000471e-01,-2.066935400449626536e-01,3.455239118378172075e-02,2.340172095578878231e-01
8.040000000000000480e-01,-1.842138212797447550e-01,1.167751826128716197e-01,2.805036672090233107e-01
8.050000000000000488e-01,-1.387886115963715694e-01,1.853022406681593959e-01,2.841145347765471341e-01
8.060000000000000497e-01,-1.068302269630894280e-01,2.967478298098807921e-01,2.391409405570197599e-01
8.070000000000000506e-01,-1.301920711020522481e-01,3.902198996543222997e-01,1.463039394431658591e-01
8.080000000000000515e-01,-1.542416996315439937e-01,3.706909126703618051e-01,6.936347173944919231e-02
8.090000000000000524e-01,-2.228315253728708756e-01,2.941115409533489045e-01,-1.593931088097255439e-03
8.100000000000000533e-01,-2.239287826632146983e-01,1.524143867254763307e-01,-5.231673206711169068e-03
8.110000000000000542e-01,-1.840335808902054393e-01,-2.362065914951490611e-02,-9.260773764026976329e-02
8.120000000000000551e-01,-6.635358918718695098e-02,-2.345741487166687345e-01,-7.466988229341940675e-02
8.129999999999999449e-01,9.551477252036399967e-02,-4.336910221743306981e-01,-4.558148069160120053e-02
8.139999999999999458e-01,2.334091958510400855e-01,-5.112254701915540656e-01,-6.728577738346909476e-02
8.149999999999999467e-01,3.900743973806735654e-01,-5.154594190284029764e-01,-7.578777134676072114e-02
8.159999999999999476e-01,5.026551854361039906e-01,-4.557012521958455631e-01,-7.039871457697531587e-02
8.169999999999999485e-01,5.502032673761755310e-01,-2.182692196888161296e-01,-1.599781144383280729e-01
8.179999999999999494e-01,4.516458943613252952e-01,-3.040215779993471826e-02,-1.391691080611479059e-01
8.189999999999999503e-01,2.917028129081390975e-01,2.001619617061283773e-01,-1.587990835852994276e-01
8.199999999999999512e-01,6.250963095709580197e-02,3.128806782277713250e-01,-1.550726215308965983e-01
8.209999999999999520e-01,-2.257486517731801257e-01,4.117544295127384402e-01,-1.034390080179176385e-01
8.219999999999999529e-01,-4.310425994856254550e-01,4.031285015643625291e-01,-2.520120861278426702e-02
8.229999999999999538e-01,-6.016699371317649758e-01,3.351670425978026668e-01,1.070324985527788819e-01
8.239999999999999547e-01,-6.586101311616568976e-01,2.121471805209084183e-01,1.688580571562668386e-01
8.249999999999999556e-01,-5.485163948026013925e-01,3.848957574485636912e-02,2.989570635577396551e-01
8.259999999999999565e-01,-3.632277112801424179e-01,-7.293527303125375838e-02,3.736563368526696904e-01
8.269999999999999574e-01,-1.647758906420065117e-01,-1.385901667269991977e-01,3.533926987956462762e-01
8.279999999999999583e-01,9.806351654284085895e-02,-1.536824019428219001e-01,2.871815016835629897e-01
8.289999999999999591e-01,3.068909815517051332e-01,-1.192702297059378275e-01,9.690811371325501467e-02
8.299999999999999600e-01,4.444401332176770025e-01,-1.537010860748624919e-01,-4.404699856857181156e-02
8.309999999999999609e-01,4.828594034709441929e-01,-1.290828289481068258e-01,-2.026391653878532040e-01
8.319999999999999618e-01,4.340666987822152656e-01,-9.492024399979445692e-02,-3.073731132445158276e-01
8.329999999999999627e-01,3.292383536671280031e-01,-1.423685826008752597e-01,-3.938192260017385760e-01
8.339999999999999636e-01,1.325889908519052307e-01,-1.417455203640227979e-01,-3.557797856666831682e-01
8.349999999999999645e-01,4.215392579961749209e-02,-1.232281696091521439e-01,-2.994257239852582964e-01
8.359999999999999654e-01,-7.049575815528474898e-02,-1.729964526747247433e-01,-1.808586044707098384e-01
8.369999999999999662e-01,-1.099277021565881751e-01,-1.498331895265831715e-01,-4.042590674177490989e-02
8.379999999999999671e-01,-1.364529667194770424e-01,-6.463079174730176901e-02,1.252896049242462617e-01
8.389999999999999680e-01,-1.214108970503664092e-01,6.453459870889123595e-02,1.933085884457140247e-01
8.399999999999999689e-01,-8.709825433142819040e-02,1.743711983215270878e-01,2.099843784089531762e-01
8.409999999999999698e-01,-9.219468786576155706e-02,3.423640980723984262e-01,2.353278920161186727e-01
8.419999999999999707e-01,-1.363853821613233985e-01,4.287688880038307837e-01,1.907344914602888686e-01
8.429999999999999716e-01,-1.383583093120248075e-01,4.163101107558383474e-01,1.517474160745157785e-01
8.439999999999999725e-01,-2.620833118416411311e-01,3.436393104330294768e-01,7.897682511016206053e-02
8.449999999999999734e-01,-2.743270660591005106e-01,1.972457275094176010e-01,3.376308758191097492e-02
8.459999999999999742e-01,-2.567032643262042724e-01,7.780743003653051507e-03,-2.782665322630209839e-02
8.469999999999999751e-01,-2.118034421743277274e-01,-2.103729248685757003e-01,-9.318742052096085776e-03
8.479999999999999760e-01,-6.132422704445465028e-02,-4.227987041774856625e-01,-2.477381649711011408e-02
8.489999999999999769e-01,1.421501489141987484e-01,-5.279401676994691650e-01,-2.904380022754334684e-02
8.499999999999999778e-01,3.040623673980183406e-01,-5.213372819088969434e-01,-1.248068419132128577e-02
8.509999999999999787e-01,4.776313458259862088e-01,-4.398299743603545364e-01,-5.699368922036882751e-02
8.519999999999999796e-01,5.963015602725870723e-01,-2.784448243006700241e-01,-7.834236416541552617e-02
8.529999999999999805e-01,5.816004396381347918e-01,-2.259566812920670020e-02,-1.614408141671413999e-01
8.539999999999999813e-01,4.585868340354511408e-01,1.191299893987187997e-01,-1.906606217766241285e-01
8.549999999999999822e-01,2.146938070704400570e-01,2.859195067628954590e-01,-2.402868879471634633e-01
8.559999999999999831e-01,-8.057114191507695755e-02,4.040849685967441429e-01,-2.195243598896155224e-01
8.569999999999999840e-01,-2.926711064698624409e-01,3.844487330245542900e-01,-1.282678194522491044e-01
8.579999999999999849e-01,-5.120841312974164783e-01,3.467332127452515955e-01,-6.226577081257364532e-02
8.589999999999999858e-01,-5.933390116890041588e-01,2.071262611280847710e-01,7.530123345716802086e-02
8.599999999999999867e-01,-6.074149406444460109e-01,9.550009912000363699e-02,2.124610429069039574e-01
8.609999999999999876e-01,-4.708916274151151993e-01,1.111916422781895029e-02,3.132333240681039466e-01
8.619999999999999885e-01,-2.966469601937833378e-01,-8.448999125792117093e-02,3.720009648175594541e-01
8.629999999999999893e-01,-1.955662646107662189e-02,-8.397901278566365091e-02,3.630874947331189095e-01
8.639999999999999902e-01,1.588233122841327116e-01,-1.183233085905647103e-01,2.296938629165542201e-01
8.649999999999999911e-01,3.612739088586619518e-01,-9.888425371219361493e-02,1.454144230795048620e-01
8.659999999999999920e-01,4.264922879519456589e-01,-8.676578333155814116e-02,-4.316354572910268556e-02
8.669999999999999929e-01,4.167798248427952434e-01,-9.319153074866098896e-02,-1.985695338128970477e-01
8.679999999999999938e-01,3.460352535723381640e-01,-1.180699614866348168e-01,-3.010775449196226861e-01
8.689999999999999947e-01,2.400483642009969276e-01,-1.382341069205849649e-01,-3.783379142220076874e-01
8.699999999999999956e-01,1.245062738547428743e-01,-1.961192203330914541e-01,-3.613501919036901655e-01
8.709999999999999964e-01,5.030468751588341655e-03,-2.441811635231303235e-01,-2.708346122654279875e-01
8.719999999999999973e-01,-1.593812365843586334e-02,-2.142682356545575206e-01,-1.604054313529193199e-01
8.729999999999999982e-01,-6.918153191191889206e-02,-1.272820438848999702e-01,-4.878404593703980496e-02
8.739999999999999991e-01,-3.988497469651505062e-02,-7.110878828294469635e-03,7.493047682366545115e-02
8.750000000000000000e-01,-4.598855915450682230e-02,1.694424814741216367e-01,1.885817595786065948e-01
8.760000000000000009e-01,-2.909742880352199010e-02,3.237877667987533181e-01,1.987966021152185458e-01
8.770000000000000018e-01,-8.496404320013897782e-02,4.298279028366969734e-01,2.129875596756205247e-01
8.780000000000000027e-01,-1.622680418227897547e-01,4.534296659683075825e-01,1.937380409604494980e-01
8.790000000000000036e-01,-2.764061536321959500e-01,3.747285442759128449e-01,1.524138850254620481e-01
8.800000000000000044e-01,-3.693669059246710851e-01,2.898790189088065739e-01,6.675164998522635507e-02
8.810000000000000053e-01,-3.744980378860998105e-01,4.582544782731302890e-02,2.364712365788821866e-02
8.820000000000000062e-01,-3.075399178856780824e-01,-1.774008622434827820e-01,4.010745850204769369e-02
8.830000000000000071e-01,-2.002171311187602720e-01,-3.678175877569150876e-01,4.633748517086397345e-02
8.840000000000000080e-01,-1.856291407383227343e-02,-4.607707792089391075e-01,4.570129293708368595e-02
8.850000000000000089e-01,2.152338511434852275e-01,-4.749447950968065935e-01,3.604155190415619242e-02
8.860000000000000098e-01,4.120238686566772834e-01,-4.511607860717132823e-01,-1.428319779030171044e-02
8.870000000000000107e-01,5.348136732547688066e-01,-3.452178967646809538e-01,-2.682237779644520287e-02
8.880000000000000115e-01,6.004860523491841739e-01,-1.344761647607407018e-01,-9.910287300590138460e-02
8.890000000000000124e-01,5.562857795545761430e-01,4.684589882612069656e-02,-1.560542598713943185e-01
8.900000000000000133e-01,3.446753133816986003e-01,2.015906064248166596e-01,-2.802437425039044361e-01
8.910000000000000142e-01,8.299753369375753587e-02,3.319963588144563826e-01,-2.468869121207814266e-01
8.920000000000000151e-01,-1.391005593253093753e-01,3.816843594751255231e-01,-2.646849111961976919e-01
8.930000000000000160e-01,-3.900548917394089932e-01,3.109885078037230022e-01,-1.382403179266182558e-01
8.940000000000000169e-01,-5.545626983672284904e-01,2.073016439677877742e-01,-4.396498385047232366e-02
8.950000000000000178e-01,-6.069880969393830483e-01,1.585772369403755377e-01,1.125713949468612751e-01
8.960000000000000187e-01,-5.643315462665932092e-01,3.926034312635817008e-02,2.371792772959410989e-01
8.970000000000000195e-01,-4.052132764869543768e-01,-2.488080140387780720e-02,3.315496184451059425e-01
8.980000000000000204e-01,-2.023666565898383785e-01,-4.101276353456932700e-02,4.007523470926879217e-01
8.990000000000000213e-01,1.942716901755553796e-02,-1.571839184633936834e-02,3.718289575503992417e-01
9.000000000000000222e-01,2.108446345637655095e-01,-2.820940252136353368e-02,2.709903926774063221e-01
9.010000000000000231e-01,3.309434788705937769e-01,-4.746007687739271091e-02,9.724813586846275948e-02
9.020000000000000240e-01,3.647516800616389387e-01,-5.713570516868948790e-02,-3.484146836077171155e-02
9.030000000000000249e-01,3.505598777401466304e-01,-1.474276350023305537e-01,-1.556129009915049877e-01
9.040000000000000258e-01,2.860447026346344956e-01,-1.754830188554627746e-01,-2.885171058196846494e-01
9.050000000000000266e-01,1.517990886845226595e-01,-2.528733981695180932e-01,-3.507200101047420748e-01
9.060000000000000275e-01,1.012200050751587560e-01,-2.568904503406381212e-01,-3.300521529590860204e-01
9.070000000000000284e-01,-2.002617764122265834e-03,-2.323174713432533678e-01,-3.025211435887309452e-01
9.080000000000000293e-01,2.000095603450910767e-02,-1.447208091968201771e-01,-1.694588339740414895e-01
9.090000000000000302e-01,5.162451131123966912e-03,-1.852760774180453943e-02,-3.636467195569813987e-02
9.100000000000000311e-01,2.598973384523019237e-02,1.380885684373269473e-01,8.533898815266698079e-02
9.110000000000000320e-01,2.444547846126177842e-02,2.831608562189542599e-01,1.691800032436724111e-01
9.120000000000000329e-01,-6.564460225072177302e-02,4.495861698974725762e-01,1.754210231895819705e-01
9.130000000000000338e-01,-9.556575528647985596e-02,4.755412095651371795e-01,1.666784690049759599e-01
9.140000000000000346e-01,-2.545000518920070842e-01,4.491585593020094302e-01,1.312759908692785749e-01
9.150000000000000355e-01,-3.514913864238131125e-01,2.953223000999965486e-01,1.209294775487333162e-01
9.160000000000000364e-01,-4.344554309220544086e-01,1.183425373845105877e-01,8.911390056623677558e-02
9.170000000000000373e-01,-4.177647472637386339e-01,-9.168718391208373342e-02,4.917898487144223979e-02
9.180000000000000382e-01,-3.125486757317431641e-01,-3.125793733281870268e-01,8.454105083448391900e-02
9.190000000000000391e-01,-1.447245537760315781e-01,-4.092827186871189071e-01,7.238991049443921355e-02
9.200000000000000400e-01,9.013970777451239813e-02,-4.403650706235531231e-01,8.920940487000150743e-02
9.210000000000000409e-01,3.307548816467347774e-01,-4.759702739193863996e-01,4.942846198712965572e-02
9.220000000000000417e-01,5.046749798842733448e-01,-3.415226103166660310e-01,3.057635017589378779e-02
9.230000000000000426e-01,5.981602738738831526e-01,-1.804247051317509343e-01,-2.118561565126416205e-02
9.240000000000000435e-01,6.157971800601779178e-01,-6.350019966973177027e-03,-1.209904766407350479e-01
9.250000000000000444e-01,5.171621732895886892e-01,1.684465046807606947e-01,-2.393128477350899563e-01
9.260000000000000453e-01,2.713859837211326509e-01,2.511755979646287384e-01,-2.882817720759143776e-01
9.270000000000000462e-01,1.029047349391083721e-02,3.022687813168933868e-01,-2.656215799162786051e-01
9.280000000000000471e-01,-2.397565763490386026e-01,2.519767647480595785e-01,-2.770654501115054069e-01
9.290000000000000480e-01,-4.443954431956205764e-01,2.175898133978719784e-01,-1.710465168548741810e-01
9.300000000000000488e-01,-5.854585215299109580e-01,1.291254996016087397e-01,-3.084112243863869687e-02
9.310000000000000497e-01,-5.692459236142710655e-01,9.032384959762690402e-02,9.540024336924279869e-02
9.320000000000000506e-01,-5.136384361757283523e-01,6.112424345214657884e-02,2.887843302866648365e-01
9.330000000000000515e-01,-2.827479128790852392e-01,1.355837901283565882e-04,3.759762868598696128e-01
9.340000000000000524e-01,-1.232613250198790478e-01,1.171204293120148288e-03,3.815949725044682217e-01
9.350000000000000533e-01,1.030666015910340350e-01,5.841757099684245086e-02,3.761377064784968138e-01
9.360000000000000542e-01,1.908020525902339448e-01,6.318510564206583635e-03,2.472705593808683378e-01
9.370000000000000551e-01,2.980653495492461835e-01,-3.024266020711295980e-02,1.063835642949817056e-01
9.379999999999999449e-01,2.863725429993113081e-01,-1.092931193655362482e-01,-2.711979340379819248e-02
9.389999999999999458e-01,2.703154187462705749e-01,-2.183704860813686088e-01,-2.070156601271205543e-01
9.399999999999999467e-01,1.803238192438991194e-01,-2.846295469766459973e-01,-2.577453133755892578e-01
9.409999999999999476e-01,1.241467163472190910e-01,-3.351829026818767265e-01,-3.098473448730630353e-01
9.419999999999999485e-01,9.358623895615046651e-02,-3.088288333560351151e-01,-3.163352066688921438e-01
9.429999999999999494e-01,1.075036250945283350e-01,-2.200252138944177316e-01,-2.366293768985255341e-01
9.439999999999999503e-01,8.085451792886520772e-02,-7.443021002175735645e-02,-1.439414402331653242e-01
9.449999999999999512e-01,1.111041217158119238e-01,8.859208188295758513e-02,-6.150764306865141862e-02
9.459999999999999520e-01,9.733759097260717696e-02,2.943825572623289810e-01,2.838043575282155062e-02
9.469999999999999529e-01,8.192477573583956119e-02,4.221058951663324565e-01,1.131659254700383838e-01
9.479999999999999538e-01,-7.222198686259867495e-02,4.956775997523653055e-01,1.085671038079435435e-01
9.489999999999999547e-01,-1.559447448276493065e-01,4.754385029192657597e-01,1.126774419077836431e-01
9.499999999999999556e-01,-3.421243175299557016e-01,3.724308612893064696e-01,1.147760105365383948e-01
9.509999999999999565e-01,-4.761482918259200003e-01,2.048588337341156751e-01,7.105751615808907073e-02
9.519999999999999574e-01,-4.864639362830022185e-01,-4.326698251870640666e-02,6.100226728626675921e-02
9.529999999999999583e-01,-4.337897893740226274e-01,-2.271429787675019740e-01,6.562143555515741189e-02
9.539999999999999591e-01,-2.848487348906613148e-01,-3.882803912823917791e-01,8.125106062275969099e-02
9.549999999999999600e-01,-5.902918031617126332e-02,-4.415643933361063644e-01,1.347632247696215757e-01
9.559999999999999609e-01,1.702876254458097482e-01,-4.791317805498267468e-01,1.275567457991430564e-01
9.569999999999999618e-01,4.293480928857196233e-01,-3.559263735801170281e-01,1.132708775670134976e-01
9.579999999999999627e-01,6.012102795816914869e-01,-2.107591252870505694e-01,5.286705398245687693e-02
9.589999999999999636e-01,6.201371900712691065e-01,-2.056148509290484441e-02,-5.529393782367388044e-02
9.599999999999999645e-01,5.683527070148139959e-01,8.450920696002442445e-02,-9.652222808891736117e-02
9.609999999999999654e-01,4.541432475839293215e-01,2.092233528916820073e-01,-2.427537117296422742e-01
9.619999999999999662e-01,2.013708124462858517e-01,2.749346664081090963e-01,-3.348659871891936368e-01
9.629999999999999671e-01,-5.737518859618389450e-02,2.158268912633216907e-01,-2.848316375020843449e-01
9.639999999999999680e-01,-3.002254940922294280e-01,2.003699440041361302e-01,-3.221344385934554189e-01
9.649999999999999689e-01,-4.971258569533238414e-01,1.529946044219025747e-01,-1.888990996930940691e-01
9.659999999999999698e-01,-5.531155370152435191e-01,8.191672980375641622e-02,-4.338873113437687751e-02
9.669999999999999707e-01,-5.260148891872817867e-01,1.045688113559946758e-01,1.055528079842893152e-01
9.679999999999999716e-01,-3.899583071653611177e-01,9.336491502454660751e-02,3.355677255728389818e-01
9.689999999999999725e-01,-2.300595678147127621e-01,9.345803029794831629e-02,3.527238791623800163e-01
9.699999999999999734e-01,-4.795786628780848715e-02,7.134981313321428487e-02,3.626565940314544489e-01
9.709999999999999742e-01,1.025671758291816643e-01,5.804256925600181222e-02,3.472613598774266785e-01
9.719999999999999751e-01,1.859772908459810248e-01,1.998116929709684714e-02,2.319343993628904255e-01
9.729999999999999760e-01,2.100605355947050834e-01,-6.336809502308650421e-02,1.304711304342041078e-01
9.739999999999999769e-01,2.239456790822733079e-01,-1.977221291836413486e-01,-7.611106554520051526e-02
9.749999999999999778e-01,1.468782866503865192e-01,-3.093810409865428435e-01,-1.787413661167213397e-01
9.759999999999999787e-01,1.295766701907947738e-01,-3.666071286939738272e-01,-2.511091514967836447e-01
9.769999999999999796e-01,8.707253781337050136e-02,-3.497675878853425679e-01,-2.838569524077486084e-01
9.779999999999999805e-01,1.640926492848427121e-01,-3.248514015743187988e-01,-2.709377710875790490e-01
9.789999999999999813e-01,1.600767158411485480e-01,-1.634519574968408828e-01,-2.015554071578637418e-01
9.799999999999999822e-01,1.896818923025137271e-01,3.843952051641462420e-02,-1.276624630654277504e-01
9.809999999999999831e-01,1.936469212783681615e-01,2.396599472609251824e-01,-5.339627164944978077e-02
9.819999999999999840e-01,1.430783497685614303e-01,3.831114919936757790e-01,4.586090640274374103e-02
9.829999999999999849e-01,1.065401716116562980e-01,5.046389087150953134e-01,6.244122979170411980e-02
9.839999999999999858e-01,-1.212901410730032326e-01,4.917094355744016654e-01,8.936314022530389423e-02
9.849999999999999867e-01,-2.731350867681242023e-01,4.357407157424060817e-01,9.431978435449508980e-02
9.859999999999999876e-01,-3.950403485369263223e-01,2.483406109107643145e-01,6.627822997172713726e-02
9.869999999999999885e-01,-5.319232984760261518e-01,2.678677226631496697e-02,3.002110592704991185e-02
9.879999999999999893e-01,-5.482010431813244544e-01,-1.804625462355329557e-01,1.029751501435928474e-01
9.889999999999999902e-01,-4.438613985382592331e-01,-3.325732322309165601e-01,1.254944221030692697e-01
9.899999999999999911e-01,-2.319612362485357349e-01,-4.582604842560510372e-01,1.150520617644581606e-01
9.909999999999999920e-01,1.292551464906391452e-02,-4.070542610511665438e-01,1.645008013783438305e-01
9.919999999999999929e-01,2.670726881817140907e-01,-3.564279490798701322e-01,1.962723104409250519e-01
9.929999999999999938e-01,4.838320998073457058e-01,-2.354811602602765175e-01,1.401394310437731328e-01
9.939999999999999947e-01,6.150338739503745655e-01,-9.881229980771039090e-02,9.945017131528287313e-02
9.949999999999999956e-01,6.262265983501301703e-01,4.457291318658043039e-02,-2.060999575328630734e-02
9.959999999999999964e-01,5.482085540641858934e-01,1.340070886496118607e-01,-1.496432587330558395e-01
9.969999999999999973e-01,3.633237963441274254e-01,1.490074586935226930e-01,-2.415114499949221338e-01
9.979999999999999982e-01,1.097711046364703430e-01,1.648273756022022307e-01,-3.437161466071753102e-01
9.989999999999999991e-01,-1.695186203432236249e-01,1.842831688269738755e-01,-3.602850971083152998e-01
1.000000000000000000e+00,-3.176263403867821133e-01,9.771728886108772827e-02,-2.926933839778863011e-01
1.000999999999999890e+00,-4.651968447213881697e-01,1.040619118493330969e-01,-2.025182071239228776e-01
1.002000000000000002e+00,-4.722198663290867460e-01,9.488222232528496780e-02,-8.171120204988756297e-02
1.002999999999999892e+00,-4.551048825930178454e-01,1.181029975995069314e-01,1.316717144831099640e-01
1.004000000000000004e+00,-2.965504502463322534e-01,1.261443895881042276e-01,2.740752858647680923e-01
1.004999999999999893e+00,-1.379750173960011816e-01,1.499351608099432076e-01,3.765873923351563124e-01
1.006000000000000005e+00,-5.332867642138871406e-03,1.224247293743001563e-01,3.657045140964827468e-01
1.006999999999999895e+00,5.992721906250821767e-02,3.898353305359810589e-02,3.525785009050526053e-01
1.008000000000000007e+00,1.175949201733160754e-01,-7.480098524248948721e-02,2.575355352949373899e-01
1.008999999999999897e+00,1.454652667235413754e-01,-1.634667271426002988e-01,9.230203989291742295e-02
1.010000000000000009e+00,7.760785769654177102e-02,-3.084713865371215835e-01,-7.342139122058678399e-03
1.010999999999999899e+00,7.190826738115650707e-02,-4.428663163353913634e-01,-1.576801213432044990e-01
1.012000000000000011e+00,1.419077613691442086e-01,-4.192786321290054574e-01,-2.325672116328739714e-01
1.012999999999999901e+00,1.474361595641901779e-01,-3.504110291082511708e-01,-3.310042600927051160e-01
1.014000000000000012e+00,1.515615735335556769e-01,-1.720344920628316676e-01,-2.498017610194183113e-01
1.014999999999999902e+00,2.474348310250047145e-01,-6.005999033404509080e-02,-1.710729519258794851e-01
1.016000000000000014e+00,2.802990161591212281e-01,1.421142724725320272e-01,-1.175978789403309271e-01
1.016999999999999904e+00,2.250488158698604191e-01,3.629621040641288765e-01,-4.994818436153485031e-02
1.018000000000000016e+00,1.637220932567216569e-01,5.372970329501790543e-01,2.795616259092274097e-02
1.018999999999999906e+00,4.697603242302200721e-02,4.961651659018523897e-01,2.860563613514201242e-02
1.020000000000000018e+00,-1.730550218827505149e-01,4.503491861428213228e-01,3.026896824948970693e-02
1.020999999999999908e+00,-3.797565430700814426e-01,2.986580938370611005e-01,7.148503606487373839e-03
1.022000000000000020e+00,-5.131210645960148087e-01,7.428985136206375794e-02,3.241717176118685123e-02
1.022999999999999909e+00,-5.749628871345244807e-01,-1.188588130668324361e-01,3.167531433941719182e-02
1.024000000000000021e+00,-5.494607277969176806e-01,-2.748224367893960518e-01,4.982301903088167533e-02
1.024999999999999911e+00,-3.773513653629739784e-01,-3.810300068157561615e-01,9.138074155115920305e-02
1.026000000000000023e+00,-1.625501150954163365e-01,-4.153283716884294541e-01,1.917864045629373015e-01
1.026999999999999913e+00,1.142291993044031312e-01,-3.347271982439110061e-01,2.236372284889742434e-01
1.028000000000000025e+00,3.667353979910436546e-01,-2.481420966321999655e-01,2.288896193719262839e-01
1.028999999999999915e+00,5.804339621283696182e-01,-1.226623644565246335e-01,1.914883027647189817e-01
1.030000000000000027e+00,6.619627849851738022e-01,-2.066915657429502229e-02,1.111138482362412083e-01
1.030999999999999917e+00,6.069281532192083439e-01,7.096822695176431550e-02,-3.337025182838639081e-02
1.032000000000000028e+00,4.713210517131064536e-01,8.211179655567203695e-02,-1.673228617998584467e-01
1.032999999999999918e+00,2.605217754283788434e-01,9.065996797089596881e-02,-2.905297352184360582e-01
1.034000000000000030e+00,1.101459984995795810e-02,8.809903769463872658e-02,-3.715165752380272246e-01
1.034999999999999920e+00,-1.994088387173226229e-01,8.423314925715263968e-02,-3.700801875162853527e-01
1.036000000000000032e+00,-3.611588801132479820e-01,5.112451488351582585e-02,-2.929181700035181635e-01
1.036999999999999922e+00,-4.348075798367159184e-01,1.342768601528644967e-01,-2.022961544230705289e-01
1.038000000000000034e+00,-4.058891498819770516e-01,1.525680288653248340e-01,-5.056954329738314741e-02
1.038999999999999924e+00,-3.412384584517089148e-01,1.936425145704861461e-01,9.838568571890558834e-02
1.040000000000000036e+00,-1.922405152559968911e-01,2.314857483683079586e-01,2.700865326922886611e-01
1.040999999999999925e+00,-9.928735152396830910e-02,2.132405749300715081e-01,3.654488628304345954e-01
1.042000000000000037e+00,1.125575023693761202e-02,1.341481245326429095e-01,3.659934437025172960e-01
1.042999999999999927e+00,3.398975625962276370e-02,4.136874397166294404e-02,3.147096181287931671e-01
1.044000000000000039e+00,5.709308273620564145e-02,-1.469121761093145906e-01,2.437094444948214589e-01
1.044999999999999929e+00,3.584911086152221815e-02,-2.884380022134486188e-01,9.772170461713691747e-02
1.046000000000000041e+00,7.160285002897233408e-02,-4.148789311781510558e-01,-3.795319638812266055e-02
1.046999999999999931e+00,6.844673293464241526e-02,-4.746628617409101580e-01,-1.629118652412450130e-01
1.048000000000000043e+00,1.224616267286546545e-01,-4.221901019253088139e-01,-2.089467165694025297e-01
1.048999999999999932e+00,2.093109570544862408e-01,-2.893557873621570575e-01,-2.152625074569878838e-01
1.050000000000000044e+00,2.716329918898389706e-01,-1.279524092980869054e-01,-2.018000078406775033e-01
1.050999999999999934e+00,3.117682919772900574e-01,1.371598698587256637e-01,-1.400429792695443709e-01
1.052000000000000046e+00,3.695047444838318040e-01,3.370733555211493648e-01,-1.296305757938793490e-01
1.052999999999999936e+00,2.907830032324029146e-01,4.378543080507804608e-01,-8.454829489896886763e-02
1.054000000000000048e+00,1.572718116832304280e-01,5.331737283977922015e-01,-2.113041606266179498e-02
1.054999999999999938e+00,-5.214889414703294951e-02,4.863441145976697411e-01,-1.876183653792248135e-02
1.056000000000000050e+00,-2.550538288800640596e-01,3.610650036371812477e-01,-4.030634643715097498e-02
1.056999999999999940e+00,-5.051291053312506607e-01,1.123574769757680752e-01,-3.051110611942296769e-02
1.058000000000000052e+00,-6.082519108470952895e-01,-7.111551408154662135e-02,-1.137452735102744208e-02
1.058999999999999941e+00,-6.151424582152558163e-01,-2.091164283018925318e-01,2.594613568615780977e-02
1.060000000000000053e+00,-5.389248181813300898e-01,-3.218201794139075589e-01,6.455626888803819852e-02
1.060999999999999943e+00,-3.270284217472682609e-01,-3.475843684669208122e-01,1.481712719809018530e-01
1.062000000000000055e+00,-8.867943042296642930e-02,-3.155840230338244901e-01,2.268125572626428499e-01
1.062999999999999945e+00,2.041939309454811613e-01,-2.520717947881452869e-01,2.602598772309371866e-01
1.064000000000000057e+00,4.295578597842722446e-01,-1.673320611608868635e-01,2.398086316027559228e-01
1.064999999999999947e+00,5.973641095458891437e-01,-3.857962888598463758e-02,2.161089844903347212e-01
1.066000000000000059e+00,6.012053852088964367e-01,-1.563955307657623542e-02,1.109733567851902830e-01
1.066999999999999948e+00,5.207585296563266297e-01,3.800481279329034900e-02,-2.794755035770817367e-02
1.068000000000000060e+00,3.146291201914193647e-01,6.951610722218899696e-02,-1.759257164924929728e-01
1.068999999999999950e+00,1.528407992779726166e-01,4.012260812219142075e-02,-2.307803502349183578e-01
1.070000000000000062e+00,-6.848563181895475638e-02,3.687684642676650193e-02,-3.867020409604395303e-01
1.070999999999999952e+00,-2.271502909181019880e-01,4.515587574952197036e-02,-3.891610424926210676e-01
1.072000000000000064e+00,-3.376347886027902812e-01,9.380839357566478354e-02,-3.196809247732835257e-01
1.072999999999999954e+00,-3.610364670806812670e-01,1.743982488818011656e-01,-2.256360609861349786e-01
1.074000000000000066e+00,-3.418887199943022592e-01,2.221441563968327981e-01,-1.083557730328120298e-02
1.074999999999999956e+00,-2.455450522214020770e-01,2.917193406059880312e-01,9.745961469243115405e-02
1.076000000000000068e+00,-1.426733667771034608e-01,2.601927343944968052e-01,2.547450947428945289e-01
1.076999999999999957e+00,-4.747350741739768398e-02,1.772942985277334571e-01,3.308415572486150258e-01
1.078000000000000069e+00,-3.044243959286440163e-02,3.792416239885357948e-02,3.329782275513619161e-01
1.078999999999999959e+00,-2.183950551115612995e-02,-1.403286263275385359e-01,3.133879797467230000e-01
1.080000000000000071e+00,-3.364154474022021390e-02,-2.846501080224334013e-01,2.336997663531879821e-01
1.080999999999999961e+00,7.860098716056605761e-03,-4.037930486289665333e-01,8.236618094920857003e-02
1.082000000000000073e+00,1.583739655798570636e-02,-4.763622492916461115e-01,-2.068573381869229927e-02
1.082999999999999963e+00,4.376120048175111132e-02,-4.381327495067809386e-01,-8.083073257818110258e-02
1.084000000000000075e+00,1.481524413262653439e-01,-3.511111859094986909e-01,-1.858605720141340567e-01
1.084999999999999964e+00,2.518474762464342209e-01,-1.401209451361234426e-01,-1.553140570110763952e-01
1.086000000000000076e+00,3.818488894682854906e-01,8.190725937482448704e-02,-1.661198650478439287e-01
1.086999999999999966e+00,4.245762107499268523e-01,3.040234807972656550e-01,-1.419251351225851165e-01
1.088000000000000078e+00,3.974283473261703281e-01,4.364220720988789548e-01,-7.621056107760315612e-02
1.088999999999999968e+00,2.967256066512798940e-01,5.011755579566511409e-01,-1.000939591884522917e-01
1.090000000000000080e+00,1.185088744935392374e-01,4.727303741328158782e-01,-5.909684794404857638e-02
1.090999999999999970e+00,-1.433804250155413518e-01,3.549930893861551473e-01,-7.142325465202499502e-02
1.092000000000000082e+00,-3.967787206150657497e-01,2.044415605626623000e-01,-5.060455209234251961e-02
1.092999999999999972e+00,-5.336059348713785289e-01,1.595165025224823396e-02,-5.904027275405571151e-02
1.094000000000000083e+00,-5.996281033455521658e-01,-1.972422002815436837e-01,-7.209260791028884729e-02
1.094999999999999973e+00,-5.936741518915533700e-01,-2.503732500920066717e-01,1.942567601859983978e-02
1.096000000000000085e+00,-4.764418378228276185e-01,-2.727011520362902508e-01,3.967980330842117015e-02
1.096999999999999975e+00,-2.359144739018509962e-01,-2.917014244303815507e-01,1.908279448874730944e-01
1.098000000000000087e+00,5.465312475864374936e-02,-2.241103387901174360e-01,2.535440145819997659e-01
1.098999999999999977e+00,2.798642361058368833e-01,-1.357804396581225315e-01,2.826325371925929031e-01
1.100000000000000089e+00,4.690928277456731799e-01,-7.772450004401611212e-02,3.019284509400080863e-01
1.100999999999999979e+00,6.005593169285147193e-01,-2.532034819903382014e-02,2.163875957042321885e-01
1.102000000000000091e+00,5.407928237724405340e-01,-3.275383179078125706e-02,7.452299933609676796e-02
1.102999999999999980e+00,4.264838644212854413e-01,-2.216256088402813323e-02,-3.007995477529140996e-02
1.104000000000000092e+00,2.711040660932447222e-01,-2.953904094391065702e-02,-1.744716911442073803e-01
1.104999999999999982e+00,8.952638527101362820e-02,-2.056732453194844157e-02,-3.118211521590585344e-01
1.106000000000000094e+00,-1.180303166503335888e-01,5.384420118311605309e-03,-3.848991041339488994e-01
1.106999999999999984e+00,-2.291469417883323090e-01,9.204808013483539719e-02,-3.740220794187431030e-01
1.108000000000000096e+00,-3.148768647782093644e-01,1.751157022999910995e-01,-3.047143485065041957e-01
1.108999999999999986e+00,-2.776267179220056613e-01,2.806773972006390006e-01,-1.827424585816517788e-01
1.110000000000000098e+00,-2.563142866066470682e-01,3.300628349460869027e-01,-3.974350177549006158e-02
1.110999999999999988e+00,-1.651420978278537732e-01,3.180085975155055866e-01,9.552078655954690523e-02
1.112000000000000099e+00,-9.024722363125295410e-02,2.554322817118482858e-01,2.339863892736747109e-01
1.112999999999999989e+00,-9.213837519943153531e-02,1.124874750524889333e-01,3.197662246429952004e-01
1.114000000000000101e+00,-8.635174277390626763e-02,-5.184216489570150216e-02,3.332313557166737827e-01
1.114999999999999991e+00,-8.712684196535169789e-02,-2.554886725688978455e-01,2.849663968815188131e-01
1.116000000000000103e+00,-1.055847130726736693e-01,-4.063594287586531628e-01,1.733702453562087076e-01
1.116999999999999993e+00,-5.028093920254694815e-02,-4.608099998040567913e-01,1.019603840964862507e-01
1.118000000000000105e+00,-1.108051350271520123e-02,-5.295352548980489793e-01,2.175210990928198168e-02
1.118999999999999995e+00,9.160927995518979017e-02,-3.832642253488873219e-01,-8.283559268692630706e-02
1.120000000000000107e+00,1.854779788399792129e-01,-2.001279578986839558e-01,-1.356633155033601101e-01
1.120999999999999996e+00,3.561578548012730439e-01,2.390313579529958904e-02,-1.209041785181196038e-01
1.122000000000000108e+00,4.269017273956288716e-01,1.904879150681800248e-01,-1.139117620353489874e-01
1.122999999999999998e+00,4.936905649071223756e-01,3.966945480560334913e-01,-7.398537759562431870e-02
1.124000000000000110e+00,4.075611051398180806e-01,4.648074031686616481e-01,-8.923789143546068114e-02
1.125000000000000000e+00,2.513565238950940528e-01,4.777617308777650229e-01,-7.557575702057338363e-02
1.125999999999999890e+00,1.762050116223022600e-02,3.893369103538379394e-01,-6.529823183740315895e-02
1.127000000000000002e+00,-2.473429835839380808e-01,2.468345049962692161e-01,-1.203724356028421788e-01
1.127999999999999892e+00,-4.724327336457420090e-01,9.575056490439409762e-02,-1.029064087537431560e-01
1.129000000000000004e+00,-5.831480223765290738e-01,-1.017181961948705193e-01,-1.200129107614027330e-01
1.129999999999999893e+00,-6.293541727680594944e-01,-2.029379219549669600e-01,-9.772551685745371752e-02
1.131000000000000005e+00,-5.704723126028660163e-01,-2.567656326021817703e-01,-1.526271642790097416e-02
1.131999999999999895e+00,-4.016341829164744026e-01,-2.125015909556152438e-01,1.177268646944528985e-01
1.133000000000000007e+00,-1.270179562305315257e-01,-2.008515396705477241e-01,1.970747922839749533e-01
1.133999999999999897e+00,1.020969222788024044e-01,-1.331410275575322100e-01,2.418945843462937118e-01
1.135000000000000009e+00,3.675718205422172091e-01,-8.183697572866614756e-02,2.829030759268367223e-01
1.135999999999999899e+00,4.846883914172596675e-01,-6.396588963294459751e-02,2.725814918643096885e-01
1.137000000000000011e+00,5.371783262647484847e-01,-8.068060335334842348e-02,2.289025013086749549e-01
1.137999999999999901e+00,4.738042895758841633e-01,-7.454219086934787963e-02,1.654540521467077197e-01
1.139000000000000012e+00,3.858327119220066881e-01,-6.879474556192581580e-02,-1.714459975475979975e-02
1.139999999999999902e+00,2.003210713914086449e-01,-7.072058426541226461e-02,-1.781156555049654144e-01
1.141000000000000014e+00,5.550788746197739092e-03,-1.260906296021854604e-02,-3.246160287953912538e-01
1.141999999999999904e+00,-1.434968833202769634e-01,6.551663229360826790e-02,-3.900816211544563816e-01
1.143000000000000016e+00,-1.922383683023297929e-01,2.197503960379077748e-01,-3.823409510450020421e-01
1.143999999999999906e+00,-2.162571267521267160e-01,3.004767582941327841e-01,-3.034158555334119378e-01
1.145000000000000018e+00,-1.942241328959781188e-01,3.541990546912385796e-01,-2.155492101896986923e-01
1.145999999999999908e+00,-1.679709212662416074e-01,3.654290800762725611e-01,-4.134258596362583305e-02
1.147000000000000020e+00,-1.334865485114421768e-01,2.934146533160426062e-01,1.159464232203662182e-01
1.147999999999999909e+00,-1.099290312288311589e-01,1.788184070245198432e-01,2.087355366005015367e-01
1.149000000000000021e+00,-1.185496940278271405e-01,-7.535853410142927776e-03,2.906405223188547882e-01
1.149999999999999911e+00,-1.690979214850170942e-01,-1.963842063485293499e-01,3.107055447106494839e-01
1.151000000000000023e+00,-1.788127699028258522e-01,-3.744689785861525233e-01,2.860659359288102999e-01
1.151999999999999913e+00,-1.872471241534152675e-01,-4.922150771149595982e-01,2.386148821532919906e-01
1.153000000000000025e+00,-1.356776290584362499e-01,-5.022597862823412473e-01,6.721455071110984947e-02
1.153999999999999915e+00,-4.249447727298624050e-02,-4.160815944178966608e-01,4.456729143412897082e-02
1.155000000000000027e+00,1.287485894121647712e-01,-2.537844779470168621e-01,-7.126077032441278936e-02
1.155999999999999917e+00,2.956429798895279237e-01,-6.037734760674697693e-02,-9.728421921606912603e-02
1.157000000000000028e+00,4.497550112335130246e-01,1.452297871729851531e-01,-8.282806695811040232e-02
1.157999999999999918e+00,5.202610789266042257e-01,3.353130395617704984e-01,-6.230825289284500079e-02
1.159000000000000030e+00,4.989015742958922695e-01,4.232363115628847705e-01,-5.754165485623106285e-02
1.159999999999999920e+00,4.037826540436177392e-01,4.360256377604812550e-01,-8.376358340385678392e-02
1.161000000000000032e+00,2.201648095050468823e-01,3.522373082988999315e-01,-1.059014081262308615e-01
1.161999999999999922e+00,-5.970345681360732931e-02,2.500900541690010415e-01,-1.223768139100183533e-01
1.163000000000000034e+00,-3.447685056907197620e-01,1.180574851216334570e-01,-1.657862713261041565e-01
1.163999999999999924e+00,-5.129065040642968309e-01,-4.309959169461099332e-02,-1.761560784328972673e-01
1.165000000000000036e+00,-6.376541714795941340e-01,-1.316673327482311140e-01,-1.374978635020552564e-01
1.165999999999999925e+00,-5.970838509705791441e-01,-1.886744838996259055e-01,-8.731870704823260776e-02
1.167000000000000037e+00,-4.723677651839214287e-01,-1.829875551707055570e-01,5.824033551756101906e-03
1.167999999999999927e+00,-3.238893935968342741e-01,-1.322944811562140333e-01,9.398029404127972164e-02
1.169000000000000039e+00,4.224708994364095166e-03,-1.131756972662514710e-01,1.834536590595354788e-01
1.169999999999999929e+00,2.490156032463823610e-01,-7.690268025093589810e-02,2.904806603219922678e-01
1.171000000000000041e+00,3.459818656485635358e-01,-7.608969496872329541e-02,3.124943718897631451e-01
1.171999999999999931e+00,4.859248373097411755e-01,-7.487353982893742155e-02,3.065001017329548882e-01
1.173000000000000043e+00,5.112585998963092848e-01,-1.289998528779957576e-01,2.390998583773801256e-01
1.173999999999999932e+00,4.033041948601454041e-01,-1.408301766388841414e-01,1.233414490710171979e-01
1.175000000000000044e+00,3.051632780152095381e-01,-1.467172088774910677e-01,-4.988545963904102848e-02
1.175999999999999934e+00,1.142802321300870755e-01,-5.774894447705238021e-02,-1.777021684844735938e-01
1.177000000000000046e+00,-2.599204988473536454e-02,5.792292467699536318e-02,-3.101052375344302559e-01
1.177999999999999936e+00,-6.115754121387682180e-02,1.855655276289230327e-01,-3.416958566248678997e-01
1.179000000000000048e+00,-1.361174687223530855e-01,2.614509261073826307e-01,-3.439807686754592364e-01
1.179999999999999938e+00,-1.185203098195770632e-01,3.849902386251580211e-01,-2.936669914396558001e-01
