time,acc_x,acc_y,acc_z
0.000000000000000000e+00,2.887561421547178431e-01,2.411242602434930937e-01,1.766675924807844245e-01
1.000000000000000021e-03,3.338520464357608852e-01,2.747204721960279095e-01,1.995696433653268154e-01
2.000000000000000042e-03,2.641545100751472308e-01,1.977384049020491363e-01,1.742036620970327521e-01
3.000000000000000062e-03,1.161148812488102949e-01,3.074939446280416933e-02,9.652427873432425920e-02
4.000000000000000083e-03,-9.787188598121290828e-02,-1.181161177883716107e-01,-2.531043907169453627e-02
5.000000000000000104e-03,-2.334588260825118111e-01,-2.257592525045050980e-01,-1.283158413314105517e-01
6.000000000000000125e-03,-3.243169001903387083e-01,-2.881704664650118208e-01,-2.012175684203112158e-01
7.000000000000000146e-03,-2.886803161628118120e-01,-1.923039755377655147e-01,-1.877053186186400935e-01
8.000000000000000167e-03,-1.402703630779450483e-01,-7.143056450012111314e-02,-1.254032073462273966e-01
8.999999999999999320e-03,5.128808951648439196e-02,8.389972733276913897e-02,-1.217380285955580767e-02
1.000000000000000021e-02,2.175450649821116245e-01,2.190020271929762341e-01,1.194326440250274984e-01
1.099999999999999936e-02,3.191293087454703525e-01,2.591165574460163046e-01,1.871577138969885701e-01
1.200000000000000025e-02,3.037291512416027128e-01,2.270334058012836442e-01,1.773703741675296819e-01
1.299999999999999940e-02,1.779272670593031180e-01,9.283340683402348248e-02,1.596611034412571128e-01
1.400000000000000029e-02,-1.770378786886729616e-02,-5.973069703970068645e-02,2.870225268124997065e-02
1.499999999999999944e-02,-1.862877334630088366e-01,-1.992407679818224142e-01,-7.502196620396066329e-02
1.600000000000000033e-02,-3.312350803281906564e-01,-2.812838013095967926e-01,-1.893750722934763597e-01
1.700000000000000122e-02,-3.290742642350762415e-01,-2.465347888892057138e-01,-2.078438117630382331e-01
1.799999999999999864e-02,-2.332591545054910342e-01,-1.224396265965120439e-01,-1.523624140944837280e-01
1.899999999999999953e-02,-5.508957594512308570e-02,1.504919082710048928e-02,-6.989343017254434631e-02
2.000000000000000042e-02,1.361682402123784719e-01,1.618662337463858680e-01,3.418466406657699741e-02
2.100000000000000130e-02,3.017363907684534330e-01,2.651444312209928489e-01,1.593307442506945448e-01
2.199999999999999872e-02,3.345305543893870026e-01,2.575885930747129349e-01,2.035431512071876614e-01
2.299999999999999961e-02,2.625674882844794000e-01,1.701425180715915586e-01,1.714485889426289600e-01
2.400000000000000050e-02,9.390302956645370236e-02,1.524633839014815674e-02,1.050899834323722748e-01
2.500000000000000139e-02,-9.513969702443803023e-02,-1.307848158287269469e-01,-3.553095898904378575e-02
2.599999999999999881e-02,-2.540984414847201056e-01,-2.427843318877126455e-01,-1.234054437394824094e-01
2.699999999999999969e-02,-3.514719758509598502e-01,-2.658672446161525760e-01,-1.833517201927915008e-01
2.800000000000000058e-02,-2.910892330476957945e-01,-1.876240858260695699e-01,-2.075633137023878694e-01
2.900000000000000147e-02,-1.611323434264774201e-01,-5.016554872423939493e-02,-1.109836417131471326e-01
2.999999999999999889e-02,8.231737967941937795e-02,1.195640662367212503e-01,-1.538163817840802229e-02
3.099999999999999978e-02,2.396476692489555305e-01,2.445893904191667190e-01,8.530376271156361878e-02
3.200000000000000067e-02,3.392531604649555721e-01,2.740534615793482343e-01,1.724492442592432950e-01
3.300000000000000155e-02,3.199043770359646377e-01,2.060745768712715642e-01,1.999049959766078799e-01
3.400000000000000244e-02,1.853728691712006049e-01,6.945160794755404765e-02,1.524740092593548924e-01
3.500000000000000333e-02,-1.153236095453667905e-02,-8.773740578959632330e-02,4.639549035104584274e-02
3.599999999999999728e-02,-2.073345141008864079e-01,-2.321925466846651853e-01,-4.879096095872864636e-02
3.699999999999999817e-02,-3.076893952900621731e-01,-2.499483181431674805e-01,-1.477258629295820913e-01
3.799999999999999906e-02,-3.232117013196371680e-01,-2.208778898253225820e-01,-2.177314369840301078e-01
3.899999999999999994e-02,-2.340024892880180896e-01,-9.631033999628717257e-02,-1.806026736531783361e-01
4.000000000000000083e-02,-3.974962585102767565e-02,4.373252961553920903e-02,-7.473735407411311038e-02
4.100000000000000172e-02,1.473306071966317965e-01,1.935794083015054678e-01,7.834999204939466916e-03
4.200000000000000261e-02,3.073350256857337315e-01,2.617739274343280909e-01,1.394620447040690603e-01
4.299999999999999656e-02,3.517299000006506859e-01,2.511110853575520552e-01,2.109793028123705672e-01
4.399999999999999745e-02,2.594146452581748696e-01,1.349245336960162578e-01,1.955022688291242761e-01
4.499999999999999833e-02,9.202422112271557708e-02,-2.820869350643639972e-02,1.244357716236177136e-01
4.599999999999999922e-02,-9.684648458833303164e-02,-1.743371602229744632e-01,2.333394768321138749e-02
4.700000000000000011e-02,-2.868272788505726312e-01,-2.549632348087677580e-01,-1.024812211540258311e-01
4.800000000000000100e-02,-3.289404770925420385e-01,-2.516422785732534417e-01,-1.914533955171892343e-01
4.900000000000000189e-02,-2.933761191460281803e-01,-1.686661119281252785e-01,-1.908523582576824307e-01
5.000000000000000278e-02,-1.323261535434542002e-01,-1.939952075784691019e-02,-1.577438683266152997e-01
5.099999999999999672e-02,5.511781668099331039e-02,1.420799155856843354e-01,-5.020274057670872508e-02
5.199999999999999761e-02,2.335925733887891376e-01,2.477927183590356575e-01,7.211042403555054103e-02
5.299999999999999850e-02,3.199431361090125381e-01,2.617294416843117810e-01,1.715824936499589781e-01
5.399999999999999939e-02,2.872956988415543700e-01,1.854206837225219895e-01,2.002076288785593072e-01
5.500000000000000028e-02,1.889581264805533511e-01,2.725197034012967132e-02,1.765895794469067304e-01
5.600000000000000117e-02,-5.268679896540401017e-03,-1.099501531218087663e-01,8.597840489839490841e-02
5.700000000000000205e-02,-2.069932149496951368e-01,-2.305181857536962031e-01,-1.651053945873640766e-02
5.800000000000000294e-02,-3.052874846585761359e-01,-2.818285607916307667e-01,-1.260328669765145293e-01
5.899999999999999689e-02,-3.236257260969501726e-01,-2.181937253425942635e-01,-2.029946614223221979e-01
5.999999999999999778e-02,-2.107358172015096898e-01,-6.863382107857812775e-02,-1.891514196427254435e-01
6.099999999999999867e-02,-2.951471029893813075e-02,9.226942953216393795e-02,-1.064831702906186006e-01
6.199999999999999956e-02,1.483007526029724299e-01,2.161602774788357606e-01,-1.561230259034048114e-02
6.300000000000000044e-02,2.950944895432381920e-01,2.842214572711768139e-01,1.022336127662081678e-01
6.400000000000000133e-02,3.343266839684624903e-01,2.219738969425255615e-01,1.842938928977718993e-01
6.500000000000000222e-02,2.604723089506987832e-01,1.081266867715861696e-01,1.996014892256756934e-01
6.600000000000000311e-02,9.518752697694475573e-02,-4.851956742721764276e-02,1.419529294330016400e-01
6.700000000000000400e-02,-1.260131956805936315e-01,-1.917306701658475776e-01,4.019902012007677689e-02
6.800000000000000488e-02,-2.693157596793308572e-01,-2.730142500175094522e-01,-8.825534298667697675e-02
6.900000000000000577e-02,-3.336853901192304295e-01,-2.361050055202989773e-01,-1.609024246911251732e-01
7.000000000000000666e-02,-2.749887624510643502e-01,-1.317532966791879478e-01,-2.137765686809489085e-01
7.099999999999999367e-02,-1.550953318293208927e-01,2.605629015930334760e-02,-1.558096229555735179e-01
7.199999999999999456e-02,5.326864240136671563e-02,1.710119770497758318e-01,-8.289262787443697766e-02
7.299999999999999545e-02,2.355977474284753626e-01,2.599858458967481689e-01,6.676264813956249433e-02
7.399999999999999634e-02,3.235435080195439017e-01,2.634506845800120844e-01,1.373890135716382965e-01
7.499999999999999722e-02,3.108867182448275535e-01,1.545373796554478096e-01,2.031375685302896639e-01
7.599999999999999811e-02,1.941190600304502911e-01,-1.708369933756935218e-03,1.935089794873875446e-01
7.699999999999999900e-02,-3.118587356000289759e-02,-1.482538591195334821e-01,1.116671157587481034e-01
7.799999999999999989e-02,-1.987967001846192849e-01,-2.481949593714563029e-01,-6.281538854295502967e-03
7.900000000000000078e-02,-3.295257225825258818e-01,-2.667195623424974404e-01,-1.365277291607536192e-01
8.000000000000000167e-02,-3.213607487424204878e-01,-1.757809183716322055e-01,-1.951068545617616889e-01
8.100000000000000255e-02,-2.109018537159074724e-01,-3.245935789861149195e-02,-2.092312283685292540e-01
8.200000000000000344e-02,-4.321054007977310346e-02,1.324498604804650870e-01,-1.262368995491901791e-01
8.300000000000000433e-02,1.685232853994199642e-01,2.445236928981126823e-01,-3.088047365019158663e-02
8.400000000000000522e-02,3.033433764476369254e-01,2.648406996059964880e-01,9.871753312500929078e-02
8.500000000000000611e-02,3.493410693484149676e-01,2.140907056275527243e-01,1.856211989764551540e-01
8.599999999999999312e-02,2.421104678112767916e-01,5.778805563029361381e-02,2.109440058478923297e-01
8.699999999999999400e-02,1.012809871633537639e-01,-1.020934169281942638e-01,1.674502398032243766e-01
8.799999999999999489e-02,-1.072953184938446464e-01,-2.325256310557715644e-01,4.990277044850864596e-02
8.899999999999999578e-02,-2.714443249490710031e-01,-2.618091014982000253e-01,-6.831373912548881211e-02
8.999999999999999667e-02,-3.333936632882382178e-01,-2.069125436899784953e-01,-1.503489457870594570e-01
9.099999999999999756e-02,-2.938567627311275965e-01,-8.386438001812071552e-02,-1.925900831925401735e-01
9.199999999999999845e-02,-1.499227149142744187e-01,6.763304123014741986e-02,-1.673281890284633866e-01
9.299999999999999933e-02,6.742152171606044520e-02,2.000774847284248203e-01,-9.498388845278171733e-02
9.400000000000000022e-02,2.215376391223933539e-01,2.642465815164179443e-01,9.836930943427742852e-03
9.500000000000000111e-02,3.375362838566446366e-01,2.353299169371217692e-01,1.269106466136039890e-01
9.600000000000000200e-02,3.113056474478599900e-01,1.410653186284460125e-01,1.951644878722038068e-01
9.700000000000000289e-02,1.852203833770313945e-01,-3.690822987541633737e-02,1.915792435562510276e-01
9.800000000000000377e-02,3.737284116520355002e-03,-1.801027506451864102e-01,1.360012454657235359e-01
9.900000000000000466e-02,-2.002765808198300468e-01,-2.548227863706276075e-01,1.524690136141043824e-02
1.000000000000000056e-01,-3.127275153232473848e-01,-2.599416084476003919e-01,-1.076073486622610847e-01
1.010000000000000064e-01,-3.039892418927876427e-01,-1.601534337580681477e-01,-1.939856020254368540e-01
1.019999999999999934e-01,-2.351113492946179939e-01,3.985104741990387264e-03,-1.884501240640796271e-01
1.029999999999999943e-01,-4.012858032924006974e-02,1.435609325432857519e-01,-1.695124201571381606e-01
1.039999999999999952e-01,1.611239254675996546e-01,2.595730480351984837e-01,-5.379313549008795520e-02
1.049999999999999961e-01,3.172190187512182180e-01,2.681028584607184628e-01,7.358571516635578624e-02
1.059999999999999970e-01,3.457382079817830078e-01,1.895892622440294717e-01,1.554350224880100273e-01
1.069999999999999979e-01,2.540441025170905309e-01,2.371279949521035157e-02,2.143006343309026007e-01
1.079999999999999988e-01,8.949456117420270806e-02,-1.153093128320225036e-01,1.770522349019608976e-01
1.089999999999999997e-01,-9.912372183999960951e-02,-2.385126651143804899e-01,8.757860789777961730e-02
1.100000000000000006e-01,-2.570521958280754249e-01,-2.806027275675086474e-01,-4.200390728488043873e-02
1.110000000000000014e-01,-3.324558594377495790e-01,-2.127500395504142161e-01,-1.440726419891204257e-01
1.120000000000000023e-01,-3.089460717691179248e-01,-7.898816794016098874e-02,-1.943054527514607999e-01
1.130000000000000032e-01,-1.244096189827923055e-01,8.290735225009397691e-02,-1.915465226331117543e-01
1.140000000000000041e-01,5.944518054611726970e-02,2.100570023381002904e-01,-1.300189726942899415e-01
1.150000000000000050e-01,2.366119670558126942e-01,2.773896530065166344e-01,-9.159225924141473421e-03
1.160000000000000059e-01,3.100179277246104537e-01,2.398056680553334596e-01,1.222790843400128336e-01
1.170000000000000068e-01,3.117732339264551733e-01,9.618754306390399356e-02,1.910135954728580387e-01
1.179999999999999938e-01,1.804839824883634758e-01,-6.647964078092191698e-02,1.934185892068139012e-01
1.189999999999999947e-01,5.322753941006067718e-04,-2.081019558826544547e-01,1.419114582732297902e-01
1.199999999999999956e-01,-1.894037032697339085e-01,-2.545253434721435615e-01,3.100882349575847033e-02
1.209999999999999964e-01,-3.202053190563062812e-01,-2.299192926337832732e-01,-6.698225825200772310e-02
1.219999999999999973e-01,-3.385635299457849801e-01,-1.280753644940065550e-01,-1.653087292888318904e-01
1.229999999999999982e-01,-2.193315268250471961e-01,4.025888672456304912e-02,-1.973159422131148533e-01
1.239999999999999991e-01,-2.689697018094260733e-02,1.917188035423789128e-01,-1.799397662479606808e-01
1.250000000000000000e-01,1.595210308973004365e-01,2.524147542093230778e-01,-9.245835246352746006e-02
1.260000000000000009e-01,3.139057501692364416e-01,2.543903459712146820e-01,5.355167153180332568e-02
1.270000000000000018e-01,3.395146020019612076e-01,1.651483182515644244e-01,1.224043340392593632e-01
1.280000000000000027e-01,2.485424603141019040e-01,-1.684066623922880757e-02,1.995836093670739220e-01
1.290000000000000036e-01,8.752585864296044682e-02,-1.560823690891285087e-01,1.746440660805830825e-01
1.300000000000000044e-01,-1.134857802085512818e-01,-2.469641828216796453e-01,9.828884790623934609e-02
1.310000000000000053e-01,-2.684701477970941608e-01,-2.663262261599578240e-01,-1.106486140448995591e-02
1.320000000000000062e-01,-3.170334175515551189e-01,-1.950188597267177304e-01,-1.344692169980513941e-01
1.330000000000000071e-01,-3.080387201262535513e-01,-3.660613654636030168e-02,-1.965054305499000786e-01
1.340000000000000080e-01,-1.303153388834882298e-01,1.197603610065648833e-01,-1.930615849739243939e-01
1.350000000000000089e-01,7.295453548476676930e-02,2.499485021919475858e-01,-1.212761451541276569e-01
1.360000000000000098e-01,2.268018917563413284e-01,2.660393940214932917e-01,-3.885277951140728853e-02
1.370000000000000107e-01,3.320644857822944718e-01,2.200060948525541515e-01,8.850880093682483851e-02
1.380000000000000115e-01,3.236114906719819717e-01,5.854111771387983387e-02,1.629056213862543900e-01
1.390000000000000124e-01,1.610732219819877575e-01,-1.058308531382473466e-01,2.154394073703214396e-01
1.400000000000000133e-01,-2.778418545415592411e-02,-2.249016540621537608e-01,1.704620305220360121e-01
1.409999999999999865e-01,-1.863272602649502785e-01,-2.730930618100332330e-01,7.846965886356432884e-02
1.419999999999999873e-01,-3.249424316510248212e-01,-2.217056397943259760e-01,-8.187134041857759004e-02
1.429999999999999882e-01,-3.338951355419996769e-01,-7.841273865106823671e-02,-1.511667706613165352e-01
1.439999999999999891e-01,-2.155772455969775792e-01,6.936584291706973660e-02,-2.177994399376496082e-01
1.449999999999999900e-01,-4.017497615966059837e-02,2.186780659332346333e-01,-1.743692088812935359e-01
1.459999999999999909e-01,1.603783807742543144e-01,2.652504281659863739e-01,-1.029153487664661998e-01
1.469999999999999918e-01,2.993106285779555398e-01,2.556575940170620620e-01,5.615639535621079134e-03
1.479999999999999927e-01,3.394086848657296707e-01,1.103106248576460058e-01,1.215778245425130355e-01
1.489999999999999936e-01,2.558360291839236744e-01,-3.503396058811144437e-02,1.920889308756671132e-01
1.499999999999999944e-01,9.296435743763846460e-02,-1.976698885254218330e-01,2.066117433302347983e-01
1.509999999999999953e-01,-1.150751608230585199e-01,-2.544222730734589377e-01,1.273978011239053354e-01
1.519999999999999962e-01,-2.784993180337993479e-01,-2.603118673153217433e-01,2.011476240417565519e-03
1.529999999999999971e-01,-3.493389584697436101e-01,-1.533939435506352922e-01,-9.080795073115272009e-02
1.539999999999999980e-01,-2.827295146520464875e-01,2.399564563134634707e-03,-1.871838860449636377e-01
1.549999999999999989e-01,-1.205449026622126413e-01,1.652684805608701513e-01,-1.995328266813743978e-01
1.559999999999999998e-01,7.439887117579586928e-02,2.590507019670533206e-01,-1.371945747168886454e-01
1.570000000000000007e-01,2.495351213095437226e-01,2.568931908730919256e-01,-5.993591847677439549e-02
1.580000000000000016e-01,3.265203418655001633e-01,1.502418752753051923e-01,6.866731608474915816e-02
1.590000000000000024e-01,3.135408034032730051e-01,1.748215949249619719e-02,1.652147645966469680e-01
1.600000000000000033e-01,1.843341888000478157e-01,-1.460785586836557126e-01,2.249055402234457490e-01
1.610000000000000042e-01,1.793618713643796480e-03,-2.378860132226364443e-01,1.910656696701709956e-01
1.620000000000000051e-01,-2.109300222069400987e-01,-2.633723412605072367e-01,9.644690272215129812e-02
1.630000000000000060e-01,-3.151571559714216875e-01,-2.059206942311188615e-01,-3.593931681201770201e-02
1.640000000000000069e-01,-3.377530796322116835e-01,-6.526742008386821059e-02,-1.341234065711927881e-01
1.650000000000000078e-01,-2.286469002449338928e-01,1.094937417375207722e-01,-2.102709384301296447e-01
1.660000000000000087e-01,-2.508275471134218185e-02,2.342554025087756897e-01,-1.856197440953666067e-01
1.670000000000000095e-01,1.606361471051554468e-01,2.701101713321570896e-01,-1.175055176604761220e-01
1.680000000000000104e-01,3.087572641829093856e-01,2.189592948597939570e-01,-1.713179783444810853e-02
1.690000000000000113e-01,3.588644731491792417e-01,9.675758283815726057e-02,1.257319979323953119e-01
1.700000000000000122e-01,2.574419682085624106e-01,-7.658421818153861305e-02,1.819996559553500592e-01
1.710000000000000131e-01,9.330344357950323686e-02,-2.020467490299686364e-01,1.884189389561185257e-01
1.719999999999999862e-01,-1.167163332024170330e-01,-2.757558188584730563e-01,1.357938311359000172e-01
1.729999999999999871e-01,-2.672799991703553868e-01,-2.247900595730444318e-01,3.241492748986347233e-02
1.739999999999999880e-01,-3.360868954923285079e-01,-1.205627159410710136e-01,-8.536638201092877631e-02
1.749999999999999889e-01,-2.808829512533247974e-01,5.434742120101691137e-02,-1.569530276532160318e-01
1.759999999999999898e-01,-1.329682764059263167e-01,1.949000173056458785e-01,-1.819449268986647050e-01
1.769999999999999907e-01,8.357665788886282920e-02,2.762911580184949090e-01,-1.422343867811736995e-01
1.779999999999999916e-01,2.262043037984406979e-01,2.671239127184054651e-01,-9.194940332346411560e-02
1.789999999999999925e-01,3.565357615879616304e-01,1.484970727342087848e-01,4.501854766504046618e-02
1.799999999999999933e-01,3.085614874338733493e-01,-3.664231579618391042e-03,1.322715896699205029e-01
1.809999999999999942e-01,1.771610635105794196e-01,-1.731721257115965695e-01,1.983951396571349279e-01
1.819999999999999951e-01,-1.298137763492620243e-02,-2.443947741789747330e-01,1.898473690788055057e-01
1.829999999999999960e-01,-1.932294776739075792e-01,-2.550103145234479118e-01,9.933446273714227615e-02
1.839999999999999969e-01,-3.051443485094178509e-01,-1.788357452512432944e-01,-3.432384984525191102e-03
1.849999999999999978e-01,-3.257761251594128438e-01,-1.706148485787327461e-03,-1.072677273495029615e-01
1.859999999999999987e-01,-2.186943930858502860e-01,1.487826188177186204e-01,-1.906504132445094035e-01
1.869999999999999996e-01,-2.766564275048585819e-02,2.441873014581316392e-01,-2.002082260428104943e-01
1.880000000000000004e-01,1.699498469574020065e-01,2.575857258363586921e-01,-1.403631598272854775e-01
1.890000000000000013e-01,3.066910866164873628e-01,2.035199551121227579e-01,-1.468342531867069048e-02
1.900000000000000022e-01,3.260201930901568956e-01,5.026876697363141105e-02,9.443314979898921602e-02
1.910000000000000031e-01,2.318181069313882126e-01,-1.111127567023303397e-01,1.926183949798771500e-01
1.920000000000000040e-01,8.699235898564064429e-02,-2.219227242478265805e-01,2.019176406798828260e-01
1.930000000000000049e-01,-1.134001250625653739e-01,-2.702333345854898150e-01,1.553329411060601351e-01
1.940000000000000058e-01,-2.739661261034557760e-01,-2.230571549287806710e-01,4.981148663278067018e-02
1.950000000000000067e-01,-3.384986613682438028e-01,-9.193292379009095072e-02,-5.217745547367595715e-02
1.960000000000000075e-01,-2.809325131357621186e-01,6.684357972236311396e-02,-1.613945668763656360e-01
1.970000000000000084e-01,-1.406438632444450554e-01,2.081943470954043252e-01,-1.916747250296407523e-01
1.980000000000000093e-01,8.457253052853129505e-02,2.706910122723154566e-01,-1.742889075190749981e-01
1.990000000000000102e-01,2.419570100844090632e-01,2.482092865951106841e-01,-9.163143498248553509e-02
2.000000000000000111e-01,3.559818027071317559e-01,1.295096134344594085e-01,2.235687142108564590e-03
2.010000000000000120e-01,3.017259431345498677e-01,-5.557345046195500543e-02,1.179000462624654882e-01
2.020000000000000129e-01,1.749606855550937534e-01,-1.841124123056158968e-01,1.994110329121012992e-01
2.030000000000000138e-01,-1.906960210162908162e-02,-2.684069312609075886e-01,2.015735453074951888e-01
2.039999999999999869e-01,-2.300798083755620782e-01,-2.562982847111971996e-01,1.199431659678933809e-01
2.049999999999999878e-01,-3.205929626536831445e-01,-1.415446109912836536e-01,2.059911395502959930e-02
2.059999999999999887e-01,-3.324207559344798391e-01,1.187543775868458301e-02,-9.516110594908558373e-02
2.069999999999999896e-01,-2.062080640879808413e-01,1.491214488760488066e-01,-1.684854009402455000e-01
2.079999999999999905e-01,-4.367250947096013719e-02,2.430784778792434153e-01,-1.973928604846088841e-01
2.089999999999999913e-01,1.693280126509119354e-01,2.649754851029029190e-01,-1.454476754996353316e-01
2.099999999999999922e-01,3.227401394930546341e-01,1.816048045906177022e-01,-3.405240775502597211e-02
2.109999999999999931e-01,3.292401557814835233e-01,5.730457938381800648e-03,7.940495906113394231e-02
2.119999999999999940e-01,2.496271793785678206e-01,-1.148275920297393560e-01,1.593058997588447656e-01
2.129999999999999949e-01,9.629140229005746232e-02,-2.549154992402810627e-01,1.965898974419421630e-01
2.139999999999999958e-01,-1.233770704051256883e-01,-2.661070036181309439e-01,1.633593957368940086e-01
2.149999999999999967e-01,-2.769294952933776255e-01,-1.827058539842966178e-01,8.382493616867246755e-02
2.159999999999999976e-01,-3.353882987409309013e-01,-5.149320461859894366e-02,-4.462519970986454643e-02
2.169999999999999984e-01,-2.763893390172889597e-01,1.150880141986669741e-01,-1.565321782234780912e-01
2.179999999999999993e-01,-1.219819949668659864e-01,2.318881274115925928e-01,-1.967295246065340342e-01
2.190000000000000002e-01,7.723860779587612968e-02,2.624706365590382950e-01,-1.952032654004319245e-01
2.200000000000000011e-01,2.433918521993313766e-01,2.085907822476960327e-01,-1.464683514695678535e-01
2.210000000000000020e-01,3.248315596101987168e-01,8.744833518838025788e-02,5.391217116262849406e-03
2.220000000000000029e-01,3.013867105689841952e-01,-6.457586974809007008e-02,1.019970185544897545e-01
2.230000000000000038e-01,1.790824815415625881e-01,-2.242177096906363409e-01,1.740471176401230946e-01
2.240000000000000047e-01,-9.485508616167166035e-03,-2.635319872828007504e-01,1.902477700886810452e-01
2.250000000000000056e-01,-2.061530377471699205e-01,-2.232702320659358253e-01,1.507510519178800190e-01
2.260000000000000064e-01,-3.158908129559079292e-01,-1.109511248608220507e-01,3.859431769911012694e-02
2.270000000000000073e-01,-3.335107009156515478e-01,4.790027384271551558e-02,-7.261535951222389262e-02
2.280000000000000082e-01,-2.106091608168668972e-01,1.947391540096357065e-01,-1.647456498233358102e-01
2.290000000000000091e-01,-3.935375374221723038e-02,2.591616258808322470e-01,-2.104544479005391044e-01
2.300000000000000100e-01,1.595821665762406083e-01,2.366087657228550523e-01,-1.601696832632879819e-01
2.310000000000000109e-01,3.006026189662681647e-01,1.602817990709951013e-01,-7.555625426834042258e-02
2.320000000000000118e-01,3.148288870981498788e-01,-1.100431882133238309e-02,2.962367265019262910e-02
2.330000000000000127e-01,2.349236547846084988e-01,-1.729909240725449049e-01,1.588567938465446361e-01
2.340000000000000135e-01,8.119797346369278523e-02,-2.459685990350232720e-01,1.856161028586844897e-01
2.349999999999999867e-01,-1.236427282224176472e-01,-2.637158278211340634e-01,1.724910376391556033e-01
2.359999999999999876e-01,-2.947359289637556112e-01,-1.671038586356953237e-01,1.049372772052654806e-01
2.369999999999999885e-01,-3.331602363733439098e-01,-1.492897993688392481e-02,-1.494179009083399477e-02
2.379999999999999893e-01,-2.740808275120093507e-01,1.353982957152427280e-01,-1.122084470049589666e-01
2.389999999999999902e-01,-1.327418895227389095e-01,2.428889211309412377e-01,-2.065735480860711459e-01
2.399999999999999911e-01,8.702981599754554265e-02,2.606136153207010420e-01,-2.027660304777992306e-01
2.409999999999999920e-01,2.590961256049300054e-01,1.909709391653535426e-01,-1.393672411703796021e-01
2.419999999999999929e-01,3.304483864559765172e-01,4.446813689802712327e-02,-3.317316381720420565e-02
2.429999999999999938e-01,2.971134822636176120e-01,-1.063111783032220509e-01,8.505787133963026159e-02
2.439999999999999947e-01,1.724444451514275944e-01,-2.341966289529247569e-01,1.694331728048819874e-01
2.449999999999999956e-01,-1.289859325394608972e-02,-2.597297163269728371e-01,2.179135410789373173e-01
2.459999999999999964e-01,-2.127705481547638167e-01,-2.051736464696595208e-01,1.480898039735702998e-01
2.469999999999999973e-01,-3.203226385563782697e-01,-8.532454772597695969e-02,6.029221398263607395e-02
2.479999999999999982e-01,-3.162780400625712640e-01,6.834498663733069856e-02,-6.103222790920882768e-02
2.489999999999999991e-01,-2.093522915038547039e-01,2.069190046509853664e-01,-1.565256141791487310e-01
2.500000000000000000e-01,-3.308142059011043995e-02,2.727743575248936514e-01,-2.052020953994428132e-01
2.510000000000000009e-01,1.765288464837247717e-01,2.416896817493153216e-01,-1.721957681829507925e-01
2.520000000000000018e-01,2.974936917190791341e-01,1.135062924021666558e-01,-1.055596298067127126e-01
2.530000000000000027e-01,3.522265550234637277e-01,-6.001362911277471901e-02,1.458568330279564652e-02
2.540000000000000036e-01,2.578373301520215377e-01,-2.089560864227421322e-01,1.205301807895946958e-01
2.550000000000000044e-01,6.091194750626348353e-02,-2.559424864986200587e-01,1.918328095326940486e-01
2.560000000000000053e-01,-1.195135824277741843e-01,-2.651610766364096428e-01,2.074550058050484147e-01
2.570000000000000062e-01,-2.731095305359929615e-01,-1.413372117973221986e-01,1.330001204853900609e-01
2.580000000000000071e-01,-3.536429749139071155e-01,1.861166794283621376e-02,3.866447367863017895e-04
2.590000000000000080e-01,-2.811980122005267591e-01,1.653249459597290194e-01,-9.604495958958546298e-02
2.600000000000000089e-01,-1.324782192869533859e-01,2.556993867157728584e-01,-1.819784640780635621e-01
2.610000000000000098e-01,9.278441652027398512e-02,2.683744090527980797e-01,-1.949435030814143932e-01
2.620000000000000107e-01,2.375000346450182043e-01,1.631154895164261542e-01,-1.458451259071674722e-01
2.630000000000000115e-01,3.422947065630865815e-01,8.491766706971758463e-03,-5.224972369831146213e-02
2.640000000000000124e-01,3.044164957834010199e-01,-1.365767953794076173e-01,7.612375494952680621e-02
2.650000000000000133e-01,1.543486011708390393e-01,-2.535586970861296585e-01,1.686541968368694411e-01
2.660000000000000142e-01,-2.823055170679132989e-02,-2.612182739471405890e-01,2.033233609959524402e-01
2.670000000000000151e-01,-2.217420713578484304e-01,-2.045202453261071307e-01,1.789398395722054114e-01
2.680000000000000160e-01,-3.154196932452887348e-01,-6.352168043275116527e-02,7.274633620387890853e-02
2.690000000000000169e-01,-3.455133560336211551e-01,1.120077433031187036e-01,-4.168566052891149731e-02
2.700000000000000178e-01,-2.111688135217443807e-01,2.411404022666327474e-01,-1.577875557335089718e-01
2.710000000000000187e-01,-3.478655224707522670e-02,2.652461382695679992e-01,-2.115877399987199925e-01
2.720000000000000195e-01,1.675841190654918933e-01,2.325831313675927881e-01,-1.898641467727146814e-01
2.730000000000000204e-01,3.260295389422808165e-01,6.870928434898648796e-02,-1.130738624110731866e-01
2.740000000000000213e-01,3.540101740084686810e-01,-9.209261241253131891e-02,-1.006464271789770043e-03
2.750000000000000222e-01,2.399406764403257120e-01,-2.100015244595402619e-01,1.082213537118416891e-01
2.760000000000000231e-01,8.688529019296217792e-02,-2.805569691622960549e-01,1.981919885103967660e-01
2.770000000000000240e-01,-1.256707882810657040e-01,-2.268786810701811929e-01,2.110315873340629922e-01
2.780000000000000249e-01,-2.702164607693910425e-01,-1.157758042548504424e-01,1.453862274538967603e-01
2.790000000000000258e-01,-3.525759825412798643e-01,5.190847318960711138e-02,4.600534471750151316e-02
2.800000000000000266e-01,-2.769116771533912114e-01,2.023284520885766102e-01,-7.044289556899534233e-02
2.810000000000000275e-01,-1.126890888847452837e-01,2.565001848281653896e-01,-1.666381657171545627e-01
2.819999999999999729e-01,7.959089035033885262e-02,2.539309369291319896e-01,-2.117881255648846606e-01
2.829999999999999738e-01,2.464175102567270348e-01,1.349914313106030106e-01,-1.824630034580744242e-01
2.839999999999999747e-01,3.288332532436403222e-01,-1.973248461662246989e-02,-6.484348111476367915e-02
2.849999999999999756e-01,2.920441327264504672e-01,-1.725071775304249100e-01,2.818342099691866637e-02
2.859999999999999765e-01,1.657992343112593692e-01,-2.759782666515378513e-01,1.511288983277718767e-01
2.869999999999999774e-01,-3.340600795790679700e-02,-2.612871229577817256e-01,1.933696423051806113e-01
2.879999999999999782e-01,-2.135868495095042674e-01,-1.713552807210193818e-01,1.873956505395433236e-01
2.889999999999999791e-01,-3.240344981969510707e-01,-1.456000234923371557e-02,1.154379543594536150e-01
2.899999999999999800e-01,-3.330408016201386601e-01,1.384162987345638751e-01,3.599021471606635245e-03
2.909999999999999809e-01,-2.081191128255165945e-01,2.391786896308588928e-01,-1.163860530968774953e-01
2.919999999999999818e-01,-8.055233857138840992e-03,2.658107414978306271e-01,-1.845740547522745634e-01
2.929999999999999827e-01,1.686504805548838248e-01,1.769901009671519254e-01,-2.113726917895132063e-01
2.939999999999999836e-01,3.066103159970769432e-01,4.299360866649388352e-02,-1.335727543814429208e-01
2.949999999999999845e-01,3.215354817980374258e-01,-1.201531637481705328e-01,-8.016871738334065828e-03
2.959999999999999853e-01,2.474659293202692290e-01,-2.385291948166037013e-01,8.984258143966150634e-02
2.969999999999999862e-01,7.569450383245429625e-02,-2.693612716668805640e-01,1.835220607044144858e-01
2.979999999999999871e-01,-1.116409313849790752e-01,-2.200076941199401726e-01,2.124425168222027205e-01
2.989999999999999880e-01,-2.962529482593695973e-01,-6.850322431216251950e-02,1.786175454829403153e-01
2.999999999999999889e-01,-3.260334035271908459e-01,8.913955928167592579e-02,5.471004740061311683e-02
3.009999999999999898e-01,-2.703602430845481464e-01,2.220679709892216247e-01,-5.886217321937925462e-02
3.019999999999999907e-01,-1.265311385675088884e-01,2.639613869917372679e-01,-1.347305273793359681e-01
3.029999999999999916e-01,6.602082893838044642e-02,2.390260723936035725e-01,-2.084664433035489095e-01
3.039999999999999925e-01,2.629176894350613858e-01,9.651750245002520268e-02,-1.854642686921247341e-01
3.049999999999999933e-01,3.297263030536153328e-01,-6.251557471273112843e-02,-1.137302722915388142e-01
3.059999999999999942e-01,3.331443589413675688e-01,-2.053446522462219481e-01,-1.499040424959401964e-02
3.069999999999999951e-01,1.673534529156573136e-01,-2.650625738302282430e-01,1.374267451606616119e-01
3.079999999999999960e-01,-3.450769120024183012e-02,-2.423269295483181651e-01,1.829635309314479874e-01
3.089999999999999969e-01,-2.187393017818429486e-01,-1.367759451105588220e-01,2.084628942156114551e-01
3.099999999999999978e-01,-3.398938433970163375e-01,4.196883406630508295e-02,1.269843004090745187e-01
3.109999999999999987e-01,-3.252374774356781573e-01,1.804302269251971957e-01,1.356488977176811134e-02
3.119999999999999996e-01,-2.066381461044765055e-01,2.662716812730079874e-01,-1.068811783467905618e-01
3.130000000000000004e-01,-2.541775786047262634e-02,2.602866748955874887e-01,-1.869247765705185638e-01
3.140000000000000013e-01,1.567382144340882244e-01,1.340108894223742408e-01,-2.026407118554965636e-01
3.150000000000000022e-01,3.153850037443524101e-01,-6.903386740408176681e-03,-1.396520760125652960e-01
3.160000000000000031e-01,3.247283126255257057e-01,-1.417110608682060624e-01,-7.306077109586703311e-02
3.170000000000000040e-01,2.276245322202348209e-01,-2.628018143513441984e-01,8.189115945049557643e-02
3.180000000000000049e-01,9.088810963222121453e-02,-2.740439273646497198e-01,1.615638792737815466e-01
3.190000000000000058e-01,-1.321245706256506114e-01,-1.955661375639102528e-01,2.097308023363707863e-01
3.200000000000000067e-01,-3.005333949585946574e-01,-5.025468827084485224e-02,1.593612356225623250e-01
3.210000000000000075e-01,-3.491442057157274625e-01,1.174379483136460817e-01,9.107700363320529735e-02
3.220000000000000084e-01,-2.772991614545438632e-01,2.412361880060266417e-01,-2.692207303294829115e-02
3.230000000000000093e-01,-1.226037160459733516e-01,2.773220801615658981e-01,-1.369546070353716005e-01
3.240000000000000102e-01,6.658530583882532605e-02,1.992160855631429361e-01,-2.185658172531637911e-01
3.250000000000000111e-01,2.438042788196050914e-01,6.995979039864398674e-02,-1.881261724815962433e-01
3.260000000000000120e-01,3.240922013805340174e-01,-9.313293948099664321e-02,-1.072945264687909794e-01
3.270000000000000129e-01,2.935946635504921298e-01,-1.951478254689317238e-01,3.144419432510069286e-03
3.280000000000000138e-01,1.663487320050698881e-01,-2.785841323558618798e-01,1.015500284455627539e-01
3.290000000000000147e-01,-3.096329211938804449e-02,-2.353259127242985638e-01,2.039090321960637942e-01
3.300000000000000155e-01,-1.951844506390522649e-01,-1.010449356350975048e-01,1.908854745018702948e-01
3.310000000000000164e-01,-3.140052011295845769e-01,6.479965859512554216e-02,1.402321492759839028e-01
3.320000000000000173e-01,-3.159474234350703736e-01,2.177101714731523585e-01,5.465310827418579792e-02
3.330000000000000182e-01,-2.092758103839748307e-01,2.693450213132687621e-01,-8.326410916647895843e-02
3.340000000000000191e-01,-1.235759469293253900e-02,2.460983011659226005e-01,-1.782199047569132666e-01
3.350000000000000200e-01,1.710760086317563988e-01,1.371005975746906747e-01,-1.956516060704563686e-01
3.360000000000000209e-01,3.184853492112381113e-01,9.243035975092803516e-04,-1.599331919689238601e-01
3.370000000000000218e-01,3.237318677912258136e-01,-1.949157663018402376e-01,-7.334407687843468027e-02
3.380000000000000226e-01,2.488462534327416098e-01,-2.912838589831721614e-01,5.388328982661771266e-02
3.390000000000000235e-01,6.677132490283121946e-02,-2.511733712278577668e-01,1.653425846517181941e-01
3.400000000000000244e-01,-1.387861665424192370e-01,-1.565203401430962649e-01,1.990188890628153684e-01
3.410000000000000253e-01,-2.796175306145040618e-01,-2.933871741954905289e-03,1.850850711327181042e-01
3.420000000000000262e-01,-3.226594451316899259e-01,1.407458248932343392e-01,1.065891134580347621e-01
3.430000000000000271e-01,-2.953013455038478452e-01,2.447363489828990046e-01,1.317312504506618401e-04
3.439999999999999725e-01,-1.232353576666916917e-01,2.682979848951200785e-01,-1.405948871882080342e-01
3.449999999999999734e-01,8.930314335265264469e-02,1.899441495180538009e-01,-1.883345995951156704e-01
3.459999999999999742e-01,2.646484128783625489e-01,3.940852527847821946e-02,-2.166682472418828276e-01
3.469999999999999751e-01,3.352880556174276938e-01,-1.360925974379754710e-01,-1.309288472661753744e-01
3.479999999999999760e-01,3.082492732149433867e-01,-2.257072237173311513e-01,-2.141378095198438747e-02
3.489999999999999769e-01,1.559246886042674474e-01,-2.649177593560213539e-01,8.191052366746115476e-02
3.499999999999999778e-01,-4.533974169760174311e-02,-2.078765334393044284e-01,1.680174853285547054e-01
3.509999999999999787e-01,-2.185273383253382995e-01,-7.932675708832211126e-02,1.940568738779403779e-01
3.519999999999999796e-01,-3.243677326676469574e-01,9.816492824043891730e-02,1.658438013748617101e-01
3.529999999999999805e-01,-3.312352285257125217e-01,2.065780154093050103e-01,6.511359256157063513e-02
3.539999999999999813e-01,-2.128960493369671525e-01,2.616687343361284723e-01,-4.684751473066787325e-02
3.549999999999999822e-01,-2.273641733597892359e-02,2.266646227305836869e-01,-1.627607366467567207e-01
3.559999999999999831e-01,1.780726146241255747e-01,9.001104134154870595e-02,-2.033619567441174725e-01
3.569999999999999840e-01,3.014753444898673473e-01,-6.357238524792156731e-02,-1.774434303096504850e-01
3.579999999999999849e-01,3.409044942708751580e-01,-2.150696525650072077e-01,-8.607021561104330476e-02
3.589999999999999858e-01,2.315760692371551799e-01,-2.840611071933574205e-01,2.608239881936549875e-02
3.599999999999999867e-01,6.092205902932581324e-02,-2.453111402366377758e-01,1.251281450591835154e-01
3.609999999999999876e-01,-1.207946338811955317e-01,-1.122306236523104850e-01,2.070608909338111647e-01
3.619999999999999885e-01,-2.748561743415183778e-01,3.531362605654617820e-02,1.962586881984543230e-01
3.629999999999999893e-01,-3.593755284419159479e-01,1.784735061593760719e-01,1.105883515492733227e-01
3.639999999999999902e-01,-2.696779416800698104e-01,2.653091654696100865e-01,3.259574741500115974e-02
3.649999999999999911e-01,-1.122219108865552956e-01,2.642547697114508987e-01,-1.007589111071433008e-01
3.659999999999999920e-01,8.100445071749423631e-02,1.491604302842553520e-01,-1.987170942647747962e-01
3.669999999999999929e-01,2.495502994875861136e-01,6.700231704719986428e-03,-1.896920182182763592e-01
3.679999999999999938e-01,3.509609956093215355e-01,-1.455284428465652702e-01,-1.531637809684143481e-01
3.689999999999999947e-01,2.999183248722517292e-01,-2.482515821154727409e-01,-7.335026124700019801e-02
3.699999999999999956e-01,1.645918995427663456e-01,-2.958634489213424756e-01,6.519997135579479186e-02
3.709999999999999964e-01,-3.953121765161869000e-02,-1.758355396145494798e-01,1.746036477161546641e-01
3.719999999999999973e-01,-2.177216991207040209e-01,-3.098791857139151368e-02,1.998408570624267966e-01
3.729999999999999982e-01,-3.058213090893593944e-01,1.360498922553849688e-01,1.715256289279186164e-01
3.739999999999999991e-01,-3.242974037882628280e-01,2.396349729541610574e-01,1.062467219418812281e-01
3.750000000000000000e-01,-2.194938257149057492e-01,2.597919804636559804e-01,-3.594966157242775878e-02
3.760000000000000009e-01,-1.259756324939675064e-02,2.239322276053273830e-01,-1.432241742495804493e-01
3.770000000000000018e-01,1.695449240576354377e-01,6.960512127104249991e-02,-2.062065559114790447e-01
3.780000000000000027e-01,3.166186925758396331e-01,-9.385693782785867190e-02,-2.011332296262948738e-01
3.790000000000000036e-01,3.433347881249245725e-01,-2.306555255762900158e-01,-1.160673533353795417e-01
3.800000000000000044e-01,2.424925831137559329e-01,-2.752445173863509176e-01,2.928214864286035266e-03
3.810000000000000053e-01,7.217775589319595786e-02,-2.286276777301456675e-01,1.090803314601122564e-01
3.820000000000000062e-01,-1.104459452718285217e-01,-6.369899070205888025e-02,1.882487301530014201e-01
3.830000000000000071e-01,-2.770882551241805047e-01,6.581527880489100590e-02,2.155927983507495427e-01
3.840000000000000080e-01,-3.564045692529534404e-01,1.999571363344788688e-01,1.383966449846152080e-01
3.850000000000000089e-01,-2.814748834849668535e-01,2.657145952227152330e-01,3.730706353375420892e-02
3.860000000000000098e-01,-1.199997054735929547e-01,2.305461334134225049e-01,-8.252982905804805147e-02
3.870000000000000107e-01,8.284862250413571605e-02,1.125919353758317171e-01,-1.737171804998129399e-01
3.880000000000000115e-01,2.477059190421490864e-01,-3.864393019678348529e-02,-2.142122674957470663e-01
3.890000000000000124e-01,3.583700821900222544e-01,-1.778786773453250869e-01,-1.699837189308888441e-01
3.900000000000000133e-01,2.842930845948667962e-01,-2.728051848789614375e-01,-6.008923234507578676e-02
3.910000000000000142e-01,1.646225088371156553e-01,-2.486019838373350610e-01,5.289128658838219282e-02
3.920000000000000151e-01,-4.921241644636376034e-02,-1.629464524131714054e-01,1.440113389243142528e-01
3.930000000000000160e-01,-2.190438548062472734e-01,2.117672128385338429e-02,2.095353875474309790e-01
3.940000000000000169e-01,-3.195840102459278631e-01,1.697440290364998494e-01,1.858657229443958225e-01
3.950000000000000178e-01,-3.247841520600498466e-01,2.735633540652863682e-01,1.091356804151405319e-01
3.960000000000000187e-01,-2.178390155770498771e-01,2.555189388092166669e-01,-2.519932863253149941e-02
3.970000000000000195e-01,7.962486353438340617e-03,1.760773127216867240e-01,-1.458137302697745941e-01
3.980000000000000204e-01,1.821965229374359618e-01,3.202734614580093897e-02,-1.800236980667520026e-01
3.990000000000000213e-01,3.041346046342798815e-01,-1.268962668157518903e-01,-1.907171879055258867e-01
4.000000000000000222e-01,3.337741175049785403e-01,-2.390777106078988412e-01,-1.223281826672757838e-01
4.010000000000000231e-01,2.329701577449562744e-01,-2.730244985059274709e-01,-2.552569632395467608e-02
4.020000000000000240e-01,5.034595393775408850e-02,-1.933103502613845170e-01,7.816838647316595723e-02
4.030000000000000249e-01,-1.339486074622545098e-01,-6.078358667461693926e-02,1.725246317848827537e-01
4.040000000000000258e-01,-2.766206392384693569e-01,1.239611289847214470e-01,2.047244259660376264e-01
4.050000000000000266e-01,-3.467155618158018204e-01,2.306775188273482713e-01,1.509929299090376209e-01
4.060000000000000275e-01,-2.611898780656629060e-01,2.864734787749337874e-01,6.378675188642161931e-02
4.069999999999999729e-01,-1.226828927779646528e-01,2.203184681471184181e-01,-4.537713809572374579e-02
4.079999999999999738e-01,7.468097374636062380e-02,1.079431652902294730e-01,-1.449103543361890678e-01
4.089999999999999747e-01,2.664463569469233684e-01,-6.592754568889341860e-02,-2.133469432461584936e-01
4.099999999999999756e-01,3.403532215326878219e-01,-1.911777363367970495e-01,-1.866605107795392404e-01
4.109999999999999765e-01,2.966227615230094261e-01,-2.884416541727573002e-01,-1.075545846883014384e-01
4.119999999999999774e-01,1.583755848862703763e-01,-2.344238828097205407e-01,2.577654517620932631e-02
4.129999999999999782e-01,-5.149436366460262426e-02,-1.176191733506975201e-01,1.238560815011223587e-01
4.139999999999999791e-01,-2.276888412260461014e-01,4.359559587133636505e-02,1.933125631033976166e-01
4.149999999999999800e-01,-3.172006021959302702e-01,1.926871757857609724e-01,1.990114208009746422e-01
4.159999999999999809e-01,-3.154977500381799804e-01,2.760513886903835368e-01,1.177761794365932146e-01
4.169999999999999818e-01,-2.043278412541638944e-01,2.545271343915280204e-01,3.005131646393300118e-02
4.179999999999999827e-01,-5.120594526387697333e-03,1.588511875367272230e-01,-1.104892852019931232e-01
4.189999999999999836e-01,1.781716825682687633e-01,-1.443473480410570851e-02,-1.692733564139382030e-01
4.199999999999999845e-01,3.113134664673217755e-01,-1.778853593005428890e-01,-2.035904169833830935e-01
4.209999999999999853e-01,3.403395771397962899e-01,-2.600151119653783538e-01,-1.601982340170420294e-01
4.219999999999999862e-01,2.407857704842582269e-01,-2.644050147679135598e-01,-4.284893131058993554e-02
4.229999999999999871e-01,6.915542770393616478e-02,-1.582234016900912754e-01,4.477424723105278420e-02
4.239999999999999880e-01,-1.196080315511722364e-01,-3.593437936555577555e-02,1.592019734136564668e-01
4.249999999999999889e-01,-2.800562225636698543e-01,1.216784844978435615e-01,2.095011524528950231e-01
4.259999999999999898e-01,-3.361050673191643967e-01,2.369092095013540511e-01,1.735302266382338088e-01
4.269999999999999907e-01,-2.806229776757094840e-01,2.792762066213340666e-01,8.093115179935089776e-02
4.279999999999999916e-01,-1.069495874467685792e-01,1.910314423277660600e-01,-4.304845994732917763e-02
4.289999999999999925e-01,9.925460241168769515e-02,5.473799498563645949e-02,-1.283868096632184430e-01
4.299999999999999933e-01,2.727397005553145459e-01,-1.147050476015174514e-01,-1.970414104203118966e-01
4.309999999999999942e-01,3.456761201480495482e-01,-2.312207484433539961e-01,-1.886244291838062304e-01
4.319999999999999951e-01,3.088833001074577367e-01,-2.594794228752795862e-01,-1.179779523731242369e-01
4.329999999999999960e-01,1.472027789019132726e-01,-2.101789977786195363e-01,1.490591907446733519e-02
4.339999999999999969e-01,-3.429493329830745479e-02,-1.027301617475796236e-01,1.122625075433476977e-01
4.349999999999999978e-01,-2.245469998205975592e-01,6.821104912463968328e-02,2.001307414851772049e-01
4.359999999999999987e-01,-3.368072227281374564e-01,2.161738483472463446e-01,2.012773405584931119e-01
4.369999999999999996e-01,-3.185560172002259161e-01,2.742566658860604578e-01,1.597731848659874054e-01
4.380000000000000004e-01,-2.115929723178061328e-01,2.350905365027549376e-01,4.669092916470911347e-02
4.390000000000000013e-01,-8.668703050680977903e-04,1.039410708409122669e-01,-7.593544840333746326e-02
4.400000000000000022e-01,1.798765086291414794e-01,-5.795126421943485456e-02,-1.602905901847633541e-01
4.410000000000000031e-01,3.081763049623575390e-01,-1.787351033072555051e-01,-2.061219460749552090e-01
4.420000000000000040e-01,3.149605708595506481e-01,-2.602363867314216872e-01,-1.791860230155421507e-01
4.430000000000000049e-01,2.401911729307898424e-01,-2.474577633886899386e-01,-9.622844258550468377e-02
4.440000000000000058e-01,5.868636960887213538e-02,-1.465658553654951013e-01,5.313696181703534555e-02
4.450000000000000067e-01,-1.265454630556282489e-01,5.432484576978414276e-03,1.388042041343012512e-01
4.460000000000000075e-01,-2.986195382020908062e-01,1.782903922753153181e-01,1.933601594914873267e-01
4.470000000000000084e-01,-3.425232200564296003e-01,2.454132667466539242e-01,1.913201417174650310e-01
4.480000000000000093e-01,-2.753909506815520603e-01,2.524920512794817662e-01,1.330595677902966234e-01
4.490000000000000102e-01,-1.200855191228699520e-01,1.639277402484650148e-01,9.482023945630817588e-03
4.500000000000000111e-01,9.420346835253179396e-02,2.007863458078178870e-02,-1.077053927691120627e-01
4.510000000000000120e-01,2.679241557709452493e-01,-1.400027888153882738e-01,-1.769148865454547304e-01
4.520000000000000129e-01,3.274392682737498617e-01,-2.397703428822991478e-01,-2.197889185043091775e-01
4.530000000000000138e-01,3.081034596228574562e-01,-2.590601884400086097e-01,-1.379233561759371784e-01
4.540000000000000147e-01,1.584586219315822497e-01,-1.919711641366780019e-01,-3.750971922457056046e-02
4.550000000000000155e-01,-3.619789608248590029e-02,-5.582896651994948695e-02,9.305508853568771055e-02
4.560000000000000164e-01,-2.297935955231117100e-01,1.056535383776115444e-01,1.787376309121743445e-01
4.570000000000000173e-01,-3.272593576015691008e-01,2.367885263557100162e-01,2.107030922321493638e-01
4.580000000000000182e-01,-3.101394430859790718e-01,2.841800399547077527e-01,1.809341206323670515e-01
4.590000000000000191e-01,-1.978183775370374597e-01,2.254786468240885799e-01,6.612635197194302594e-02
4.600000000000000200e-01,-8.579826866745525861e-04,9.617654978259643217e-02,-5.406021784262521335e-02
4.610000000000000209e-01,1.626253812588530634e-01,-7.398984879279667248e-02,-1.523238285828197314e-01
4.620000000000000218e-01,3.058453710264841252e-01,-2.068864414563804099e-01,-2.108808900848333501e-01
4.630000000000000226e-01,3.308419255680072890e-01,-2.762974139885981395e-01,-1.897727580373200218e-01
4.640000000000000235e-01,2.294272384326095648e-01,-2.282469133613509449e-01,-1.031272527993737781e-01
4.650000000000000244e-01,5.130372101810570795e-02,-1.035010686750860998e-01,9.144011937142718094e-03
4.660000000000000253e-01,-1.380373019875991147e-01,6.544407188329591507e-02,1.290415185688104371e-01
4.670000000000000262e-01,-3.067291709654338949e-01,1.946280181502690054e-01,1.856954776523041806e-01
4.680000000000000271e-01,-3.247921533154419782e-01,2.686229358137343093e-01,2.072557453303509878e-01
4.689999999999999725e-01,-2.719233035702730006e-01,2.444426483005844586e-01,1.313880847280330111e-01
4.699999999999999734e-01,-1.126793478512256863e-01,1.415597294877196377e-01,1.860323892419426042e-02
4.709999999999999742e-01,9.213318175571513780e-02,-1.642917730268733320e-02,-9.932220005059898271e-02
4.719999999999999751e-01,2.635681413468336509e-01,-1.588785344517794629e-01,-1.805654375677771817e-01
4.729999999999999760e-01,3.353980321608793780e-01,-2.650564737220600375e-01,-2.059736053678386802e-01
4.739999999999999769e-01,3.065848735542672787e-01,-2.473301358438768638e-01,-1.369571280395849300e-01
4.749999999999999778e-01,1.541585418067436541e-01,-1.632252721321267586e-01,-5.237412964945157429e-02
4.759999999999999787e-01,-5.000497132921331855e-02,-1.351853705611899027e-02,6.919260551166990514e-02
4.769999999999999796e-01,-2.186458095971205995e-01,1.368875414403918356e-01,1.674991419777185908e-01
4.779999999999999805e-01,-3.268484570016073620e-01,2.419373204636990904e-01,1.890877338122209372e-01
4.789999999999999813e-01,-3.215636493761784287e-01,2.675526898739700177e-01,1.913119661704310304e-01
4.799999999999999822e-01,-1.842609203450201738e-01,1.875942689468255986e-01,7.206222020712239884e-02
4.809999999999999831e-01,5.477081982993823456e-03,5.581825940876110337e-02,-3.946748547992867673e-02
4.819999999999999840e-01,1.765416385596854931e-01,-9.795745845487248415e-02,-1.201473052276806758e-01
4.829999999999999849e-01,3.139564355341341040e-01,-2.407579476011762198e-01,-2.002653498362758910e-01
4.839999999999999858e-01,3.343755292321359263e-01,-2.824052407636427620e-01,-2.040206073846908552e-01
4.849999999999999867e-01,2.452995717777594065e-01,-2.355266295393161624e-01,-1.143250974322290031e-01
4.859999999999999876e-01,7.356421755459986722e-02,-7.291328825827393667e-02,-1.258895878441616129e-02
4.869999999999999885e-01,-1.510835170534419458e-01,8.490682537154414788e-02,1.137076051595491827e-01
4.879999999999999893e-01,-2.855379494678483288e-01,2.120938658790763875e-01,1.950391476293218129e-01
4.889999999999999902e-01,-3.437324757370502915e-01,2.768380008427530625e-01,1.983131951223431055e-01
4.899999999999999911e-01,-2.862685984042787624e-01,2.270645576760200179e-01,1.526502424737470609e-01
4.909999999999999920e-01,-1.017141154800874220e-01,9.862866315578446008e-02,4.009260178958470172e-02
4.919999999999999929e-01,1.070217470298905904e-01,-5.888013180508780420e-02,-8.204115183270244138e-02
4.929999999999999938e-01,2.697182221545713077e-01,-1.981470345943520950e-01,-1.807656318478498003e-01
4.939999999999999947e-01,3.352068872679436762e-01,-2.945051345795863251e-01,-1.982963982081497045e-01
4.949999999999999956e-01,2.918298212949067549e-01,-2.503952739511810521e-01,-1.729308696129693290e-01
4.959999999999999964e-01,1.592527175740772183e-01,-1.441576949319275103e-01,-8.858552260743172979e-02
4.969999999999999973e-01,-3.826877877972419129e-02,5.370941433275722328e-03,4.072664823833926917e-02
4.979999999999999982e-01,-2.349285166296100069e-01,1.833236807915804567e-01,1.590931688166505042e-01
4.989999999999999991e-01,-3.193043233791647562e-01,2.618079868925332621e-01,1.902722194782483500e-01
5.000000000000000000e-01,-3.148847266027251512e-01,2.590617097215387465e-01,1.733989572142307645e-01
5.010000000000000009e-01,-2.002479199375219177e-01,1.614437102541964320e-01,9.884812219886536522e-02
5.020000000000000018e-01,-1.497920847340187059e-02,2.260269328170668932e-02,-7.717065635181176268e-03
5.030000000000000027e-01,1.743290190425506314e-01,-1.425176781715318530e-01,-1.170165974465552788e-01
5.040000000000000036e-01,3.093241629393019831e-01,-2.450605661258741796e-01,-1.852373413372872812e-01
5.050000000000000044e-01,3.366906709819563193e-01,-2.671540137199659992e-01,-1.839432478171313945e-01
5.060000000000000053e-01,2.264456599133361225e-01,-1.810056533607577178e-01,-1.319378877267311789e-01
5.070000000000000062e-01,4.713146429166117923e-02,-5.342811758750682510e-02,-4.623668643783611365e-02
5.080000000000000071e-01,-1.375642506363148887e-01,1.156182750047775321e-01,9.767578799360301933e-02
5.090000000000000080e-01,-2.932197863667217463e-01,2.328216919944897934e-01,1.881898425630714189e-01
5.100000000000000089e-01,-3.321782039045859114e-01,2.807912738610484626e-01,2.060978977133848533e-01
5.110000000000000098e-01,-2.810570766135828125e-01,2.151906296077314984e-01,1.628729863489013219e-01
5.120000000000000107e-01,-1.138626038665730700e-01,9.490047070961860065e-02,6.554664217372992152e-02
5.130000000000000115e-01,8.846746419563979169e-02,-9.248286086973528386e-02,-5.779037926590422508e-02
5.140000000000000124e-01,2.370929276296369348e-01,-2.295868075504619576e-01,-1.665749376170881924e-01
5.150000000000000133e-01,3.351205110327451497e-01,-2.719077347332853889e-01,-1.885531237317295827e-01
5.160000000000000142e-01,3.046097800737023187e-01,-2.214117913757416567e-01,-1.823452770785835564e-01
5.170000000000000151e-01,1.530046237583558566e-01,-1.166525185244690760e-01,-9.557357747975744888e-02
5.180000000000000160e-01,-4.915495090671317957e-02,4.456488999675116414e-02,2.054146063922420579e-02
5.190000000000000169e-01,-2.304292284338080865e-01,1.952292325089216296e-01,1.227136430879955803e-01
5.200000000000000178e-01,-3.410560471422868223e-01,2.561560355476079631e-01,1.882531686844106378e-01
5.210000000000000187e-01,-3.129298088112450471e-01,2.298373866165979162e-01,1.972307135407817269e-01
5.220000000000000195e-01,-1.910127671782067271e-01,1.240487929566618519e-01,1.305311085549979433e-01
5.230000000000000204e-01,-3.656890752214726151e-03,-2.548360092412693678e-02,1.515892261168147633e-02
5.240000000000000213e-01,1.986991756922238117e-01,-1.829707308139030819e-01,-1.039586470022135917e-01
5.250000000000000222e-01,2.921252648668082874e-01,-2.612099538269971322e-01,-1.931922837004442228e-01
5.260000000000000231e-01,3.233096640798151511e-01,-2.518654584251487916e-01,-2.132733885830453702e-01
5.270000000000000240e-01,2.518771278775821520e-01,-1.611823599379554883e-01,-1.600925225883756686e-01
5.280000000000000249e-01,5.838582972662669651e-02,-8.154629732410446571e-03,-4.739056488397996175e-02
5.290000000000000258e-01,-1.507906031967222171e-01,1.327628121272737549e-01,6.166192181871384126e-02
5.300000000000000266e-01,-3.070032063416888723e-01,2.562101633035892001e-01,1.635504555465754906e-01
5.310000000000000275e-01,-3.462748474418576028e-01,2.617109696469879232e-01,1.871692936519730177e-01
5.320000000000000284e-01,-2.677640393530991703e-01,1.938727913606194120e-01,1.702682740585313992e-01
5.330000000000000293e-01,-1.081730012278022957e-01,3.880474530634574204e-02,1.012752305418907622e-01
5.340000000000000302e-01,9.708729993092009292e-02,-1.066339733127718847e-01,-3.413450087530654070e-02
5.350000000000000311e-01,2.595880959456033921e-01,-2.379937956121614961e-01,-1.451971811147101943e-01
5.360000000000000320e-01,3.339100768763157423e-01,-2.806556709277153172e-01,-2.069232628660241102e-01
5.370000000000000329e-01,2.840914883785267131e-01,-2.257827335266678059e-01,-1.957606677193424183e-01
5.380000000000000338e-01,1.438937466845692792e-01,-7.756445846508164266e-02,-1.257963474822492156e-01
5.390000000000000346e-01,-3.876909900779361429e-02,8.243960286493212664e-02,-7.118608566735559751e-03
5.400000000000000355e-01,-2.115120716264847767e-01,2.163003381093998867e-01,1.086397640255707397e-01
5.410000000000000364e-01,-3.207622897311284138e-01,2.853161439968701640e-01,1.891960716100550832e-01
5.420000000000000373e-01,-3.167213113768033717e-01,2.406912464303737620e-01,2.103003375349182247e-01
5.430000000000000382e-01,-2.040871390271760122e-01,1.091787950494850640e-01,1.622842847296371294e-01
5.440000000000000391e-01,-1.234504560918072043e-02,-6.364473932233183362e-02,3.985601931265270875e-02
5.450000000000000400e-01,1.843792694250990238e-01,-1.917221678054528144e-01,-7.299690939286807012e-02
5.460000000000000409e-01,3.246251502418643908e-01,-2.741999907355232025e-01,-1.664313477644919770e-01
5.470000000000000417e-01,3.370604484345342544e-01,-2.317587153623741070e-01,-1.692025288270029570e-01
5.480000000000000426e-01,2.179377991800163228e-01,-1.445180045281135028e-01,-1.513725170569239775e-01
5.490000000000000435e-01,6.032041226614590079e-02,2.834979809386908162e-02,-9.510545206735736279e-02
5.500000000000000444e-01,-1.571106754665034799e-01,1.658429619535151389e-01,5.195131821207155803e-02
5.510000000000000453e-01,-3.094034185202336751e-01,2.470106653804228225e-01,1.423612239370328769e-01
5.520000000000000462e-01,-3.337536460238517133e-01,2.370198964059972435e-01,1.969412926752631132e-01
5.530000000000000471e-01,-2.708112558806161640e-01,1.543306838664733893e-01,1.876223379923611378e-01
5.540000000000000480e-01,-9.643147198149719379e-02,4.128156032638280112e-03,1.209113945164767001e-01
5.550000000000000488e-01,8.269783773145124306e-02,-1.515402273099877295e-01,-8.069477417240834144e-03
5.560000000000000497e-01,2.665386034229064727e-01,-2.540375078720060742e-01,-1.088174531564137792e-01
5.570000000000000506e-01,3.433725153043622469e-01,-2.706087406725870004e-01,-2.024758506443463113e-01
5.580000000000000515e-01,3.034351180622414379e-01,-1.885494042195485220e-01,-1.813410143772177519e-01
5.590000000000000524e-01,1.434305114490008193e-01,-4.906270860555132785e-02,-1.281702054396158530e-01
5.600000000000000533e-01,-4.389608478342965636e-02,1.113327442000790202e-01,-3.143379043769643083e-02
5.610000000000000542e-01,-2.258296311621715846e-01,2.477011304332684682e-01,8.588698580317422060e-02
5.620000000000000551e-01,-3.196812598034497466e-01,2.696625328292798218e-01,1.852101615263425094e-01
5.629999999999999449e-01,-3.043462546663227575e-01,2.028634716395507631e-01,2.100190931531208394e-01
5.639999999999999458e-01,-2.051901011094699745e-01,8.545543767457941531e-02,1.719439767416656717e-01
5.649999999999999467e-01,-1.145866392935381353e-02,-9.306040092284731391e-02,5.056691945276966388e-02
5.659999999999999476e-01,1.908841471827369407e-01,-2.174112403180201158e-01,-7.305849442531997529e-02
5.669999999999999485e-01,3.052321945726899632e-01,-2.678805000111648682e-01,-1.595233543605393267e-01
5.679999999999999494e-01,3.378632336057874608e-01,-2.455059408840354340e-01,-1.997555623331753738e-01
5.689999999999999503e-01,2.318925885242040796e-01,-9.256543044133550002e-02,-1.906125796193067490e-01
5.699999999999999512e-01,3.638745633317237715e-02,5.199891023127049816e-02,-1.069333643799513928e-01
5.709999999999999520e-01,-1.662938097415649075e-01,1.901267735768220057e-01,2.343799361063161196e-02
5.719999999999999529e-01,-2.990785883809472523e-01,2.814467117287349773e-01,1.231965850185788441e-01
5.729999999999999538e-01,-3.402718006420055175e-01,2.397910798584743652e-01,1.919498650697733233e-01
5.739999999999999547e-01,-2.544715869575778222e-01,1.305158895257096940e-01,1.943667674553408720e-01
5.749999999999999556e-01,-8.014904018776410066e-02,-5.474428698120862441e-02,1.404015897549063807e-01
5.759999999999999565e-01,1.065286852009472984e-01,-1.796887241065530383e-01,1.231354730708328349e-02
5.769999999999999574e-01,2.792181036281302098e-01,-2.553546136859156102e-01,-1.049166540996419039e-01
5.779999999999999583e-01,3.424267778378513594e-01,-2.534451378181873382e-01,-1.924781159902617389e-01
5.789999999999999591e-01,2.934512556839874442e-01,-1.576553024974630401e-01,-2.129903982963937958e-01
5.799999999999999600e-01,1.469676381798502018e-01,3.799298234768556590e-03,-1.506774173926298810e-01
5.809999999999999609e-01,-5.692171840454206960e-02,1.711382554567013881e-01,-3.935407490285534188e-02
5.819999999999999618e-01,-2.315904391720978728e-01,2.567398143579601166e-01,5.984764106403547834e-02
5.829999999999999627e-01,-3.389111212842291221e-01,2.684930678019998296e-01,1.532985156852223474e-01
5.839999999999999636e-01,-3.103108234366651619e-01,1.888022868274355504e-01,2.071323442465887454e-01
5.849999999999999645e-01,-2.023990489513687596e-01,2.819011134385738734e-02,1.871480855768432872e-01
5.859999999999999654e-01,4.792217198632367156e-03,-1.516649870185772520e-01,9.120655370762537073e-02
5.869999999999999662e-01,2.060351867896119682e-01,-2.461916503429149583e-01,-3.352387778163529175e-02
5.879999999999999671e-01,2.951022366946472464e-01,-2.945500458698834811e-01,-1.255022139890445698e-01
5.889999999999999680e-01,3.315195131592217903e-01,-2.052960109631844499e-01,-1.861508932992272103e-01
5.899999999999999689e-01,2.393165659382694155e-01,-6.688684379672089897e-02,-2.037328787938958996e-01
5.909999999999999698e-01,4.805973186617077536e-02,9.551891324534281247e-02,-1.307039418627054805e-01
5.919999999999999707e-01,-1.435203913544919607e-01,2.277199970126590756e-01,6.181538231398919434e-03
5.929999999999999716e-01,-2.877232086038785663e-01,2.768027500833623034e-01,1.042361666500458833e-01
5.939999999999999725e-01,-3.378590560699027412e-01,2.267993796140198859e-01,1.677285268931501261e-01
5.949999999999999734e-01,-2.533076704836635384e-01,9.565324330775171191e-02,1.931064548389987978e-01
5.959999999999999742e-01,-9.800923884910905937e-02,-7.258127791892099445e-02,1.550233758622132918e-01
5.969999999999999751e-01,1.074149987169483039e-01,-2.008008302914323639e-01,4.786018119519382108e-02
5.979999999999999760e-01,2.652525417942627750e-01,-2.642899327864986492e-01,-6.588273628970793550e-02
5.989999999999999769e-01,3.366173281731886235e-01,-2.260943717527882646e-01,-1.554588870340050943e-01
5.999999999999999778e-01,2.811456887116890457e-01,-1.233683803029054643e-01,-1.880074338304034143e-01
6.009999999999999787e-01,1.424648765414248952e-01,2.085112680901329146e-02,-1.842340631970830200e-01
6.019999999999999796e-01,-5.085146649955430559e-02,1.866527263112361112e-01,-8.943806522988637098e-02
6.029999999999999805e-01,-2.221910613623087061e-01,2.690621395824119300e-01,5.064720966818156422e-02
6.039999999999999813e-01,-3.338513055989880685e-01,2.488540920402568801e-01,1.362985075210508545e-01
6.049999999999999822e-01,-3.250177128018109651e-01,1.648198571737648777e-01,1.983427512233081613e-01
6.059999999999999831e-01,-1.940046582864216329e-01,2.599631104202850592e-03,1.830780877503190296e-01
6.069999999999999840e-01,-5.333283516073416934e-03,-1.447194542890792579e-01,9.132179804246176591e-02
6.079999999999999849e-01,2.051614131001972263e-01,-2.388390704225879790e-01,1.488573083539555808e-02
6.089999999999999858e-01,3.232914671167460563e-01,-2.657879783790310646e-01,-1.047589889697557314e-01
6.099999999999999867e-01,3.259218614872169129e-01,-1.808932487864889360e-01,-1.937917885580750232e-01
6.109999999999999876e-01,2.487693862039105919e-01,-3.367187745545038857e-02,-2.079492812423542891e-01
6.119999999999999885e-01,6.339759904088176912e-02,1.289004193355827166e-01,-1.328410900014923013e-01
6.129999999999999893e-01,-1.429218483510134863e-01,2.506227609562505232e-01,-1.765983244134491578e-02
6.139999999999999902e-01,-2.853144111020285423e-01,2.706707372866849481e-01,9.203345713217110646e-02
6.149999999999999911e-01,-3.398998818745584405e-01,1.958600898149406855e-01,1.635443072669955089e-01
6.159999999999999920e-01,-2.718557139191891125e-01,8.672776085039182736e-02,2.073380240366635985e-01
6.169999999999999929e-01,-9.853445456100655420e-02,-1.023310387379400693e-01,1.497213942506869511e-01
6.179999999999999938e-01,9.047808212088198632e-02,-2.207569123969849445e-01,7.669994535695039140e-02
6.189999999999999947e-01,2.558837508565256491e-01,-2.731026710349129250e-01,-5.680734064917829229e-02
6.199999999999999956e-01,3.527710404674216926e-01,-2.304092693233338873e-01,-1.482077115201817785e-01
6.209999999999999964e-01,2.732906912612632633e-01,-1.052888005880020517e-01,-1.969540480804425064e-01
6.219999999999999973e-01,1.499785023142511109e-01,7.075691618768602253e-02,-1.849503982515408596e-01
6.229999999999999982e-01,-5.032989153406575850e-02,2.145893442981282040e-01,-1.099347308888323355e-01
6.239999999999999991e-01,-2.262004162860018208e-01,2.799930345032560219e-01,7.099907004438937852e-03
6.250000000000000000e-01,-3.262119993803637708e-01,2.609711925588230619e-01,1.550816954739870079e-01
6.260000000000000009e-01,-2.975078879347020644e-01,1.223287542226626917e-01,2.083703615841250301e-01
6.270000000000000018e-01,-1.867950722983327261e-01,-2.379779783775630778e-02,1.903134607379006749e-01
6.280000000000000027e-01,-5.153832973627261831e-03,-1.773833754616633840e-01,1.420905363176469816e-01
6.290000000000000036e-01,2.026877087908757757e-01,-2.659163941184348179e-01,1.620231975092876336e-02
6.300000000000000044e-01,3.155096720522031495e-01,-2.428881723628601996e-01,-9.860869202840284731e-02
6.310000000000000053e-01,3.296344884672857689e-01,-1.621439227996999133e-01,-1.788262350618214647e-01
6.320000000000000062e-01,2.313388687471204519e-01,1.896195194296798094e-03,-2.065834737335932314e-01
6.330000000000000071e-01,6.046693259450842267e-02,1.530364180905738336e-01,-1.536460223690923887e-01
6.340000000000000080e-01,-1.381746176317017183e-01,2.466696246731337749e-01,-5.295272526870686142e-02
6.350000000000000089e-01,-2.995345876913146355e-01,2.809104184011287364e-01,6.793346204001665667e-02
6.360000000000000098e-01,-3.175280393363902331e-01,1.812871996904003580e-01,1.573883863391956350e-01
6.370000000000000107e-01,-2.616822114018160783e-01,3.402208713537185902e-02,1.930715454483926397e-01
6.380000000000000115e-01,-8.586354063372643453e-02,-1.582302930972852018e-01,1.673031122214224953e-01
6.390000000000000124e-01,9.749210139877326209e-02,-2.380798192847878303e-01,8.872217808666432726e-02
6.400000000000000133e-01,2.513709269530639001e-01,-2.817741180050380989e-01,-2.791701754890874715e-02
6.410000000000000142e-01,3.331045299928256376e-01,-2.049727419245873927e-01,-1.250704048918255262e-01
6.420000000000000151e-01,3.028838333806819216e-01,-5.924986985374819382e-02,-1.900725044021972510e-01
6.430000000000000160e-01,1.416202146517047400e-01,9.714741100704329946e-02,-1.873961133310898530e-01
6.440000000000000169e-01,-5.606208273541241766e-02,2.230581183064102024e-01,-1.091583220714537894e-01
6.450000000000000178e-01,-2.169073765197646608e-01,2.688066608124404233e-01,4.231326631995745331e-03
6.460000000000000187e-01,-3.292541777256915436e-01,2.299948841452501835e-01,1.139431397854917816e-01
6.470000000000000195e-01,-3.218366034448008617e-01,8.522602227280429155e-02,1.930954016469600965e-01
6.480000000000000204e-01,-1.945908585185613937e-01,-7.359398123284119353e-02,2.078918572718312929e-01
6.490000000000000213e-01,1.002301940514274507e-02,-1.921529226323910600e-01,1.251316064387036076e-01
6.500000000000000222e-01,2.131959914018358992e-01,-2.652793409923236423e-01,5.790288574969550822e-02
6.510000000000000231e-01,3.114098635936248805e-01,-2.473902300365704854e-01,-7.192780070158727446e-02
6.520000000000000240e-01,3.283596007030807895e-01,-1.401445850824970529e-01,-1.690162382010970965e-01
6.530000000000000249e-01,2.307094658355816896e-01,4.142930305095338106e-02,-1.916567194530567342e-01
6.540000000000000258e-01,4.508721408572276268e-02,1.736799238689943903e-01,-1.774773834974203435e-01
6.550000000000000266e-01,-1.553954096391211015e-01,2.444119117513077200e-01,-7.636668678466634885e-02
6.560000000000000275e-01,-3.047204995749792089e-01,2.382940738970603101e-01,2.756018565983619703e-02
6.570000000000000284e-01,-3.419903323490222635e-01,1.527300355731057435e-01,1.542129801440881576e-01
6.580000000000000293e-01,-2.611403690748319018e-01,3.868916167928942041e-03,2.074817684629362002e-01
6.590000000000000302e-01,-9.391410181693650439e-02,-1.635127312896687835e-01,1.786423712237179828e-01
6.600000000000000311e-01,1.004581787989863445e-01,-2.557178895626824322e-01,1.202158103522352195e-01
6.610000000000000320e-01,2.876856332125863891e-01,-2.370450602725063527e-01,1.223604550082372329e-03
6.620000000000000329e-01,3.386290384086056426e-01,-1.707228498430302943e-01,-1.385179892315365757e-01
6.630000000000000338e-01,3.081721258638436822e-01,-2.113016200765150884e-02,-1.889691315109982839e-01
6.640000000000000346e-01,1.369166984607356752e-01,1.342722715738824679e-01,-1.966964219530381863e-01
6.650000000000000355e-01,-6.381130192441866744e-02,2.518879910613255335e-01,-1.451664907271924265e-01
6.660000000000000364e-01,-2.419973001455833772e-01,2.776993632027867642e-01,-4.293890703682864268e-02
6.670000000000000373e-01,-3.358706746791763065e-01,1.869049848520184798e-01,9.642672473942676126e-02
6.680000000000000382e-01,-3.131073223480931311e-01,4.962412282442082989e-02,1.825229785201878396e-01
6.690000000000000391e-01,-1.886513748799619195e-01,-1.020245783220107005e-01,2.007706167404076647e-01
6.700000000000000400e-01,4.012514631899020967e-03,-2.425618698606831491e-01,1.648235566719699619e-01
6.710000000000000409e-01,1.990188601574179872e-01,-2.828494425972591375e-01,7.667143995276813617e-02
6.720000000000000417e-01,3.060583347730516657e-01,-2.234674769505695380e-01,-4.826136553464709100e-02
6.730000000000000426e-01,3.073938299958416387e-01,-8.942602426765983159e-02,-1.442475427255937304e-01
6.740000000000000435e-01,2.385372648640653181e-01,7.086711850322738315e-02,-2.063524325192512276e-01
6.750000000000000444e-01,3.185922782556846466e-02,2.027641959659717830e-01,-1.689229790227226857e-01
6.760000000000000453e-01,-1.493988730028409373e-01,2.672100140361591269e-01,-1.035238635294543352e-01
6.770000000000000462e-01,-3.117582494619538513e-01,2.494768137333700508e-01,-2.724337639734314420e-03
6.780000000000000471e-01,-3.314698300523855057e-01,1.149354438709563192e-01,1.209431063237128567e-01
6.790000000000000480e-01,-2.705094625437799438e-01,-5.441036663716491278e-02,1.932401137049774842e-01
6.800000000000000488e-01,-8.937736850425465063e-02,-1.837338676059918352e-01,2.099583876396740323e-01
6.810000000000000497e-01,1.018376993903954697e-01,-2.776565468664570768e-01,1.370250058358755962e-01
6.820000000000000506e-01,2.708089519613852691e-01,-2.433546780066273563e-01,2.483004834095667648e-02
6.830000000000000515e-01,3.239779803721065665e-01,-1.507914416843072758e-01,-9.699810883360901470e-02
6.840000000000000524e-01,2.978360833118912643e-01,1.422806114470374743e-02,-1.721804860449810404e-01
6.850000000000000533e-01,1.295030652716787356e-01,1.695116148582556381e-01,-1.988028117292913732e-01
6.860000000000000542e-01,-6.312829937212620368e-02,2.617497894349463117e-01,-1.549377878780716089e-01
6.870000000000000551e-01,-2.364441042035674290e-01,2.546540339828199939e-01,-5.195194232931817785e-02
6.879999999999999449e-01,-3.155441934396747139e-01,1.711728494953413393e-01,3.671567268149793228e-02
6.889999999999999458e-01,-2.972170120132365256e-01,1.801232080729065627e-02,1.731276364625873587e-01
6.899999999999999467e-01,-1.812957097302275167e-01,-1.345181397133725920e-01,1.942005690242354921e-01
6.909999999999999476e-01,2.014640616967855111e-02,-2.454164330051507026e-01,1.925290326998427004e-01
6.919999999999999485e-01,2.021262900237468241e-01,-2.703988207565252710e-01,1.050162073907141558e-01
6.929999999999999494e-01,3.351856460809007343e-01,-1.971050271980833712e-01,-5.509557121678858305e-02
6.939999999999999503e-01,3.290883205907323417e-01,-5.752159031985178833e-02,-1.404367913034204329e-01
6.949999999999999512e-01,2.228538103290656214e-01,9.713580921617609443e-02,-1.762382792702106293e-01
6.959999999999999520e-01,3.887068581287905777e-02,2.264845184804511469e-01,-1.943934840954352483e-01
6.969999999999999529e-01,-1.621697881755363724e-01,2.770710627166094175e-01,-1.147952835322114673e-01
6.979999999999999538e-01,-3.269871084009063900e-01,1.998177044304443040e-01,-2.691108426209273471e-02
6.989999999999999547e-01,-3.591572748918666069e-01,5.952860086823816288e-02,1.090422759450906109e-01
6.999999999999999556e-01,-2.564845595052954175e-01,-7.623778486562947376e-02,1.785062237685983433e-01
7.009999999999999565e-01,-1.050333912538471415e-01,-2.104739231287149903e-01,2.094698976467613272e-01
7.019999999999999574e-01,9.895880490642364191e-02,-2.569985641624179529e-01,1.540201955821106361e-01
7.029999999999999583e-01,2.709202806921547357e-01,-2.403899159487991322e-01,3.811145503525454475e-02
7.039999999999999591e-01,3.475953389111748892e-01,-1.092146600510849608e-01,-5.606495020551883340e-02
7.049999999999999600e-01,2.670450331084089357e-01,3.349636352041297088e-02,-1.826223496926057399e-01
7.059999999999999609e-01,1.350240597727198344e-01,1.877865747649405115e-01,-2.056643825256608826e-01
7.069999999999999618e-01,-7.020912259794766241e-02,2.390034843673348175e-01,-1.635091233869750416e-01
7.079999999999999627e-01,-2.198555645805652381e-01,2.503890579340021794e-01,-7.963583585080437344e-02
7.089999999999999636e-01,-3.399516020233199765e-01,1.498337819469555132e-01,2.277427121737489110e-02
7.099999999999999645e-01,-3.166116381436539506e-01,-1.536188794860066792e-02,1.430975568728505842e-01
7.109999999999999654e-01,-1.640308180944367866e-01,-1.568012094444775073e-01,1.872890475250365838e-01
7.119999999999999662e-01,1.634492459636713649e-02,-2.542552005440904539e-01,2.023383754036436055e-01
7.129999999999999671e-01,2.012558808215702266e-01,-2.566887982926769896e-01,1.139073460565503682e-01
7.139999999999999680e-01,3.259332370684819291e-01,-1.628896052663386662e-01,1.695294287025934585e-02
7.149999999999999689e-01,3.328069601204193817e-01,-7.286684999580011514e-03,-9.236877013266783787e-02
7.159999999999999698e-01,2.074958813818635339e-01,1.459337899253097537e-01,-1.734173503555835327e-01
7.169999999999999707e-01,2.335854452062349762e-02,2.491758803685676649e-01,-2.049746181808460577e-01
7.179999999999999716e-01,-1.493115320188229955e-01,2.839641055216478582e-01,-1.329749110517444988e-01
7.189999999999999725e-01,-2.928295287327051799e-01,1.843248023556074422e-01,-2.438401743138539704e-02
7.199999999999999734e-01,-3.245220142282549403e-01,4.801148487304870288e-02,8.040864844752836083e-02
7.209999999999999742e-01,-2.507846819824244289e-01,-1.328231089492897254e-01,1.781158839585103848e-01
7.219999999999999751e-01,-9.736377650276953344e-02,-2.384800578197996956e-01,2.040718784580311806e-01
7.229999999999999760e-01,1.135734739138756361e-01,-2.816106286785608481e-01,1.665432627185059189e-01
7.239999999999999769e-01,2.772550890211047392e-01,-2.181484664764180847e-01,7.828453235348897810e-02
7.249999999999999778e-01,3.554073008685921242e-01,-8.036186520588221860e-02,-4.928510686816263420e-02
7.259999999999999787e-01,2.827417889571010035e-01,7.574648455520675838e-02,-1.417772136863587051e-01
7.269999999999999796e-01,1.270689345613588150e-01,2.073519226100535573e-01,-2.116960742311698451e-01
7.279999999999999805e-01,-7.223725349618030644e-02,2.772597200526321082e-01,-1.950369010746655918e-01
7.289999999999999813e-01,-2.281513054340006119e-01,2.389469386967908171e-01,-9.221763297457570563e-02
7.299999999999999822e-01,-3.304666587466273953e-01,1.063558369342439969e-01,-2.440567346582826768e-04
7.309999999999999831e-01,-3.130097694155298260e-01,-3.655848387577786962e-02,1.206353766292476842e-01
7.319999999999999840e-01,-2.064899558251485079e-01,-2.032062375315196734e-01,1.823707839864379399e-01
7.329999999999999849e-01,1.431668615494366935e-02,-2.640012581084603682e-01,1.936150949799531618e-01
7.339999999999999858e-01,1.995217693934815961e-01,-2.431772559596073746e-01,1.367356288410940257e-01
7.349999999999999867e-01,3.201849971480174029e-01,-1.299294168312032649e-01,1.524413486633105323e-02
7.359999999999999876e-01,3.135933102365981995e-01,3.434746987647752797e-02,-8.898151493713843396e-02
7.369999999999999885e-01,2.261268764470875658e-01,1.650769865263043423e-01,-1.864936631281255974e-01
7.379999999999999893e-01,3.110733290726816133e-02,2.574029912764737582e-01,-2.013466763944027349e-01
7.389999999999999902e-01,-1.590800887772473582e-01,2.616085424798400560e-01,-1.549306913443123657e-01
7.399999999999999911e-01,-3.004339808552783930e-01,1.840622182847603261e-01,-5.718348130714828031e-02
7.409999999999999920e-01,-3.365872435882018565e-01,1.956062141877621535e-02,6.971457644991341240e-02
7.419999999999999929e-01,-2.687911078606630699e-01,-1.377109880411932497e-01,1.756647800566727424e-01
7.429999999999999938e-01,-7.598559710707938897e-02,-2.562531983064824104e-01,1.996990940990873431e-01
7.439999999999999947e-01,1.179857823688841290e-01,-2.598155032614433146e-01,1.750261329833319168e-01
7.449999999999999956e-01,2.957690717491249788e-01,-1.813532498396525083e-01,9.237177816478694958e-02
7.459999999999999964e-01,3.434343309622182594e-01,-4.655824938340757946e-02,-2.021962518931641126e-02
7.469999999999999973e-01,2.975010873537249356e-01,1.212494382095783002e-01,-1.471457651332144234e-01
7.479999999999999982e-01,1.469850814457257238e-01,2.496692978114967987e-01,-1.924294203043768470e-01
7.489999999999999991e-01,-7.149661218409261720e-02,2.628011337245980128e-01,-1.972140362677003711e-01
7.500000000000000000e-01,-2.449592120921889604e-01,2.071949619853812319e-01,-1.273084025242653960e-01
7.510000000000000009e-01,-3.245000419801634672e-01,6.280301792543678541e-02,-1.060266689313719111e-02
7.520000000000000018e-01,-3.256687096035664197e-01,-1.143104392280158838e-01,1.014933316067255648e-01
7.530000000000000027e-01,-2.003175405456768254e-01,-2.039548755284462389e-01,1.901774648821610847e-01
7.540000000000000036e-01,1.274776865753075861e-02,-2.690931998714246598e-01,1.926573970665797497e-01
7.550000000000000044e-01,1.988473607287306877e-01,-2.208172660407124732e-01,1.572195669601573476e-01
7.560000000000000053e-01,3.259122680136674610e-01,-1.053069350099137824e-01,4.752175084918862369e-02
7.570000000000000062e-01,3.329506581162948176e-01,5.547215109159762958e-02,-5.882406205340977301e-02
7.580000000000000071e-01,2.156371510552810011e-01,2.021771459759537926e-01,-1.678813634684682143e-01
7.590000000000000080e-01,2.688261367113842573e-02,2.794395322441939888e-01,-2.201900523495716466e-01
7.600000000000000089e-01,-1.610332157154210353e-01,2.413192761558842214e-01,-1.638996255437677185e-01
7.610000000000000098e-01,-2.953270561818809870e-01,1.270091862806814742e-01,-8.315632178858693713e-02
7.620000000000000107e-01,-3.488482003254698149e-01,-2.024911827063915343e-02,4.224804456174698075e-02
7.630000000000000115e-01,-2.487758742245509136e-01,-1.905810602521021135e-01,1.520320042352840684e-01
7.640000000000000124e-01,-8.895848599490371877e-02,-2.653727973086150715e-01,2.411577721159084420e-01
7.650000000000000133e-01,1.179184145943433515e-01,-2.507896166657553327e-01,1.953563891704351574e-01
7.660000000000000142e-01,2.797361419641283820e-01,-1.521748198358293391e-01,1.239787486367023156e-01
7.670000000000000151e-01,3.489739193812673723e-01,-1.866793186158462832e-03,1.077558824040837464e-02
7.680000000000000160e-01,3.013034945343355253e-01,1.427313832287170903e-01,-9.916388990762049771e-02
7.690000000000000169e-01,1.350752698846232058e-01,2.397425607468813280e-01,-1.671092641856093686e-01
7.700000000000000178e-01,-5.884183016151095513e-02,2.793478665008697903e-01,-1.916677213874660168e-01
7.710000000000000187e-01,-2.313832005627215749e-01,1.898733565682871605e-01,-1.369417245916761394e-01
7.720000000000000195e-01,-3.353568537848324316e-01,3.690426344890333776e-02,-6.091680096964826457e-02
7.730000000000000204e-01,-3.234859750263858746e-01,-1.072110431660943802e-01,8.306905597335952074e-02
7.740000000000000213e-01,-1.878398908309053261e-01,-2.249921554454520078e-01,1.701618725786224751e-01
7.750000000000000222e-01,1.026081039347192256e-03,-2.626707537503308876e-01,2.116882147528867109e-01
7.760000000000000231e-01,2.089812128220802367e-01,-2.102440262039320940e-01,1.603949234148262792e-01
7.770000000000000240e-01,3.041935745887047182e-01,-6.659571705939434927e-02,6.472878203377470385e-02
7.780000000000000249e-01,3.414589624829073577e-01,9.141009993875869044e-02,-4.502204718335042072e-02
7.790000000000000258e-01,2.229387957270272669e-01,2.017603394848474507e-01,-1.594591840493077284e-01
7.800000000000000266e-01,2.321282017032638700e-02,2.688478757187795498e-01,-2.195454169313187376e-01
7.810000000000000275e-01,-1.670238011579738280e-01,2.408828885423903443e-01,-1.953953237310940838e-01
7.820000000000000284e-01,-3.098441256886057538e-01,1.088403575437288384e-01,-1.074041159744578561e-01
7.830000000000000293e-01,-3.439152290223592146e-01,-5.769853501085307756e-02,7.596709560199461572e-03
7.840000000000000302e-01,-2.516667522190779160e-01,-2.019974543395225419e-01,1.378250379040359408e-01
7.850000000000000311e-01,-9.461865731445524841e-02,-2.687556304931825180e-01,1.921317941750689262e-01
7.860000000000000320e-01,1.128231452526542167e-01,-2.534452529689900091e-01,1.996912066184539092e-01
7.870000000000000329e-01,2.714000481527139019e-01,-1.410897030672506602e-01,1.169435707867562541e-01
7.880000000000000338e-01,3.420005564934575082e-01,1.978382102142717952e-02,3.242640922592901487e-02
7.890000000000000346e-01,2.969824688363214560e-01,1.714237233256538373e-01,-8.194470229962551311e-02
7.900000000000000355e-01,1.247216281798147336e-01,2.625927018876728081e-01,-1.770991945860164452e-01
7.910000000000000364e-01,-6.195092943886352371e-02,2.526556092282893906e-01,-2.062831084092296707e-01
7.920000000000000373e-01,-2.544756478641574948e-01,1.747903706982932293e-01,-1.404347307223001717e-01
7.930000000000000382e-01,-3.407718131748256329e-01,8.505846156594028609e-03,-6.650987190775861646e-02
7.940000000000000391e-01,-3.117692177276902843e-01,-1.520897821279059425e-01,3.895072553288661532e-02
7.950000000000000400e-01,-1.509339639406542255e-01,-2.450696798070623461e-01,1.653541748895889785e-01
7.960000000000000409e-01,3.413950320777396630e-02,-2.802201536973312757e-01,2.071558084074316686e-01
7.970000000000000417e-01,2.115162470804403394e-01,-1.862156318839402191e-01,1.675907166495559930e-01
7.980000000000000426e-01,3.398687897411228342e-01,-4.668270974025653247e-02,8.501591339636017930e-02
7.990000000000000435e-01,3.175426062561133578e-01,1.374478118161221174e-01,-2.742343250812576128e-02
8.000000000000000444e-01,2.280241659905363483e-01,2.361998899921821660e-01,-1.317828280735306445e-01
8.010000000000000453e-01,2.306676561529375988e-02,2.654157126893708640e-01,-2.000768419131348508e-01
8.020000000000000462e-01,-1.317092772300499370e-01,2.034079653614384031e-01,-1.869290892650707914e-01
8.030000000000000471e-01,-3.041236083104562060e-01,7.684236896541150885e-02,-1.202796254272251036e-01
8.040000000000000480e-01,-3.413391705991328240e-01,-1.018367524696837528e-01,-4.712665453988273620e-03
8.050000000000000488e-01,-2.662753877595143148e-01,-2.208530792744753113e-01,8.910661665748438598e-02
8.060000000000000497e-01,-8.548605147775102664e-02,-2.658950090210234762e-01,1.818449896510903885e-01
8.070000000000000506e-01,1.354102745521753859e-01,-2.279407116206063899e-01,2.013528011328831746e-01
8.080000000000000515e-01,2.858485107431532057e-01,-9.245779910100197785e-02,1.634982993893948910e-01
8.090000000000000524e-01,3.321460227950520649e-01,7.107229499335254719e-02,5.444339794538653743e-02
8.100000000000000533e-01,2.712353912145603618e-01,1.981474511564091656e-01,-7.406549348214684636e-02
8.110000000000000542e-01,1.199299615130431373e-01,2.644975934081487678e-01,-1.751178115512044553e-01
8.120000000000000551e-01,-5.851761159822510550e-02,2.387523563750003353e-01,-2.066700282734876548e-01
8.129999999999999449e-01,-2.452319119278809911e-01,1.448500333452530098e-01,-1.668676967950578072e-01
8.139999999999999458e-01,-3.152738483488127796e-01,-3.631233263805783845e-02,-7.577720843628989178e-02
8.149999999999999467e-01,-2.931651492575257922e-01,-1.764364029993908400e-01,3.120227447025404610e-02
8.159999999999999476e-01,-1.779448028876841892e-01,-2.616557735964174514e-01,1.381438942892827537e-01
8.169999999999999485e-01,3.683061145538030212e-02,-2.528725909080389300e-01,2.158475402329695647e-01
8.179999999999999494e-01,2.088814012385689090e-01,-1.746764062536601270e-01,1.994553427311412108e-01
8.189999999999999503e-01,3.192113877836613711e-01,-1.317437511206724469e-02,1.153107863317813092e-01
8.199999999999999512e-01,3.234136786148145148e-01,1.542200113312000576e-01,-6.243344253187935525e-03
8.209999999999999520e-01,2.333972160287090258e-01,2.516081449807892056e-01,-1.110180185444480938e-01
8.219999999999999529e-01,3.583568398715301917e-02,2.662483356620442554e-01,-1.729146745689741083e-01
8.229999999999999538e-01,-1.469405903347895670e-01,1.807130379932220809e-01,-1.844901308222765823e-01
8.239999999999999547e-01,-3.021890479361300508e-01,3.234412597169430970e-02,-1.377751716069965937e-01
8.249999999999999556e-01,-3.198050264973722467e-01,-1.369384035809828593e-01,-3.366711127935634318e-02
8.259999999999999565e-01,-2.578284400546106414e-01,-2.359639535722280745e-01,9.185588443972424189e-02
8.269999999999999574e-01,-7.733045240800036357e-02,-2.720437650110669736e-01,1.703141368000174183e-01
8.279999999999999583e-01,1.240809465227605823e-01,-2.078680217140726483e-01,2.098529664483466395e-01
8.289999999999999591e-01,2.757295182034185665e-01,-7.681127132256850010e-02,1.623223755908953791e-01
8.299999999999999600e-01,3.567813305930123691e-01,1.035420582214554158e-01,7.540280138554340816e-02
8.309999999999999609e-01,2.949658220800681629e-01,2.186780931234114933e-01,-3.386755027359241582e-02
8.319999999999999618e-01,1.272725039539092662e-01,2.536268858938092174e-01,-1.436222193277744974e-01
8.329999999999999627e-01,-8.010487323361269174e-02,2.223952114902733035e-01,-2.123985217369982748e-01
8.339999999999999636e-01,-2.557760901371266549e-01,8.320820530282115046e-02,-2.000904734966939269e-01
8.349999999999999645e-01,-3.275523769830875898e-01,-5.763543175341557384e-02,-1.045459873485305585e-01
8.359999999999999654e-01,-3.068990481130154380e-01,-2.154350977363706787e-01,2.166846697852979012e-03
8.369999999999999662e-01,-1.458605175188127101e-01,-2.546421797669768949e-01,1.112351463951854330e-01
8.379999999999999671e-01,4.767426427160577351e-02,-2.182632925149255165e-01,1.977946040144086537e-01
8.389999999999999680e-01,2.068640784637187369e-01,-1.152970811678692004e-01,2.095813906325315334e-01
8.399999999999999689e-01,3.178768704014330870e-01,3.689446790485029909e-02,1.259204019752175052e-01
8.409999999999999698e-01,3.108369878661653152e-01,1.789696066528517482e-01,2.207327466542537836e-02
8.419999999999999707e-01,2.211429429300516836e-01,2.736635287649115122e-01,-6.930009588413751920e-02
8.429999999999999716e-01,3.102483362365843211e-02,2.433556102769101059e-01,-1.795375868377137585e-01
8.439999999999999725e-01,-1.730345212989241321e-01,1.599855635603759652e-01,-2.206678533351759119e-01
8.449999999999999734e-01,-2.876663373596675122e-01,-9.933759758039065885e-03,-1.443252131261268945e-01
8.459999999999999742e-01,-3.246081934197435070e-01,-1.365768785480686309e-01,-6.925035348787320078e-02
8.469999999999999751e-01,-2.418594010165750208e-01,-2.604276596550145206e-01,3.602962493026193314e-02
8.479999999999999760e-01,-9.113290832184749168e-02,-2.446782839079803262e-01,1.466697217800058406e-01
8.489999999999999769e-01,1.182663438969326630e-01,-1.900167177541806363e-01,1.904824029567540322e-01
8.499999999999999778e-01,2.818064547381137208e-01,-3.989475901909397826e-02,1.736621783551416387e-01
8.509999999999999787e-01,3.486778982705396324e-01,1.161329848111800345e-01,1.009750181683780473e-01
8.519999999999999796e-01,2.852315461641236061e-01,2.479543392170918681e-01,-1.376778809024427862e-02
8.529999999999999805e-01,1.328636960307106596e-01,2.614174659959285218e-01,-1.457235074481650905e-01
8.539999999999999813e-01,-8.362852831924805219e-02,2.062712250504138145e-01,-1.880979722978180779e-01
8.549999999999999822e-01,-2.459707916891429036e-01,5.435033088929822065e-02,-1.862411759483812435e-01
8.559999999999999831e-01,-3.218441610286628118e-01,-9.820419689499208793e-02,-1.260594959818981953e-01
8.569999999999999840e-01,-3.056993091738853252e-01,-2.334481666364187080e-01,-1.193754301157205419e-02
8.579999999999999849e-01,-1.704533088868988022e-01,-2.773815372387291589e-01,9.971393110691252615e-02
8.589999999999999858e-01,1.695074819854561557e-02,-2.160784024399873549e-01,1.799065397057616478e-01
8.599999999999999867e-01,2.139158213399497410e-01,-9.210884766064718343e-02,2.049330751693779484e-01
8.609999999999999876e-01,3.327144007279471682e-01,7.632552839972717162e-02,1.674959850727698873e-01
8.619999999999999885e-01,3.044332355938114687e-01,1.985699470855726290e-01,5.720804111453928892e-02
8.629999999999999893e-01,2.152732158466616752e-01,2.609338673712805479e-01,-8.095137063808116595e-02
8.639999999999999902e-01,4.046687463172961990e-02,2.368439677686469957e-01,-1.426146514286642242e-01
8.649999999999999911e-01,-1.649979420023480470e-01,1.218467403831551832e-01,-2.061875678106761534e-01
8.659999999999999920e-01,-2.967365364242932624e-01,-3.094244167686915903e-02,-1.865754446083057183e-01
8.669999999999999929e-01,-3.521052034357973204e-01,-1.963297979063806931e-01,-9.234199374744683775e-02
8.679999999999999938e-01,-2.451390706672249009e-01,-2.707774133948778750e-01,3.004961280112959654e-02
8.689999999999999947e-01,-7.005986460029724194e-02,-2.415552845513378455e-01,1.325371133226583287e-01
8.699999999999999956e-01,1.135700368614706995e-01,-1.537364183727243927e-01,1.976957874926728587e-01
8.709999999999999964e-01,2.858739281615995664e-01,7.600717616446673978e-03,1.788979989683235627e-01
8.719999999999999973e-01,3.543068369270562235e-01,1.522710660283525530e-01,1.040891468018615706e-01
8.729999999999999982e-01,2.821570638785661500e-01,2.452175495043511788e-01,-6.760811649327988981e-04
8.739999999999999991e-01,1.293509509103608068e-01,2.654658788410017012e-01,-1.175616077748176946e-01
8.750000000000000000e-01,-8.507096154080068251e-02,1.708589831911403178e-01,-1.915644508221820697e-01
8.760000000000000009e-01,-2.339626765323731539e-01,3.103135392665484424e-02,-1.910626652298787753e-01
8.770000000000000018e-01,-3.538380858802029905e-01,-1.074406133203669872e-01,-1.428003790852844512e-01
8.780000000000000027e-01,-3.032639458063066673e-01,-2.323488996429560471e-01,-4.043414434120659595e-02
8.790000000000000036e-01,-1.520057262266886755e-01,-2.803074895501589947e-01,8.706158263609409254e-02
8.800000000000000044e-01,1.074978275151100213e-02,-1.967104572385843797e-01,1.630515082697763518e-01
8.810000000000000053e-01,2.018760445967673622e-01,-5.327501599947256916e-02,1.952854028580693069e-01
8.820000000000000062e-01,3.201134889616392698e-01,9.892427612824038208e-02,1.600188824408936283e-01
8.830000000000000071e-01,3.056669318876353292e-01,2.295299302883160308e-01,7.967604422875380898e-02
8.840000000000000080e-01,2.207756948293731758e-01,2.967460044420434095e-01,-4.865350023233164928e-02
8.850000000000000089e-01,3.651880410858781428e-02,2.204322303020211371e-01,-1.538161390630093939e-01
8.860000000000000098e-01,-1.734349088431090535e-01,9.443923035258293408e-02,-2.082466076321805581e-01
8.870000000000000107e-01,-3.014533539359254832e-01,-8.869875551691075444e-02,-1.810104345422033634e-01
8.880000000000000115e-01,-3.302358672074665602e-01,-2.100973023776439574e-01,-1.066547454934548972e-01
8.890000000000000124e-01,-2.419297746460496445e-01,-2.745363655325649410e-01,2.480611385010030989e-03
8.900000000000000133e-01,-7.058492764371500361e-02,-2.405557362249833853e-01,1.319769818319187493e-01
8.910000000000000142e-01,1.082346431490098654e-01,-1.084122466521794670e-01,1.827776448387455344e-01
8.920000000000000151e-01,2.853635530869116366e-01,2.613516999691306575e-02,1.906028117523625443e-01
8.930000000000000160e-01,3.473969466343066470e-01,1.859800868602604906e-01,1.349220059303548880e-01
8.940000000000000169e-01,2.775239954147752375e-01,2.479130587065713487e-01,3.866290120869273622e-02
8.950000000000000178e-01,1.212496179332055724e-01,2.663086644769518396e-01,-8.565053245796531989e-02
8.960000000000000187e-01,-7.803996944999329333e-02,1.525585637647327852e-01,-1.904030772029313701e-01
8.970000000000000195e-01,-2.340032857851413184e-01,-3.460983878667487669e-03,-2.175112483782874473e-01
8.980000000000000204e-01,-3.267470727866068070e-01,-1.536676807870288597e-01,-1.461046019121308714e-01
8.990000000000000213e-01,-3.213390455373256738e-01,-2.507440199345820075e-01,-7.045819946811580914e-02
9.000000000000000222e-01,-1.550786378588746295e-01,-2.606174956037782819e-01,6.749353727519315227e-02
9.010000000000000231e-01,2.686043284156025557e-02,-1.755751573959764000e-01,1.588210341280377746e-01
9.020000000000000240e-01,2.115732963267412392e-01,-3.170847511382719752e-02,2.214635696208136495e-01
9.030000000000000249e-01,3.253499853895573390e-01,1.392161563848285377e-01,1.601701109641270604e-01
9.040000000000000258e-01,3.435161987157099861e-01,2.363154110342760572e-01,1.079296759529216609e-01
9.050000000000000266e-01,2.090646049495100134e-01,2.708144572908786074e-01,-3.418292423571671346e-02
9.060000000000000275e-01,2.979793087308079194e-02,2.086979369907177306e-01,-1.409591126704331510e-01
9.070000000000000284e-01,-1.802572250064777004e-01,6.715437863765723325e-02,-2.016417805531014740e-01
9.080000000000000293e-01,-3.228015869890199507e-01,-1.062512816116240738e-01,-1.987366999533844714e-01
9.090000000000000302e-01,-3.340445434571492900e-01,-2.119012932559845019e-01,-1.109091653985884857e-01
9.100000000000000311e-01,-2.399249821963084506e-01,-2.474789414317842828e-01,-2.647594256450852383e-03
9.110000000000000320e-01,-6.639856586602707611e-02,-2.249364772988585448e-01,1.082851234877043461e-01
9.120000000000000329e-01,1.361454995224558873e-01,-6.842400095884332289e-02,1.873669297850989457e-01
9.130000000000000338e-01,2.819130851716747377e-01,9.053810238526489862e-02,2.082685978070037691e-01
9.140000000000000346e-01,3.435972913939789319e-01,2.104454534614440542e-01,1.427354988948466019e-01
9.150000000000000355e-01,2.607767507275032259e-01,2.738661523968802247e-01,4.105320005768459124e-02
9.160000000000000364e-01,1.084153333862445806e-01,2.555775333273378469e-01,-6.863614729743888754e-02
9.170000000000000373e-01,-1.018551478564203444e-01,1.183834353085691515e-01,-1.641262848550278652e-01
9.180000000000000382e-01,-2.561461529768816470e-01,-5.375791934447435305e-02,-1.874062654401857098e-01
9.190000000000000391e-01,-3.434995881153662389e-01,-1.982885527533335412e-01,-1.825104314384039528e-01
9.200000000000000400e-01,-3.048216449248448701e-01,-2.720991571437151868e-01,-8.269586257916590466e-02
9.210000000000000409e-01,-1.697654164453330505e-01,-2.531059521140645030e-01,3.340875627900569828e-02
9.220000000000000417e-01,2.484336188031807668e-02,-1.550685098035416154e-01,1.431457874436787847e-01
9.230000000000000426e-01,2.049047403672642487e-01,2.383905288918661269e-02,2.032189708046855947e-01
9.240000000000000435e-01,3.386896688745524853e-01,1.595793174872743858e-01,1.763087959172171537e-01
9.250000000000000444e-01,3.307890015157039509e-01,2.521283530314372689e-01,1.183376840935088242e-01
9.260000000000000453e-01,2.084831597440516826e-01,2.585637885271889758e-01,-9.228084156817749004e-03
9.270000000000000462e-01,1.047046670560670620e-02,1.635344809567433610e-01,-1.099967544657979579e-01
9.280000000000000471e-01,-1.875812804601234007e-01,1.788398755557642217e-02,-1.972141418277949532e-01
9.290000000000000480e-01,-3.095426710322909392e-01,-1.168179767858680412e-01,-1.961331942212030388e-01
9.300000000000000488e-01,-3.310199758601956033e-01,-2.382559950145516636e-01,-1.473738945286186541e-01
9.310000000000000497e-01,-2.694972642396460394e-01,-2.665570134996393392e-01,-5.017102562229216328e-02
9.320000000000000506e-01,-7.108554685663306949e-02,-1.954172139528233820e-01,7.660015720251397986e-02
9.330000000000000515e-01,1.477627291756744843e-01,-6.114534922267957778e-02,1.579758873921993934e-01
9.340000000000000524e-01,3.012897117163487737e-01,1.148720033088739823e-01,2.059074410254032039e-01
9.350000000000000533e-01,3.539423218842800423e-01,2.294764629282824431e-01,1.570238568253829181e-01
9.360000000000000542e-01,2.782480463575596752e-01,2.769392566774045439e-01,7.201506059575897567e-02
9.370000000000000551e-01,1.082889752807734834e-01,2.089547192842417800e-01,-3.498175762356729029e-02
9.379999999999999449e-01,-7.883319007843739290e-02,7.597624989851613220e-02,-1.322076458525532350e-01
9.389999999999999458e-01,-2.465416317238691979e-01,-8.531862866678172064e-02,-2.116421157229556038e-01
9.399999999999999467e-01,-3.567295065476240312e-01,-2.245831406486883675e-01,-2.006397206222918506e-01
9.409999999999999476e-01,-3.080821149529502923e-01,-2.733663870230409465e-01,-1.062978057645484892e-01
9.419999999999999485e-01,-1.793271495763429646e-01,-2.217585099162985851e-01,-4.027834513352275721e-03
9.429999999999999494e-01,1.810007987886251557e-02,-1.199644162387378810e-01,8.643219485828079751e-02
9.439999999999999503e-01,2.108936770183744147e-01,6.913279932565563612e-02,2.037623376568550304e-01
9.449999999999999512e-01,3.324527374306121552e-01,1.911666961000276499e-01,1.998920267629227532e-01
9.459999999999999520e-01,3.223891444951691443e-01,2.777240464672418030e-01,1.295467986152118722e-01
9.469999999999999529e-01,2.208874684849054526e-01,2.513257594554031971e-01,8.369044373566725476e-04
9.479999999999999538e-01,2.696299015739386448e-02,1.500666765298287186e-01,-9.446316787839188767e-02
9.489999999999999547e-01,-1.718440543607302751e-01,-8.643043706443989671e-03,-1.661786614523119709e-01
9.499999999999999556e-01,-3.197047537738550993e-01,-1.771897488833441836e-01,-2.063797432559872358e-01
9.509999999999999565e-01,-3.288612128406559476e-01,-2.740011755149737160e-01,-1.584584398836073049e-01
9.519999999999999574e-01,-2.409982550272777302e-01,-2.536108338178069133e-01,-7.021195343086213125e-02
9.529999999999999583e-01,-5.786989468477350684e-02,-1.668492047413082380e-01,5.739687584246004615e-02
9.539999999999999591e-01,1.350475118927944307e-01,-1.930960752815337467e-02,1.651104523829144965e-01
9.549999999999999600e-01,3.091156469385401562e-01,1.357086678194975582e-01,2.292030419013378895e-01
9.559999999999999609e-01,3.395859772908655372e-01,2.386283377484774704e-01,1.692665567044889241e-01
9.569999999999999618e-01,2.796923714940911521e-01,2.630632637792442718e-01,1.011082880667728695e-01
9.579999999999999627e-01,1.215563242749799489e-01,1.948416748810009869e-01,-1.131150146214855191e-02
9.589999999999999636e-01,-7.923528005639952909e-02,6.327202689385505452e-02,-1.374552998284228611e-01
9.599999999999999645e-01,-2.437316486112367231e-01,-1.106465054939033132e-01,-1.840042463584402321e-01
9.609999999999999654e-01,-3.427020843355615409e-01,-2.381777150863869097e-01,-1.914131608386607786e-01
9.619999999999999662e-01,-2.934781995609112015e-01,-2.771514289734869907e-01,-1.101245418843558727e-01
9.629999999999999671e-01,-1.549643522556017894e-01,-2.183361723827544898e-01,-1.875223059601793807e-02
9.639999999999999680e-01,2.047364272189157106e-02,-7.686119606674540750e-02,9.445193582957814304e-02
9.649999999999999689e-01,2.338023383415182843e-01,7.452465724091025812e-02,1.813170649193932560e-01
9.659999999999999698e-01,3.230580126105351280e-01,2.324119719547347862e-01,2.157170616404052721e-01
9.669999999999999707e-01,3.154475257756829687e-01,2.615393035826015233e-01,1.606413973036057985e-01
9.679999999999999716e-01,2.152764951226578682e-01,2.350812133511080426e-01,2.881425698083740772e-02
9.689999999999999725e-01,4.335256289847718575e-02,1.183512375186590165e-01,-6.143944813838449204e-02
9.699999999999999734e-01,-1.686130541168613384e-01,-5.381244132304824346e-02,-1.654959317146843523e-01
9.709999999999999742e-01,-3.224393471128272348e-01,-1.922658613852883391e-01,-2.053332395160471502e-01
9.719999999999999751e-01,-3.198772743022023635e-01,-2.523603370230783072e-01,-1.727366826238826980e-01
9.729999999999999760e-01,-2.567983792580439961e-01,-2.539897453213424972e-01,-8.628256822945357118e-02
9.739999999999999769e-01,-6.422115767786776286e-02,-1.537434973139133743e-01,2.785427275245675946e-02
9.749999999999999778e-01,1.451026888890180055e-01,1.955106034419140139e-03,1.434364940860823889e-01
9.759999999999999787e-01,2.811684967309903138e-01,1.596853217978626283e-01,1.797584957749669976e-01
9.769999999999999796e-01,3.320369978199315120e-01,2.381158360611502489e-01,1.786239332546487035e-01
9.779999999999999805e-01,2.799151065807096717e-01,2.443508047875914135e-01,1.193978173611695004e-01
9.789999999999999813e-01,1.136624160578394022e-01,1.606649551933573006e-01,5.097216794464563480e-03
9.799999999999999822e-01,-6.476833531153490531e-02,1.902897139049294917e-02,-1.171652275632834306e-01
9.809999999999999831e-01,-2.547022284413499871e-01,-1.383603242486327600e-01,-1.697872338830846428e-01
9.819999999999999840e-01,-3.270011270009698379e-01,-2.596855992620111797e-01,-1.955466383034217270e-01
9.829999999999999849e-01,-3.075075337905532336e-01,-2.787305321145887027e-01,-1.224562922656941139e-01
9.839999999999999858e-01,-1.615487272531675456e-01,-1.994907375506301261e-01,-4.913947595827018733e-02
9.849999999999999867e-01,4.397458435307029234e-02,-5.995664975348864723e-02,7.444462049440350726e-02
9.859999999999999876e-01,2.147113825454231295e-01,1.123959070278224281e-01,1.635042217481905980e-01
9.869999999999999885e-01,3.246459347859338984e-01,2.453819173757536554e-01,1.890533877946316277e-01
9.879999999999999893e-01,3.186361895090274454e-01,2.710545632011095996e-01,1.596014426994565860e-01
9.889999999999999902e-01,2.038788852323024647e-01,2.176002412034697131e-01,8.065920811149883407e-02
9.899999999999999911e-01,2.208587862582526984e-02,7.473143037895597918e-02,-2.737986859907365345e-02
9.909999999999999920e-01,-1.677076468367834361e-01,-9.701076973057615183e-02,-1.422147058386539764e-01
9.919999999999999929e-01,-3.094747982211174531e-01,-2.123659444326558565e-01,-1.902024486765596101e-01
9.929999999999999938e-01,-3.254754235672998597e-01,-2.773967081117537092e-01,-1.769935902760867708e-01
9.939999999999999947e-01,-2.353692632777484861e-01,-2.289308612861665482e-01,-1.001736889560617405e-01
9.949999999999999956e-01,-5.642835329152549873e-02,-1.156447693488162343e-01,2.674860879710899003e-03
9.959999999999999964e-01,1.294423690186448095e-01,5.807901676062572627e-02,1.117454397695595292e-01
9.969999999999999973e-01,2.885704414679278740e-01,1.908245385877894995e-01,1.976220281151574998e-01
9.979999999999999982e-01,3.443155443182472353e-01,2.565813265663661191e-01,2.123285904397305968e-01
9.989999999999999991e-01,2.849122881308615574e-01,2.491944853805081739e-01,1.243325689248276494e-01
1.000000000000000000e+00,1.320809560867235721e-01,1.582709641674197587e-01,3.157737800084769314e-02
1.000999999999999890e+00,-8.244580797503049674e-02,-8.260355704696093621e-03,-7.124287814021314225e-02
1.002000000000000002e+00,-2.574585185074806937e-01,-1.715483522628937774e-01,-1.726825757605611744e-01
1.002999999999999892e+00,-3.340080921461466290e-01,-2.521123045955628306e-01,-1.981146505886594578e-01
1.004000000000000004e+00,-3.030345368666768624e-01,-2.528669852666042273e-01,-1.596124349828249578e-01
1.004999999999999893e+00,-1.609000510001287743e-01,-1.511319279474486466e-01,-6.846056215436197023e-02
1.006000000000000005e+00,4.101649330538265081e-02,-3.163983870568785189e-02,6.179691640955729121e-02
1.006999999999999895e+00,2.327160616234887069e-01,1.362717966164252170e-01,1.540457760064322390e-01
1.008000000000000007e+00,3.213440715701208483e-01,2.388387919618759070e-01,2.005379738686842161e-01
1.008999999999999897e+00,3.218202084581848754e-01,2.743311871623292375e-01,1.844715617178319389e-01
1.010000000000000009e+00,2.083401967529901477e-01,1.970686478432191191e-01,9.924031195883623035e-02
1.010999999999999899e+00,1.400993231894848666e-02,4.783493503734019547e-02,-1.271362322454879998e-02
1.012000000000000011e+00,-1.743424423073733631e-01,-1.152169950793641012e-01,-1.321440093255540627e-01
1.012999999999999901e+00,-2.966349464626622523e-01,-2.346056259350788875e-01,-1.919910289396536129e-01
1.014000000000000012e+00,-3.530412574656739966e-01,-2.613443890561675809e-01,-1.807331589943335093e-01
1.014999999999999902e+00,-2.261158386337931703e-01,-2.101964378647891152e-01,-1.341729596940089142e-01
1.016000000000000014e+00,-5.292202355428532456e-02,-8.841529026561607829e-02,-1.576979880117763619e-02
1.016999999999999904e+00,1.391019147279737300e-01,8.279408275909704018e-02,1.017002233619306445e-01
1.018000000000000016e+00,2.929027492268597710e-01,2.113377203090260892e-01,1.839878278938548994e-01
1.018999999999999906e+00,3.409128972623229337e-01,2.628126574632311807e-01,2.053438819693063355e-01
1.020000000000000018e+00,2.826431161063260311e-01,2.415567931174875116e-01,1.661456972413348498e-01
1.020999999999999908e+00,1.169010580781375541e-01,1.107566609338859059e-01,4.943066412099147294e-02
1.022000000000000020e+00,-9.726280895225924983e-02,-6.171328219733961812e-02,-6.701847933108363853e-02
1.022999999999999909e+00,-2.623615706540060599e-01,-1.904616837879772040e-01,-1.864452688541644032e-01
1.024000000000000021e+00,-3.407000538678933710e-01,-2.749721082082750567e-01,-2.000553995091162440e-01
1.024999999999999911e+00,-2.928305585944632194e-01,-2.484046899649232365e-01,-1.760422700334877966e-01
1.026000000000000023e+00,-1.519805345463633439e-01,-1.406192409791072462e-01,-8.190914204484783800e-02
1.026999999999999913e+00,1.187940983051243363e-02,1.296479066672268608e-02,2.562410693527426842e-02
1.028000000000000025e+00,2.217172531488991183e-01,1.847357583770031508e-01,1.530149409117228798e-01
1.028999999999999915e+00,3.325783752010418870e-01,2.614435719974323447e-01,2.069473677093769670e-01
1.030000000000000027e+00,3.292589008545889762e-01,2.542093794531524731e-01,1.906484226711996910e-01
1.030999999999999917e+00,2.090566643321295492e-01,1.561447500101645069e-01,1.320869944816510100e-01
1.032000000000000028e+00,1.335176034377562153e-02,4.113195774684184902e-03,6.561755521816131816e-03
1.032999999999999918e+00,-1.975770618842643267e-01,-1.603374434410546889e-01,-1.055378514819969998e-01
1.034000000000000030e+00,-2.973659607564668184e-01,-2.373594468540934643e-01,-2.010020740469972977e-01
1.034999999999999920e+00,-3.287464666967556681e-01,-2.731584646568151475e-01,-1.835723658628787558e-01
1.036000000000000032e+00,-2.337247275226263521e-01,-1.920927464606321522e-01,-1.555757882723699803e-01
1.036999999999999922e+00,-7.238475500220727110e-02,-3.375321025467034608e-02,-3.806490797708138307e-02
1.038000000000000034e+00,1.206318437034153979e-01,1.287036294461093300e-01,7.138200521588485004e-02
1.038999999999999924e+00,2.922367751223177712e-01,2.207750387571317530e-01,1.845444186011590826e-01
1.040000000000000036e+00,3.330115754817408180e-01,2.684632276536427775e-01,1.966279119635241102e-01
1.040999999999999925e+00,2.750336298767657728e-01,1.983608874910458009e-01,1.667498782757544651e-01
1.042000000000000037e+00,8.702602413508947476e-02,7.918522250574666632e-02,6.598088478880556607e-02
1.042999999999999927e+00,-7.618729389313866340e-02,-9.478777247011839491e-02,-3.189906068720264887e-02
1.044000000000000039e+00,-2.643000062060604782e-01,-2.426855407544720178e-01,-1.475702721594155942e-01
1.044999999999999929e+00,-3.354237648725050258e-01,-2.742208392397930128e-01,-2.097895449087809339e-01
1.046000000000000041e+00,-3.084574134765273312e-01,-2.187150629535267454e-01,-1.758155637232797219e-01
1.046999999999999931e+00,-1.513979637462434524e-01,-1.060297078613610111e-01,-1.006606742079429184e-01
1.048000000000000043e+00,2.749001413953365905e-02,5.087066718299547430e-02,-1.045394289261891360e-02
1.048999999999999932e+00,2.245518468029683024e-01,1.996373276132487329e-01,1.083792159443397324e-01
1.050000000000000044e+00,3.402398884853768957e-01,2.800890299681852991e-01,2.034591784467157383e-01
1.050999999999999934e+00,3.088315182526512048e-01,2.338072138134018596e-01,1.747915070522222392e-01
1.052000000000000046e+00,1.842114143577844310e-01,1.428873328449195845e-01,1.522671760244399264e-01
1.052999999999999936e+00,-4.181135913030325385e-04,-1.412057822406044029e-02,3.394158643103267065e-02
1.054000000000000048e+00,-1.845593754490728600e-01,-1.717824191947121271e-01,-8.149396715427947857e-02
1.054999999999999938e+00,-3.038035361946919699e-01,-2.639400594040418047e-01,-1.952318434818972326e-01
1.056000000000000050e+00,-3.303065378842717226e-01,-2.603923192428534428e-01,-1.965874820230268938e-01
1.056999999999999940e+00,-2.319197495308290558e-01,-1.592206929176687435e-01,-1.543101820655108092e-01
1.058000000000000052e+00,-5.589371219914423400e-02,-1.329815273631796378e-02,-8.075706665380968929e-02
1.058999999999999941e+00,1.455789674988195448e-01,1.508529458704896131e-01,5.571446792656808977e-02
1.060000000000000053e+00,3.044940359244115990e-01,2.538520571352421151e-01,1.540242238282763243e-01
1.060999999999999943e+00,3.389112182705316667e-01,2.608585007365135655e-01,2.088301187929772762e-01
1.062000000000000055e+00,2.871203313486224151e-01,2.018606720551462119e-01,1.851908688596224373e-01
1.062999999999999945e+00,1.008334854700985439e-01,4.045881291965251758e-02,1.020065069207654329e-01
1.064000000000000057e+00,-9.993604223931591701e-02,-1.175614932154651349e-01,-2.101441109354412057e-02
1.064999999999999947e+00,-2.677558235066620496e-01,-2.274994997219912662e-01,-1.243874002774385673e-01
1.066000000000000059e+00,-3.390733750515393385e-01,-2.791282657295187097e-01,-1.961133532755889031e-01
1.066999999999999948e+00,-2.944914815240092243e-01,-2.091522312158282937e-01,-1.897563322124350138e-01
1.068000000000000060e+00,-1.586392090482656170e-01,-8.254789548839833180e-02,-1.382685843430228878e-01
1.068999999999999950e+00,4.388617503116390428e-02,8.145271087823521827e-02,-2.140466699269085935e-02
1.070000000000000062e+00,2.216466519658317202e-01,2.258100056831774949e-01,9.025488315914451110e-02
1.070999999999999952e+00,3.402863703860619093e-01,2.873927272924079457e-01,1.832356005902319729e-01
1.072000000000000064e+00,3.154186183534570809e-01,2.115701515585900194e-01,1.871926252039763094e-01
1.072999999999999954e+00,1.863263591809221353e-01,8.878717354099950609e-02,1.230032588202057825e-01
1.074000000000000066e+00,3.715109548958006516e-03,-5.880207980161974296e-02,5.142515169079509008e-02
1.074999999999999956e+00,-1.658780421579780229e-01,-2.144124972331534762e-01,-6.485060537006062664e-02
1.076000000000000068e+00,-3.301547280562214248e-01,-2.730548301822811608e-01,-1.541568547573035630e-01
1.076999999999999957e+00,-3.451741447758743808e-01,-2.611811434079230887e-01,-2.036366481401006290e-01
1.078000000000000069e+00,-2.481865937544013578e-01,-1.271130797890075714e-01,-1.818601301958245597e-01
1.078999999999999959e+00,-5.344148767406710354e-02,1.690564547389622821e-02,-8.019311413520802123e-02
1.080000000000000071e+00,1.394270932981233890e-01,1.902261934501526530e-01,2.473501262800006234e-02
1.080999999999999961e+00,2.829288793492747422e-01,2.634701446858914720e-01,1.278908117393030008e-01
1.082000000000000073e+00,3.419303261965894181e-01,2.498197866776156462e-01,2.069625030571122792e-01
1.082999999999999963e+00,2.650152904384801555e-01,1.490753433653790594e-01,1.953964598464419944e-01
1.084000000000000075e+00,1.321547890224582245e-01,-2.466103299461962217e-02,1.213494555790680940e-01
1.084999999999999964e+00,-9.380502021559972148e-02,-1.507626208931760470e-01,9.542823749885959508e-03
1.086000000000000076e+00,-2.620431472653450000e-01,-2.586309960955092135e-01,-1.227904845120043192e-01
1.086999999999999966e+00,-3.480847705604632192e-01,-2.577078738735525398e-01,-1.850347963483873204e-01
1.088000000000000078e+00,-2.797671154299773977e-01,-1.883297910652813600e-01,-2.053298246638832480e-01
1.088999999999999968e+00,-1.573902784742693961e-01,-1.334478594677185673e-02,-1.458187362509304197e-01
1.090000000000000080e+00,3.819061194267367454e-02,1.264555031069385660e-01,-4.615359097786307652e-02
1.090999999999999970e+00,2.203215821543657027e-01,2.379117218249738597e-01,7.035092617231000767e-02
1.092000000000000082e+00,3.204118331528269525e-01,2.604767921464727354e-01,1.822599777022839151e-01
1.092999999999999972e+00,3.077537693425395071e-01,2.160637129618937502e-01,2.002608984682149318e-01
1.094000000000000083e+00,1.888837309850211477e-01,5.184065919397806005e-02,1.797130543418134496e-01
1.094999999999999973e+00,-3.919859622797613324e-03,-8.749341067166836738e-02,7.700905066679886168e-02
1.096000000000000085e+00,-1.863086586349879670e-01,-2.183334619942620403e-01,-3.647904495320530155e-02
1.096999999999999975e+00,-3.206622145828922354e-01,-2.756285344883024901e-01,-1.400769579620040062e-01
1.098000000000000087e+00,-3.087039758148635293e-01,-2.154083333493652941e-01,-1.963163345105678192e-01
1.098999999999999977e+00,-2.411567188393231309e-01,-8.305651675415243185e-02,-1.782315903778596278e-01
1.100000000000000089e+00,-4.080867365422706505e-02,6.531196456180411725e-02,-1.118496934635794249e-01
1.100999999999999979e+00,1.385850254286717931e-01,2.101380080031911013e-01,2.476017229897072361e-03
1.102000000000000091e+00,2.993048934619600976e-01,2.556090982005204681e-01,1.342327742599140339e-01
1.102999999999999980e+00,3.287763615146914176e-01,2.381539480527758712e-01,1.947482322580556813e-01
1.104000000000000092e+00,2.691184549641557067e-01,1.263160119823162619e-01,2.062215382589905333e-01
1.104999999999999982e+00,1.136150629367726761e-01,-2.891864507811304011e-02,1.295471513841030542e-01
1.106000000000000094e+00,-7.560890692981377115e-02,-1.925639336271356417e-01,4.067692909555407910e-02
1.106999999999999984e+00,-2.582202319525785383e-01,-2.621634505804956161e-01,-7.036293732843208748e-02
1.108000000000000096e+00,-3.342372326787632075e-01,-2.525115580249399638e-01,-1.895516612985143901e-01
1.108999999999999986e+00,-3.013111424398171589e-01,-1.652386570174157465e-01,-2.085650366981395831e-01
1.110000000000000098e+00,-1.680776085888690263e-01,3.444243484542172705e-04,-1.598348661408181826e-01
1.110999999999999988e+00,5.460220143394618753e-02,1.440647024621818650e-01,-6.017374280930577746e-02
1.112000000000000099e+00,2.218625355674885002e-01,2.702380308288135358e-01,5.262310177450334886e-02
1.112999999999999989e+00,3.143607716504344674e-01,2.696625681691807164e-01,1.560247778608136182e-01
1.114000000000000101e+00,3.136637367829944734e-01,1.674865543290101066e-01,2.206764152732054729e-01
1.114999999999999991e+00,1.924720315871680798e-01,1.087558134490612151e-02,1.680456217550184428e-01
1.116000000000000103e+00,5.668950364346335077e-03,-1.009962147817532602e-01,1.027173872940252003e-01
1.116999999999999993e+00,-1.875982705779933313e-01,-2.526722732427413298e-01,-2.850086871927874285e-02
1.118000000000000105e+00,-3.203542082587907402e-01,-2.536945500454201308e-01,-1.155742257753980540e-01
1.118999999999999995e+00,-3.316489367596959226e-01,-2.149331165561938484e-01,-1.852322958476579073e-01
1.120000000000000107e+00,-2.488176845461823050e-01,-6.748983933365385046e-02,-2.008116345678536419e-01
1.120999999999999996e+00,-4.593122824810789290e-02,9.207018928636077904e-02,-1.231468745728629688e-01
1.122000000000000108e+00,1.419740174181741421e-01,2.031792900747324271e-01,-1.573908899078075782e-02
1.122999999999999998e+00,3.119378747143266573e-01,2.787727256569053624e-01,1.031825528328997460e-01
1.124000000000000110e+00,3.439702939662162562e-01,2.277409577263298790e-01,1.735729842837339942e-01
1.125000000000000000e+00,2.503009290431770228e-01,8.833045139650216870e-02,1.902800053652787260e-01
1.125999999999999890e+00,1.153003573162742212e-01,-6.834473941395170782e-02,1.431401993154413910e-01
1.127000000000000002e+00,-8.105554695597448622e-02,-2.030117242356406781e-01,6.136766652819539147e-02
1.127999999999999892e+00,-2.501392983373143530e-01,-2.658864184730053704e-01,-8.273764765001574706e-02
1.129000000000000004e+00,-3.372498062893783399e-01,-2.398784295403044997e-01,-1.615011254849289257e-01
1.129999999999999893e+00,-2.936220651238148349e-01,-1.306218365259570469e-01,-1.918884170534593536e-01
1.131000000000000005e+00,-1.685871067009078739e-01,2.769103458173587801e-02,-1.829200187615845630e-01
1.131999999999999895e+00,5.167805734424841396e-02,1.856009480029791880e-01,-9.052201820637049978e-02
1.133000000000000007e+00,2.236367411047229248e-01,2.645419391427377698e-01,2.667637266453610351e-02
1.133999999999999897e+00,3.246983736917400942e-01,2.534138732520186399e-01,1.411568359770755399e-01
1.135000000000000009e+00,3.225260808880774932e-01,1.599003040298920819e-01,1.911891507022230874e-01
1.135999999999999899e+00,1.911183529850139229e-01,3.794150309833627978e-03,1.819744328972671688e-01
1.137000000000000011e+00,1.180671104290127553e-02,-1.637505796415415493e-01,1.278096359458976150e-01
1.137999999999999901e+00,-1.897623811365256041e-01,-2.669471645198200349e-01,8.428079740036790307e-03
1.139000000000000012e+00,-3.079594048970966114e-01,-2.569398152622355824e-01,-8.969892651695848818e-02
1.139999999999999902e+00,-3.261623015890220412e-01,-1.729231650321133296e-01,-1.752802070621621577e-01
1.141000000000000014e+00,-2.389802266627085725e-01,-3.742864264022041643e-02,-2.094795518163149739e-01
1.141999999999999904e+00,-4.032575469135370877e-02,1.294115107902022721e-01,-1.367219164314504576e-01
1.143000000000000016e+00,1.490230468217705051e-01,2.431780205516194393e-01,-4.652906615675703184e-02
1.143999999999999906e+00,3.064092714451842614e-01,2.995467054311390376e-01,6.739125345755453411e-02
1.145000000000000018e+00,3.277778735167086732e-01,1.978042478016113492e-01,1.605762822024524028e-01
1.145999999999999908e+00,2.671506902659702698e-01,6.870184955307552521e-02,2.045081802380575853e-01
1.147000000000000020e+00,1.093570575416203255e-01,-9.420574019117630704e-02,1.762032450915650139e-01
1.147999999999999909e+00,-1.021662930318702200e-01,-2.101274421373254542e-01,8.129035204485406119e-02
1.149000000000000021e+00,-2.598416897845597928e-01,-2.691480925783149569e-01,-5.379952842073411345e-02
1.149999999999999911e+00,-3.494409028332753908e-01,-2.118515136153768796e-01,-1.403473168212557576e-01
1.151000000000000023e+00,-2.870676463801370981e-01,-7.974491772988127891e-02,-2.051877760567009101e-01
1.151999999999999913e+00,-1.372455137297009520e-01,5.660276592123787004e-02,-1.825915600471023081e-01
1.153000000000000025e+00,3.973288897063863290e-02,1.994365894932123850e-01,-1.175458337469280079e-01
1.153999999999999915e+00,2.207845214559726321e-01,2.661572166771632997e-01,7.984055590718961912e-03
1.155000000000000027e+00,3.367642656909675680e-01,2.453708260390612961e-01,1.063362192082558388e-01
1.155999999999999917e+00,3.158469214138268089e-01,1.136769149515258481e-01,1.880612447994721159e-01
1.157000000000000028e+00,1.879941201870899692e-01,-4.082219660954539142e-02,2.071997013415543265e-01
1.157999999999999918e+00,6.289435255540504893e-03,-1.885352658621774757e-01,1.372765616182458626e-01
1.159000000000000030e+00,-1.705996198730106439e-01,-2.807749203266183824e-01,3.904802799642686367e-02
1.159999999999999920e+00,-3.139434950177708572e-01,-2.603991922034560313e-01,-7.765114608824778830e-02
1.161000000000000032e+00,-3.268243286023072569e-01,-1.631334426156053063e-01,-1.831882883771024095e-01
1.161999999999999922e+00,-2.441763876044850401e-01,1.750201156218727377e-02,-1.972532913120572939e-01
1.163000000000000034e+00,-5.449352967859454749e-02,1.757989058476178978e-01,-1.514366766478849324e-01
1.163999999999999924e+00,1.613895258687892964e-01,2.530064071741521814e-01,-7.540338932268939032e-02
1.165000000000000036e+00,2.854406641133512279e-01,2.677840274323808334e-01,5.348225747792335893e-02
1.165999999999999925e+00,3.327892733149983573e-01,1.744930308884643788e-01,1.471021995131921722e-01
1.167000000000000037e+00,2.538978814547455110e-01,2.365573432202432852e-02,2.117845706013065932e-01
1.167999999999999927e+00,9.342232558802984754e-02,-1.274731260638378161e-01,1.810397759848883792e-01
1.169000000000000039e+00,-1.040597190867296323e-01,-2.468894316748358186e-01,9.091724719991962911e-02
1.169999999999999929e+00,-2.601516369374308191e-01,-2.626827386853609614e-01,-2.432929379060120439e-02
1.171000000000000041e+00,-3.403784878750228948e-01,-1.960460808036244562e-01,-1.304605175195566180e-01
1.171999999999999931e+00,-3.000671203394249531e-01,-5.859268568192117083e-02,-1.801496721663188860e-01
1.173000000000000043e+00,-1.613405747950235058e-01,9.134743466470027218e-02,-2.014450693443905482e-01
1.173999999999999932e+00,3.923516192889844878e-02,2.307872970341744989e-01,-1.256877705889103691e-01
1.175000000000000044e+00,2.130355963797507524e-01,2.601201664884655873e-01,-1.129131014786753651e-02
1.175999999999999934e+00,3.265718906125778531e-01,2.224609503429159085e-01,9.440781583460063076e-02
1.177000000000000046e+00,3.019242345506430447e-01,8.346559871607832359e-02,1.839506338825940279e-01
1.177999999999999936e+00,1.807166127246062626e-01,-7.148214835157770675e-02,2.089945727927759456e-01
1.179000000000000048e+00,-5.843066446189404059e-03,-2.140439975374324733e-01,1.659800284941689574e-01
1.179999999999999938e+00,-1.960416707262166436e-01,-2.673935762846000319e-01,6.052363463191737236e-02
1.181000000000000050e+00,-3.096367780451142471e-01,-2.579167521221560344e-01,-5.758692007741826602e-02
