time,acc_x,acc_y,acc_z
0.000000000000000000e+00,-2.017348397449769681e-01,-1.840402020132380911e-01,-7.177100411863737706e-02
1.000000000000000021e-03,-2.514403435147476995e-01,-2.069972460554933280e-01,-1.346086522629755533e-01
2.000000000000000042e-03,-2.575152963821959462e-01,-1.638300713879385917e-01,-1.491957339416606632e-01
3.000000000000000062e-03,-1.853355703537011845e-01,-1.120532664186763561e-01,-1.340361466697039816e-01
4.000000000000000083e-03,-1.090202550776328272e-01,-5.994875077134932326e-03,-1.053342961068116646e-01
5.000000000000000104e-03,6.908665512394368546e-02,1.414197080493377057e-01,-2.092738946781152673e-02
6.000000000000000125e-03,2.284033829900110335e-01,2.624634085147023455e-01,7.398164691662192927e-02
7.000000000000000146e-03,3.625190099051459613e-01,2.870599079431780387e-01,1.604030444559058632e-01
8.000000000000000167e-03,3.355895670576125034e-01,1.909933990617493360e-01,2.367857667863102755e-01
8.999999999999999320e-03,1.815455363513398812e-01,-1.804916764199292895e-02,1.984901638698882420e-01
1.000000000000000021e-02,-1.052304209629301157e-01,-2.413003338109927232e-01,6.226930734109493992e-02
1.099999999999999936e-02,-3.530291380838566084e-01,-3.449942920056108253e-01,-1.137954904423380126e-01
1.200000000000000025e-02,-4.188106304935601543e-01,-2.779307635473144966e-01,-2.281417187553862191e-01
1.299999999999999940e-02,-3.041111332118924815e-01,-1.220047407624298280e-01,-2.516592524154427912e-01
1.400000000000000029e-02,-7.921658916865542688e-02,9.028111897845798872e-02,-1.575220214594107160e-01
1.499999999999999944e-02,1.524556658908238216e-01,2.139248455170482954e-01,3.641127621553481939e-03
1.600000000000000033e-02,2.909882798590128217e-01,2.416872712339266094e-01,1.160685810955834479e-01
1.700000000000000122e-02,2.883405412483284191e-01,1.964579983842379973e-01,1.861566786566431764e-01
1.799999999999999864e-02,2.125315927016681872e-01,1.306156292007376041e-01,1.717563959609549606e-01
1.899999999999999953e-02,1.106959171988617929e-01,3.696656440463124728e-03,1.241584769948413242e-01
2.000000000000000042e-02,-1.868969557742665086e-02,-8.904598715708771095e-02,5.020248341521373059e-02
2.100000000000000130e-02,-1.309128988286807349e-01,-1.925256404298711366e-01,-1.807061111683625626e-02
2.199999999999999872e-02,-2.565437323759705013e-01,-2.484327727291166799e-01,-9.321927617166643476e-02
2.299999999999999961e-02,-3.380947675278803133e-01,-2.235385112149582132e-01,-1.620145607078518346e-01
2.400000000000000050e-02,-2.776819934360748587e-01,-1.018013867726367538e-01,-1.990398740245685472e-01
2.500000000000000139e-02,-9.571424237503087240e-02,1.062396814404212297e-01,-1.453976745938731496e-01
2.599999999999999881e-02,1.678955190203449410e-01,2.875284481924186286e-01,-3.719827653013489666e-02
2.699999999999999969e-02,3.671340606822067754e-01,3.510675946120228597e-01,1.270970995456003616e-01
2.800000000000000058e-02,4.243771690658916240e-01,2.401129439811805211e-01,2.252716344820333838e-01
2.900000000000000147e-02,2.777847053932736010e-01,2.411326399723527636e-02,2.521298009844006871e-01
2.999999999999999889e-02,2.139109842769260778e-03,-1.852941063006075528e-01,1.495334826998807043e-01
3.099999999999999978e-02,-2.484051315385640835e-01,-2.824021161797132251e-01,5.627336985773146415e-03
3.200000000000000067e-02,-3.743641461162700024e-01,-2.455997570546700204e-01,-1.590961157413083860e-01
3.300000000000000155e-02,-3.176684409251972485e-01,-1.547035397021194747e-01,-2.216718853086915297e-01
3.400000000000000244e-02,-1.895083288973224145e-01,-8.162117037617284271e-03,-2.015822478407696405e-01
3.500000000000000333e-02,-9.077174866457525873e-03,1.004965274978966844e-01,-9.304897820115821949e-02
3.599999999999999728e-02,1.266865764202564359e-01,1.742771260224146024e-01,-5.772502486477278268e-03
3.699999999999999817e-02,2.153502476311447700e-01,2.017331620699067962e-01,7.804932836080386016e-02
3.799999999999999906e-02,2.529205252932123504e-01,2.101389366599340502e-01,1.159005821094284683e-01
3.899999999999999994e-02,2.508388311137547677e-01,1.413746284382098595e-01,1.506069453990343532e-01
4.000000000000000083e-02,1.874007420246337485e-01,-1.043360993947668909e-02,1.612209399989157632e-01
4.100000000000000172e-02,-1.192207295137972687e-03,-1.848013247789099534e-01,1.110609460246591573e-01
4.200000000000000261e-02,-2.067654084723225816e-01,-3.165233516589679996e-01,4.877350270062199081e-03
4.299999999999999656e-02,-3.794549149320746162e-01,-3.184769594169903351e-01,-1.244026269523542116e-01
4.399999999999999745e-02,-3.813599582601436833e-01,-1.511414972982279004e-01,-2.264213559074400306e-01
4.499999999999999833e-02,-2.023316079329959549e-01,7.899099489516103745e-02,-2.306274815698527159e-01
4.599999999999999922e-02,7.471281068258829594e-02,2.622260021470040892e-01,-1.243425565560964813e-01
4.700000000000000011e-02,3.097737378363892291e-01,3.290806022701169842e-01,2.554440155877897925e-02
4.800000000000000100e-02,3.936286034097891684e-01,2.450557381999554640e-01,1.753499992113614347e-01
4.900000000000000189e-02,3.054253208235986339e-01,8.249123173298916756e-02,2.473744813416093036e-01
5.000000000000000278e-02,1.066999051981987606e-01,-8.671129535922633691e-02,1.830826227779138726e-01
5.099999999999999672e-02,-8.933865792898358638e-02,-1.820999828006219234e-01,7.832474797081888374e-02
5.199999999999999761e-02,-2.153886551250589754e-01,-2.002713003602382691e-01,-1.636767067580936763e-02
5.299999999999999850e-02,-2.577157851125914112e-01,-1.938608984776527266e-01,-1.262385699041750353e-01
5.399999999999999939e-02,-2.518280842551778864e-01,-1.356725984910004679e-01,-1.600182293789859100e-01
5.500000000000000028e-02,-1.888708711838535670e-01,-4.269073622581717742e-02,-1.416316305239747053e-01
5.600000000000000117e-02,-8.675783557276049718e-02,7.677116919007792584e-02,-1.159583027545407763e-01
5.700000000000000205e-02,7.817199574837775666e-02,2.324773623481111717e-01,-6.291124001380039854e-02
5.800000000000000294e-02,2.615538726816078463e-01,3.012567635271403699e-01,2.784401630869003108e-02
5.899999999999999689e-02,3.567760291121437333e-01,2.418364674901936073e-01,1.469308423618974346e-01
5.999999999999999778e-02,3.282031720290721211e-01,7.990660428200506427e-02,2.028221784622916413e-01
6.099999999999999867e-02,1.380585462190815627e-01,-1.598478392947911275e-01,2.115103509168906326e-01
6.199999999999999956e-02,-1.407780361056677476e-01,-3.232617615610181572e-01,1.178179232716753955e-01
6.300000000000000044e-02,-3.710518442772599568e-01,-3.353232495731492402e-01,-4.059055186266297133e-02
6.400000000000000133e-02,-4.123076026141327954e-01,-2.067632999242073333e-01,-1.869279235038524001e-01
6.500000000000000222e-02,-2.883381062635976821e-01,1.926172025344268998e-02,-2.650601520315969961e-01
6.600000000000000311e-02,-5.312225681257944782e-02,1.921981009601868851e-01,-2.165415593935798855e-01
6.700000000000000400e-02,1.939378023045737198e-01,2.626888912448522850e-01,-5.831745351230007562e-02
6.800000000000000488e-02,2.975763483545545429e-01,2.049289906835565778e-01,7.609540006995550721e-02
6.900000000000000577e-02,2.944730548366631395e-01,1.452054526275680102e-01,1.625389856759255625e-01
7.000000000000000666e-02,2.011010144415510681e-01,3.883560786494198031e-02,1.785005605457369027e-01
7.099999999999999367e-02,8.130914140896368381e-02,-5.888208218018856077e-02,1.388244325187426020e-01
7.199999999999999456e-02,-3.268351685028513670e-02,-1.650634884642863676e-01,7.593103352121119420e-02
7.299999999999999545e-02,-1.608909201649650900e-01,-2.420085180990168006e-01,-5.035701870618098513e-03
7.399999999999999634e-02,-2.651079734165886492e-01,-2.623302341706036933e-01,-7.097443201767208998e-02
7.499999999999999722e-02,-3.245634871284662770e-01,-1.636781607916520942e-01,-1.441378586636470338e-01
7.599999999999999811e-02,-2.564292918219500672e-01,3.898426785688193646e-02,-1.875080686152258980e-01
7.699999999999999900e-02,-6.360781899635831182e-02,2.272598095394569306e-01,-1.662361227199404268e-01
7.799999999999999989e-02,1.954317400377186265e-01,3.380930207164122292e-01,-8.034436049923660006e-02
7.900000000000000078e-02,4.016339054371098061e-01,2.813916933743578763e-01,6.539101971914401679e-02
8.000000000000000167e-02,4.095156371497968850e-01,1.072501565125398015e-01,1.898050915336022271e-01
8.100000000000000255e-02,2.353970632754236181e-01,-1.224690473704641153e-01,2.538272500444904711e-01
8.200000000000000344e-02,-3.747585068626365506e-02,-2.531972630506824085e-01,1.997281065256503174e-01
8.300000000000000433e-02,-2.689837658111972063e-01,-2.880204533816591583e-01,4.917597361528618094e-02
8.400000000000000522e-02,-3.685836681502694390e-01,-1.888497943224606290e-01,-1.102462220477152255e-01
8.500000000000000611e-02,-2.995376335028974157e-01,-6.644422464466920308e-02,-1.939687718088194124e-01
8.599999999999999312e-02,-1.466856564596018264e-01,5.898337580963518290e-02,-2.181401837781420938e-01
8.699999999999999400e-02,9.494709044808874107e-03,1.467945560414861961e-01,-1.397674906001709072e-01
8.799999999999999489e-02,1.319340430634800276e-01,1.995410599579654221e-01,-5.050589465409442702e-02
8.899999999999999578e-02,2.145415976814563364e-01,1.946439167610379273e-01,5.299053835703856907e-02
8.999999999999999667e-02,2.500753957686845386e-01,1.636142926991616953e-01,1.126148204164939548e-01
9.099999999999999756e-02,2.556169329645170962e-01,5.040102139406784504e-02,1.445386998046927496e-01
9.199999999999999845e-02,1.636457022476639489e-01,-1.200864537655496334e-01,1.576858512320815364e-01
9.299999999999999933e-02,-7.345556529648721196e-03,-2.696225943446709516e-01,1.362346260104082274e-01
9.400000000000000022e-02,-2.514835658749114966e-01,-3.234078311070039957e-01,4.544196722584181725e-02
9.500000000000000111e-02,-3.915216881005305627e-01,-2.296201045798784146e-01,-7.390791669442772771e-02
9.600000000000000200e-02,-3.635005764757156532e-01,-5.557272262798249561e-03,-1.832649341764864825e-01
9.700000000000000289e-02,-1.828453163018627925e-01,2.094279279071700473e-01,-2.411944290294932847e-01
9.800000000000000377e-02,1.013116987849979472e-01,3.268219332071514160e-01,-1.979223990940539857e-01
9.900000000000000466e-02,3.397428298432806915e-01,2.778386972689358414e-01,-3.816069211593225985e-02
1.000000000000000056e-01,3.992219587166550010e-01,1.374227982309161045e-01,1.290404247742317490e-01
1.010000000000000064e-01,2.882597817642283400e-01,-3.912070864148121940e-02,2.314099768904716026e-01
1.019999999999999934e-01,8.412761478343351584e-02,-1.521683150186868283e-01,2.316931117784948035e-01
1.029999999999999943e-01,-1.091763645110409436e-01,-2.218333405192974006e-01,1.478535895277093837e-01
1.039999999999999952e-01,-2.250964409006898925e-01,-1.994435854402806796e-01,-9.049728062959350834e-05
1.049999999999999961e-01,-2.735720063098746047e-01,-1.540244102421286787e-01,-1.143889695780744564e-01
1.059999999999999970e-01,-2.335467427723616207e-01,-7.984246699591608654e-02,-1.576572497457886801e-01
1.069999999999999979e-01,-1.629042191025484587e-01,4.585654443627714544e-02,-1.596908861461418250e-01
1.079999999999999988e-01,-5.348116347394184927e-02,1.717712599044790844e-01,-1.294884978157588851e-01
1.089999999999999997e-01,1.146306721749622282e-01,2.570186512503822573e-01,-7.049611673215340490e-02
1.100000000000000006e-01,2.650179473265111274e-01,2.822321704649316532e-01,-9.331637799486378840e-04
1.110000000000000014e-01,3.717904714963292112e-01,1.363817073165366767e-01,8.607859098875848824e-02
1.120000000000000023e-01,3.203459492336526715e-01,-7.963535680185082621e-02,1.835091998603626262e-01
1.130000000000000032e-01,9.176290391536338908e-02,-2.771143131846158791e-01,2.151011499763407220e-01
1.140000000000000041e-01,-1.686004564276840645e-01,-3.406217563359735800e-01,1.781749860740610980e-01
1.150000000000000050e-01,-3.875421075079996114e-01,-2.561040267542699644e-01,1.465028269673795611e-02
1.160000000000000059e-01,-4.096780741356285116e-01,-4.999910344444589289e-02,-1.524141444284257130e-01
1.170000000000000068e-01,-2.634958507922487980e-01,1.352930467176207685e-01,-2.464995622507843431e-01
1.179999999999999938e-01,-4.266224163321640818e-03,2.370153539618182204e-01,-2.507380159680799303e-01
1.189999999999999947e-01,2.173440594782673208e-01,2.508212190623805293e-01,-1.393892409537869637e-01
1.199999999999999956e-01,3.236750434615308647e-01,1.659145626868504253e-01,3.008331802471741687e-02
1.209999999999999964e-01,2.857299682087603432e-01,6.003977367261526671e-02,1.396376749644080706e-01
1.219999999999999973e-01,1.855567845229536550e-01,-2.575163017512081820e-02,1.966420493400893588e-01
1.229999999999999982e-01,5.851666468245608765e-02,-1.308253114786155913e-01,1.651672697030430459e-01
1.239999999999999991e-01,-5.318370939504862838e-02,-2.117448907280922166e-01,9.971897324593112510e-02
1.250000000000000000e-01,-1.920755781110020932e-01,-2.506061517144438922e-01,2.273887355462006835e-02
1.260000000000000009e-01,-2.700627135648033250e-01,-2.020209184944876113e-01,-4.096374978797001631e-02
1.270000000000000018e-01,-3.067719142871915827e-01,-5.242395982396914206e-02,-1.110063555574333366e-01
1.280000000000000027e-01,-2.194651338698275500e-01,1.420063323371352215e-01,-1.737792548617674016e-01
1.290000000000000036e-01,-1.232809257487604837e-02,3.141780229404411706e-01,-1.861026056128714523e-01
1.300000000000000044e-01,2.320323772276153551e-01,3.323817254034767688e-01,-1.247458937003217971e-01
1.310000000000000053e-01,4.134846084916109499e-01,1.868466937908039305e-01,3.127350803207854489e-03
1.320000000000000062e-01,3.951850907883787123e-01,-3.923208544728096214e-02,1.519897278909559113e-01
1.330000000000000071e-01,2.072640011440554375e-01,-2.210381184730985937e-01,2.378437488344560535e-01
1.340000000000000080e-01,-7.367453525096881450e-02,-3.052900879069150308e-01,2.246303396526191376e-01
1.350000000000000089e-01,-3.137128559090797686e-01,-2.296683634659409667e-01,1.030139021223619583e-01
1.360000000000000098e-01,-3.708512687227146776e-01,-1.027055872919820090e-01,-4.598876516422863159e-02
1.370000000000000107e-01,-2.920260291492968729e-01,2.441945774456622670e-02,-1.650811666423586122e-01
1.380000000000000115e-01,-1.273917184940853153e-01,1.114418337208296361e-01,-2.253602558647216925e-01
1.390000000000000124e-01,4.347760731743231105e-02,1.793445027487041710e-01,-1.823700989116048832e-01
1.400000000000000133e-01,1.589762525526642045e-01,2.092736742556038643e-01,-6.794013653873039182e-02
1.409999999999999865e-01,2.301679719795938217e-01,1.848098910101160786e-01,3.221151984403623075e-02
1.419999999999999873e-01,2.528597134679830827e-01,9.798957013212382383e-02,9.259828418561441565e-02
1.429999999999999882e-01,2.321321380937833301e-01,-5.542979981869085304e-02,1.415774933230531940e-01
1.439999999999999891e-01,1.291877808420124896e-01,-2.094464678832871352e-01,1.540790943178470540e-01
1.449999999999999900e-01,-5.497539354956735430e-02,-3.201583036986370701e-01,1.529421432251280855e-01
1.459999999999999909e-01,-2.629836250154056199e-01,-2.722252287148084759e-01,8.706032433503942125e-02
1.469999999999999918e-01,-3.990210833075867325e-01,-1.032886878065958636e-01,-9.625337604051103710e-03
1.479999999999999927e-01,-3.511783417356770243e-01,1.409735066101371892e-01,-1.468692103257524806e-01
1.489999999999999936e-01,-1.508987605276213839e-01,2.929976665152277393e-01,-2.351267995615036188e-01
1.499999999999999944e-01,1.511900919132803944e-01,3.123261600878407540e-01,-2.233861241984499979e-01
1.509999999999999953e-01,3.512783443494003621e-01,1.985052688650662256e-01,-1.030027275716172142e-01
1.519999999999999962e-01,4.117185235887489414e-01,1.883327027108092425e-02,6.853585921602610431e-02
1.529999999999999971e-01,2.863408362147442654e-01,-1.259903285852474186e-01,1.925454892591587086e-01
1.539999999999999980e-01,5.046029466797427587e-02,-2.062119310756315438e-01,2.514165740998332010e-01
1.549999999999999989e-01,-1.495909776445242256e-01,-2.115392012618779460e-01,1.999790224990133647e-01
1.559999999999999998e-01,-2.581508387160041385e-01,-1.884659173390421383e-01,5.875311570252158416e-02
1.570000000000000007e-01,-2.668986788896020590e-01,-1.040794111679466533e-01,-6.987392061066159676e-02
1.580000000000000016e-01,-2.322926027249473391e-01,-8.723515588226458256e-03,-1.479803328237346005e-01
1.590000000000000024e-01,-1.390419175272188390e-01,1.375230236325495070e-01,-1.414117103258569486e-01
1.600000000000000033e-01,-2.112328956362686735e-02,2.456428631149339126e-01,-1.412674977731091797e-01
1.610000000000000042e-01,1.456494792464320398e-01,2.803887385967738788e-01,-9.408363561836143030e-02
1.620000000000000051e-01,2.844502399692152017e-01,2.084144202897192100e-01,-3.513048518172402768e-02
1.630000000000000060e-01,3.668067114574953824e-01,6.442934726668980185e-04,5.245806807628357327e-02
1.640000000000000069e-01,2.794226423597898634e-01,-2.149599696056462839e-01,1.444051726623857557e-01
1.650000000000000078e-01,7.591902488183703557e-02,-3.433418923424325642e-01,2.117081200221274662e-01
1.660000000000000087e-01,-2.081258102751953609e-01,-2.925277396011741193e-01,1.993626077359871018e-01
1.670000000000000095e-01,-3.964042454111160740e-01,-1.187775681528005361e-01,8.849415986550597524e-02
1.680000000000000104e-01,-4.113018134028179063e-01,8.004264011440302695e-02,-7.344979763650431870e-02
1.690000000000000113e-01,-2.420054395621961119e-01,2.185170875894553444e-01,-2.057326049552617997e-01
1.700000000000000122e-01,1.843545770439359091e-02,2.613016172100561807e-01,-2.572177048531760768e-01
1.710000000000000131e-01,2.375108863962458738e-01,2.078626872052541097e-01,-1.689009356051277000e-01
1.719999999999999862e-01,3.172190909415351645e-01,9.750506109348218431e-02,-3.684523828349599295e-02
1.729999999999999871e-01,2.779834313061093631e-01,3.063856010643864047e-03,1.198411327493688616e-01
1.739999999999999880e-01,1.763992568398701777e-01,-1.004583614053467383e-01,1.927140505448768082e-01
1.749999999999999889e-01,2.491022627003703499e-02,-1.877033433357148118e-01,1.823864402167856003e-01
1.759999999999999898e-01,-8.306517678218321155e-02,-2.448240915639235127e-01,1.209831429086249410e-01
1.769999999999999907e-01,-1.850163085314644185e-01,-2.356663492363214318e-01,5.333515090602992254e-02
1.779999999999999916e-01,-2.789206582267710899e-01,-1.089257195695705338e-01,-2.351111901528052384e-02
1.789999999999999925e-01,-3.065315776180692064e-01,8.754542814026747277e-02,-9.826451704441863111e-02
1.799999999999999933e-01,-1.898994292380220827e-01,2.700422574129632824e-01,-1.485308707607867762e-01
1.809999999999999942e-01,-1.647059950273550150e-03,3.396423979292080286e-01,-1.858891307906729018e-01
1.819999999999999951e-01,2.613857016174093162e-01,2.470888742827320461e-01,-1.638156703256258007e-01
1.829999999999999960e-01,4.080511695451982113e-01,3.299713454039765459e-02,-7.927356945672502098e-02
1.839999999999999969e-01,3.746775123283045961e-01,-1.716192983101483827e-01,9.208788352640762120e-02
1.849999999999999978e-01,1.759986663426141851e-01,-2.878900116900163786e-01,1.995168916590900066e-01
1.859999999999999987e-01,-9.430818323165436612e-02,-2.687287953575444033e-01,2.613702043212816628e-01
1.869999999999999996e-01,-3.177842642062808642e-01,-1.534148527284529551e-01,1.674167759391411714e-01
1.880000000000000004e-01,-3.806052691681990896e-01,5.271158843461094118e-03,2.724435234654285637e-02
1.890000000000000013e-01,-2.761893003829030135e-01,8.902751789562088347e-02,-1.288386460864152649e-01
1.900000000000000022e-01,-1.061714430951551380e-01,1.642998154044353065e-01,-2.096084399271204990e-01
1.910000000000000031e-01,6.373134017685738728e-02,1.960921784049936556e-01,-2.088543256698998651e-01
1.920000000000000040e-01,1.803599907425827154e-01,1.956339532314344265e-01,-1.188741170710553852e-01
1.930000000000000049e-01,2.340965437339975752e-01,1.274794359368480456e-01,-3.140366971845616039e-03
1.940000000000000058e-01,2.572031264497799952e-01,7.205839175582359757e-03,9.121723557900464352e-02
1.950000000000000067e-01,2.197163916016552088e-01,-1.573310029828789702e-01,1.332365701161674909e-01
1.960000000000000075e-01,1.215206124007481292e-01,-3.103475808987785634e-01,1.570592648382209411e-01
1.970000000000000084e-01,-8.713228055864039034e-02,-3.140904158308799321e-01,1.499660841193314609e-01
1.980000000000000093e-01,-2.906287982344701315e-01,-1.648880206236564561e-01,1.042812096164163621e-01
1.990000000000000102e-01,-3.935752131963919931e-01,5.030701456671803073e-02,2.171508340496738909e-02
2.000000000000000111e-01,-3.296741950312054303e-01,2.471995874925787262e-01,-1.028192195952449400e-01
2.010000000000000120e-01,-1.098538761854807172e-01,3.380558702122869463e-01,-2.012763750922498818e-01
2.020000000000000129e-01,1.885846440096011489e-01,2.379455164682996726e-01,-2.363642108361002359e-01
2.030000000000000138e-01,3.816596823633610636e-01,9.232425101628195796e-02,-1.496454229837264616e-01
2.039999999999999869e-01,4.010988647761656312e-01,-8.849651206075874466e-02,-1.572389408873918482e-02
2.049999999999999878e-01,2.472001849700748710e-01,-1.982870434332298371e-01,1.391177583231630044e-01
2.059999999999999887e-01,2.225553200280825511e-02,-2.249224541166697233e-01,2.436791463452140372e-01
2.069999999999999896e-01,-1.662246202500445025e-01,-1.934205704953639027e-01,2.189252085914430712e-01
2.079999999999999905e-01,-2.886084889412346421e-01,-1.210864465625441783e-01,9.654580190518903537e-02
2.089999999999999913e-01,-2.665698773015506284e-01,-2.636240054034987706e-02,-1.430891839672760769e-02
2.099999999999999922e-01,-1.999048189660686536e-01,8.974948353557669900e-02,-1.163814802739429749e-01
2.109999999999999931e-01,-1.118360260288450980e-01,2.069493215804440178e-01,-1.713737602953301353e-01
2.119999999999999940e-01,-1.659653391681495480e-03,2.751341752488764558e-01,-1.408253982114089919e-01
2.129999999999999949e-01,1.554175103754738829e-01,2.560015988900825046e-01,-1.197664727821169395e-01
2.139999999999999958e-01,2.809148213225353130e-01,7.000960521399889058e-02,-4.560401947929194899e-02
2.149999999999999967e-01,3.587793145475473566e-01,-1.455573547780953103e-01,1.188942097274452332e-02
2.159999999999999976e-01,2.668647791872408859e-01,-3.153591511690042593e-01,1.051984601408995079e-01
2.169999999999999984e-01,2.267872592033717480e-02,-3.305205667512080558e-01,1.912006216214995336e-01
2.179999999999999993e-01,-2.379948062668539588e-01,-1.990223261949322919e-01,2.069319278266293638e-01
2.190000000000000002e-01,-4.100842331237939398e-01,8.736832832445310532e-03,1.320276946109749938e-01
2.200000000000000011e-01,-4.121243030555757914e-01,1.695987601206796203e-01,-4.306531324445946399e-03
2.210000000000000020e-01,-2.006205949826874169e-01,2.668122440972132692e-01,-1.592973390134762579e-01
2.220000000000000029e-01,5.597469214612633970e-02,2.428509626785547715e-01,-2.458033949470843638e-01
2.230000000000000038e-01,2.630971422532298876e-01,1.180795028467163665e-01,-2.331812939517001748e-01
2.240000000000000047e-01,3.299791984473140483e-01,3.060926305883126738e-02,-8.367015385301204700e-02
2.250000000000000056e-01,2.883300323208077276e-01,-5.835778273628972751e-02,5.215853452883111030e-02
2.260000000000000064e-01,1.532772794059328592e-01,-1.629585852105958077e-01,1.695226931457011477e-01
2.270000000000000073e-01,2.654476911764996547e-02,-2.223962113200254054e-01,1.905150502588544847e-01
2.280000000000000082e-01,-1.143012445429851531e-01,-2.247324498935676373e-01,1.613018281406476406e-01
2.290000000000000091e-01,-2.166782639019112222e-01,-1.483347670266075835e-01,7.922755643360057665e-02
2.300000000000000100e-01,-2.858029519997200008e-01,2.325699293052173669e-02,-8.324512148814643825e-03
2.310000000000000109e-01,-2.914505751509471332e-01,2.293235926671304825e-01,-6.497154914236236145e-02
2.320000000000000118e-01,-1.808651051565670631e-01,3.111877550176396778e-01,-1.297507635502291312e-01
2.330000000000000127e-01,4.677708088790844682e-02,2.918006376733479068e-01,-1.714936127792036080e-01
2.340000000000000135e-01,3.017595057579195994e-01,1.303027830550728405e-01,-1.784464482139292429e-01
2.349999999999999867e-01,4.128078610794112535e-01,-1.058245713399920684e-01,-9.030752873089366306e-02
2.359999999999999876e-01,3.714537719581765818e-01,-2.528933066993518386e-01,4.228984848916923778e-02
2.369999999999999885e-01,1.367102727027539044e-01,-2.908313803049187851e-01,1.729143511418907153e-01
2.379999999999999893e-01,-1.409639133328002281e-01,-2.078976597384061820e-01,2.516319573186144853e-01
2.389999999999999902e-01,-3.323294837590754502e-01,-4.514596380671195841e-02,2.110072687447155648e-01
2.399999999999999911e-01,-3.864284391471165536e-01,7.514485513244563430e-02,8.888348124977910047e-02
2.409999999999999920e-01,-2.540376591594829536e-01,1.575488965524924623e-01,-8.672156344194595357e-02
2.419999999999999929e-01,-7.523541620871433688e-02,1.833337677854730563e-01,-2.184850007080923751e-01
2.429999999999999938e-01,8.177183995032764885e-02,2.134295411697917366e-01,-2.250076925900043601e-01
2.439999999999999947e-01,1.988187395644708255e-01,1.297901339346361482e-01,-1.576216728716819393e-01
2.449999999999999956e-01,2.358110885228327513e-01,4.564997184965954857e-02,-4.858999434200118872e-02
2.459999999999999964e-01,2.547373954516042871e-01,-1.017406918803388793e-01,4.575486150799371737e-02
2.469999999999999973e-01,2.062171830995066513e-01,-2.724800568190121064e-01,1.101815636211098404e-01
2.479999999999999982e-01,6.827625341937086645e-02,-3.176609627973499550e-01,1.485614926324888008e-01
2.489999999999999991e-01,-1.215871771557592435e-01,-2.377590932579446426e-01,1.499836280513867082e-01
2.500000000000000000e-01,-3.290924090931832691e-01,-2.882195322165985799e-02,1.357771867131963295e-01
2.510000000000000009e-01,-4.006724817987330489e-01,1.913109028537694212e-01,6.723699913015779295e-02
2.520000000000000018e-01,-3.148188699804676527e-01,3.073305699735475738e-01,-5.894384022457173355e-02
2.530000000000000027e-01,-7.413640342164198871e-02,3.005326308476566899e-01,-1.741060882072071880e-01
2.540000000000000036e-01,2.174013353885071720e-01,1.478067962935133151e-01,-2.293566995063035796e-01
2.550000000000000044e-01,3.821928511735058209e-01,-3.730641790532684271e-02,-2.000099910737972719e-01
2.560000000000000053e-01,3.945338160252822024e-01,-1.754571210354806954e-01,-8.596287586705880779e-02
2.570000000000000062e-01,2.293468926794441087e-01,-2.054958674880937863e-01,1.007108143277541945e-01
2.580000000000000071e-01,-1.663590138813565017e-02,-2.159267142261863670e-01,2.346169739613795102e-01
2.590000000000000080e-01,-2.046244591947293801e-01,-1.264850732277560952e-01,2.469538540754045164e-01
2.600000000000000089e-01,-2.762850674044220467e-01,-6.366086989900308912e-02,1.764785209568824620e-01
2.610000000000000098e-01,-2.665209594012937777e-01,4.707363157324752356e-02,2.181510443476082292e-02
2.620000000000000107e-01,-1.935658315873609869e-01,1.652199300374487811e-01,-1.062915367250079762e-01
2.630000000000000115e-01,-9.701687434051044223e-02,2.593244913463134127e-01,-1.687505811749273055e-01
2.640000000000000124e-01,2.864722210459095045e-02,2.658656211285893578e-01,-1.616944073053090403e-01
2.650000000000000133e-01,1.858693564333956660e-01,1.431930310040643028e-01,-1.260733682408724243e-01
2.660000000000000142e-01,3.177627337545223529e-01,-5.544167451119401402e-02,-7.433775827620926757e-02
2.670000000000000151e-01,3.426527630404700986e-01,-2.655564020067205377e-01,-6.244892557286156609e-03
2.680000000000000160e-01,2.357899477003769506e-01,-3.469650079200093384e-01,7.394116512607427916e-02
2.690000000000000169e-01,-7.332575621448244457e-03,-2.623977893583903098e-01,1.704295056620774851e-01
2.700000000000000178e-01,-2.794198055407210446e-01,-6.744144640784507927e-02,2.199968835776342779e-01
2.710000000000000187e-01,-4.178298512837341772e-01,1.400638070973120042e-01,1.842130669962653289e-01
2.720000000000000195e-01,-3.869217926006023323e-01,2.537168207642315210e-01,4.978596577745186130e-02
2.730000000000000204e-01,-1.795855649275898136e-01,2.654532164618598200e-01,-1.020223993921496042e-01
2.740000000000000213e-01,8.934223388453806092e-02,1.610488618889844015e-01,-2.236929207739329073e-01
2.750000000000000222e-01,2.812196321733644866e-01,5.777057694730505094e-02,-2.640777051651441165e-01
2.760000000000000231e-01,3.341011693596276921e-01,-2.701402409320009107e-02,-1.626254102162425774e-01
2.770000000000000240e-01,2.605884557960756465e-01,-1.334179090101509091e-01,1.178684718059950414e-03
2.780000000000000249e-01,1.252077573256979159e-01,-2.087157808055734864e-01,1.353946931352593697e-01
2.790000000000000258e-01,-1.077000385498851076e-02,-2.291534622951439670e-01,1.887063036421842976e-01
2.800000000000000266e-01,-1.182604117165690638e-01,-2.024108440238365503e-01,1.843348352891729658e-01
2.810000000000000275e-01,-2.296879806569149807e-01,-5.434820494087110737e-02,1.025092065749172304e-01
2.819999999999999729e-01,-2.896707387988631810e-01,1.360985632550823221e-01,3.562749259026284226e-02
2.829999999999999738e-01,-2.780531004913120441e-01,2.983916901457212556e-01,-4.420474811318376995e-02
2.839999999999999747e-01,-1.508586987139798330e-01,3.335865361742493262e-01,-9.647660333962056189e-02
2.849999999999999756e-01,8.618738843181740494e-02,1.740188970108723088e-01,-1.548704284757927707e-01
2.859999999999999765e-01,3.098105795089683423e-01,-2.478284553948585656e-02,-1.873910866518814777e-01
2.869999999999999774e-01,4.224012598198481627e-01,-2.303667863765265500e-01,-1.281836705696113854e-01
2.879999999999999782e-01,3.298221411237065581e-01,-3.005184117228941743e-01,-2.347952108593717030e-02
2.889999999999999791e-01,1.075273698587867477e-01,-2.529173744631857956e-01,1.182230801983372992e-01
2.899999999999999800e-01,-1.678263589812793444e-01,-1.191955148415198840e-01,2.215605987622102924e-01
2.909999999999999809e-01,-3.628697936949927261e-01,3.149689464919249587e-02,2.436839106583257863e-01
2.919999999999999818e-01,-3.771020187109132560e-01,1.304810993484434578e-01,1.479405377977717206e-01
2.929999999999999827e-01,-2.454033012349433052e-01,1.894616601626851471e-01,-1.652596131320651848e-02
2.939999999999999836e-01,-5.237543047030873700e-02,2.045613594972404692e-01,-1.732483769690565389e-01
2.949999999999999845e-01,1.185515005617999718e-01,1.527316630675658593e-01,-2.353439237326873379e-01
2.959999999999999853e-01,2.229858753813950267e-01,9.500599373841622786e-02,-2.089098747871471207e-01
2.969999999999999862e-01,2.413283899323035164e-01,-5.565788031357502691e-02,-8.799999494753595053e-02
2.979999999999999871e-01,2.412435070251643110e-01,-2.011091769703955701e-01,1.625695458821046699e-02
2.989999999999999880e-01,1.750171317019275918e-01,-3.159442976968137584e-01,8.818648661233473296e-02
2.999999999999999889e-01,5.289090582867479740e-02,-2.861608551716542381e-01,1.362479152939154170e-01
3.009999999999999898e-01,-1.473747498444337445e-01,-1.183438221805152568e-01,1.581042965545360335e-01
3.019999999999999907e-01,-3.288441833675039838e-01,1.086283672882656093e-01,1.411346379237608528e-01
3.029999999999999916e-01,-4.061251300308069689e-01,2.933039092304455808e-01,7.255519221734241242e-02
3.039999999999999925e-01,-2.860718717065422467e-01,3.374823481036569595e-01,-1.188823202963217376e-02
3.049999999999999933e-01,-4.565007000702704654e-02,2.077458383483211379e-01,-1.291322888524773227e-01
3.059999999999999942e-01,2.381858410348261235e-01,3.488927005843255047e-02,-2.115373459209144158e-01
3.069999999999999951e-01,4.159605250445301827e-01,-1.355121497228307104e-01,-2.217324487769014030e-01
3.079999999999999960e-01,3.660174204151828703e-01,-2.119655331685247057e-01,-1.412363224003981010e-01
3.089999999999999969e-01,2.089368715891609940e-01,-2.357002975326005501e-01,3.774028730920889890e-02
3.099999999999999978e-01,-3.265052360090848343e-02,-1.535019991089025815e-01,2.032349308572365398e-01
3.109999999999999987e-01,-2.230585419895094734e-01,-7.433716888775042386e-02,2.448227416392918521e-01
3.119999999999999996e-01,-2.814324215902889170e-01,1.185980338749381517e-02,2.187647207361390622e-01
3.130000000000000004e-01,-2.529358864151157182e-01,1.362761932369441764e-01,7.397751066063747161e-02
3.140000000000000013e-01,-1.772614438342682841e-01,2.417916304107461389e-01,-4.920174330998125511e-02
3.150000000000000022e-01,-6.650471353726802870e-02,2.739397869660430973e-01,-1.398408382237479874e-01
3.160000000000000031e-01,4.816181308194804334e-02,1.932346811955615862e-01,-1.679126031441954825e-01
3.170000000000000040e-01,1.974954098101846800e-01,2.286044802345390398e-02,-1.540562001598045072e-01
3.180000000000000049e-01,3.210851106620605799e-01,-2.007046554940605798e-01,-1.053135363253555890e-01
3.190000000000000058e-01,3.353512553411502339e-01,-3.413232951432472184e-01,-3.359606205825983044e-02
3.200000000000000067e-01,2.119990114563769790e-01,-2.998287118010761754e-01,4.683115130131731280e-02
3.210000000000000075e-01,-3.070129958736917547e-02,-1.363702947335105886e-01,1.272240498642627227e-01
3.220000000000000084e-01,-2.902730456820502014e-01,6.874010071854350090e-02,1.902984084551630484e-01
3.230000000000000093e-01,-4.262271828900564552e-01,2.208735865574694146e-01,1.880877113545504631e-01
3.240000000000000102e-01,-3.739147973677492964e-01,2.766999369253377861e-01,8.865445714049950687e-02
3.250000000000000111e-01,-1.367199639520803311e-01,2.171947390539097911e-01,-4.444419471158385371e-02
3.260000000000000120e-01,1.218588380711101427e-01,1.055126854654482582e-01,-1.904784132449384160e-01
3.270000000000000129e-01,3.022079355440253079e-01,-1.593904531130876587e-02,-2.613297405278229291e-01
3.280000000000000138e-01,3.433825955252468032e-01,-9.994651256495895586e-02,-2.021933986257027083e-01
3.290000000000000147e-01,2.418295017562615001e-01,-1.792643407463236360e-01,-7.018134772745972250e-02
3.300000000000000155e-01,1.112284296531011185e-01,-2.408472335236611639e-01,1.007156039279780979e-01
3.310000000000000164e-01,-4.168689438646475814e-02,-2.070613902009958707e-01,1.877822785187358567e-01
3.320000000000000173e-01,-1.427043676183325227e-01,-1.196206910642090282e-01,2.014993445140476902e-01
3.330000000000000182e-01,-2.253297964351619886e-01,7.697171894850195206e-02,1.451028932779542258e-01
3.340000000000000191e-01,-2.905715159316058505e-01,2.555374753140490784e-01,5.846631985835577805e-02
3.350000000000000200e-01,-2.556772397693484189e-01,3.511464696685207554e-01,-3.010143449062645249e-02
3.360000000000000209e-01,-1.303314685662396721e-01,2.586885235696753660e-01,-8.849800460740556152e-02
3.370000000000000218e-01,1.230251241523700190e-01,6.446095643203929304e-02,-1.280851581293164232e-01
3.380000000000000226e-01,3.210978309284376331e-01,-1.563158869143369545e-01,-1.851568970771105549e-01
3.390000000000000235e-01,4.192211816357742649e-01,-3.026573144731665721e-01,-1.485316260994578863e-01
3.400000000000000244e-01,3.275739337128368289e-01,-2.926647465223123357e-01,-6.155320025720940891e-02
3.410000000000000253e-01,7.569785080731319948e-02,-1.748837499328231293e-01,4.395426226092394306e-02
3.420000000000000262e-01,-2.038399213328561110e-01,-8.032287444325488662e-03,2.114945369022361299e-01
3.430000000000000271e-01,-3.616542932268064225e-01,1.129816724035928172e-01,2.498690391515297760e-01
3.439999999999999725e-01,-3.711151281540599478e-01,1.918766867193978098e-01,1.936688255823211247e-01
3.449999999999999734e-01,-2.143737077141452674e-01,2.057070082722804449e-01,5.260477390688737820e-02
3.459999999999999742e-01,-2.258267807332360252e-02,1.948440136058819938e-01,-1.237519373379975945e-01
3.469999999999999751e-01,1.246098645534005622e-01,1.201547621040832819e-01,-2.277925904132862278e-01
3.479999999999999760e-01,2.332358186464658645e-01,2.786469124887185414e-03,-2.281862341990386345e-01
3.489999999999999769e-01,2.465504029658850405e-01,-1.388946555630438950e-01,-1.456427790061967931e-01
3.499999999999999778e-01,2.189295444006322255e-01,-2.692233333986077670e-01,-2.333146077900387708e-02
3.509999999999999787e-01,1.551812726432406364e-01,-3.114790020658460001e-01,7.429043318254516248e-02
3.519999999999999796e-01,2.054792135898138652e-02,-1.934114928111299869e-01,1.280119663918981299e-01
3.529999999999999805e-01,-1.753335607220856407e-01,2.268603013405644936e-02,1.500684965732456966e-01
3.539999999999999813e-01,-3.232214168696585510e-01,2.397892445938329675e-01,1.461656816627291688e-01
3.549999999999999822e-01,-3.832639388787031920e-01,3.388942176063416967e-01,9.579959779140653775e-02
3.559999999999999831e-01,-2.580701799873965641e-01,2.704820947318227198e-01,3.331364958302879264e-02
3.569999999999999840e-01,-1.270381038077262638e-02,8.750120190780687202e-02,-8.931920130610111752e-02
3.579999999999999849e-01,2.708874004881283160e-01,-8.207749542825766575e-02,-1.876792899747134202e-01
3.589999999999999858e-01,4.094271512273551239e-01,-2.207868602846984607e-01,-2.243141763759084750e-01
3.599999999999999867e-01,3.568538906928602206e-01,-2.320320541537150838e-01,-1.779962987559598475e-01
3.609999999999999876e-01,1.691275367820459508e-01,-1.849560559746909749e-01,-2.772991422673288728e-02
3.619999999999999885e-01,-6.732686703359348768e-02,-1.022718872910971938e-01,1.188652408420934337e-01
3.629999999999999893e-01,-2.556351524558908572e-01,-2.419688044452215220e-02,2.463906339702542636e-01
3.639999999999999902e-01,-2.904204564362951047e-01,8.217428192952348776e-02,2.426463520483701786e-01
3.649999999999999911e-01,-2.502938192347871627e-01,1.889127881314306423e-01,1.417853089794040011e-01
3.659999999999999920e-01,-1.631663818274841637e-01,2.810830128354146473e-01,-1.027497005843816882e-02
3.669999999999999929e-01,-5.100274632222785709e-02,2.477122095762333276e-01,-1.349224192700922420e-01
3.679999999999999938e-01,8.291681778314244355e-02,9.441850533128819112e-02,-1.702163807682980923e-01
3.689999999999999947e-01,2.155736929782899047e-01,-1.159424401628774276e-01,-1.613597087703857735e-01
3.699999999999999956e-01,3.293943616782497030e-01,-3.032425249116747490e-01,-1.273036076748882417e-01
3.709999999999999964e-01,3.302823946925732002e-01,-3.343014610521543029e-01,-5.113311738561167330e-02
3.719999999999999973e-01,1.709558823439649433e-01,-2.334750475266250958e-01,2.360187668178945902e-02
3.729999999999999982e-01,-6.668919052317712204e-02,-2.646371672006613235e-04,9.350773820875137032e-02
3.739999999999999991e-01,-3.162894886201647049e-01,1.887797349666473778e-01,1.691223771933312581e-01
3.750000000000000000e-01,-4.398113669218399191e-01,2.751746833907489087e-01,2.066504044679300656e-01
3.760000000000000009e-01,-3.581481149909856998e-01,2.493578762559734430e-01,1.578853091063227854e-01
3.770000000000000018e-01,-1.110417152704562538e-01,1.373168206692875759e-01,2.011811757783310908e-02
3.780000000000000027e-01,1.679527805374098071e-01,3.344403550291433214e-02,-1.331327299462398417e-01
3.790000000000000036e-01,3.163431731198037555e-01,-8.148554877879822522e-02,-2.374167051097771375e-01
3.800000000000000044e-01,3.398015501529433324e-01,-1.661684075023415474e-01,-2.517902620482743714e-01
3.810000000000000053e-01,2.219848352350855258e-01,-2.128249095865546725e-01,-1.321184204714614396e-01
3.820000000000000062e-01,7.548306723811304408e-02,-2.304771944430697994e-01,3.575586914522310700e-02
3.830000000000000071e-01,-5.007012395145358369e-02,-1.602189198423496774e-01,1.590363415310015460e-01
3.840000000000000080e-01,-1.665713242687985596e-01,1.795841025867934981e-02,2.157025139537130098e-01
3.850000000000000089e-01,-2.507800724773612822e-01,1.929139743729460232e-01,1.578706047111823885e-01
3.860000000000000098e-01,-2.863707527303682165e-01,3.291351450601162631e-01,8.360369336442080579e-02
3.870000000000000107e-01,-2.416855218459935395e-01,3.004670468984290133e-01,1.649059114056852316e-03
3.880000000000000115e-01,-9.627929207977524440e-02,1.252113740876816816e-01,-6.702040053719290902e-02
3.890000000000000124e-01,1.378586970752158081e-01,-8.935253195815723304e-02,-1.223086046401517663e-01
3.900000000000000133e-01,3.397323177252456472e-01,-2.788388220656524141e-01,-1.711911970728322574e-01
3.910000000000000142e-01,4.242557747895900344e-01,-3.108202422121301711e-01,-1.652769649153861820e-01
3.920000000000000151e-01,3.016046234263424219e-01,-2.165633450585467967e-01,-1.026199200902060266e-01
3.930000000000000160e-01,3.446814439819999298e-02,-5.594890353109247677e-02,8.218836607771305702e-03
3.940000000000000169e-01,-2.440516230543250120e-01,8.017763464271650264e-02,1.369112160984305715e-01
3.950000000000000178e-01,-3.803651699886656523e-01,1.653017946047433129e-01,2.389853328554184253e-01
3.960000000000000187e-01,-3.483468758791446462e-01,2.050276786835812659e-01,2.472830064013191997e-01
3.970000000000000195e-01,-1.970510345868546898e-01,1.958992319346425093e-01,1.207609070225864056e-01
3.980000000000000204e-01,5.835328733698862819e-03,1.427870442542204799e-01,-4.857212009632914940e-02
3.990000000000000213e-01,1.664882995834645885e-01,4.420360684074346042e-02,-1.874425034923892508e-01
4.000000000000000222e-01,2.295348087028828143e-01,-8.510394994351559717e-02,-2.364037050147211882e-01
4.010000000000000231e-01,2.423710791607501247e-01,-2.363785045098537319e-01,-1.828581283367926580e-01
4.020000000000000240e-01,2.293003030776322448e-01,-3.086732602684987281e-01,-7.523186819866352348e-02
4.030000000000000249e-01,1.443139070642442123e-01,-2.444280539090215310e-01,4.604039568283576495e-02
4.040000000000000258e-01,-1.086115648480085426e-02,-4.655434016274915404e-02,1.272840435577350382e-01
4.050000000000000266e-01,-1.961909876812120146e-01,1.736070114641205808e-01,1.567482474937222092e-01
4.060000000000000275e-01,-3.397760324215983174e-01,3.233812929382717249e-01,1.459200029632595208e-01
4.069999999999999729e-01,-3.844439638461728537e-01,2.983192432368646507e-01,1.259381919700522656e-01
4.079999999999999738e-01,-2.270312568085313121e-01,1.732475514485056212e-01,6.213750247012403416e-02
4.089999999999999747e-01,2.718358977350800523e-02,-3.363951448681180845e-02,-2.751135092473099356e-02
4.099999999999999756e-01,2.904831905042331575e-01,-1.831794278266606346e-01,-1.416307270809755436e-01
4.109999999999999765e-01,4.156002489060264815e-01,-2.408561582528451483e-01,-2.287684073170013765e-01
4.119999999999999774e-01,3.630198322771823194e-01,-2.188145598053376217e-01,-2.253497363838958822e-01
4.129999999999999782e-01,1.414125095515694486e-01,-1.364652441181529174e-01,-1.022378452279787964e-01
4.139999999999999791e-01,-9.738041569002695019e-02,-5.269706660962881345e-02,5.595573459743238137e-02
4.149999999999999800e-01,-2.668830498021756426e-01,5.076735651265334298e-02,2.000282875479944822e-01
4.159999999999999809e-01,-2.874969170688405073e-01,1.534188300570791808e-01,2.498635924280873943e-01
4.169999999999999818e-01,-2.371442861236371658e-01,2.539636732927379459e-01,1.928845268158855819e-01
4.179999999999999827e-01,-1.308852031658396531e-01,2.544480593290106007e-01,4.636851709111722980e-02
4.189999999999999836e-01,-2.982714186073149448e-02,1.512293506113433494e-01,-9.685926821281122534e-02
4.199999999999999845e-01,9.931894645824138057e-02,-4.502052461272421785e-02,-1.699464561651110595e-01
4.209999999999999853e-01,2.256690356764095018e-01,-2.555868198648217904e-01,-1.835456816959054327e-01
4.219999999999999862e-01,3.209108390376413378e-01,-3.514422215478142375e-01,-1.321748094989709521e-01
4.229999999999999871e-01,3.174822052186507815e-01,-2.729828458726500928e-01,-8.842795625798030579e-02
4.239999999999999880e-01,1.530829198242784073e-01,-8.763025281897070251e-02,7.871525633041645889e-03
4.249999999999999889e-01,-1.194406507257162464e-01,1.312279281688129573e-01,7.286012580846358555e-02
4.259999999999999898e-01,-3.409114087947638927e-01,2.713654285679403810e-01,1.479356557744444800e-01
4.269999999999999907e-01,-4.348135490510172119e-01,2.601210054176734676e-01,2.086174536299309212e-01
4.279999999999999916e-01,-3.220593182324998360e-01,1.773402934729552405e-01,1.818315788829163449e-01
4.289999999999999925e-01,-5.651442187129374073e-02,5.781692182486759118e-02,7.847349839434790419e-02
4.299999999999999933e-01,1.928469633075925727e-01,-5.736690859537973280e-02,-8.812234175353994559e-02
4.309999999999999942e-01,3.317358862671387354e-01,-1.366572023287529747e-01,-2.211147638718709840e-01
4.319999999999999951e-01,3.317770224005904267e-01,-1.974479699309040215e-01,-2.402920934806152820e-01
4.329999999999999960e-01,2.078085092043622517e-01,-2.192366992761912714e-01,-1.808519723228468601e-01
4.339999999999999969e-01,5.605186760803439194e-02,-2.019730666434792765e-01,-4.062796672411636556e-02
4.349999999999999978e-01,-1.015690209713716041e-01,-6.974233468547499926e-02,1.122801694637217684e-01
4.359999999999999987e-01,-1.814819023762497263e-01,1.237313355406790411e-01,2.113634063154536946e-01
4.369999999999999996e-01,-2.424424441548625742e-01,2.841690075917854830e-01,1.934351921935885399e-01
4.380000000000000004e-01,-2.641253703680885301e-01,3.298330555813510645e-01,1.376976404162008061e-01
4.390000000000000013e-01,-2.241387853255192575e-01,2.098342344729131892e-01,3.237253269939713990e-02
4.400000000000000022e-01,-4.990428273986590585e-02,-4.213898000433877536e-03,-3.496410237094437629e-02
4.410000000000000031e-01,1.752186687568289825e-01,-2.164276778901658149e-01,-1.097648578726042462e-01
4.420000000000000040e-01,3.668377575897627252e-01,-3.304379518619904865e-01,-1.623181380462964396e-01
4.430000000000000049e-01,4.043488969676070077e-01,-2.816063480864440249e-01,-1.673327602660643065e-01
4.440000000000000058e-01,2.727022917891366860e-01,-1.272493139688785357e-01,-1.253818610326704608e-01
4.450000000000000067e-01,5.531594220156784217e-03,2.932604911808752227e-02,-3.821328636196051620e-02
4.460000000000000075e-01,-2.623216607288374469e-01,1.582097090290769392e-01,8.727550892490457124e-02
4.470000000000000084e-01,-4.024970596959872582e-01,2.068858290292043545e-01,2.110485900102810064e-01
4.480000000000000093e-01,-3.480780787585624481e-01,2.077722924898744716e-01,2.404311480345967533e-01
4.490000000000000102e-01,-1.627505943457602799e-01,1.629881536007061482e-01,1.881426979501694963e-01
4.500000000000000111e-01,4.531243265570767537e-02,8.080481170181746942e-02,2.258527494829624602e-02
4.510000000000000120e-01,1.869895417934222537e-01,-3.393390583058854271e-02,-1.503775583073164168e-01
4.520000000000000129e-01,2.480961294359657898e-01,-1.918826725378777465e-01,-2.408252086464704733e-01
4.530000000000000138e-01,2.510854232938656838e-01,-3.189723942727391570e-01,-2.193867174321041391e-01
4.540000000000000147e-01,1.967867385705620031e-01,-2.684933374586601085e-01,-1.085675137674886187e-01
4.550000000000000155e-01,1.159882801799013846e-01,-1.316426362933046101e-01,4.389172711121354722e-03
4.560000000000000164e-01,-3.549164055427676823e-02,1.036825157798438035e-01,9.719496682796936737e-02
4.570000000000000173e-01,-2.247871880988920879e-01,2.851135408717381248e-01,1.513724966578235687e-01
4.580000000000000182e-01,-3.400670046554334913e-01,3.332732905069498153e-01,1.443227614141816550e-01
4.590000000000000191e-01,-3.697146089012178782e-01,2.386985787152690885e-01,1.221487495962323838e-01
4.600000000000000200e-01,-2.096348180891308421e-01,4.886161926353652790e-02,8.853578718329685460e-02
4.610000000000000209e-01,7.355952842418272963e-02,-1.430798332752490354e-01,-7.727431944296067438e-04
4.620000000000000218e-01,3.213011783258142851e-01,-2.460606891806528806e-01,-1.114981352396562930e-01
4.630000000000000226e-01,4.186444385510582067e-01,-2.371383719695911996e-01,-1.881142953538357254e-01
4.640000000000000235e-01,3.448628171044010315e-01,-1.487379335876697628e-01,-2.261746413471147354e-01
4.650000000000000244e-01,1.048350335942751926e-01,-7.528259154319394408e-02,-1.466621923472918310e-01
4.660000000000000253e-01,-1.393558453100720296e-01,9.804549072567255233e-03,-9.425202770558872498e-03
4.670000000000000262e-01,-2.719713828982884274e-01,1.175514523794304184e-01,1.562174555863034275e-01
4.680000000000000271e-01,-3.078811801514733659e-01,2.290653275455560023e-01,2.448099442437395579e-01
4.689999999999999725e-01,-2.287592894133885502e-01,2.830645339041884534e-01,2.296687459486389804e-01
4.699999999999999734e-01,-1.246774825671444764e-01,2.011310031987651736e-01,1.199972216280296988e-01
4.709999999999999742e-01,-7.202984352189768617e-03,3.452105903798126374e-02,-2.599364577857150513e-02
4.719999999999999751e-01,1.165552844634576007e-01,-1.695816621219626286e-01,-1.384796774511531658e-01
4.729999999999999760e-01,2.407198767361876379e-01,-3.258058058739705110e-01,-1.775903156401928140e-01
4.739999999999999769e-01,3.280405610713795217e-01,-3.159014638803150921e-01,-1.610346253995550703e-01
4.749999999999999778e-01,2.797425558219211461e-01,-1.688131466968859351e-01,-1.017777825696841582e-01
4.759999999999999787e-01,1.210370735385154634e-01,5.836874303979011636e-02,-3.067621985922827990e-02
4.769999999999999796e-01,-1.402963729300373552e-01,2.332702431623508987e-01,4.169308000941880643e-02
4.779999999999999805e-01,-3.659917061381529058e-01,2.819533021337267131e-01,1.370890597578768022e-01
4.789999999999999813e-01,-4.235320363558962575e-01,2.228564397037088030e-01,1.743023285379584342e-01
4.799999999999999822e-01,-2.870972160770040027e-01,1.069052918174436401e-01,1.996323947680408439e-01
4.809999999999999831e-01,-3.479880669901443818e-02,-3.423104915780045970e-02,1.351433136511629440e-01
4.819999999999999840e-01,2.135386792781330811e-01,-1.145065207971947274e-01,-2.187378331818361915e-02
4.829999999999999849e-01,3.501293977575073990e-01,-1.811070239243789959e-01,-1.786215054932685786e-01
4.839999999999999858e-01,3.303032203233580155e-01,-2.185752177185216194e-01,-2.523248905715787527e-01
4.849999999999999867e-01,1.900407797608212046e-01,-1.972102276943707988e-01,-2.310904096091966342e-01
4.859999999999999876e-01,2.507515397718662956e-02,-1.098424417573162643e-01,-1.129215171213167612e-01
4.869999999999999885e-01,-1.126152439936024680e-01,6.267905009205790301e-02,5.902032896929369776e-02
4.879999999999999893e-01,-1.924354578759349677e-01,2.354930147129609130e-01,1.847668445773051060e-01
4.889999999999999902e-01,-2.616597614201322530e-01,3.304359653225690807e-01,2.173663159955363799e-01
4.899999999999999911e-01,-2.638258049523981574e-01,2.715098195553787286e-01,1.578343933884423789e-01
4.909999999999999920e-01,-1.874805574791435503e-01,8.582267976893338812e-02,6.419889665431093018e-02
4.919999999999999929e-01,-2.257735747306888544e-02,-1.446810525119510971e-01,-2.013461716069210941e-02
4.929999999999999938e-01,1.996339232495952520e-01,-3.014434686445473521e-01,-8.934561734347815087e-02
4.939999999999999947e-01,3.694647970366541911e-01,-3.096087652169068338e-01,-1.300802189255234331e-01
4.949999999999999956e-01,4.095531613227175738e-01,-1.925719961797472957e-01,-1.657938908694246150e-01
4.959999999999999964e-01,2.611057134321430606e-01,-1.199481425719948514e-02,-1.515862386440124387e-01
4.969999999999999973e-01,-4.535335364798297186e-02,1.200274303304776635e-01,-7.811124131856060637e-02
4.979999999999999982e-01,-2.980012300013398785e-01,1.986715946960955770e-01,4.158505276003590656e-02
4.989999999999999991e-01,-4.008708102431312037e-01,2.085765889949833252e-01,1.712529653818126718e-01
5.000000000000000000e-01,-3.507196278194702477e-01,1.767767314271209145e-01,2.464668240922466835e-01
5.010000000000000009e-01,-1.422366741763716746e-01,1.128057351384299245e-01,2.187157641328434654e-01
5.020000000000000018e-01,8.842307308279981348e-02,-8.550967223756398422e-03,8.369530629650176468e-02
5.030000000000000027e-01,2.130173880849959289e-01,-1.330233679326462970e-01,-8.726334036631246127e-02
5.040000000000000036e-01,2.574373010565722542e-01,-2.642948755558751084e-01,-2.073716946505819170e-01
5.050000000000000044e-01,2.450782418696289267e-01,-2.928531103707855965e-01,-2.495875874252479476e-01
5.060000000000000053e-01,1.822893290217622864e-01,-1.923805812813772775e-01,-1.690983755816921619e-01
5.070000000000000062e-01,7.571604423813145524e-02,1.590896175409698202e-02,-3.509557030761425306e-02
5.080000000000000071e-01,-5.768298425250603656e-02,2.328457027709840976e-01,7.119945358967748328e-02
5.090000000000000080e-01,-2.460792017036305401e-01,3.354842278789265664e-01,1.459836305670555445e-01
5.100000000000000089e-01,-3.592230566836349115e-01,2.885533995786293548e-01,1.581052831093200939e-01
5.110000000000000098e-01,-3.564672180153123371e-01,1.180596788627062826e-01,1.333871280382364355e-01
5.120000000000000107e-01,-1.723296595712752177e-01,-7.866713925531894358e-02,1.051422471720057095e-01
5.130000000000000115e-01,1.046834861043380444e-01,-2.184573598492559332e-01,1.733965662902281143e-02
5.140000000000000124e-01,3.499856805759416489e-01,-2.498810944778583065e-01,-6.426522848659092790e-02
5.150000000000000133e-01,4.258367895571421591e-01,-1.994123316229777509e-01,-1.648701389249237759e-01
5.160000000000000142e-01,3.042512808557851778e-01,-1.067721574738175055e-01,-2.218336839068958677e-01
5.170000000000000151e-01,5.813751780314590362e-02,-1.725089586147003293e-02,-1.866038858617805885e-01
5.180000000000000160e-01,-1.673138343214727874e-01,7.914348717366997965e-02,-7.834960949336823577e-02
5.190000000000000169e-01,-2.847190961122727515e-01,1.995939908925929152e-01,1.083898813082930374e-01
5.200000000000000178e-01,-2.982212580603331165e-01,2.555135600473241175e-01,2.162082582527914409e-01
5.210000000000000187e-01,-2.183313619530128091e-01,2.295775690111220013e-01,2.526326739124040710e-01
5.220000000000000195e-01,-9.548593892283603612e-02,9.149814798805847027e-02,1.844240135823691784e-01
5.230000000000000204e-01,1.323764527158458743e-02,-1.030635171532841288e-01,8.704563970667916067e-03
5.240000000000000213e-01,1.470902312783368970e-01,-2.751783468629629414e-01,-1.114332085052895799e-01
5.250000000000000222e-01,2.608884545907040331e-01,-3.386844183820094667e-01,-1.757577017593122959e-01
5.260000000000000231e-01,3.222739000917357877e-01,-2.411815743844991644e-01,-1.745901763137314711e-01
5.270000000000000240e-01,2.572634023750361432e-01,-2.127172562376207152e-02,-1.271348828557862243e-01
5.280000000000000249e-01,8.742358341603623240e-02,1.852358221273060768e-01,-5.114092098254743174e-02
5.290000000000000258e-01,-1.615445423391261570e-01,2.796094109183162590e-01,2.186729375093909855e-02
5.300000000000000266e-01,-3.721414436144556692e-01,2.769019065343242270e-01,1.047325339012599582e-01
5.310000000000000275e-01,-4.268726095065816795e-01,1.586979458034356028e-01,1.519583371711137609e-01
5.320000000000000284e-01,-2.698732762914747285e-01,1.984904537433122493e-02,1.965553172697338258e-01
5.330000000000000293e-01,1.684506360005159561e-02,-1.004263220994557476e-01,1.565142199917787247e-01
5.340000000000000302e-01,2.429363283826934394e-01,-1.625181567835758401e-01,4.500149653071620903e-02
5.350000000000000311e-01,3.655561647739761777e-01,-1.949153021661534091e-01,-1.183814604940227055e-01
5.360000000000000320e-01,3.184690852499957869e-01,-2.078753563916115321e-01,-2.117031011277360208e-01
5.370000000000000329e-01,1.838832708273750727e-01,-1.339875987734321927e-01,-2.587142595693238123e-01
5.380000000000000338e-01,-1.433335890417783767e-03,-1.179251341935022741e-02,-1.661468288605554566e-01
5.390000000000000346e-01,-1.294220477617999965e-01,1.869134733771767864e-01,1.061946937345641107e-02
5.400000000000000355e-01,-2.161243577395136894e-01,3.210649007173719816e-01,1.439754286976946407e-01
5.410000000000000364e-01,-2.515503037033416378e-01,3.030837731833745385e-01,2.115858378431959008e-01
5.420000000000000373e-01,-2.424792327158654948e-01,1.532281846238019718e-01,1.911397399951930975e-01
5.430000000000000382e-01,-1.783450352232118508e-01,-6.054320295564726007e-02,1.175861089432563011e-01
5.440000000000000391e-01,4.669641444560684689e-03,-2.520292739522439485e-01,1.344177687113591287e-03
5.450000000000000400e-01,2.209671897042021216e-01,-3.292359808207466210e-01,-6.913545022381928362e-02
5.460000000000000409e-01,3.901965055948110606e-01,-2.296934505778465141e-01,-1.204944878324556018e-01
5.470000000000000417e-01,3.918317364409096282e-01,-6.498102537774970433e-02,-1.450055333788410616e-01
5.480000000000000426e-01,1.999137001604454900e-01,1.002461741702156406e-01,-1.524498579202932247e-01
5.490000000000000435e-01,-6.148485751791845505e-02,1.922006830694810986e-01,-1.063108335913244135e-01
5.500000000000000444e-01,-3.284161265854427247e-01,2.006621599291880664e-01,-1.761939636712449991e-02
5.510000000000000453e-01,-3.991288388761363715e-01,1.746551262348290390e-01,1.068420142984679994e-01
5.520000000000000462e-01,-3.258651357185902708e-01,1.295901279869952349e-01,2.209374388869563277e-01
5.530000000000000471e-01,-1.032591678213634762e-01,4.240592901838723117e-02,2.250874592775104488e-01
5.540000000000000480e-01,9.345511698167054127e-02,-8.926938328985305204e-02,1.517468806867742770e-01
5.550000000000000488e-01,2.304483840076618217e-01,-2.212625468083256608e-01,-1.983240755086862483e-02
5.560000000000000497e-01,2.699747102191519255e-01,-2.988195500610472677e-01,-1.888711498264561417e-01
5.570000000000000506e-01,2.306710709320844710e-01,-2.496529966619137064e-01,-2.444051700965342855e-01
5.580000000000000515e-01,1.669717296518178906e-01,-5.648538831407547145e-02,-2.120716348233587789e-01
5.590000000000000524e-01,7.942930748778735672e-02,1.528473494256163134e-01,-8.433833857095465736e-02
5.600000000000000533e-01,-8.065514674167019449e-02,3.201472113769147088e-01,4.645207468262316924e-02
5.610000000000000542e-01,-2.573775379645360517e-01,3.266448137818265818e-01,1.085023200675902383e-01
5.620000000000000551e-01,-3.707927517040795484e-01,1.895788243558184094e-01,1.387979812307186533e-01
5.629999999999999449e-01,-3.367664399381060658e-01,-1.927760105674553373e-02,1.588382576081950048e-01
5.639999999999999458e-01,-1.236010109772359838e-01,-1.789066927215399450e-01,1.173236122894251304e-01
5.649999999999999467e-01,1.435629498231360823e-01,-2.455209643094602434e-01,7.746192806698648514e-02
5.659999999999999476e-01,3.738995429558621408e-01,-2.293683312534042229e-01,-7.601525269185471258e-03
5.669999999999999485e-01,4.155280169853665662e-01,-1.385875624805343875e-01,-1.308930397078557351e-01
5.679999999999999494e-01,2.830981426335280049e-01,-4.454088416320999694e-02,-2.072150999604598087e-01
5.689999999999999503e-01,2.922691943759858982e-02,6.171933916090312916e-02,-2.165396880350107522e-01
5.699999999999999512e-01,-1.961507778309035110e-01,1.699455292622516767e-01,-1.382524249442294295e-01
5.709999999999999520e-01,-3.140739754944720796e-01,2.354116095348979809e-01,2.184471164872975324e-02
5.719999999999999529e-01,-2.945598823803636801e-01,2.616519826885362332e-01,1.949137727201123993e-01
5.729999999999999538e-01,-1.944544776641822237e-01,1.562219010074501202e-01,2.557644406723609820e-01
5.739999999999999547e-01,-8.442854190261230019e-02,-2.531936429740140951e-02,2.250224897696729287e-01
5.749999999999999556e-01,3.776015998172246868e-02,-2.217761245280794324e-01,7.780255934741688029e-02
5.759999999999999565e-01,1.489884653105841561e-01,-3.381647146281721583e-01,-6.895096370853807943e-02
5.769999999999999574e-01,2.600729908565166393e-01,-3.025320127170521012e-01,-1.585293625773251946e-01
5.779999999999999583e-01,3.208637884347061431e-01,-1.101019846235836291e-01,-1.892453865246687961e-01
5.789999999999999591e-01,2.470673306814852033e-01,1.020430093989580511e-01,-1.453481414671966010e-01
5.799999999999999600e-01,6.383366825889517926e-02,2.583743532187136593e-01,-8.872192397114701812e-02
5.809999999999999609e-01,-2.051376683956143698e-01,2.831712410661196277e-01,-6.732859533551925624e-03
5.819999999999999618e-01,-3.825345138836564463e-01,1.814750859694099772e-01,6.359755270168565566e-02
5.829999999999999627e-01,-4.074170449485626233e-01,5.129607877463927823e-02,1.331354190734770349e-01
5.839999999999999636e-01,-2.458636793780978047e-01,-6.981266820070211598e-02,1.945268784570647336e-01
5.849999999999999645e-01,3.633209683961989567e-02,-1.443978128545780337e-01,1.681583613333900440e-01
5.859999999999999654e-01,2.659137350857974091e-01,-1.979502555954736343e-01,1.012995587281559778e-01
5.869999999999999662e-01,3.835869550062631639e-01,-2.129439351306000594e-01,-4.666550687305522083e-02
5.879999999999999671e-01,3.117544555853115074e-01,-1.702870511224774674e-01,-1.917031500741845085e-01
5.889999999999999680e-01,1.466720929068228152e-01,-5.897561121753425867e-02,-2.599661976480301395e-01
5.899999999999999689e-01,-1.840001472599167923e-02,1.085340333168666044e-01,-2.164177264675908041e-01
5.909999999999999698e-01,-1.319563145328244425e-01,2.645515932083327137e-01,-7.609990632204413630e-02
5.919999999999999707e-01,-2.280628047756559362e-01,3.374384020441331677e-01,1.052430306301239821e-01
5.929999999999999716e-01,-2.739378187682062205e-01,2.259184579136694349e-01,2.161562115439499832e-01
5.939999999999999725e-01,-2.434039119608173429e-01,1.760668557051844191e-02,2.263292129804919117e-01
5.949999999999999734e-01,-1.528123704981248221e-01,-1.899482627417965197e-01,1.373885676183974058e-01
5.959999999999999742e-01,1.942312884390410416e-02,-3.167519182412995016e-01,4.371605897491840503e-02
5.969999999999999751e-01,2.461369251856115326e-01,-2.857428317272026064e-01,-5.466090977237764853e-02
5.979999999999999760e-01,3.861942356883034111e-01,-1.486579345471729652e-01,-9.855260402063996394e-02
5.989999999999999769e-01,3.697612165137972862e-01,3.682085797339520322e-02,-1.473316206463698985e-01
5.999999999999999778e-01,1.849968041098741800e-01,1.604668693311431527e-01,-1.524652558919399603e-01
6.009999999999999787e-01,-1.180429146590930151e-01,2.113427025568784812e-01,-1.319552190719115725e-01
6.019999999999999796e-01,-3.390871331061423577e-01,2.000490936157451882e-01,-4.951103546345032858e-02
6.029999999999999805e-01,-4.106302742280935059e-01,1.564240816155754998e-01,6.197590789577476361e-02
6.039999999999999813e-01,-2.724694650148925534e-01,9.033122640382040824e-02,1.813564660322519451e-01
6.049999999999999822e-01,-8.631701847684077056e-02,-3.476797177591555571e-02,2.458981467023300949e-01
6.059999999999999831e-01,1.306275751550863007e-01,-1.837153483928657127e-01,1.981712660196823239e-01
6.069999999999999840e-01,2.440182747550454501e-01,-2.825078634585804216e-01,5.420666649518821739e-02
6.079999999999999849e-01,2.614791791109974950e-01,-2.617488995398412621e-01,-1.165759069585099172e-01
6.089999999999999858e-01,2.306641680692802232e-01,-1.379821978025951024e-01,-2.304900277004869324e-01
6.099999999999999867e-01,1.734864543107738633e-01,6.985616753596537998e-02,-2.345386626540168773e-01
6.109999999999999876e-01,4.042083131179317890e-02,2.857816832216659719e-01,-1.442849915572281261e-01
6.119999999999999885e-01,-1.132786148262322767e-01,3.358020063957091184e-01,-9.032141106392889765e-03
6.129999999999999893e-01,-2.714784667105317184e-01,2.670186895214221035e-01,9.746651256170585365e-02
6.139999999999999902e-01,-3.504158348315751792e-01,3.996237809347988335e-02,1.438088866539941613e-01
6.149999999999999911e-01,-2.871026136143808305e-01,-1.377041555531288153e-01,1.720089166485568588e-01
6.159999999999999920e-01,-9.318150540387645786e-02,-2.458690914258239435e-01,1.363671359050061260e-01
6.169999999999999929e-01,1.826745870674445216e-01,-2.386372754964216358e-01,8.139889840136751986e-02
6.179999999999999938e-01,4.009009089766527589e-01,-1.602782698415645413e-01,-5.572883636817917673e-03
6.189999999999999947e-01,4.136004319993488720e-01,-7.707766765437948364e-02,-8.279674079053844782e-02
6.199999999999999956e-01,2.564777330902786034e-01,3.641133678260474044e-02,-1.609766366518891323e-01
6.209999999999999964e-01,2.724106703526898640e-03,1.281967880038883123e-01,-2.147416438970221886e-01
6.219999999999999973e-01,-2.161926180931451336e-01,1.995388747475012881e-01,-1.680650953182410423e-01
6.229999999999999982e-01,-3.203228750953261428e-01,2.356187995500400312e-01,-3.157878274319197986e-02
6.239999999999999991e-01,-2.844845490324735549e-01,1.972699079754940132e-01,1.450534193348097245e-01
6.250000000000000000e-01,-1.861886536641056411e-01,4.373433624920035345e-02,2.515412921997325357e-01
6.260000000000000009e-01,-5.830705402681206351e-02,-1.584379709579753492e-01,2.420343438368628697e-01
6.270000000000000018e-01,5.669748238104971999e-02,-3.042204689843214793e-01,1.453049642519743945e-01
6.280000000000000027e-01,1.700185867577702348e-01,-3.209233793643188615e-01,-1.861815711607613458e-02
6.290000000000000036e-01,2.806711412489154012e-01,-1.806843442063436056e-01,-1.496131526174682147e-01
6.300000000000000044e-01,2.996330454768043050e-01,2.715311896620323934e-02,-1.974407242166956733e-01
6.310000000000000053e-01,2.070837893823191111e-01,2.286528639169337074e-01,-1.652708870786910866e-01
6.320000000000000062e-01,1.991366533102481920e-02,3.087896280089034717e-01,-9.433786696885593237e-02
6.330000000000000071e-01,-2.463571091851021189e-01,2.479133531607222996e-01,-4.046354668650858910e-02
6.340000000000000080e-01,-4.064023730666704859e-01,1.062565692092356517e-01,4.785784999885923929e-02
6.350000000000000089e-01,-4.062619241842327367e-01,-3.315596831447539111e-02,1.045430007783959697e-01
6.360000000000000098e-01,-1.977085497308856132e-01,-1.305895418763537152e-01,1.686193939121409247e-01
6.370000000000000107e-01,7.138510640183046152e-02,-1.802298010227031677e-01,1.838716542582889135e-01
6.380000000000000115e-01,3.060624759627035840e-01,-2.013662241844915435e-01,1.416356243222841593e-01
6.390000000000000124e-01,3.778053561269668070e-01,-1.766813158520511295e-01,1.874744074305646074e-02
6.400000000000000133e-01,2.830357279410308236e-01,-9.565232375473273208e-02,-1.406737034312744994e-01
6.410000000000000142e-01,1.218075052815469350e-01,5.636746491040717233e-02,-2.341580468021706996e-01
6.420000000000000151e-01,-5.827258388600155964e-02,2.091555731172116128e-01,-2.422452932765384037e-01
6.430000000000000160e-01,-1.631506431473517260e-01,3.148188397814520312e-01,-1.395456166283065014e-01
6.440000000000000169e-01,-2.262719698411727598e-01,2.577537830060246393e-01,2.346515329582603976e-02
6.450000000000000178e-01,-2.609585189460940646e-01,1.154905504228977003e-01,1.855979676370304032e-01
6.460000000000000187e-01,-2.270631592549315625e-01,-1.275131891515275395e-01,2.350635577329712456e-01
6.470000000000000195e-01,-1.243477929750841787e-01,-2.903749804953022484e-01,1.821937358325858569e-01
6.480000000000000204e-01,5.225868501689510254e-02,-3.182874788895846407e-01,8.385471199708537104e-02
6.490000000000000213e-01,2.750453777517624099e-01,-1.956212443850997018e-01,-1.809495197875213984e-02
6.500000000000000222e-01,3.814149859302523038e-01,-2.145515730528980286e-02,-8.189786799065748579e-02
6.510000000000000231e-01,3.648729106160201185e-01,1.388727570221427177e-01,-1.320450594373532571e-01
6.520000000000000240e-01,1.399350137703317121e-01,1.983834716514780994e-01,-1.474619916661392693e-01
6.530000000000000249e-01,-1.521781962997742488e-01,2.064917274553858817e-01,-1.377818497685306398e-01
6.540000000000000258e-01,-3.700758621700419582e-01,1.621902750960300954e-01,-9.708297269184958111e-02
6.550000000000000266e-01,-4.117086478892899026e-01,1.063669466309916239e-01,1.871802996918099649e-02
6.560000000000000275e-01,-2.628276791531095613e-01,4.612443256893270470e-03,1.431729533115482511e-01
6.570000000000000284e-01,-5.794124366105729562e-02,-1.362175063216071458e-01,2.297584431176329101e-01
6.580000000000000293e-01,1.389325311162439847e-01,-2.366205308295918075e-01,2.217350237388722167e-01
6.590000000000000302e-01,2.531094090840349531e-01,-2.962883879321049907e-01,1.182410688572728685e-01
6.600000000000000311e-01,2.631886615143332331e-01,-1.926997083748298867e-01,-6.197555789144831156e-02
6.610000000000000320e-01,2.080679481658012642e-01,-3.752404380286090361e-03,-1.966096352518012236e-01
6.620000000000000329e-01,1.391898409329196951e-01,2.202160196549289850e-01,-2.349676726390681203e-01
6.630000000000000338e-01,3.105831877216750150e-02,3.442082270518144194e-01,-1.943117822196604449e-01
6.640000000000000346e-01,-1.265826631838984362e-01,2.925953465248002927e-01,-6.144443278127793839e-02
6.650000000000000355e-01,-2.773093730603363727e-01,1.397444524039943015e-01,6.646013849849595478e-02
6.660000000000000364e-01,-3.569787992326393655e-01,-7.716407048547700709e-02,1.376894089878129279e-01
6.670000000000000373e-01,-2.889425548477254080e-01,-2.207056018282959609e-01,1.741437330425134600e-01
6.680000000000000382e-01,-6.335324559720272031e-02,-2.504516313458850507e-01,1.351470256686548022e-01
6.690000000000000391e-01,2.198789739558049683e-01,-2.069434488502282787e-01,8.804510520155280073e-02
6.700000000000000400e-01,3.919205327076840661e-01,-9.724560209036392511e-02,3.049763489566705010e-02
6.710000000000000409e-01,4.181592984734181506e-01,1.014180559723956146e-03,-5.791153732990216713e-02
6.720000000000000417e-01,2.318414830189679809e-01,9.970493561200732824e-02,-1.320986999921796856e-01
6.730000000000000426e-01,-5.163255187831511384e-02,1.830644439451781513e-01,-2.099735095027322196e-01
6.740000000000000435e-01,-2.533154084025690533e-01,2.356173102186410739e-01,-1.975456992891335140e-01
6.750000000000000444e-01,-3.231852979498717193e-01,2.263288912831052102e-01,-8.122965078831402563e-02
6.760000000000000453e-01,-2.787858064020455329e-01,9.879689233208782673e-02,5.758869518465343368e-02
6.770000000000000462e-01,-1.764973456566470422e-01,-8.752169079532212681e-02,2.002191040561308033e-01
6.780000000000000471e-01,-4.127261292089948186e-02,-2.689309187169386939e-01,2.720236224722779039e-01
6.790000000000000480e-01,9.473034802404368959e-02,-3.388546457650083998e-01,1.813291390921879243e-01
6.800000000000000488e-01,2.115897208067025193e-01,-2.555021299144462077e-01,5.480048312735120997e-02
6.810000000000000497e-01,2.711887617009477447e-01,-4.484987790945965669e-02,-9.144618874631112171e-02
6.820000000000000506e-01,2.950401767949307752e-01,1.731411216712576417e-01,-2.007336286376447954e-01
6.830000000000000515e-01,2.061587868638518894e-01,2.878896618841272348e-01,-1.883204220392704631e-01
6.840000000000000524e-01,-3.949868504660315749e-03,2.628683128746993058e-01,-1.297270404594762228e-01
6.850000000000000533e-01,-2.679137990451910256e-01,1.633060773759960893e-01,-5.442319321418364469e-02
6.860000000000000542e-01,-4.014444619423154781e-01,5.569377825439416176e-04,1.253986838565808101e-02
6.870000000000000551e-01,-3.879181197345930587e-01,-1.186521072886956712e-01,1.040530702693965859e-01
6.879999999999999449e-01,-1.776526689664651437e-01,-1.681494731956228172e-01,1.407158419207508449e-01
6.889999999999999458e-01,1.131684754623164396e-01,-2.024693493231435049e-01,1.869306677354811430e-01
6.899999999999999467e-01,3.248734311699283395e-01,-2.019655548644884446e-01,1.552775511004043374e-01
6.909999999999999476e-01,3.781490421577289873e-01,-1.290667463004376847e-01,7.113883965819219057e-02
6.919999999999999485e-01,2.747028150090954357e-01,-5.925780789850840615e-04,-7.517385421301864268e-02
6.929999999999999494e-01,9.013693996216423643e-02,1.603405450088123130e-01,-2.125514538395158470e-01
6.939999999999999503e-01,-6.458234270916179964e-02,2.861050925133888923e-01,-2.670983229259172864e-01
6.949999999999999512e-01,-1.811660859769463894e-01,3.061165202883380232e-01,-1.882891552943911639e-01
6.959999999999999520e-01,-2.383664398928322103e-01,1.691566383075785440e-01,-3.114400102830540765e-02
6.969999999999999529e-01,-2.454566803926588048e-01,-4.661860276210993970e-02,1.286814817962746993e-01
6.979999999999999538e-01,-2.304317054204770843e-01,-2.593459128786724799e-01,2.379229803223855133e-01
6.989999999999999547e-01,-8.284316633005428532e-02,-3.297925508553827822e-01,1.984876616593768128e-01
6.999999999999999556e-01,9.459918285195020871e-02,-2.621985674623857343e-01,1.249183701018757170e-01
7.009999999999999565e-01,2.975892950216145749e-01,-1.000703244407604581e-01,2.276820181319814951e-02
7.019999999999999574e-01,4.036444311140831576e-01,9.305196236448984304e-02,-8.558040712859076027e-02
7.029999999999999583e-01,3.403779978968828890e-01,1.943365052749807254e-01,-1.187144916443505782e-01
7.039999999999999591e-01,1.080205613137533577e-01,2.154054930859453931e-01,-1.486167281342141711e-01
7.049999999999999600e-01,-1.735193430665874226e-01,1.974268774514968128e-01,-1.514442273521402760e-01
7.059999999999999609e-01,-3.745165973778812885e-01,1.183198619313230171e-01,-1.058325048798890583e-01
7.069999999999999618e-01,-4.059997031767665354e-01,2.929803394131454131e-02,-3.529601149664639281e-02
7.079999999999999627e-01,-2.440106903197739596e-01,-1.015793956576167278e-01,8.242063722011429283e-02
7.089999999999999636e-01,-1.018396115302572236e-02,-2.077973758371964852e-01,2.030112912667739467e-01
7.099999999999999645e-01,1.765215875474936968e-01,-2.758141166389091459e-01,2.329100349844521189e-01
7.109999999999999654e-01,2.726627560936022987e-01,-2.498700368943863881e-01,1.732517677660876665e-01
7.119999999999999662e-01,2.642853335991449670e-01,-8.724558480705039976e-02,1.647614828320108360e-02
7.129999999999999671e-01,2.090328461249919001e-01,1.192386901791045312e-01,-1.588680206942982287e-01
7.139999999999999680e-01,1.279827638761436848e-01,3.206438426096109851e-01,-2.408505665081763225e-01
7.149999999999999689e-01,-2.701585737355901434e-02,3.383245926286076455e-01,-2.228121770135618740e-01
7.159999999999999698e-01,-1.516499824834609267e-01,1.958819219850583271e-01,-1.215143537786479710e-01
7.169999999999999707e-01,-3.082444312656496543e-01,-8.689392926508917106e-03,3.130096141287282141e-02
7.179999999999999716e-01,-3.624505562479146126e-01,-1.909457782577293483e-01,1.140648490357722145e-01
7.189999999999999725e-01,-2.667814045880836926e-01,-2.608913492145504831e-01,1.662184630268453145e-01
7.199999999999999734e-01,-2.273247227676033350e-02,-2.265479956054273769e-01,1.584067452874458048e-01
7.209999999999999742e-01,2.471074383973892175e-01,-1.363761568390910728e-01,1.087739743582390312e-01
7.219999999999999751e-01,4.139693520738120247e-01,-1.791273441876445327e-02,5.361560910178858608e-02
7.229999999999999760e-01,4.028582376027403655e-01,8.328600653549329824e-02,-1.558075586210959547e-02
7.239999999999999769e-01,2.083244446435011388e-01,1.558926199221391529e-01,-1.019012674544391012e-01
7.249999999999999778e-01,-6.729725684442817990e-02,2.204893181454045392e-01,-1.889648249692895132e-01
7.259999999999999787e-01,-2.669734217991001080e-01,2.279160307630218041e-01,-2.099543274053252695e-01
7.269999999999999796e-01,-3.252901541362577809e-01,1.527920943362103545e-01,-1.527910757945003251e-01
7.279999999999999805e-01,-2.751058573233211568e-01,-4.016215144275983584e-03,-6.431664304259135378e-03
7.289999999999999813e-01,-1.327801984506671584e-01,-2.085618949375443454e-01,1.643069755817753164e-01
7.299999999999999822e-01,-1.541765314900795866e-02,-3.201020395625366888e-01,2.708355509974219588e-01
7.309999999999999831e-01,1.046896149664957726e-01,-2.970610152105315205e-01,2.418216100934992285e-01
7.319999999999999840e-01,2.091656711917084521e-01,-1.288746228945463201e-01,1.209917913458069816e-01
7.329999999999999849e-01,2.708312156490187417e-01,1.112035481290289118e-01,-4.827701663945414140e-02
7.339999999999999858e-01,2.953274836220081689e-01,2.736765547224562778e-01,-1.583400491048318481e-01
7.349999999999999867e-01,1.684040643890738487e-01,2.989836464377683134e-01,-2.030692088169846476e-01
7.359999999999999876e-01,-3.979129967815353552e-02,2.179739995226489258e-01,-1.637174238090087497e-01
7.369999999999999885e-01,-2.782088114065565665e-01,5.709240761067538306e-02,-9.259323377244998987e-02
7.379999999999999893e-01,-4.149013791001708307e-01,-7.835681103831797223e-02,-8.111249281119397789e-03
7.389999999999999902e-01,-3.731066713983169914e-01,-1.693067356175667892e-01,6.132122270033862899e-02
7.399999999999999911e-01,-1.404910220825152101e-01,-2.002036145332191375e-01,1.236254568761451095e-01
7.409999999999999920e-01,1.399125189529219215e-01,-2.011681688100351029e-01,1.725240291673053594e-01
7.419999999999999929e-01,3.328350859075944190e-01,-1.549411629858853390e-01,1.706583392911107389e-01
7.429999999999999938e-01,3.856856177475700975e-01,-5.479896757165664961e-02,1.125841848802639766e-01
7.439999999999999947e-01,2.665360664735058061e-01,1.107439771708353254e-01,-2.020941799562427782e-02
7.449999999999999956e-01,8.265808336394264710e-02,2.598810960747626742e-01,-1.599166337109637348e-01
7.459999999999999964e-01,-9.906741916691604033e-02,3.149146559818635782e-01,-2.428362134296499775e-01
7.469999999999999973e-01,-1.867783290479816949e-01,2.271752655666586240e-01,-2.249283242019218809e-01
7.479999999999999982e-01,-2.454948103348775224e-01,3.747415049811852333e-02,-1.074137554878543677e-01
7.489999999999999991e-01,-2.563150772773675201e-01,-1.936276021195748875e-01,6.077386257949160542e-02
7.500000000000000000e-01,-2.020152971996244107e-01,-3.212572521333886266e-01,1.915712423148065724e-01
7.510000000000000009e-01,-7.786124206728527175e-02,-3.043113595715558617e-01,2.189209930274908233e-01
7.520000000000000018e-01,1.238469109184956174e-01,-1.504996960084163393e-01,1.689251292766962009e-01
7.530000000000000027e-01,3.210380442430025849e-01,3.987281311941990453e-02,5.430698106422778698e-02
7.540000000000000036e-01,3.855040780925222399e-01,1.823637829432151192e-01,-3.774550003191533276e-02
7.550000000000000044e-01,3.109807678248368012e-01,2.324532711247228323e-01,-1.062213037540430949e-01
7.560000000000000053e-01,5.798124987338441200e-02,1.998177913139534967e-01,-1.425624948701573746e-01
7.570000000000000062e-01,-2.117695650133837315e-01,1.373781364798219995e-01,-1.417006481405498342e-01
7.580000000000000071e-01,-3.941495717187976089e-01,5.691805020257839631e-02,-1.293845082625364462e-01
7.590000000000000080e-01,-3.856761974374557367e-01,-4.565438176862110509e-02,-5.541175990654966660e-02
7.600000000000000089e-01,-2.157843107124232940e-01,-1.728713187831706910e-01,4.443968866579170451e-02
7.610000000000000098e-01,8.299694497493428219e-03,-2.497645365535866580e-01,1.576542895135389366e-01
7.620000000000000107e-01,1.976454448745747494e-01,-2.684248179095302111e-01,2.493023564802501757e-01
7.630000000000000115e-01,2.742639152072936515e-01,-1.516322692679448192e-01,2.034603722432973272e-01
7.640000000000000124e-01,2.677753493119415795e-01,6.417466668855051348e-02,8.927662010928809344e-02
7.650000000000000133e-01,1.990311639277443645e-01,2.654104680460534493e-01,-9.107797679630720566e-02
7.660000000000000142e-01,9.291017576588149474e-02,3.537036125485516491e-01,-2.270573508070351798e-01
7.670000000000000151e-01,-1.860500824984605978e-02,2.588664578692959628e-01,-2.457470645713322466e-01
7.680000000000000160e-01,-1.734976206778256480e-01,5.717472077380240936e-02,-1.813464231741304666e-01
7.690000000000000169e-01,-3.089138164657704300e-01,-1.432999572239745389e-01,-3.539822408710634888e-02
7.700000000000000178e-01,-3.499342908016725984e-01,-2.521400560170730665e-01,9.183255943693874324e-02
7.710000000000000187e-01,-2.290761472865481541e-01,-2.607815894259427059e-01,1.651217772803559303e-01
7.720000000000000195e-01,7.968552989957357682e-03,-1.663623419471636222e-01,1.741655010198129849e-01
7.730000000000000204e-01,2.698684133020942122e-01,-6.302336172731141939e-02,1.292968312008364040e-01
7.740000000000000213e-01,4.263676248157898807e-01,4.118963929424018788e-02,6.818502203247890636e-02
7.750000000000000222e-01,3.661764850350511802e-01,1.254064248488939715e-01,1.083674550771417631e-02
7.760000000000000231e-01,1.679873224007671084e-01,2.062759837185618728e-01,-7.764223015635063341e-02
7.770000000000000240e-01,-1.036744805598242697e-01,2.228452796674883218e-01,-1.608338338165249681e-01
7.780000000000000249e-01,-2.956374063893976722e-01,1.845836676065788218e-01,-1.989622187270187470e-01
7.790000000000000258e-01,-3.341506444486621596e-01,4.101732915152264680e-02,-1.865140117223903493e-01
7.800000000000000266e-01,-2.619837767904823478e-01,-1.532969331514682787e-01,-7.029322089711437238e-02
7.810000000000000275e-01,-1.206395545027320604e-01,-3.017259568667471914e-01,9.185056812300378126e-02
7.820000000000000284e-01,2.485859580514848330e-02,-3.152488458460371845e-01,2.215203871668902924e-01
7.830000000000000293e-01,1.254893868194878193e-01,-1.933540088554792924e-01,2.540663519944538762e-01
7.840000000000000302e-01,2.165364163619501459e-01,1.361321749124573717e-02,1.715914913397569574e-01
7.850000000000000311e-01,2.810026330164862585e-01,2.342186881521161057e-01,1.731056549499811539e-02
7.860000000000000320e-01,2.743151452700654525e-01,3.298511125984613934e-01,-1.187207711151923584e-01
7.870000000000000329e-01,1.429646362050795982e-01,2.619181299888620473e-01,-1.926990831387186964e-01
7.880000000000000338e-01,-8.312236172824039038e-02,1.186047361410244999e-01,-1.931346192052880162e-01
7.890000000000000346e-01,-2.983810339357745867e-01,-3.716118209900932251e-02,-1.257432254695843576e-01
7.900000000000000355e-01,-4.093421884472110417e-01,-1.445473153762522611e-01,-2.961310384457400621e-02
7.910000000000000364e-01,-3.413181718569011092e-01,-1.900781087953531401e-01,5.069646518338503938e-02
7.920000000000000373e-01,-9.440282171170066849e-02,-2.134432269816447514e-01,1.076506619563921546e-01
7.930000000000000382e-01,1.795344984081256867e-01,-1.725826833579162112e-01,1.595188366424417081e-01
7.940000000000000391e-01,3.478434148879295251e-01,-9.175257616645739189e-02,1.783344503847419382e-01
7.950000000000000400e-01,3.645064131239687533e-01,4.897884436487787846e-02,1.220433436796719007e-01
7.960000000000000409e-01,2.274259987216356027e-01,2.135593607527812576e-01,2.733184690979175921e-02
7.970000000000000417e-01,5.829420152161236823e-02,3.073531103021359678e-01,-1.063221754618881437e-01
7.980000000000000426e-01,-1.125425830643689007e-01,2.718114220845608831e-01,-2.112283919679351918e-01
7.990000000000000435e-01,-2.140821970579550593e-01,1.143475212535530056e-01,-2.591626126887744963e-01
8.000000000000000444e-01,-2.572490033576441126e-01,-1.182197592547422210e-01,-1.664816976174694485e-01
8.010000000000000453e-01,-2.408476241313109445e-01,-2.987789595561787248e-01,9.007346724342101332e-03
8.020000000000000462e-01,-1.560725537927548368e-01,-3.262232703165557912e-01,1.495486552639816169e-01
8.030000000000000471e-01,-4.040434687367375904e-02,-2.136780635622359814e-01,2.317510703292150198e-01
8.040000000000000480e-01,1.449651990605567431e-01,-2.380253262623850327e-02,2.050130895682837351e-01
8.050000000000000488e-01,3.153341210431583885e-01,1.392378569720799930e-01,9.977383616608662131e-02
8.060000000000000497e-01,3.930460376243855580e-01,2.055614381160328075e-01,-2.265665176233809183e-02
8.070000000000000506e-01,2.820434135123433550e-01,2.268192296620802906e-01,-1.016438916511954171e-01
8.080000000000000515e-01,2.634265869649442607e-02,1.545434525881050902e-01,-1.314570214262167358e-01
8.090000000000000524e-01,-2.396580034547195204e-01,8.074140090364341493e-02,-1.467272563176496014e-01
8.100000000000000533e-01,-4.097442345652521634e-01,-3.829347964410591190e-03,-1.383246451009911004e-01
8.110000000000000542e-01,-3.677713035766156935e-01,-1.172876765458678305e-01,-9.041608353762797812e-02
8.120000000000000551e-01,-1.840793947128317454e-01,-2.234203559029341868e-01,1.174518971435414665e-02
8.129999999999999449e-01,3.667258788999853275e-02,-2.745065689723593105e-01,1.224940809360978849e-01
8.139999999999999458e-01,2.180873749217185908e-01,-2.029222868399649660e-01,2.152372909258830069e-01
8.149999999999999467e-01,2.747864737441250704e-01,-1.711741269962675088e-02,2.243935460257375780e-01
8.159999999999999476e-01,2.691473681948671204e-01,1.973411185838719883e-01,1.473254385181793080e-01
8.169999999999999485e-01,1.697130852876207185e-01,3.177353828211351705e-01,-1.886749856212148815e-02
8.179999999999999494e-01,8.261359963830378073e-02,3.235603798566870082e-01,-1.782133497100155117e-01
8.189999999999999503e-01,-6.046020717545535356e-02,1.523593811712058987e-01,-2.631803423358053950e-01
8.199999999999999512e-01,-2.061367612267671345e-01,-6.713776161337256521e-02,-2.156020553501808434e-01
8.209999999999999520e-01,-3.172779040084497404e-01,-2.475935511193212424e-01,-8.480048236613497992e-02
8.219999999999999529e-01,-3.392912391805076866e-01,-2.732821069153251181e-01,4.422270099443420532e-02
8.229999999999999538e-01,-1.930789972832026857e-01,-2.167552176344615389e-01,1.522182151391320015e-01
8.239999999999999547e-01,3.097541381824862189e-02,-9.302029013313489747e-02,1.689270508626467548e-01
8.249999999999999556e-01,3.026329328200131341e-01,2.409901549015954977e-02,1.494778096187542871e-01
8.259999999999999565e-01,4.438929900101302173e-01,9.734802268044541462e-02,9.726183504816783565e-02
8.269999999999999574e-01,3.762221933743497559e-01,1.896402288426986549e-01,2.270898415129142880e-02
8.279999999999999583e-01,1.286148612042387063e-01,2.292236441622643173e-01,-4.897425794449007663e-02
8.289999999999999591e-01,-1.365606396239912312e-01,2.118631676031101918e-01,-1.161011107508933965e-01
8.299999999999999600e-01,-3.083408115714670883e-01,9.948597275852662236e-02,-1.968605736962535657e-01
8.309999999999999609e-01,-3.393876393540987135e-01,-8.293181171493133053e-02,-2.153300544138665173e-01
8.319999999999999618e-01,-2.342460114548510497e-01,-2.543921780481200323e-01,-1.121915194719274173e-01
8.329999999999999627e-01,-8.313560650791539108e-02,-3.421023231550310850e-01,3.241912873969555325e-02
8.339999999999999636e-01,2.581218080798451317e-02,-2.683954307267865658e-01,1.844949013862418330e-01
8.349999999999999645e-01,1.442503242214874248e-01,-7.280437850491217056e-02,2.561751122332686093e-01
8.359999999999999654e-01,2.408175527074604971e-01,1.519526418214136032e-01,2.135104427038010122e-01
8.369999999999999662e-01,2.866206223112925389e-01,3.001577288948779065e-01,8.233126385685481108e-02
8.379999999999999671e-01,2.600903455015205479e-01,2.901214814212239035e-01,-9.561493720977079502e-02
8.389999999999999680e-01,1.158519417480008556e-01,1.745250810266215924e-01,-1.903937635527563899e-01
8.399999999999999689e-01,-1.106328850397673980e-01,5.576223201273671284e-04,-2.167715983650558287e-01
8.409999999999999698e-01,-3.317113363154389205e-01,-1.153341339707347618e-01,-1.419855679272080673e-01
8.419999999999999707e-01,-4.212203023530103341e-01,-2.050063203690586922e-01,-8.099841429226845024e-02
8.429999999999999716e-01,-3.228148790376363375e-01,-2.101312694395479075e-01,3.776362753654929905e-02
8.439999999999999725e-01,-5.890070445471692201e-02,-1.785850536119106546e-01,8.512697253387838114e-02
8.449999999999999734e-01,2.178331188628291892e-01,-1.259089193233227655e-01,1.362893196120137373e-01
8.459999999999999742e-01,3.750161681312845774e-01,-2.258990882301266725e-02,1.655289054984587227e-01
8.469999999999999751e-01,3.713280087570119403e-01,1.470816431897797316e-01,1.577698120712532071e-01
8.479999999999999760e-01,2.132384969907860361e-01,2.716370558033835980e-01,8.188035984097741249e-02
8.489999999999999769e-01,2.561717347035551498e-02,2.975416268922350671e-01,-5.614121254573500169e-02
8.499999999999999778e-01,-1.409998194884376499e-01,1.951670442539633621e-01,-1.752026484422476993e-01
8.509999999999999787e-01,-2.357783031155353259e-01,-2.600148545458217872e-02,-2.417556778810717455e-01
8.519999999999999796e-01,-2.446099307061976591e-01,-2.407671805714765578e-01,-2.130977775392127460e-01
8.529999999999999805e-01,-2.276439330645994019e-01,-3.256495862437403521e-01,-5.982136438743858309e-02
8.539999999999999813e-01,-1.524652253427812021e-01,-2.768973762240952707e-01,1.077614024517704883e-01
8.549999999999999822e-01,-1.649499301660997327e-02,-1.031239582123722742e-01,2.230804509497164578e-01
8.559999999999999831e-01,1.643661322557287974e-01,1.049248932742517654e-01,2.288738893070984826e-01
8.569999999999999840e-01,3.364297413058964792e-01,1.939519779393311105e-01,1.494768869800422451e-01
8.579999999999999849e-01,3.818890560342889651e-01,2.272001917369675938e-01,3.177230476129724174e-02
8.589999999999999858e-01,2.526898460272138380e-01,1.994329121667241245e-01,-8.276003302384464522e-02
8.599999999999999867e-01,-1.131400596193471181e-03,1.159839168930111852e-01,-1.307773199423068189e-01
8.609999999999999876e-01,-2.645125893395223748e-01,2.821907782992386093e-02,-1.643020600480483151e-01
8.619999999999999885e-01,-4.084825592208595202e-01,-8.228669853764154773e-02,-1.385506632331153509e-01
8.629999999999999893e-01,-3.571754835174573706e-01,-1.982188314463431689e-01,-1.105400481921772066e-01
8.639999999999999902e-01,-1.637977394112334339e-01,-2.786284906348586166e-01,-4.522213318348681371e-02
8.649999999999999911e-01,8.475248457295157800e-02,-2.484005128957441910e-01,8.184141887506692081e-02
8.659999999999999920e-01,2.485945611143111911e-01,-8.824984715644945688e-02,1.672693547373301226e-01
8.669999999999999929e-01,2.985423396124048390e-01,1.226794856405581807e-01,2.345532776764120142e-01
8.679999999999999938e-01,2.542493083050454961e-01,2.861494313946196799e-01,1.875220889624154286e-01
8.689999999999999947e-01,1.577351281915254644e-01,3.485614323934833059e-01,4.414657677959590854e-02
8.699999999999999956e-01,5.508023644488872772e-02,2.223012466609354809e-01,-1.140315759560405623e-01
8.709999999999999964e-01,-8.112937894415825357e-02,6.117209310957190740e-03,-2.352416075026455833e-01
8.719999999999999973e-01,-2.210886499543924522e-01,-2.033198994798430803e-01,-2.434248713143409293e-01
8.729999999999999982e-01,-3.177662364378651128e-01,-2.706822702600852892e-01,-1.513104447101917827e-01
8.739999999999999991e-01,-3.222546314720718397e-01,-2.578785332593881430e-01,-7.728947130935443811e-03
8.750000000000000000e-01,-1.703614562275403421e-01,-1.371310191813749357e-01,1.079866188847061759e-01
8.760000000000000009e-01,9.248861480968681437e-02,-1.854139447516724160e-02,1.789743884383633576e-01
8.770000000000000018e-01,3.248650303785625137e-01,8.788121529899763085e-02,1.651986703311755511e-01
8.780000000000000027e-01,4.273630949636345044e-01,1.678611358383390317e-01,1.255988860973607513e-01
8.790000000000000036e-01,3.369729053944439667e-01,2.130698734545300732e-01,3.963371339861326142e-02
8.800000000000000044e-01,9.506555703647136257e-02,2.283246460479691764e-01,2.775396702627461274e-03
8.810000000000000053e-01,-1.562621832225828400e-01,1.445991203944567705e-01,-8.948022328295258954e-02
8.820000000000000062e-01,-3.206332397719040550e-01,-1.209896164876065813e-02,-1.729711876580660168e-01
8.830000000000000071e-01,-3.396977073396573732e-01,-1.929615987082322626e-01,-2.134883384518216631e-01
8.840000000000000080e-01,-2.312895047657320124e-01,-3.177921130308241637e-01,-1.606102824393463580e-01
8.850000000000000089e-01,-7.553721905212718024e-02,-3.197437856667290079e-01,-3.154091648023725492e-02
8.860000000000000098e-01,5.235947637304747687e-02,-1.420952273639461139e-01,1.346716796154193152e-01
8.870000000000000107e-01,1.661453614270116952e-01,7.267453498237164133e-02,2.456392132491190261e-01
8.880000000000000115e-01,2.416791904837220506e-01,2.722751524770538611e-01,2.436631664686985943e-01
8.890000000000000124e-01,2.825355822332200617e-01,3.188475661223726387e-01,1.259320124599676016e-01
8.900000000000000133e-01,2.371248626062120723e-01,2.212210376318337612e-01,-1.527544546172416619e-02
8.910000000000000142e-01,1.027199868641992392e-01,6.825057919211892365e-02,-1.488701619115347374e-01
8.920000000000000151e-01,-1.386425624030633297e-01,-9.504607371264221782e-02,-2.182891583729102691e-01
8.930000000000000160e-01,-3.455310999491345569e-01,-1.634504859697298862e-01,-1.628638891061100213e-01
8.940000000000000169e-01,-4.178497647781524438e-01,-2.009386584604263282e-01,-8.906696844885531039e-02
8.950000000000000178e-01,-2.870194161597853233e-01,-1.802044768251272466e-01,-8.868228321585135826e-03
8.960000000000000187e-01,-3.991864675759460024e-02,-1.399557083758204701e-01,7.128745388692064866e-02
8.970000000000000195e-01,2.353665580415776615e-01,-4.861980562027738706e-02,1.273864390733692453e-01
8.980000000000000204e-01,3.797252905084828045e-01,8.678760020423499644e-02,1.611363128382372056e-01
8.990000000000000213e-01,3.583332348905064468e-01,2.298432927646857082e-01,1.658319240035392439e-01
9.000000000000000222e-01,1.766412784296554628e-01,3.152569211531434101e-01,1.113944255216268719e-01
9.010000000000000231e-01,1.583461919299791656e-03,2.336682066348866882e-01,7.626355725979841807e-03
9.020000000000000240e-01,-1.804068117624393341e-01,5.603546505493803981e-02,-1.421661793523722739e-01
9.030000000000000249e-01,-2.508370693457172007e-01,-1.839696392893388488e-01,-2.329957144466206220e-01
9.040000000000000258e-01,-2.449637393327754875e-01,-3.191302045437962587e-01,-2.300673870960456002e-01
9.050000000000000266e-01,-2.232415338575295949e-01,-3.268519584479743778e-01,-1.164345563575272524e-01
9.060000000000000275e-01,-1.347159453369888293e-01,-1.625989152762819523e-01,3.851549322356717653e-02
9.070000000000000284e-01,6.331833472343612393e-03,3.502349626386307840e-02,1.781507540176083260e-01
9.080000000000000293e-01,1.937421641793698746e-01,1.910728852414605439e-01,2.386256022164076340e-01
9.090000000000000302e-01,3.432416897785847687e-01,2.342174878156035034e-01,1.941805770132721543e-01
9.100000000000000311e-01,3.759916198425181655e-01,2.037709934552065227e-01,8.438321129617917804e-02
9.110000000000000320e-01,2.227264232792217358e-01,1.473296089612822768e-01,-5.296258899317937002e-02
9.120000000000000329e-01,-4.817702296136022050e-02,5.145891701167494559e-02,-1.211907452994187978e-01
9.130000000000000338e-01,-2.935765071106495872e-01,-5.867801889764720502e-02,-1.656453768869542431e-01
9.140000000000000346e-01,-4.232993628291676913e-01,-1.469869248067071088e-01,-1.504461921437895977e-01
9.150000000000000355e-01,-3.622119465430563845e-01,-2.353381359894680391e-01,-1.287235074127131285e-01
9.160000000000000364e-01,-1.266813294551122626e-01,-2.551124125659670616e-01,-6.197235614134841836e-02
9.170000000000000373e-01,1.091822061844901909e-01,-1.408818566606847289e-01,2.964195364122390250e-02
9.180000000000000382e-01,2.683650658878066197e-01,3.614204171043013808e-02,1.331927678570508089e-01
9.190000000000000391e-01,3.030147035677593914e-01,2.449394401971880797e-01,2.322898859452073306e-01
9.200000000000000400e-01,2.291420670661557246e-01,3.479989507656300884e-01,2.172406244207795711e-01
9.210000000000000409e-01,1.468588307668487192e-01,2.810023779302722180e-01,1.105075999916057677e-01
9.220000000000000417e-01,2.300401187300293165e-02,8.948932191831525385e-02,-6.166273260295521141e-02
9.230000000000000426e-01,-1.168426816489154252e-01,-1.261709259357857438e-01,-1.977054715366802495e-01
9.240000000000000435e-01,-2.249372409224850988e-01,-2.631174963458348670e-01,-2.508323424615464536e-01
9.250000000000000444e-01,-3.101976579592596872e-01,-2.656550672829706139e-01,-1.814007476415107900e-01
9.260000000000000453e-01,-2.948250798356042979e-01,-1.852102567970888014e-01,-6.139568174760803160e-02
9.270000000000000462e-01,-1.583788390419757497e-01,-5.739265386807770181e-02,8.794824883611941646e-02
9.280000000000000471e-01,1.109071099849175263e-01,5.060514923891653444e-02,1.470908770836519552e-01
9.290000000000000480e-01,3.430390519502996560e-01,1.447488619333321125e-01,1.879230513483026721e-01
9.300000000000000488e-01,4.295477382240887043e-01,1.912109632462330178e-01,1.591514899021346519e-01
9.310000000000000497e-01,3.182893748156169211e-01,2.151957213998433593e-01,8.401264287857916624e-02
9.320000000000000506e-01,7.076827060527757229e-02,1.885998231196314434e-01,1.357625274833975694e-02
9.330000000000000515e-01,-1.869006194855006298e-01,5.724459422490352917e-02,-5.840376793327162197e-02
9.340000000000000524e-01,-3.413273975111862923e-01,-1.273615696045214685e-01,-1.418434972581916753e-01
9.350000000000000533e-01,-3.185600310897748200e-01,-2.939934951719596623e-01,-1.973981244963919079e-01
9.360000000000000542e-01,-2.215731990840686394e-01,-3.253445266546721171e-01,-1.791796994886983296e-01
9.370000000000000551e-01,-5.056975256868970897e-02,-2.181394570897646490e-01,-8.207862505197230374e-02
9.379999999999999449e-01,8.462000747270953527e-02,-2.398032274101854090e-03,7.176389557994522495e-02
9.389999999999999458e-01,1.904599618075886180e-01,2.086833685725966725e-01,2.062589357613668350e-01
9.399999999999999467e-01,2.528999776954463652e-01,3.242415459244513687e-01,2.568338389765603691e-01
9.409999999999999476e-01,2.853913420233931686e-01,2.731036483121495606e-01,1.992180377530860802e-01
9.419999999999999485e-01,2.182460648791567093e-01,1.243681346136293053e-01,4.421245640446513914e-02
9.429999999999999494e-01,6.463875953419399856e-02,-4.446292874337248041e-02,-1.107466902473650538e-01
9.439999999999999503e-01,-1.686932329941623898e-01,-1.504558678226226021e-01,-1.968365024703064847e-01
9.449999999999999512e-01,-3.659239726511923640e-01,-1.828338271872062826e-01,-1.947128418499680935e-01
9.459999999999999520e-01,-4.022118899878441844e-01,-2.106456777652608026e-01,-1.262551594342701811e-01
9.469999999999999529e-01,-2.527511703666360243e-01,-1.604853347922439721e-01,-4.146189539679391578e-02
9.479999999999999538e-01,5.346152248624850591e-03,-8.324960093262881444e-02,4.956294992484896328e-02
9.489999999999999547e-01,2.855575531854033788e-01,4.672501193360057564e-02,1.014065303815257224e-01
9.499999999999999556e-01,3.910790848167980949e-01,1.891882800288840205e-01,1.466909249190032627e-01
9.509999999999999565e-01,3.505976808043258508e-01,2.739624979972896113e-01,1.689422143995869541e-01
9.519999999999999574e-01,1.585366714129465004e-01,2.726207002710725469e-01,1.454260123650163161e-01
9.529999999999999583e-01,-4.552707056743951486e-02,1.313320626268086599e-01,5.590265133504426776e-02
9.539999999999999591e-01,-1.755200897059878973e-01,-9.056492196319299026e-02,-7.855644255510822738e-02
9.549999999999999600e-01,-2.680364856336173163e-01,-2.756144419121748790e-01,-2.007008047818438778e-01
9.559999999999999609e-01,-2.543327579185379883e-01,-3.419971337076055939e-01,-2.557174424850334749e-01
9.569999999999999618e-01,-2.066758693911820155e-01,-2.417497200801609625e-01,-1.925021821269677635e-01
9.579999999999999627e-01,-1.169755817555986066e-01,-3.028927437477381759e-02,-3.211318448064059278e-02
9.589999999999999636e-01,4.671804614351900836e-02,1.484449959886327552e-01,1.445642413729740228e-01
9.599999999999999645e-01,2.088735245956287456e-01,2.296022439034733353e-01,2.261084279656278839e-01
9.609999999999999654e-01,3.551536161863639296e-01,2.252921293481346954e-01,2.174028174135663738e-01
9.619999999999999662e-01,3.558199170075835860e-01,1.651576786029572141e-01,1.153446479694865134e-01
9.629999999999999671e-01,1.959630046021378635e-01,7.348025266706248448e-02,8.657495902432690502e-03
9.639999999999999680e-01,-8.310174641836198806e-02,-2.449293841299614305e-02,-1.039996720666494512e-01
9.649999999999999689e-01,-3.283595996647959980e-01,-1.344698997928900353e-01,-1.412356775111246188e-01
9.659999999999999698e-01,-4.158480089163349436e-01,-2.169617067281462142e-01,-1.574644827033434558e-01
9.669999999999999707e-01,-3.286377068725202522e-01,-2.570711318262580147e-01,-1.323746055519512688e-01
9.679999999999999716e-01,-9.259925916770421483e-02,-1.973621136533701415e-01,-8.667237263179017326e-02
9.689999999999999725e-01,1.377278591858637213e-01,-4.845378065479195168e-02,-8.132136355825062002e-03
9.699999999999999734e-01,2.847901909102353857e-01,1.853119986130869201e-01,9.617009527285472203e-02
9.709999999999999742e-01,3.104717946944061113e-01,3.276076152248672546e-01,2.003716620208670085e-01
9.719999999999999751e-01,2.414396545622886636e-01,3.171446583197423119e-01,2.126426709481613331e-01
9.729999999999999760e-01,1.225212923166469209e-01,1.582915425211836591e-01,1.702097907893428130e-01
9.739999999999999769e-01,6.091476848010619373e-03,-5.742134241345163426e-02,8.475516075148179992e-03
9.749999999999999778e-01,-1.224254715566422264e-01,-2.357737364486113818e-01,-1.488393613765155721e-01
9.759999999999999787e-01,-2.385357673216068064e-01,-2.967890231441330240e-01,-2.281705790463118833e-01
9.769999999999999796e-01,-3.232654924437962651e-01,-2.296044111305267921e-01,-2.359764857701074081e-01
9.779999999999999805e-01,-2.851051318058300255e-01,-1.041233689974308263e-01,-1.133151026522707938e-01
9.789999999999999813e-01,-1.119953894604819866e-01,3.711434256058089576e-02,2.255011766459855474e-02
9.799999999999999822e-01,1.426101004723056842e-01,1.186169635233244174e-01,1.414627447166222629e-01
9.809999999999999831e-01,3.600889042349346703e-01,1.775238925235041731e-01,1.798326911669914097e-01
9.819999999999999840e-01,4.198888160691935378e-01,2.132501006814351285e-01,1.623284993550994648e-01
9.829999999999999849e-01,2.814676245506197438e-01,1.970494469666674020e-01,1.076780759284526046e-01
9.839999999999999858e-01,2.600008497038341221e-02,1.054395643143177241e-01,2.520322783035866890e-02
9.849999999999999867e-01,-2.199462503882023690e-01,-7.039557588180167524e-02,-2.495645592557103887e-02
9.859999999999999876e-01,-3.770820167891367203e-01,-2.428943300424045160e-01,-1.049149018791228488e-01
9.869999999999999885e-01,-3.259030333615173802e-01,-3.301588124888966136e-01,-1.892738166134905753e-01
9.879999999999999893e-01,-1.861615543305002729e-01,-2.739979365098050290e-01,-1.876370290004636676e-01
9.889999999999999902e-01,-3.219102391199331337e-02,-8.542892147947968307e-02,-1.189890726848140956e-01
9.899999999999999911e-01,1.173210798034840657e-01,1.476009897781516700e-01,6.584564898277445698e-03
9.909999999999999920e-01,2.013135434506238552e-01,2.984062613092746119e-01,1.509555878744184287e-01
9.919999999999999929e-01,2.716950173786636391e-01,2.986048675075962389e-01,2.537051935143649350e-01
9.929999999999999938e-01,2.631149451079516921e-01,1.790203168928173327e-01,2.214800927403375030e-01
9.939999999999999947e-01,1.830499036765542431e-01,3.248114891278516998e-03,1.239730296829558293e-01
9.949999999999999956e-01,2.737872519711673919e-02,-1.335936588396863522e-01,-6.691346233181137693e-02
9.959999999999999964e-01,-2.033554359421380908e-01,-2.040355120777726794e-01,-1.791218000286588230e-01
9.969999999999999973e-01,-3.760534205176142009e-01,-2.021587178637842264e-01,-2.271745276001061187e-01
9.979999999999999982e-01,-3.977353063624970431e-01,-1.713605535936704172e-01,-1.549715558909680047e-01
9.989999999999999991e-01,-2.385923954760876819e-01,-1.065382417583247698e-01,-7.176342590762033180e-02
1.000000000000000000e+00,5.501015740856781550e-02,-1.874510360843125150e-03,4.570225451063218008e-02
1.000999999999999890e+00,3.038201400528102170e-01,1.330926835454467605e-01,9.068459984679297370e-02
1.002000000000000002e+00,3.965924107367593821e-01,2.735553544390273983e-01,1.490056350627995962e-01
1.002999999999999892e+00,3.291502849111165863e-01,3.062532119814163067e-01,1.767499666848246220e-01
1.004000000000000004e+00,1.313432314656869104e-01,1.874478988728353612e-01,1.438474296551488230e-01
1.004999999999999893e+00,-7.664598545746097169e-02,-1.471835345160851273e-02,8.128563979593635136e-02
1.006000000000000005e+00,-2.021326695132487361e-01,-2.334515431975907884e-01,-2.150509565381406030e-02
1.006999999999999895e+00,-2.649210289637449200e-01,-3.449944827917277301e-01,-1.639941083511373410e-01
1.008000000000000007e+00,-2.288818804245553729e-01,-2.897984889496467154e-01,-2.455453729934764240e-01
1.008999999999999897e+00,-1.797870841699099054e-01,-1.072085212906347812e-01,-2.339086211594474385e-01
1.010000000000000009e+00,-8.602181613239963387e-02,8.069193271646893373e-02,-1.038677353843466267e-01
1.010999999999999899e+00,5.817559534280428157e-02,2.142467509424335892e-01,7.771897174821063015e-02
1.012000000000000011e+00,2.280801395672204801e-01,2.263604476167896673e-01,1.939330154167956954e-01
1.012999999999999901e+00,3.603289727606686088e-01,2.004096556833208920e-01,2.490635127994376141e-01
1.014000000000000012e+00,3.604582585808088768e-01,1.036585180332111195e-01,1.704835097518050679e-01
1.014999999999999902e+00,1.632926195416671000e-01,-3.022265015660098759e-03,5.208326196382374873e-02
1.016000000000000014e+00,-1.139940331679564212e-01,-9.624820343502166198e-02,-6.970710734163233779e-02
1.016999999999999904e+00,-3.491646684605416717e-01,-1.932930928304673057e-01,-1.283550009664319314e-01
1.018000000000000016e+00,-4.274700098230397871e-01,-2.476127885092053171e-01,-1.630356325471128132e-01
1.018999999999999906e+00,-3.094109215780284083e-01,-2.286946040006735958e-01,-1.419012533391342257e-01
1.020000000000000018e+00,-6.309654665268694951e-02,-9.912336238183332149e-02,-9.985864253634989252e-02
1.020999999999999908e+00,1.775943798047833477e-01,1.060617963414451498e-01,-4.274115437481024876e-02
1.022000000000000020e+00,2.930692309889355029e-01,2.721795906109160113e-01,5.178384814245261952e-02
1.022999999999999909e+00,3.067951709905392121e-01,3.415454007940990078e-01,1.491630123089809912e-01
1.024000000000000021e+00,2.078180265719075104e-01,2.397186597861063195e-01,2.245723406014880352e-01
1.024999999999999911e+00,8.797936252482947694e-02,1.157128007293209242e-02,1.999615000760150418e-01
1.026000000000000023e+00,-1.796153631893131208e-02,-1.845953703917746769e-01,7.433885805613434095e-02
1.026999999999999913e+00,-1.391674950726369542e-01,-2.939367206901995488e-01,-8.502185062877622157e-02
1.028000000000000025e+00,-2.562885098799945749e-01,-2.569319551361861631e-01,-2.338401453431502852e-01
1.028999999999999915e+00,-3.218247762058680239e-01,-1.373259531729680849e-01,-2.530669491953340122e-01
1.030000000000000027e+00,-2.578335820007561230e-01,-8.944106718633276429e-03,-1.818896687587660266e-01
1.030999999999999917e+00,-8.036483760808112164e-02,9.586074736970558174e-02,-2.483169953720581330e-02
1.032000000000000028e+00,1.505266569573910085e-01,1.716119725152517594e-01,1.063289814737268663e-01
1.032999999999999918e+00,3.820026769726733717e-01,2.153758966952920295e-01,1.799663461109912987e-01
1.034000000000000030e+00,4.342855229220176638e-01,2.063946793908255084e-01,1.813670715879436013e-01
1.034999999999999920e+00,2.746665896285668262e-01,1.331221579825786483e-01,1.230796802185950695e-01
1.036000000000000032e+00,-8.893254296787188318e-03,2.842766383222360572e-03,4.574691272899835542e-02
1.036999999999999922e+00,-2.482650867135930417e-01,-1.842302051351606684e-01,-1.162060247730705570e-02
1.038000000000000034e+00,-3.696021055901207442e-01,-2.937821438604054092e-01,-8.436943305439752183e-02
1.038999999999999924e+00,-3.321905466208519564e-01,-3.137626206670899864e-01,-1.654478123745936335e-01
1.040000000000000036e+00,-1.606404456226587507e-01,-1.626452968043898550e-01,-1.939345133474308092e-01
1.040999999999999925e+00,-1.272844533287476217e-02,5.854874952273220884e-02,-1.524784435568991015e-01
1.042000000000000037e+00,1.384181745642720784e-01,2.626639518808792650e-01,-4.859274988462197742e-02
1.042999999999999927e+00,2.069581197470168610e-01,3.378007909245892559e-01,9.696615498647363773e-02
1.044000000000000039e+00,2.530575571898781573e-01,2.267595712123991192e-01,2.220128284273217290e-01
1.044999999999999929e+00,2.558034543401417893e-01,6.940901354619512242e-02,2.491431249262913983e-01
1.046000000000000041e+00,1.545326522270634995e-01,-9.968662627180016611e-02,1.752267969865626829e-01
1.046999999999999931e+00,-2.884708117095543482e-03,-1.926049407872483243e-01,1.583749166614294851e-02
1.048000000000000043e+00,-2.278016824710692445e-01,-2.107978433536538410e-01,-1.544819778323638926e-01
1.048999999999999932e+00,-3.885831179926454992e-01,-1.891063184495576366e-01,-2.219294623247985432e-01
1.050000000000000044e+00,-3.876195268882776102e-01,-1.305191955597111431e-01,-1.997448858853299314e-01
1.050999999999999934e+00,-2.012032909360443600e-01,-4.800812666522118188e-02,-1.114576547844667032e-01
1.052000000000000046e+00,8.379702616679227112e-02,8.746475838191160312e-02,-1.809900319425259904e-02
1.052999999999999936e+00,3.294222973881694716e-01,2.285303903941384995e-01,6.978047588911039101e-02
1.054000000000000048e+00,4.084140625153765969e-01,3.032835851803392657e-01,1.192260997564847380e-01
1.054999999999999938e+00,3.160354108073853419e-01,2.429027464008729487e-01,1.563001859485746992e-01
1.056000000000000050e+00,1.043440647774841329e-01,7.271032790148147795e-02,1.558866091100890583e-01
1.056999999999999940e+00,-1.022756411440525898e-01,-1.544974142148408391e-01,1.107595266004249845e-01
1.058000000000000052e+00,-2.272823515929821014e-01,-3.141406195073058738e-01,1.297827060319224970e-02
1.058999999999999941e+00,-2.776987256507326141e-01,-3.212318061424578874e-01,-1.118343320809227354e-01
1.060000000000000053e+00,-2.320907511446499982e-01,-1.873695056447680363e-01,-2.151376285151077872e-01
1.060999999999999943e+00,-1.856224779801380897e-01,2.375044297196024154e-02,-2.399121468090936737e-01
1.062000000000000055e+00,-5.709501818778232873e-02,1.791836505952625891e-01,-1.632337473756677593e-01
1.062999999999999945e+00,8.618632614292992544e-02,2.548038487120306006e-01,1.207892511111971837e-02
1.064000000000000057e+00,2.548873939702722136e-01,2.136066587851612741e-01,1.588977575440971013e-01
1.064999999999999947e+00,3.652367754451759652e-01,1.328039764973005799e-01,2.445182584612434762e-01
1.066000000000000059e+00,3.137778554308149892e-01,2.768353883087433520e-02,2.070718899028326787e-01
1.066999999999999948e+00,1.400500786526809593e-01,-6.890057434466621833e-02,1.011815524455108167e-01
1.068000000000000060e+00,-1.457544992915802695e-01,-1.573135951320603632e-01,-3.612986531378808291e-02
1.068999999999999950e+00,-3.709746137805700616e-01,-2.247336176371449723e-01,-1.178840986971690097e-01
1.070000000000000062e+00,-4.191853904429662103e-01,-2.470671990584248912e-01,-1.599016984670532382e-01
1.070999999999999952e+00,-2.764681563556368737e-01,-1.523414110443017666e-01,-1.426389215657739296e-01
1.072000000000000064e+00,-2.023709700124603356e-02,2.799713624708867130e-02,-1.214992337031187003e-01
1.072999999999999954e+00,2.077682724946109671e-01,2.414550488358688796e-01,-5.540090724895276042e-02
1.074000000000000066e+00,3.115134194432257475e-01,3.378339364976581383e-01,9.331799813807170520e-04
1.074999999999999956e+00,3.030428847486357768e-01,2.895814120515064483e-01,1.229540337546907308e-01
1.076000000000000068e+00,1.961471053666520581e-01,1.043452295166433508e-01,1.920400984596889737e-01
1.076999999999999957e+00,7.198600117582605595e-02,-9.662606218226416077e-02,2.133278588558479016e-01
1.078000000000000069e+00,-5.384338257259307231e-02,-2.676337315228248248e-01,1.275323279871324877e-01
1.078999999999999959e+00,-1.561193395745105739e-01,-2.768713493613789711e-01,-3.354756198707847109e-02
1.080000000000000071e+00,-2.546902187503730652e-01,-2.050235515269320519e-01,-1.896241762001529274e-01
1.080999999999999961e+00,-3.108652231839086344e-01,-5.545060495478450202e-02,-2.493469275981012589e-01
1.082000000000000073e+00,-2.342383932276170255e-01,6.317027272210180844e-02,-2.200096863457734753e-01
1.082999999999999963e+00,-5.121622208861743158e-02,1.627478584860147792e-01,-9.240450847365441756e-02
1.084000000000000075e+00,2.225589000107023319e-01,1.865527687386861200e-01,6.069077163335401259e-02
1.084999999999999964e+00,3.906649374052830748e-01,2.191896066773988960e-01,1.720798436227566341e-01
1.086000000000000076e+00,4.125144367041525539e-01,1.731026270259705957e-01,1.962455680302654382e-01
1.086999999999999966e+00,2.369753345024988300e-01,4.506525062820911087e-02,1.506099376246113619e-01
1.088000000000000078e+00,-4.100121039324013811e-02,-1.073079296468003874e-01,8.689674916278798678e-02
1.088999999999999968e+00,-2.679511108603604974e-01,-2.654982122924433585e-01,1.074995409861277326e-02
1.090000000000000080e+00,-3.648588475757096883e-01,-3.217204971917106415e-01,-5.553847122930931357e-02
1.090999999999999970e+00,-2.951125591260317926e-01,-2.342864744546249156e-01,-1.350937980239248493e-01
1.092000000000000082e+00,-1.477427857296947367e-01,-1.749783976420166143e-02,-1.742905522135102248e-01
1.092999999999999972e+00,2.038720621994853308e-02,2.073828531798296293e-01,-1.800823418083371819e-01
1.094000000000000083e+00,1.541051932092040999e-01,3.289760719499705277e-01,-1.043572700301470535e-01
1.094999999999999973e+00,2.356626427957748404e-01,2.919668370343236341e-01,4.114865262409157787e-02
1.096000000000000085e+00,2.559015852307205963e-01,1.476297989594721471e-01,1.821814361991104247e-01
1.096999999999999975e+00,2.429404880509064557e-01,-4.125554867690764405e-02,2.524341330841525233e-01
1.098000000000000087e+00,1.453150544728475102e-01,-1.789270940738076632e-01,2.134875198930986095e-01
1.098999999999999977e+00,-3.865374330068962333e-02,-2.127503465576306430e-01,8.688363637118720617e-02
1.100000000000000089e+00,-2.480272141400173547e-01,-2.041542436583776432e-01,-8.460358267965557844e-02
1.100999999999999979e+00,-3.976860152015181393e-01,-1.453905115642770696e-01,-1.925081433940380449e-01
1.102000000000000091e+00,-3.750075611550885424e-01,-6.514392712170093136e-02,-2.229328459559855591e-01
1.102999999999999980e+00,-1.647795768885264300e-01,3.729573258202689701e-02,-1.598524912890627314e-01
1.104000000000000092e+00,1.243985297116058653e-01,1.931587289487211867e-01,-4.738524425983954569e-02
1.104999999999999982e+00,3.470746721913857136e-01,2.703296581201088400e-01,3.921165150215914080e-02
1.106000000000000094e+00,4.076350466740348844e-01,2.740191696573137103e-01,1.075464189958927758e-01
1.106999999999999984e+00,3.001300318857888505e-01,1.320233795385086784e-01,1.567936378870378178e-01
1.108000000000000096e+00,7.070626364647071560e-02,-8.234298789842879607e-02,1.598434158065344945e-01
1.108999999999999986e+00,-1.356026986360681919e-01,-2.801778764512518061e-01,1.239343924013344700e-01
1.110000000000000098e+00,-2.446272201883981923e-01,-3.565653713561514060e-01,5.377524914424133828e-02
1.110999999999999988e+00,-2.620099371600732585e-01,-2.464658821978492065e-01,-5.028166642915701812e-02
1.112000000000000099e+00,-2.279977492033480324e-01,-5.598463583822301665e-02,-1.769877791193457672e-01
1.112999999999999989e+00,-1.412574968252480467e-01,1.390151236073951801e-01,-2.454481808131225573e-01
1.114000000000000101e+00,-4.061265046922372252e-02,2.480945795627646500e-01,-2.088142339875309894e-01
1.114999999999999991e+00,1.020412578879268950e-01,2.470394843205821755e-01,-6.596181777083620634e-02
1.116000000000000103e+00,2.655648683383707853e-01,1.734017735771198609e-01,1.225877101765109334e-01
1.116999999999999993e+00,3.605430146869068597e-01,4.980370616286001334e-02,2.307623176743577587e-01
1.118000000000000105e+00,3.123052228503979677e-01,-4.815577747014974930e-02,2.401308818116106858e-01
1.118999999999999995e+00,9.619453693741474021e-02,-1.291753168125450435e-01,1.521952290352498183e-01
1.120000000000000107e+00,-1.777898871141170012e-01,-2.022464709656229820e-01,2.046167868132000092e-02
1.120999999999999996e+00,-3.912929482065267139e-01,-2.438668701795786431e-01,-9.779475615884064554e-02
1.122000000000000108e+00,-4.154590528942395111e-01,-1.966304619571184742e-01,-1.556602678484824143e-01
1.122999999999999998e+00,-2.517859408497682971e-01,-2.603793712419389186e-02,-1.538704895576060716e-01
1.124000000000000110e+00,6.185973479199486508e-03,1.718177041731740184e-01,-1.265697314830088738e-01
1.125000000000000000e+00,2.276122756680732107e-01,3.175194801692873825e-01,-7.418486459251341647e-02
1.125999999999999890e+00,3.231926747599501715e-01,3.211211191050975522e-01,-1.580747255204656421e-02
1.127000000000000002e+00,2.914095740658657618e-01,1.887085061644775685e-01,7.400704882940215001e-02
1.127999999999999892e+00,1.811586169944190972e-01,-3.181378504674063634e-02,1.724267621220471058e-01
1.129000000000000004e+00,5.598379203182595604e-02,-2.266510102330722420e-01,2.135212628450603722e-01
1.129999999999999893e+00,-6.786854583981566380e-02,-2.986467512822170156e-01,1.690558933693866450e-01
1.131000000000000005e+00,-1.809724281048003813e-01,-2.460059439293921513e-01,4.869870480453063200e-02
1.131999999999999895e+00,-2.664872223506719595e-01,-9.423461619731088312e-02,-1.271261132838459040e-01
1.133000000000000007e+00,-2.997760945376941044e-01,3.994684982537239498e-02,-2.389046515864957920e-01
1.133999999999999897e+00,-2.096132111586967162e-01,1.269987046449692902e-01,-2.461641860206230381e-01
1.135000000000000009e+00,-2.232598081923133082e-02,1.964234230596313968e-01,-1.421527925970126338e-01
1.135999999999999899e+00,2.224709854098071982e-01,2.176216346656591472e-01,3.421983319340902215e-03
1.137000000000000011e+00,4.136011889359723082e-01,1.839874388082067269e-01,1.450744080914131151e-01
1.137999999999999901e+00,3.999940220074769126e-01,1.125665535467355455e-01,1.885527692942594036e-01
1.139000000000000012e+00,1.993274673204737946e-01,-5.712689534174664879e-02,1.783585100842569882e-01
1.139999999999999902e+00,-8.457207444249288664e-02,-2.098831184455894061e-01,1.021057413767236799e-01
1.141000000000000014e+00,-3.045668726702811524e-01,-3.140823262724531939e-01,2.501473976997972692e-02
1.141999999999999904e+00,-3.856863288852604987e-01,-2.796135081396014521e-01,-3.385715370512919903e-02
1.143000000000000016e+00,-2.902896990890261875e-01,-1.017545443868869554e-01,-1.020625417291169124e-01
1.143999999999999906e+00,-1.323379975634509653e-01,1.346601687252438617e-01,-1.626706205422773222e-01
1.145000000000000018e+00,5.079843881830628516e-02,2.968477356042703574e-01,-1.807766590664155459e-01
1.145999999999999908e+00,1.769027395899209765e-01,3.138405953242023871e-01,-1.305643339230419531e-01
1.147000000000000020e+00,2.286225029315730461e-01,1.915560776902214546e-01,-2.882995834234131777e-02
1.147999999999999909e+00,2.589186754940455137e-01,2.845703005747084527e-02,1.217883427300094495e-01
1.149000000000000021e+00,2.285859175658247477e-01,-1.443589583776414831e-01,2.451957419345462408e-01
1.149999999999999911e+00,1.159636432694041708e-01,-2.055566212532420889e-01,2.415307730128428976e-01
1.151000000000000023e+00,-7.460304332832730367e-02,-2.110139802698252354e-01,1.307717577851080781e-01
1.151999999999999913e+00,-2.809680881889951021e-01,-1.723937232351235582e-01,-3.210216813805585878e-02
1.153000000000000025e+00,-3.851263592911366440e-01,-1.027121848827550060e-01,-1.667506563814384335e-01
1.153999999999999915e+00,-3.492789248059406937e-01,1.076775826872130443e-02,-2.326995769614590981e-01
1.155000000000000027e+00,-1.273400138441977136e-01,1.398879829544231179e-01,-1.863341108758260478e-01
1.155999999999999917e+00,1.555724622038011373e-01,2.523488604079127118e-01,-7.794217824257299032e-02
1.157000000000000028e+00,3.754796340861081827e-01,2.880263137448621502e-01,2.250161277399021637e-02
1.157999999999999918e+00,4.031466103156364778e-01,2.064246745171796904e-01,8.923396527879645657e-02
1.159000000000000030e+00,2.705173882283498643e-01,1.317440078877187351e-03,1.355214779735241515e-01
1.159999999999999920e+00,4.928932297032561499e-02,-2.127431720265748616e-01,1.635470095618550834e-01
1.161000000000000032e+00,-1.649963857293609282e-01,-3.282497455699202038e-01,1.488641876462150071e-01
1.161999999999999922e+00,-2.689295660777046848e-01,-2.987764161049773493e-01,8.166691880404730597e-02
1.163000000000000034e+00,-2.634227022052653133e-01,-1.340735061309700493e-01,-2.278496568292351365e-02
1.163999999999999924e+00,-2.176333491595930925e-01,6.875820715281524831e-02,-1.286851708088341539e-01
1.165000000000000036e+00,-1.403829266418300248e-01,2.195200759269837210e-01,-2.370463054291125082e-01
1.165999999999999925e+00,-1.338308409473539830e-02,2.627359392725412968e-01,-2.344010634639734358e-01
1.167000000000000037e+00,1.389532326662396844e-01,1.963090091987642338e-01,-1.319231611688776173e-01
1.167999999999999927e+00,2.878369807317220364e-01,8.678388235997804012e-02,2.544734949895911466e-02
1.169000000000000039e+00,3.553091540364387568e-01,9.461661766442631266e-03,1.811987453001808746e-01
1.169999999999999929e+00,2.720069825125285834e-01,-1.004292373591887111e-01,2.493970847373666866e-01
1.171000000000000041e+00,5.496214882317485007e-02,-1.902583398571941475e-01,1.976999765233392603e-01
1.171999999999999931e+00,-2.052954555198925890e-01,-2.343140294263402201e-01,7.109567732545610252e-02
1.173000000000000043e+00,-3.958738777836362521e-01,-2.175744457485335182e-01,-6.303783695080146521e-02
1.173999999999999932e+00,-4.280806957016279335e-01,-1.185877342984833077e-01,-1.385159336454875878e-01
1.175000000000000044e+00,-2.505803040238390733e-01,8.675251703107979273e-02,-1.776111821650224187e-01
1.175999999999999934e+00,5.108808232929699239e-02,2.753072373889546287e-01,-1.566061923936448164e-01
1.177000000000000046e+00,2.538136721165923371e-01,3.377281448971100053e-01,-1.022052239530564233e-01
1.177999999999999936e+00,3.153116747501299444e-01,2.408276059479229347e-01,-3.532104763614325044e-02
1.179000000000000048e+00,2.837689344262071534e-01,4.382429207495416867e-02,5.276602876362266464e-02
1.179999999999999938e+00,1.661895574195733361e-01,-1.733996373684110193e-01,1.483333338668166856e-01
1.181000000000000050e+00,3.076831016979797093e-02,-2.986571886497988437e-01,2.079678373663767788e-01
