time,acc_x,acc_y,acc_z
0.000000000000000000e+00,-1.046308579095389379e-01,-1.519622729778070391e-01,-2.467556549091489380e-03
1.000000000000000021e-03,-2.188428142874169757e-01,-2.195541642237317514e-01,-9.540158140206400628e-02
2.000000000000000042e-03,-2.655402403539994793e-01,-2.043459639882331536e-01,-1.406624956426893724e-01
3.000000000000000062e-03,-2.189694469565237334e-01,-1.163747013108330924e-01,-1.564551402458013440e-01
4.000000000000000083e-03,-9.288532196478280212e-02,2.073575911582199293e-03,-1.045829338564215477e-01
5.000000000000000104e-03,7.337356741963567408e-02,1.209782861257516356e-01,-2.083161029346590129e-02
6.000000000000000125e-03,1.900558314423451411e-01,2.035359165000416304e-01,6.248001297378848878e-02
7.000000000000000146e-03,2.522846393077692317e-01,2.126046005112739168e-01,1.504227488159350368e-01
8.000000000000000167e-03,2.406094899582497115e-01,1.337250091839760624e-01,1.583619624324748287e-01
8.999999999999999320e-03,1.326248592577231600e-01,3.256532020056982640e-02,1.302192331816109105e-01
1.000000000000000021e-02,-2.235870085736330060e-02,-9.655715196681230461e-02,6.247328547947973709e-02
1.099999999999999936e-02,-1.625918230236261530e-01,-2.016072344460528298e-01,-3.482007443625075027e-02
1.200000000000000025e-02,-2.492052485956053054e-01,-2.176978757604471348e-01,-1.170830330837012850e-01
1.299999999999999940e-02,-2.719320809216427270e-01,-1.604230828441609580e-01,-1.532692229965125774e-01
1.400000000000000029e-02,-1.712280109987271426e-01,-6.338037598554306651e-02,-1.415763119679465665e-01
1.499999999999999944e-02,-4.072497641069278140e-02,6.999372993019591094e-02,-7.854000378931499937e-02
1.600000000000000033e-02,1.148878404741949799e-01,1.682929425148349811e-01,3.515409565017090128e-03
1.700000000000000122e-02,2.262079513871274872e-01,2.135898028232416646e-01,9.798788043775256973e-02
1.799999999999999864e-02,2.572950610875468502e-01,1.881783854493879193e-01,1.479907969061836082e-01
1.899999999999999953e-02,2.106809504484158935e-01,9.047004892350067606e-02,1.482305337012532753e-01
2.000000000000000042e-02,8.513763576074759309e-02,-3.325032062837344343e-02,1.077539502077587558e-01
2.100000000000000130e-02,-7.662274668298009461e-02,-1.607432158668047062e-01,3.938923963869873923e-02
2.199999999999999872e-02,-2.134272707528338253e-01,-2.036103128267565676e-01,-6.369350001365620129e-02
2.299999999999999961e-02,-2.759376171892181651e-01,-1.880586714285365502e-01,-1.366797491719733693e-01
2.400000000000000050e-02,-2.406617233823338531e-01,-1.144817313838547429e-01,-1.630447365936138482e-01
2.500000000000000139e-02,-1.288843138668517851e-01,1.000699094582103814e-02,-1.382152447218461533e-01
2.599999999999999881e-02,3.847661841367294722e-02,1.442046349050558895e-01,-6.227401353521908739e-02
2.699999999999999969e-02,1.746073821269727711e-01,2.009515799290303439e-01,2.916772153888425034e-02
2.800000000000000058e-02,2.703663648479856518e-01,1.991253344387014235e-01,1.187394942492685512e-01
2.900000000000000147e-02,2.567418208756000464e-01,1.380776309099819299e-01,1.654232644615650227e-01
2.999999999999999889e-02,1.461230491997723979e-01,3.229914621540011521e-02,1.534830956096910060e-01
3.099999999999999978e-02,3.402921382470585308e-03,-1.051667379397020763e-01,8.631881438945225582e-02
3.200000000000000067e-02,-1.433668186851335680e-01,-1.875043885859295767e-01,-4.230356093891553607e-03
3.300000000000000155e-02,-2.319351888221052593e-01,-2.087739009674527968e-01,-9.628336053371060188e-02
3.400000000000000244e-02,-2.746321660991227764e-01,-1.620902169337885834e-01,-1.406401765679514415e-01
3.500000000000000333e-02,-1.938862165422726991e-01,-4.819592053254836278e-02,-1.490756984684480646e-01
3.599999999999999728e-02,-5.328457986297820831e-02,7.665526159931701500e-02,-1.088552079105948450e-01
3.699999999999999817e-02,9.941237359766152970e-02,1.803958116471293671e-01,-2.339698983002204413e-02
3.799999999999999906e-02,2.272533004955160640e-01,2.090656643054537855e-01,6.372167267031232651e-02
3.899999999999999994e-02,2.795914381006932570e-01,1.713775022462731557e-01,1.369132086571693274e-01
4.000000000000000083e-02,2.160991490433474826e-01,7.070939739075757235e-02,1.717174463009537300e-01
4.100000000000000172e-02,9.907950082733091302e-02,-5.445581955190482992e-02,1.229083458710295701e-01
4.200000000000000261e-02,-6.256134192373695446e-02,-1.419603160901089234e-01,6.952456669626019825e-02
4.299999999999999656e-02,-1.907701267239491627e-01,-2.015144823779781991e-01,-2.249447091937441245e-02
4.399999999999999745e-02,-2.643103964252211946e-01,-1.900822924677048609e-01,-1.041876557593179181e-01
4.499999999999999833e-02,-2.466866454502176786e-01,-1.085807490405531067e-01,-1.591090308258122366e-01
4.599999999999999922e-02,-1.456381369873214204e-01,1.590612756537876371e-02,-1.530603379740011483e-01
4.700000000000000011e-02,1.436764148014958720e-02,1.387578525244630434e-01,-7.630808128159291548e-02
4.800000000000000100e-02,1.626952173636476151e-01,2.006927990585406496e-01,-5.415013426641301052e-03
4.900000000000000189e-02,2.433443995123352466e-01,2.067771933373076243e-01,8.018481459098322772e-02
5.000000000000000278e-02,2.632308358063970566e-01,1.415898551957236740e-01,1.569304510960993493e-01
5.099999999999999672e-02,1.667215319440594201e-01,1.671663077351664278e-02,1.651975835729514452e-01
5.199999999999999761e-02,3.645523998026765217e-02,-1.141335837601440001e-01,1.207727159797755551e-01
5.299999999999999850e-02,-1.121730367745941287e-01,-1.961302309207338113e-01,3.892242124605033854e-02
5.399999999999999939e-02,-2.327679150928093355e-01,-2.041685960179517589e-01,-6.510307957703663495e-02
5.500000000000000028e-02,-2.628405169706864442e-01,-1.543693768448657078e-01,-1.202522851306051521e-01
5.600000000000000117e-02,-2.096178333514392145e-01,-2.757180604606947194e-02,-1.606763012712686400e-01
5.700000000000000205e-02,-8.020781708832569468e-02,6.476352688574604777e-02,-1.266682394562576308e-01
5.800000000000000294e-02,5.675644882305131561e-02,1.751020469067344487e-01,-5.233807607878573909e-02
5.899999999999999689e-02,1.993174003906461877e-01,2.183881777776722488e-01,1.038299502587942090e-02
5.999999999999999778e-02,2.662103298219645198e-01,1.859021626906711133e-01,9.842174245243827391e-02
6.099999999999999867e-02,2.334003790924959465e-01,6.649582278786320133e-02,1.447125376093093274e-01
6.199999999999999956e-02,1.267348667278588858e-01,-4.229292363246294623e-02,1.613524667935599399e-01
6.300000000000000044e-02,-2.781997913610435164e-02,-1.592394978054534616e-01,1.064177482551583592e-01
6.400000000000000133e-02,-1.702698524294228577e-01,-2.114274704055128518e-01,2.184164047016985081e-04
6.500000000000000222e-02,-2.488733593067436745e-01,-1.896710160154099212e-01,-7.917704492924000637e-02
6.600000000000000311e-02,-2.416272636965158815e-01,-1.046223506787885005e-01,-1.453934785227189719e-01
6.700000000000000400e-02,-1.580034142148441789e-01,1.884515857104148914e-02,-1.583610290480305383e-01
6.800000000000000488e-02,-1.337871488037732128e-02,1.368375218838788765e-01,-1.205022958482393908e-01
6.900000000000000577e-02,1.441296719354582256e-01,2.014702805467395996e-01,-4.566067281423041163e-02
7.000000000000000666e-02,2.377175867827990008e-01,2.207600325380458528e-01,5.399187769297319334e-02
7.099999999999999367e-02,2.710258062736048412e-01,1.213169786068150069e-01,1.244540332315293985e-01
7.199999999999999456e-02,1.972600911581144922e-01,-3.495528340489252161e-03,1.407612697359968690e-01
7.299999999999999545e-02,7.448799418347754053e-02,-1.190374430800288513e-01,1.199932603283578869e-01
7.399999999999999634e-02,-8.912374026939522131e-02,-1.912869251858638209e-01,7.757945320119548349e-02
7.499999999999999722e-02,-2.196887487726212063e-01,-1.978215381562303254e-01,-1.481534556318537567e-02
7.599999999999999811e-02,-2.550445693092335819e-01,-1.329238004782198612e-01,-9.724809470056047789e-02
7.699999999999999900e-02,-2.350647834882660936e-01,-3.829313436198558684e-02,-1.552009102489911585e-01
7.799999999999999989e-02,-1.178621052070946695e-01,7.386208387280032706e-02,-1.461030592779208048e-01
7.900000000000000078e-02,6.844353379016074324e-02,1.659780505209327850e-01,-9.250222744299398114e-02
8.000000000000000167e-02,1.926121000015322271e-01,1.937255032859697412e-01,-3.153960495675514012e-03
8.100000000000000255e-02,2.688680821069248106e-01,1.594901727615484488e-01,8.089857735114260040e-02
8.200000000000000344e-02,2.309617507131480896e-01,6.506303576856276027e-02,1.607421830408510555e-01
8.300000000000000433e-02,1.461389188114076976e-01,-5.748831760973069360e-02,1.486017886957496925e-01
8.400000000000000522e-02,-3.577919539748670389e-03,-1.638045096674828338e-01,1.315149248312424135e-01
8.500000000000000611e-02,-1.509753968094706689e-01,-2.204106577691772317e-01,4.138917089792053944e-02
8.599999999999999312e-02,-2.478330554026395571e-01,-1.826003199542887145e-01,-4.428782857709107068e-02
8.699999999999999400e-02,-2.550457206470930216e-01,-1.008019797661809658e-01,-1.259792032054964650e-01
8.799999999999999489e-02,-1.851206887882251018e-01,4.284001316098271644e-02,-1.580455300584227285e-01
8.899999999999999578e-02,-5.400737989258537486e-02,1.238044421047086174e-01,-1.370057712076588330e-01
8.999999999999999667e-02,1.068892086571172906e-01,1.982171659925873741e-01,-6.701849073318230654e-02
9.099999999999999756e-02,2.331045429491337417e-01,2.024620937042898861e-01,1.127638742933605685e-02
9.199999999999999845e-02,2.843439669839202821e-01,1.294093969715556791e-01,1.099639441329344214e-01
9.299999999999999933e-02,2.224895013797200671e-01,1.767219581976273504e-02,1.521408814682330968e-01
9.400000000000000022e-02,7.596060776561118499e-02,-1.255113624801763861e-01,1.503089067033278603e-01
9.500000000000000111e-02,-6.626956414485341007e-02,-2.101874384069934154e-01,1.055095571857173620e-01
9.600000000000000200e-02,-2.002517788376634023e-01,-2.142724912867330078e-01,1.538827203191679878e-02
9.700000000000000289e-02,-2.624322656480344018e-01,-1.577156986137662198e-01,-9.876012791964181026e-02
9.800000000000000377e-02,-2.377596968753647455e-01,-3.082795697794981152e-02,-1.478069105208278666e-01
9.900000000000000466e-02,-1.444136862391408316e-01,9.692655230723737358e-02,-1.606771565523491541e-01
1.000000000000000056e-01,2.369598529326295833e-02,1.840245143815225914e-01,-1.247147345332309115e-01
1.010000000000000064e-01,1.538060953578588852e-01,2.102736325590193189e-01,-4.689724533036757070e-02
1.019999999999999934e-01,2.662660848969197747e-01,1.921663831294749269e-01,3.780017006549938469e-02
1.029999999999999943e-01,2.689040812811755443e-01,8.213807548561413707e-02,1.101408347603254068e-01
1.039999999999999952e-01,1.622761630704016023e-01,-5.897145715931648158e-02,1.625756772878989564e-01
1.049999999999999961e-01,2.469081510389515774e-02,-1.522909970432342885e-01,1.420130448839615200e-01
1.059999999999999970e-01,-1.316602419119867473e-01,-2.060566268291146586e-01,6.744863330553073355e-02
1.069999999999999979e-01,-2.431437435384466161e-01,-1.868513943612671313e-01,-2.455103032833057600e-03
1.079999999999999988e-01,-2.672176691626438338e-01,-1.090920223451314619e-01,-9.428513554865200486e-02
1.089999999999999997e-01,-1.916628627668315599e-01,3.384869749544876238e-02,-1.494234508207005485e-01
1.100000000000000006e-01,-6.767484578920676674e-02,1.402545682470651145e-01,-1.453263832586668414e-01
1.110000000000000014e-01,8.041129517803458082e-02,2.071461762541809415e-01,-1.046983715314897118e-01
1.120000000000000023e-01,2.203294079890263935e-01,1.859324762781600637e-01,-1.563179664730790855e-02
1.130000000000000032e-01,2.577008323525075140e-01,1.256825792233897676e-01,7.501196176401454807e-02
1.140000000000000041e-01,2.379425237936045878e-01,9.819260002958570249e-04,1.365554421247980599e-01
1.150000000000000050e-01,1.124458101583964281e-01,-1.325147838365378639e-01,1.652585464978634788e-01
1.160000000000000059e-01,-1.856516928583106657e-02,-1.900164925488611045e-01,1.335941764056349235e-01
1.170000000000000068e-01,-1.749772869722896196e-01,-2.096815206953907273e-01,4.210201614985449592e-02
1.179999999999999938e-01,-2.580475380837127242e-01,-1.451314380087338485e-01,-5.736855349050410530e-02
1.189999999999999947e-01,-2.441785866401229577e-01,-3.901166599031291593e-02,-1.229262025673905773e-01
1.199999999999999956e-01,-1.489873689990826588e-01,8.757270096556293848e-02,-1.628843859480008649e-01
1.209999999999999964e-01,-1.113348835653947891e-02,1.895891957414281015e-01,-1.529142640025633049e-01
1.219999999999999973e-01,1.342557819012471509e-01,2.276198681112609756e-01,-7.448994328778217600e-02
1.229999999999999982e-01,2.359033147840409184e-01,1.562575886508903722e-01,1.344884345934712917e-03
1.239999999999999991e-01,2.686028993061084225e-01,7.634799873264866421e-02,9.339575477746971111e-02
1.250000000000000000e-01,1.826024666883645786e-01,-7.036335383550908207e-02,1.690943429468289849e-01
1.260000000000000009e-01,5.367285625085965739e-02,-1.729743961453474865e-01,1.585043905957820021e-01
1.270000000000000018e-01,-1.228145348916536983e-01,-2.086818684719440042e-01,1.034854422899739862e-01
1.280000000000000027e-01,-2.307359341754136040e-01,-1.823722898503311318e-01,1.645936254138366875e-02
1.290000000000000036e-01,-2.672477342188934180e-01,-8.697766769367845652e-02,-6.824578749589380045e-02
1.300000000000000044e-01,-2.210057182766309303e-01,3.472456750796299590e-02,-1.364019461231009422e-01
1.310000000000000053e-01,-9.216907100093546523e-02,1.465466681957199313e-01,-1.588496796750116791e-01
1.320000000000000062e-01,4.968364845544993164e-02,2.017206610631168962e-01,-1.229717574167372013e-01
1.330000000000000071e-01,1.822649753536288164e-01,1.901821461124059420e-01,-4.400500153665652669e-02
1.340000000000000080e-01,2.656360147449485787e-01,1.350919083054072656e-01,3.306086437186922522e-02
1.350000000000000089e-01,2.523987504736499021e-01,7.422932776483120998e-04,1.244062783268383016e-01
1.360000000000000098e-01,1.385452748934843104e-01,-1.280798203045412365e-01,1.447521494606123504e-01
1.370000000000000107e-01,-2.554395929690235836e-02,-2.124723117956346385e-01,1.494662268935980642e-01
1.380000000000000115e-01,-1.667386691625298012e-01,-2.072974348450057902e-01,8.452164093555360191e-02
1.390000000000000124e-01,-2.476136893223879754e-01,-1.499877804907785439e-01,-6.692717090355053671e-04
1.400000000000000133e-01,-2.660775478501482549e-01,-2.071357765250168154e-02,-1.115587729493841829e-01
1.409999999999999865e-01,-1.822712200947251837e-01,9.200741360308715977e-02,-1.515985047936472263e-01
1.419999999999999873e-01,-2.613535368810419174e-02,2.000943432945951339e-01,-1.695202188981482783e-01
1.429999999999999882e-01,1.159087342864974640e-01,2.065926452591113904e-01,-1.152998219718201628e-01
1.439999999999999891e-01,2.293145049523596379e-01,1.690508359305109842e-01,-2.620437986809327421e-02
1.449999999999999900e-01,2.737416848110945100e-01,5.418416098573120704e-02,6.367459760773457045e-02
1.459999999999999909e-01,1.992409375978856090e-01,-7.926249308539139171e-02,1.258406221240074008e-01
1.469999999999999918e-01,8.236980308414423857e-02,-1.637282439688929891e-01,1.591454653615551884e-01
1.479999999999999927e-01,-7.588906962119516819e-02,-2.120491028901793917e-01,1.237851451332157848e-01
1.489999999999999936e-01,-2.034256991713873086e-01,-1.910533087981302613e-01,5.866153204297546581e-02
1.499999999999999944e-01,-2.726474991687383720e-01,-9.339158242496274631e-02,-1.828707997033806459e-02
1.509999999999999953e-01,-2.374175926833284878e-01,3.930133332312206462e-02,-1.177420406563301908e-01
1.519999999999999962e-01,-1.328072703714679725e-01,1.485530573131462195e-01,-1.435253612825796998e-01
1.529999999999999971e-01,3.876057253156049015e-02,2.066247772517014747e-01,-1.516253828036057683e-01
1.539999999999999980e-01,1.829266632694567518e-01,1.922537146840732902e-01,-8.284402760705357471e-02
1.549999999999999989e-01,2.607501867436274878e-01,1.045030103694421092e-01,-8.172260692004256616e-04
1.559999999999999998e-01,2.523648532983062687e-01,2.005390315678082323e-03,9.008465033623001827e-02
1.570000000000000007e-01,1.595257013977197380e-01,-1.221744924327353016e-01,1.492231695125776081e-01
1.580000000000000016e-01,2.137127100385259257e-02,-2.116387962066110240e-01,1.455613887381555782e-01
1.590000000000000024e-01,-1.367426344318016518e-01,-2.159891814699122781e-01,1.099870638155306946e-01
1.600000000000000033e-01,-2.452544158700360744e-01,-1.439342101513730321e-01,3.317405919162091238e-02
1.610000000000000042e-01,-2.664378850581556324e-01,-2.557330682362619900e-02,-6.430872683557341263e-02
1.620000000000000051e-01,-2.001169153937216449e-01,9.713865758341228007e-02,-1.401578171208855972e-01
1.630000000000000060e-01,-6.463333936383855449e-02,1.910948568736425546e-01,-1.538042733605594903e-01
1.640000000000000069e-01,1.007965867236781943e-01,2.058867102256161374e-01,-1.298380848628595818e-01
1.650000000000000078e-01,2.229031225209816558e-01,1.515225966783585732e-01,-6.034469580774223796e-02
1.660000000000000087e-01,2.556904933647693445e-01,6.529321331318756194e-02,1.993934167922481113e-02
1.670000000000000095e-01,2.135964025277951039e-01,-8.797389015137092871e-02,1.107244862244384370e-01
1.680000000000000104e-01,1.042498231348163856e-01,-1.621726121456291969e-01,1.592026144218836314e-01
1.690000000000000113e-01,-5.299924536264014052e-02,-2.136750013415569527e-01,1.465240634039521317e-01
1.700000000000000122e-01,-1.945801539873748265e-01,-1.797776209964382366e-01,8.173394570735748044e-02
1.710000000000000131e-01,-2.612565824160517081e-01,-6.838554632011956125e-02,-5.819718585854693517e-03
1.719999999999999862e-01,-2.450025062017202326e-01,5.897895695153025641e-02,-8.580955957207234142e-02
1.729999999999999871e-01,-1.388838706146044433e-01,1.702705289541738276e-01,-1.521781400120884031e-01
1.739999999999999880e-01,-6.040614919667809495e-03,1.975261577960390758e-01,-1.545635453912199142e-01
1.749999999999999889e-01,1.569119557485645355e-01,2.082478121650916947e-01,-1.017019673456593387e-01
1.759999999999999898e-01,2.415266761926938288e-01,1.074842585147851165e-01,-3.510448283046123386e-02
1.769999999999999907e-01,2.592189999767490205e-01,-1.423891375404435361e-02,6.094523306379850958e-02
1.779999999999999916e-01,1.648055370181825130e-01,-1.355804859346935454e-01,1.297081164371732542e-01
1.789999999999999925e-01,4.140969124022035597e-02,-1.985302147083008451e-01,1.524628676662832805e-01
1.799999999999999933e-01,-1.227156503949872052e-01,-2.102732554168021406e-01,1.338598503851881338e-01
1.809999999999999942e-01,-2.231659540190122359e-01,-1.266126961350548807e-01,6.296371198799929902e-02
1.819999999999999951e-01,-2.768945337673570095e-01,-2.956442562695259582e-02,-2.694200659785776775e-02
1.829999999999999960e-01,-2.031801510403824229e-01,1.042229505275088647e-01,-1.162168527501902943e-01
1.839999999999999969e-01,-9.788704241066864542e-02,1.911588636591825818e-01,-1.533188654640127158e-01
1.849999999999999978e-01,7.431452388573404899e-02,2.092247213408079953e-01,-1.484935831138192441e-01
1.859999999999999987e-01,1.908800002250480021e-01,1.428438800798437491e-01,-8.291518347045329085e-02
1.869999999999999996e-01,2.615971071131079628e-01,3.325966298813595040e-02,-9.474246246204182445e-03
1.880000000000000004e-01,2.443939360213222833e-01,-7.801683579161340643e-02,1.009014517524738086e-01
1.890000000000000013e-01,1.338292754376743110e-01,-1.843735033127532064e-01,1.605161167242505071e-01
1.900000000000000022e-01,-2.567158456946908376e-02,-2.104451663641674908e-01,1.361763918627453829e-01
1.910000000000000031e-01,-1.591862939735320392e-01,-1.540078510391253153e-01,1.036045468282575377e-01
1.920000000000000040e-01,-2.644954738306033448e-01,-7.644268553473836103e-02,4.312069499934734901e-02
1.930000000000000049e-01,-2.547386774155468991e-01,4.235823661968397130e-02,-4.912180186550397371e-02
1.940000000000000058e-01,-1.715960233849358474e-01,1.485027704780585434e-01,-1.248071419098883278e-01
1.950000000000000067e-01,-2.648343899871804380e-02,2.026673462463587649e-01,-1.741465642706074290e-01
1.960000000000000075e-01,1.188720823781140440e-01,1.863161164491363153e-01,-1.351616644997848948e-01
1.970000000000000084e-01,2.322828795135609137e-01,1.086501644471140476e-01,-5.386848211183496021e-02
1.980000000000000093e-01,2.620568510259043138e-01,-2.043447711214519194e-02,2.920018529191956147e-02
1.990000000000000102e-01,2.072674236113316582e-01,-1.340602839951921255e-01,1.007343813508132652e-01
2.000000000000000111e-01,6.527467996951839824e-02,-2.045534779400462466e-01,1.598394355680269330e-01
2.010000000000000120e-01,-1.003271104470843111e-01,-2.136219046155947709e-01,1.436966994008130605e-01
2.020000000000000129e-01,-2.318197356893849093e-01,-1.313925104523048504e-01,9.020097573742104358e-02
2.030000000000000138e-01,-2.612788354867698337e-01,-1.863100731942713556e-02,7.266702655019629566e-03
2.039999999999999869e-01,-2.318557577820401783e-01,1.038325499809050201e-01,-8.181528326607842572e-02
2.049999999999999878e-01,-1.202739470466947513e-01,1.898773168419156665e-01,-1.453380585889658128e-01
2.059999999999999887e-01,4.078920368791884993e-02,1.998030619695712884e-01,-1.540488924096675982e-01
2.069999999999999896e-01,1.708339362892053181e-01,1.488497933042732813e-01,-1.159649402879664448e-01
2.079999999999999905e-01,2.640652838849737449e-01,2.685342652251815690e-02,-3.855463121339512689e-02
2.089999999999999913e-01,2.389088702058662639e-01,-9.005050679852102946e-02,5.708192421831407432e-02
2.099999999999999922e-01,1.472329873749632090e-01,-1.795853920754971189e-01,1.301501620277056570e-01
2.109999999999999931e-01,-1.295397725180492043e-03,-2.268241601575475552e-01,1.831454083447619230e-01
2.119999999999999940e-01,-1.479117668928249252e-01,-1.640266734325346865e-01,1.389992780473500444e-01
2.129999999999999949e-01,-2.393541111585385794e-01,-8.872677480284786589e-02,8.054958936089731680e-02
2.139999999999999958e-01,-2.620177958746471858e-01,5.267363688881714079e-02,-2.982923729031488128e-02
2.149999999999999967e-01,-1.818122816055371405e-01,1.515608491237690758e-01,-1.259401229555909829e-01
2.159999999999999976e-01,-5.747205291193072801e-02,2.019083230470143098e-01,-1.670076065279752220e-01
2.169999999999999984e-01,9.631270048693532648e-02,1.850944523309092649e-01,-1.558773246267910473e-01
2.179999999999999993e-01,2.178970093865335023e-01,1.023151723989433881e-01,-9.373835005290601097e-02
2.190000000000000002e-01,2.773976575410061485e-01,-2.520008111468073977e-02,1.381095640173122564e-03
2.200000000000000011e-01,2.223825211547661440e-01,-1.433930050126349665e-01,8.017359267354254304e-02
2.210000000000000020e-01,9.415104149420464030e-02,-2.059680174080633919e-01,1.459945532444267002e-01
2.220000000000000029e-01,-5.673855694805694794e-02,-2.041386079236665041e-01,1.576832837260981335e-01
2.230000000000000038e-01,-1.907948128425679957e-01,-1.230436815712430548e-01,1.192515986011892515e-01
2.240000000000000047e-01,-2.533654351478832334e-01,-4.062653851378281514e-03,3.597168219178058929e-02
2.250000000000000056e-01,-2.314878704819399446e-01,1.211097861572444090e-01,-7.417559153682699857e-02
2.260000000000000064e-01,-1.351657239761226703e-01,1.957528689740509475e-01,-1.303766115090521649e-01
2.270000000000000073e-01,1.205792518028533239e-02,2.118816440697817716e-01,-1.777991580580737252e-01
2.280000000000000082e-01,1.576230577249219666e-01,1.568395569680249291e-01,-1.208234462338323434e-01
2.290000000000000091e-01,2.576243624040092661e-01,4.912467582601240390e-02,-8.137128365947593478e-02
2.300000000000000100e-01,2.369242197002462136e-01,-7.965728585867919154e-02,2.065132047903138826e-02
2.310000000000000109e-01,1.781159095303508078e-01,-1.798603906515699180e-01,9.648465793245802891e-02
2.320000000000000118e-01,3.330735050678405862e-02,-2.281681408419371782e-01,1.547454270009691601e-01
2.330000000000000127e-01,-1.233980189803100813e-01,-1.738538209569012449e-01,1.499487004624636688e-01
2.340000000000000135e-01,-2.488799089764111572e-01,-7.280851682204944608e-02,9.665331522489117866e-02
2.349999999999999867e-01,-2.674283407858312756e-01,6.946486020713120435e-02,2.651283675413512730e-02
2.359999999999999876e-01,-1.945233751310434522e-01,1.593941428717469411e-01,-8.308740781337103920e-02
2.369999999999999885e-01,-7.051045581114298577e-02,2.119747448889742758e-01,-1.436772994938208259e-01
2.379999999999999893e-01,7.937466612904306440e-02,1.936384265420071082e-01,-1.629361539777465506e-01
2.389999999999999902e-01,2.069034349995292621e-01,9.964628269866171451e-02,-1.255062991784032522e-01
2.399999999999999911e-01,2.709488988387162012e-01,-1.350722497624746304e-02,-5.561183605076305825e-02
2.409999999999999920e-01,2.418810043665374498e-01,-1.360488751567827115e-01,4.831862759010201180e-02
2.419999999999999929e-01,1.184431080462910735e-01,-2.109588534605475185e-01,1.261394407304655407e-01
2.429999999999999938e-01,-2.505975616349531698e-02,-2.101685943007216839e-01,1.613554278049590396e-01
2.439999999999999947e-01,-1.625148949402042409e-01,-1.161772086450932884e-01,1.538275446813053837e-01
2.449999999999999956e-01,-2.514685406874984097e-01,1.486598953122379718e-02,8.443581457689887382e-02
2.459999999999999964e-01,-2.438992820486806101e-01,1.104364927383979650e-01,-1.061604641882480521e-02
2.469999999999999973e-01,-1.653428836693968396e-01,1.914627667826276913e-01,-9.889522348956800157e-02
2.479999999999999982e-01,-1.405563553341579669e-03,2.171313655189134051e-01,-1.487047854445405770e-01
2.489999999999999991e-01,1.432516903508516404e-01,1.441561144606577360e-01,-1.599812351616618500e-01
2.500000000000000000e-01,2.449073907672375539e-01,3.516633235912280941e-02,-1.024894216537364094e-01
2.510000000000000009e-01,2.631577630648658239e-01,-7.914288540892039370e-02,-2.820209822353233423e-03
2.520000000000000018e-01,1.965642192379674913e-01,-1.650355827492151761e-01,6.853530949694337793e-02
2.530000000000000027e-01,6.623211267249203005e-02,-2.150821196721242889e-01,1.449418244958019797e-01
2.540000000000000036e-01,-1.071102615275024705e-01,-1.744506041170975630e-01,1.640833872055941500e-01
2.550000000000000044e-01,-2.171958151293010286e-01,-7.095572163001870325e-02,1.320121989096098014e-01
2.560000000000000053e-01,-2.812610864336003158e-01,6.088311702298104117e-02,5.428709318076421070e-02
2.570000000000000062e-01,-2.201971116124216421e-01,1.786211887828474953e-01,-4.318903745032873220e-02
2.580000000000000071e-01,-1.045423340243616522e-01,2.068131670860880178e-01,-1.270549749794715466e-01
2.590000000000000080e-01,5.986745685559157620e-02,1.758036766559709918e-01,-1.690575915312427790e-01
2.600000000000000089e-01,1.851984355269361837e-01,8.595529305952240295e-02,-1.553505528377215894e-01
2.610000000000000098e-01,2.725800725330521090e-01,-2.927051636133880252e-02,-8.099887820390881676e-02
2.620000000000000107e-01,2.532540852880733606e-01,-1.392573535577150690e-01,7.966184845132647310e-03
2.630000000000000115e-01,1.477560558332868534e-01,-2.178580423796694920e-01,9.139625674973901603e-02
2.640000000000000124e-01,-4.198651141997069777e-03,-1.983398521179185470e-01,1.520954818263666186e-01
2.650000000000000133e-01,-1.598074677555261502e-01,-1.043829614307513476e-01,1.530702766658252612e-01
2.660000000000000142e-01,-2.493808123453254144e-01,-5.910241201123826033e-03,1.051833206506773144e-01
2.670000000000000151e-01,-2.545903360861706544e-01,1.031819352639296306e-01,2.459267771825835586e-02
2.680000000000000160e-01,-1.855802337386205647e-01,1.979720685250114798e-01,-7.065326016797844610e-02
2.690000000000000169e-01,-3.479121156841489398e-02,2.016489643126588571e-01,-1.421165049915354417e-01
2.700000000000000178e-01,1.167541782976949521e-01,1.555905983608949217e-01,-1.631911365913784606e-01
2.710000000000000187e-01,2.229945928888756035e-01,1.259072172401453672e-02,-1.315957075249322983e-01
2.720000000000000195e-01,2.670191988653559667e-01,-9.417056760101866209e-02,-5.604088535679940114e-02
2.730000000000000204e-01,2.078185334866586575e-01,-1.917670910987580302e-01,3.493407748202527474e-02
2.740000000000000213e-01,9.176518593922192157e-02,-2.294616468883727001e-01,1.130081126629521177e-01
2.750000000000000222e-01,-6.990685536093674268e-02,-1.715634592366583056e-01,1.692035611976029641e-01
2.760000000000000231e-01,-1.979253264555255187e-01,-7.270381562196931435e-02,1.336263052074810054e-01
2.770000000000000240e-01,-2.767082237722703897e-01,6.344061439148870885e-02,8.077329865583653123e-02
2.780000000000000249e-01,-2.359496131983460365e-01,1.666250647340037638e-01,-1.314110121150784648e-02
2.790000000000000258e-01,-1.293001366245876693e-01,2.048742230705498657e-01,-1.098698535333270110e-01
2.800000000000000266e-01,3.147215784304151220e-02,1.893925791974654105e-01,-1.613088200387110815e-01
2.810000000000000275e-01,1.668461289728868924e-01,7.131371540864152314e-02,-1.523793374403180079e-01
2.819999999999999729e-01,2.490923935687416046e-01,-3.817148571963484976e-02,-1.098623429283694664e-01
2.829999999999999738e-01,2.580221495456925807e-01,-1.445720791191490440e-01,-2.158649505466498156e-02
2.839999999999999747e-01,1.662072649758446208e-01,-2.250449429256389799e-01,6.947166438993024329e-02
2.849999999999999756e-01,2.926923209440306789e-02,-1.914392621470408229e-01,1.307859350442420743e-01
2.859999999999999765e-01,-1.383774809074577727e-01,-1.162339442185237742e-01,1.592701388445810218e-01
2.869999999999999774e-01,-2.441734197200496059e-01,8.084768103746680507e-03,1.223728930275285176e-01
2.879999999999999782e-01,-2.630583123959856495e-01,1.436404277239415328e-01,5.867923169849936782e-02
2.889999999999999791e-01,-1.933187590036455350e-01,2.220259882322047351e-01,-4.693120368139083037e-02
2.899999999999999800e-01,-7.815060443143567737e-02,2.121187250418782311e-01,-1.204124503591032097e-01
2.909999999999999809e-01,8.307736107275846826e-02,1.369984127817487074e-01,-1.621920438085124871e-01
2.919999999999999818e-01,2.189897830481163099e-01,1.835143801556164689e-02,-1.528674005009584558e-01
2.929999999999999827e-01,2.595987135108203669e-01,-1.066858136091218268e-01,-7.281693667537737780e-02
2.939999999999999836e-01,2.163850620735856267e-01,-1.867642077271233769e-01,1.025086017358120376e-02
2.949999999999999845e-01,1.046477077272231215e-01,-2.156202350198621609e-01,9.592355619070679074e-02
2.959999999999999853e-01,-6.221964209061246753e-02,-1.667324751809174388e-01,1.372981515839981626e-01
2.969999999999999862e-01,-1.873495630793098055e-01,-4.746622841782440622e-02,1.649532110504252358e-01
2.979999999999999871e-01,-2.551403705232825891e-01,6.721996937500161751e-02,1.164922223353608982e-01
2.989999999999999880e-01,-2.431873551246471754e-01,1.729672154942644424e-01,1.074067969161750236e-02
2.999999999999999889e-01,-1.366618358157489221e-01,2.231354696783463543e-01,-5.870414420410369205e-02
3.009999999999999898e-01,6.952901236174910187e-04,1.890613413047182445e-01,-1.234442749133010803e-01
3.019999999999999907e-01,1.588572617498976991e-01,7.785464244346215756e-02,-1.650315975741968033e-01
3.029999999999999916e-01,2.402250681047867487e-01,-5.604230012001647221e-02,-1.308895717339011444e-01
3.039999999999999925e-01,2.682045726490692172e-01,-1.505125539981928551e-01,-5.927520177898585457e-02
3.049999999999999933e-01,1.942724258266377291e-01,-1.989446985156523295e-01,4.489106729736716539e-02
3.059999999999999942e-01,4.362831405783593880e-02,-1.961456098288454075e-01,1.156877642949339785e-01
3.069999999999999951e-01,-1.111698877213761205e-01,-1.042709238583223730e-01,1.654085438591349766e-01
3.079999999999999960e-01,-2.223867675761266038e-01,9.162705118172535714e-04,1.657896414012445530e-01
3.089999999999999969e-01,-2.663477814711909253e-01,1.277193278122564501e-01,9.215996074684466854e-02
3.099999999999999978e-01,-2.222390455735546722e-01,2.090110279936329418e-01,9.344784817798428879e-04
3.109999999999999987e-01,-9.486249429356394258e-02,2.068415718486475430e-01,-8.567581884956836091e-02
3.119999999999999996e-01,6.165392529783431802e-02,1.309892728505560877e-01,-1.466022717300559386e-01
3.130000000000000004e-01,1.981669178202237203e-01,2.271637038746873380e-02,-1.672047375694475924e-01
3.140000000000000013e-01,2.694779282135355003e-01,-1.045168528830332927e-01,-1.135944095478751553e-01
3.150000000000000022e-01,2.307640316386756763e-01,-1.891620582793048511e-01,-1.619955029367301305e-02
3.160000000000000031e-01,1.301289789916734441e-01,-2.299770134785321107e-01,4.126606828615481809e-02
3.170000000000000040e-01,-1.208721817468260545e-02,-1.661267180284113631e-01,1.310859309221562574e-01
3.180000000000000049e-01,-1.735011468182208472e-01,-5.262474993505267956e-02,1.641297623940643213e-01
3.190000000000000058e-01,-2.518122692697151721e-01,5.975212147106333943e-02,1.328620293488421700e-01
3.200000000000000067e-01,-2.631567391826286628e-01,1.802344875145786562e-01,5.906918311600950489e-02
3.210000000000000075e-01,-1.789503996251309292e-01,2.229232024780014587e-01,-3.159356830290238616e-02
3.220000000000000084e-01,-2.244374878909177057e-02,1.806955657779854008e-01,-1.194852488520104644e-01
3.230000000000000093e-01,1.301244415773188112e-01,7.672043656717790483e-02,-1.620769843536802590e-01
3.240000000000000102e-01,2.255440384757537164e-01,-4.172261969668181886e-02,-1.438233508584683684e-01
3.250000000000000111e-01,2.627364978470378976e-01,-1.568796282139635900e-01,-9.831406274372009313e-02
3.260000000000000120e-01,1.988733759453508443e-01,-2.147822575119593680e-01,-1.504252911675949770e-03
3.270000000000000129e-01,6.925549786664524088e-02,-1.958563096918236879e-01,6.897420217427834011e-02
3.280000000000000138e-01,-8.877677242302041416e-02,-1.140137641476496738e-01,1.551855223584721333e-01
3.290000000000000147e-01,-2.032203080713193277e-01,7.559556564078473428e-03,1.487825266922803702e-01
3.300000000000000155e-01,-2.660457917707465536e-01,1.371133868532806444e-01,1.077110182485884193e-01
3.310000000000000164e-01,-2.531368700823460327e-01,2.082692145033804565e-01,3.845438384168667345e-02
3.320000000000000173e-01,-1.161369825951138468e-01,2.068411789333735873e-01,-5.680812916590252670e-02
3.330000000000000182e-01,3.900184863491410608e-02,1.288713622976727646e-01,-1.289692336214342538e-01
3.340000000000000191e-01,1.650667593412202538e-01,1.821795293985688929e-02,-1.583905963860678390e-01
3.350000000000000200e-01,2.682322941187355037e-01,-1.173689270026847115e-01,-1.347919358087535935e-01
3.360000000000000209e-01,2.397941981190749305e-01,-1.930497200558569659e-01,-8.211384957875160484e-02
3.370000000000000218e-01,1.549661680824616083e-01,-2.124013945942837267e-01,2.418373290419771615e-02
3.380000000000000226e-01,1.286348664703865219e-02,-1.559979671182702143e-01,1.056166900819788951e-01
3.390000000000000235e-01,-1.335245811995710019e-01,-5.969473429798380359e-02,1.577014775611677577e-01
3.400000000000000244e-01,-2.453153538014008761e-01,8.903317102826492635e-02,1.556484569872397528e-01
3.410000000000000253e-01,-2.592650154208403501e-01,1.695498109424728728e-01,9.750205194403502307e-02
3.420000000000000262e-01,-1.781516808182048162e-01,2.078142479327268755e-01,5.331094853122694648e-03
3.430000000000000271e-01,-5.374966976832718651e-02,1.828227063782199568e-01,-9.003018523927065753e-02
3.439999999999999725e-01,1.092106511125250368e-01,8.168081917417788218e-02,-1.607652973609740576e-01
3.449999999999999734e-01,2.229115071720074170e-01,-5.432990630368214613e-02,-1.474824667318348770e-01
3.459999999999999742e-01,2.848893533979599546e-01,-1.533316480318225039e-01,-1.187290901967849727e-01
3.469999999999999751e-01,2.258205955787836172e-01,-2.177822287507781007e-01,-3.531755901130612801e-02
3.479999999999999760e-01,9.191794678504561222e-02,-1.908334157469525616e-01,5.763238943004716369e-02
3.489999999999999769e-01,-6.663911700923567938e-02,-9.886909200423885102e-02,1.338735121384808380e-01
3.499999999999999778e-01,-1.819636093051781311e-01,1.892898803953399489e-02,1.681882163537747610e-01
3.509999999999999787e-01,-2.505411632661664334e-01,1.429856936876475748e-01,1.333032033757645674e-01
3.519999999999999796e-01,-2.304803119319396021e-01,2.058241288401582991e-01,7.409180775310204858e-02
3.529999999999999805e-01,-1.296076742924574809e-01,2.026187337012931022e-01,-2.474803694005692570e-02
3.539999999999999813e-01,1.509141466464186676e-02,1.331418265994535888e-01,-1.168992236158173242e-01
3.549999999999999822e-01,1.521267343138436867e-01,1.954396053693846849e-02,-1.590290386320548921e-01
3.559999999999999831e-01,2.471280479877717984e-01,-1.232130100497249026e-01,-1.593076285929907465e-01
3.569999999999999840e-01,2.701702020394464165e-01,-1.955058291311921048e-01,-1.091856281921760596e-01
3.579999999999999849e-01,1.696222680063644572e-01,-2.165806294765292017e-01,-1.626095407912235558e-02
3.589999999999999858e-01,3.221074102472671480e-02,-1.568450905943003792e-01,8.915275424935949211e-02
3.599999999999999867e-01,-1.278905988756723622e-01,-4.299269477179713111e-02,1.533753057750458781e-01
3.609999999999999876e-01,-2.269866022547040452e-01,8.147737831544359099e-02,1.577895467266252905e-01
3.619999999999999885e-01,-2.697410565575075747e-01,1.853208394307530871e-01,1.140443791205107277e-01
3.629999999999999893e-01,-2.222242467196275939e-01,2.236721758801297200e-01,3.890901774383847406e-02
3.639999999999999902e-01,-6.965405732649959658e-02,1.734106513197217481e-01,-4.099807682552354671e-02
3.649999999999999911e-01,6.724431740099866273e-02,7.566551138828037093e-02,-1.191024352134382042e-01
3.659999999999999920e-01,1.960431468640450314e-01,-5.389245883639495055e-02,-1.590662873270892730e-01
3.669999999999999929e-01,2.512003611854514151e-01,-1.554005655381287265e-01,-1.441042744309205259e-01
3.679999999999999938e-01,2.412186850138769434e-01,-2.045544206659157260e-01,-8.956490845556781821e-02
3.689999999999999947e-01,1.256965724211419055e-01,-1.744421053434116464e-01,5.335277480066104305e-03
3.699999999999999956e-01,-2.705990901257445194e-02,-1.007054934453128769e-01,9.751663144039775244e-02
3.709999999999999964e-01,-1.816197853715956212e-01,3.358154085465766409e-02,1.515768026392468049e-01
3.719999999999999973e-01,-2.693943417605734192e-01,1.390869081997685164e-01,1.449738354883686187e-01
3.729999999999999982e-01,-2.426410886611969353e-01,2.151010511063068120e-01,9.357887658419682120e-02
3.739999999999999991e-01,-1.566885613758832174e-01,2.047639133769199038e-01,3.752952206432457870e-03
3.750000000000000000e-01,-1.175492567772586094e-02,1.143296607113835212e-01,-8.111246416671556714e-02
3.760000000000000009e-01,1.426045580242339683e-01,8.376355101019195004e-03,-1.333298720047787767e-01
3.770000000000000018e-01,2.366162990288982193e-01,-1.066358712614139254e-01,-1.677858142359489046e-01
3.780000000000000027e-01,2.638656511599508647e-01,-1.688686090912151772e-01,-1.211985372815917172e-01
3.790000000000000036e-01,1.931601136219406600e-01,-2.088541617379149617e-01,-4.720617151281540635e-02
3.800000000000000044e-01,7.569476166069931400e-02,-1.529273786162351212e-01,4.170493405863836406e-02
3.810000000000000053e-01,-8.352753443881305584e-02,-4.062089906690035529e-02,1.469960279396753111e-01
3.820000000000000062e-01,-2.259105947950229565e-01,7.248874335729743601e-02,1.620328098375203307e-01
3.830000000000000071e-01,-2.591056789712485320e-01,1.719822885201943430e-01,1.370551644795188762e-01
3.840000000000000080e-01,-2.337091876672986734e-01,2.306949882601288526e-01,8.653450208022445134e-02
3.850000000000000089e-01,-1.166393180703133164e-01,1.631091733446626280e-01,-4.399975222232844520e-03
3.860000000000000098e-01,5.164948662180090383e-02,6.943781402360652000e-02,-9.599291560079083185e-02
3.870000000000000107e-01,1.971791823822381662e-01,-6.097376237895518053e-02,-1.483086757671810696e-01
3.880000000000000115e-01,2.560684330171300593e-01,-1.618198019876735949e-01,-1.606538933205768349e-01
3.890000000000000124e-01,2.509114392506324176e-01,-2.106477375057116408e-01,-9.949699207820973668e-02
3.900000000000000133e-01,1.453385439354158148e-01,-1.894982839515229889e-01,-1.751583726487950660e-02
3.910000000000000142e-01,7.242043724092846538e-03,-1.036778453373189968e-01,7.390143247316738329e-02
3.920000000000000151e-01,-1.534875532994950387e-01,2.891305066411154270e-02,1.371096172361600252e-01
3.930000000000000160e-01,-2.331896624894702896e-01,1.413730796735558626e-01,1.527555267596297506e-01
3.940000000000000169e-01,-2.608203621328522015e-01,2.046599253185159561e-01,1.217494264552201194e-01
3.950000000000000178e-01,-1.827226447426376077e-01,2.021288164420922684e-01,4.760709417071717214e-02
3.960000000000000187e-01,-3.624257964020000805e-02,1.236113982811577611e-01,-3.961196039446224226e-02
3.970000000000000195e-01,1.020978887174866512e-01,1.032565643767750958e-03,-1.117101463759099106e-01
3.980000000000000204e-01,2.208955066336487638e-01,-1.404439315641880792e-01,-1.468396076391070004e-01
3.990000000000000213e-01,2.793034667565341689e-01,-2.028008643475607553e-01,-1.394359227728634576e-01
4.000000000000000222e-01,2.058536996783857653e-01,-2.011384227843965034e-01,-7.845879428406614398e-02
4.010000000000000231e-01,9.290056444493716148e-02,-1.571324442332626414e-01,1.782885569047444607e-02
4.020000000000000240e-01,-7.544283119795522352e-02,-3.714560587464107999e-02,1.081840399581870810e-01
4.030000000000000249e-01,-1.899016161706069683e-01,1.055859969248095082e-01,1.557878685909801775e-01
4.040000000000000258e-01,-2.583728923398692645e-01,1.937017759421917895e-01,1.511447242629226639e-01
4.050000000000000266e-01,-2.546124658087755566e-01,2.101191055687719189e-01,1.025661106409772594e-01
4.060000000000000275e-01,-1.343256611246528842e-01,1.550040465983514026e-01,2.028284676325502536e-02
4.069999999999999729e-01,3.079243412715977971e-02,7.081574075000306168e-02,-7.111636723683645300e-02
4.079999999999999738e-01,1.685623608004551688e-01,-6.040109192321425208e-02,-1.319892051343268535e-01
4.089999999999999747e-01,2.483676561212884160e-01,-1.631594300577748069e-01,-1.485903997915589969e-01
4.099999999999999756e-01,2.648955829392757866e-01,-2.210197639117296164e-01,-1.228587245695138414e-01
4.109999999999999765e-01,1.720339719701643177e-01,-1.823879682123521195e-01,-5.309787926118754442e-02
4.119999999999999774e-01,2.883266776252842167e-02,-8.356675365148685808e-02,3.959209097928886173e-02
4.129999999999999782e-01,-1.254248859687447371e-01,3.014390506619456581e-02,1.231248318193308711e-01
4.139999999999999791e-01,-2.368412501236596135e-01,1.446706655825047150e-01,1.523258111141183591e-01
4.149999999999999800e-01,-2.600895010592110257e-01,1.926734700532380384e-01,1.523102283641746546e-01
4.159999999999999809e-01,-2.193357640487159921e-01,1.883569812462233817e-01,8.600448016451635314e-02
4.169999999999999818e-01,-6.058937321044435831e-02,1.121375610364653830e-01,7.793976302193028616e-03
4.179999999999999827e-01,8.945596435238632738e-02,-3.312791979688128191e-03,-1.045224155231838231e-01
4.189999999999999836e-01,2.107668747597744585e-01,-1.243774896560515264e-01,-1.509968045859953478e-01
4.199999999999999845e-01,2.631222714510478844e-01,-1.902051467818551833e-01,-1.619881647144242598e-01
4.209999999999999853e-01,2.279720644636894500e-01,-1.972684536563772684e-01,-1.064761498409272644e-01
4.219999999999999862e-01,1.120250084490178322e-01,-1.427150277143227897e-01,-3.985796218764328658e-02
4.229999999999999871e-01,-4.058355188810208042e-02,-5.576897765893629871e-02,5.980677647800399649e-02
4.239999999999999880e-01,-1.652834560834939015e-01,1.040941872133113039e-01,1.360406303042595577e-01
4.249999999999999889e-01,-2.597422104421519551e-01,1.868873736397523300e-01,1.568187064386552254e-01
4.259999999999999898e-01,-2.535934179532460808e-01,2.288568834848147271e-01,1.424806471594940172e-01
4.269999999999999907e-01,-1.518385142787886388e-01,1.664420222549931050e-01,5.291057379382606979e-02
4.279999999999999916e-01,-3.210596535698662535e-03,4.302838380654364775e-02,-2.970300996357389325e-02
4.289999999999999925e-01,1.579593211364170025e-01,-6.739122427498379919e-02,-1.124950424958562900e-01
4.299999999999999933e-01,2.469082237500938859e-01,-1.758540766413315970e-01,-1.561875656829835868e-01
4.309999999999999942e-01,2.756955629845577183e-01,-2.213357331022368923e-01,-1.498690679157229921e-01
4.319999999999999951e-01,1.898882716428009765e-01,-1.971671367552635667e-01,-8.486896006745701937e-02
4.329999999999999960e-01,4.554315688590073602e-02,-8.635926698600938922e-02,9.214445552415604507e-03
4.339999999999999969e-01,-1.059401200848184288e-01,2.725756944630146339e-02,1.062992032500752887e-01
4.349999999999999978e-01,-2.322674651737139107e-01,1.548769323000377951e-01,1.496965687609014828e-01
4.359999999999999987e-01,-2.659516913105262614e-01,2.042535039391628060e-01,1.637730158105698275e-01
4.369999999999999996e-01,-2.248029430861058220e-01,1.910782471844310049e-01,1.272766777999642662e-01
4.380000000000000004e-01,-9.338721895572835163e-02,1.011980944727698950e-01,2.896151455701215238e-02
4.390000000000000013e-01,6.532395874925779611e-02,-1.722091299907021686e-02,-5.854674364941580417e-02
4.400000000000000022e-01,1.967789562042350504e-01,-1.347317078589307104e-01,-1.310838689230047205e-01
4.410000000000000031e-01,2.777579343658866384e-01,-2.130048084023196120e-01,-1.598079738987600307e-01
4.420000000000000040e-01,2.436249182977047179e-01,-2.125173080673044279e-01,-1.305767289796901376e-01
4.430000000000000049e-01,1.374489441151743319e-01,-1.299507011161234737e-01,-4.959797782264457888e-02
4.440000000000000058e-01,-1.725911162629326437e-02,-1.278718799208649996e-02,3.350694622857298965e-02
4.450000000000000067e-01,-1.603135148149184563e-01,1.156547868377976046e-01,1.205806301056712992e-01
4.460000000000000075e-01,-2.558956240610055777e-01,1.841332524140347204e-01,1.725883162245848979e-01
4.470000000000000084e-01,-2.671243287051425219e-01,2.113322015714305113e-01,1.471734604854926798e-01
4.480000000000000093e-01,-1.870519854744755184e-01,1.512548239495929425e-01,9.901666922994085962e-02
4.490000000000000102e-01,-2.601174646095554335e-02,4.936303295479119169e-02,1.922839149299985107e-03
4.500000000000000111e-01,1.060580114164657445e-01,-7.438885771203594677e-02,-9.703963439636491273e-02
4.510000000000000120e-01,2.357713756123042959e-01,-1.700091559094357718e-01,-1.640783367487488320e-01
4.520000000000000129e-01,2.683864454442205782e-01,-2.163360233635108210e-01,-1.610020308640988385e-01
4.530000000000000138e-01,2.153112395623670849e-01,-1.761697366153053557e-01,-1.039442000565660024e-01
4.540000000000000147e-01,8.983122936193764507e-02,-9.903253161740649402e-02,-3.735553583135244049e-02
4.550000000000000155e-01,-7.853130802770365293e-02,4.334935663276080764e-02,6.606705953656885622e-02
4.560000000000000164e-01,-2.117458873229556837e-01,1.489046435912408928e-01,1.297993732338205697e-01
4.570000000000000173e-01,-2.667651755015547077e-01,2.086104498517682704e-01,1.672720565754082789e-01
4.580000000000000182e-01,-2.400760866463315935e-01,1.944514509212487974e-01,1.271008155176912569e-01
4.590000000000000191e-01,-1.204129534508653759e-01,1.010741550400249961e-01,5.042771908363374855e-02
4.600000000000000200e-01,3.838588445532543220e-02,-3.160818160930203326e-03,-1.912442507088357377e-02
4.610000000000000209e-01,1.771635114491848517e-01,-1.238633210417658531e-01,-1.158980129679999527e-01
4.620000000000000218e-01,2.553926557862287172e-01,-2.025193089144087522e-01,-1.483830844332446053e-01
4.630000000000000226e-01,2.487269047019870227e-01,-2.030458465337581231e-01,-1.552002922853299716e-01
4.640000000000000235e-01,1.482103932370749666e-01,-1.285965038428153739e-01,-9.657641052053414499e-02
4.650000000000000244e-01,1.705353690002627681e-02,-1.681649022882431010e-02,-1.751910495301847032e-02
4.660000000000000253e-01,-1.409954364631046675e-01,1.008898860342032355e-01,8.963557732092419794e-02
4.670000000000000262e-01,-2.357102255713654504e-01,1.991903460649918356e-01,1.421636776974302407e-01
4.680000000000000271e-01,-2.615695073543903293e-01,2.126082220769518472e-01,1.521407582585201090e-01
4.689999999999999725e-01,-2.019547023730218216e-01,1.454201309687581378e-01,1.216656775175838784e-01
4.699999999999999734e-01,-6.021945502187071170e-02,4.815365989054286311e-02,3.269869078739268131e-02
4.709999999999999742e-01,1.006744721444449292e-01,-8.763286719498630806e-02,-6.634971281048768210e-02
4.719999999999999751e-01,2.131307090395632153e-01,-1.656560207244774097e-01,-1.349532189719653552e-01
4.729999999999999760e-01,2.695601385991933663e-01,-2.118579978497013572e-01,-1.608591849607395041e-01
4.739999999999999769e-01,2.202515048390708829e-01,-1.815873156899948937e-01,-1.269591588559886575e-01
4.749999999999999778e-01,1.080576514832771728e-01,-8.021419469860451013e-02,-7.312573366010276243e-02
4.759999999999999787e-01,-3.750506628599972747e-02,3.538393087115210972e-02,2.967011546449693088e-02
4.769999999999999796e-01,-1.925001884012530751e-01,1.653133270461900617e-01,1.175229171718163712e-01
4.779999999999999805e-01,-2.762636389971018791e-01,2.003965802036697386e-01,1.607141854611021936e-01
4.789999999999999813e-01,-2.580751690930312980e-01,2.044500296367809111e-01,1.553979680501570981e-01
4.799999999999999822e-01,-1.493887921126167417e-01,8.946855041651467777e-02,9.293416998313658306e-02
4.809999999999999831e-01,4.274398326087711086e-03,-1.933926811520644135e-02,3.579897854558658932e-03
4.819999999999999840e-01,1.424017103717301613e-01,-1.474278400401968225e-01,-8.648891208330231062e-02
4.829999999999999849e-01,2.519647095137636517e-01,-2.051215344669800877e-01,-1.491239000162291328e-01
4.839999999999999858e-01,2.661806334816874120e-01,-1.932796132432043346e-01,-1.543575519477922708e-01
4.849999999999999867e-01,1.962622895438732029e-01,-1.279995726706974757e-01,-1.169372118997619586e-01
4.859999999999999876e-01,3.712008871598344861e-02,-4.436643786790371233e-03,-3.015403877875902708e-02
4.869999999999999885e-01,-1.083387247682129628e-01,1.124882779987833731e-01,5.010594687676821896e-02
4.879999999999999893e-01,-2.476910091131624692e-01,1.929493699955687203e-01,1.256642858263996576e-01
4.889999999999999902e-01,-2.801253204337668112e-01,2.033816575229336898e-01,1.558521460708758577e-01
4.899999999999999911e-01,-2.134935230224709046e-01,1.493888730441404189e-01,1.382896041827482991e-01
4.909999999999999920e-01,-9.544886804203796260e-02,4.374276509131144741e-02,7.506407656714562948e-02
4.919999999999999929e-01,7.380201058673124814e-02,-8.213037780913153008e-02,-3.158086327867939275e-02
4.929999999999999938e-01,2.045951541446080491e-01,-1.882804111959199833e-01,-1.146186941493176903e-01
4.939999999999999947e-01,2.641445843263516280e-01,-2.114229829452600740e-01,-1.488144650741460573e-01
4.949999999999999956e-01,2.262956708630106950e-01,-1.665200616080853013e-01,-1.499633881744678876e-01
4.959999999999999964e-01,1.429640942380010771e-01,-5.662819610981866675e-02,-1.014597965050859918e-01
4.969999999999999973e-01,-3.049847489171481421e-02,6.108755520501867736e-02,-4.453041999660234396e-03
4.979999999999999982e-01,-1.899383895397430411e-01,1.574538743098460036e-01,1.001742885682347650e-01
4.989999999999999991e-01,-2.519346580531422464e-01,2.025865606905380423e-01,1.627553329839223628e-01
5.000000000000000000e-01,-2.592620229765449924e-01,1.901493948768679387e-01,1.619640669479616713e-01
5.010000000000000009e-01,-1.688264110269926122e-01,1.092479170780685377e-01,1.286469793386179616e-01
5.020000000000000018e-01,-1.467013150768886609e-02,-3.173595264953223138e-02,6.110827862104675073e-02
5.030000000000000027e-01,1.166409030668454916e-01,-1.296216850438445256e-01,-4.000038283095708191e-02
5.040000000000000036e-01,2.451690468115458599e-01,-2.060996996081763399e-01,-1.287358887080178593e-01
5.050000000000000044e-01,2.574774345505803086e-01,-2.009465379829250831e-01,-1.707012463093408872e-01
5.060000000000000053e-01,2.084669675115926046e-01,-1.389904900438534985e-01,-1.300642716902530860e-01
5.070000000000000062e-01,6.733199149418821194e-02,-7.024311683542945432e-03,-6.712233676614935696e-02
5.080000000000000071e-01,-8.757573788043922225e-02,1.196991277495764311e-01,1.881965339870566786e-02
5.090000000000000080e-01,-2.179023145501213232e-01,1.933334488060571288e-01,1.111735568866177304e-01
5.100000000000000089e-01,-2.714910952650814169e-01,2.144790048790983228e-01,1.602811251670869797e-01
5.110000000000000098e-01,-2.211446919224002161e-01,1.420373835644879179e-01,1.540008023356875810e-01
5.120000000000000107e-01,-1.064255121972377677e-01,3.801158491640118514e-02,1.044088036749015319e-01
5.130000000000000115e-01,3.659019869777978273e-02,-9.887756213422667362e-02,2.154925992575837043e-02
5.140000000000000124e-01,1.714150135159671351e-01,-1.889995783963407949e-01,-5.515626526488481840e-02
5.150000000000000133e-01,2.596089224764923653e-01,-2.106719728474553133e-01,-1.447074910623808996e-01
5.160000000000000142e-01,2.549670893924687043e-01,-1.619581580541814003e-01,-1.581486220993984226e-01
5.170000000000000151e-01,1.517573289683359361e-01,-6.891857474449743226e-02,-1.316320919103009801e-01
5.180000000000000160e-01,5.518574992908457759e-03,6.316401684452874199e-02,-4.849411709986911623e-02
5.190000000000000169e-01,-1.424004894291188150e-01,1.623845450072308183e-01,4.760635128531196664e-02
5.200000000000000178e-01,-2.344316102919226374e-01,2.132464783460675806e-01,1.286215922942137713e-01
5.210000000000000187e-01,-2.604201257912521772e-01,1.759863231709337672e-01,1.654205542152012987e-01
5.220000000000000195e-01,-1.990177135300799927e-01,8.090128955407376032e-02,1.363640082893473049e-01
5.230000000000000204e-01,-5.513429862766063699e-02,-1.803690835287938624e-02,7.506386192563205273e-02
5.240000000000000213e-01,9.751995664478657622e-02,-1.284953292298620653e-01,-5.270807572466371799e-03
5.250000000000000222e-01,2.270024085474811049e-01,-2.251281342263238561e-01,-1.109859539410321672e-01
5.260000000000000231e-01,2.581939798793283503e-01,-1.839214698371237355e-01,-1.309814876745677148e-01
5.270000000000000240e-01,2.149427534126052974e-01,-1.176268871310270775e-01,-1.542989686589933407e-01
5.280000000000000249e-01,8.396553928569859548e-02,1.505447887762601140e-02,-9.607625780709172503e-02
5.290000000000000258e-01,-7.016606634414448984e-02,1.037145139574728175e-01,-1.615125800926226277e-02
5.300000000000000266e-01,-2.007676750524872988e-01,1.969756005466227478e-01,7.635992860513593494e-02
5.310000000000000275e-01,-2.627741608641143700e-01,1.990909146618241865e-01,1.441910045245473337e-01
5.320000000000000284e-01,-2.538614029871407718e-01,1.460919839347629423e-01,1.625854947269924355e-01
5.330000000000000293e-01,-1.240057464602990350e-01,2.386223092497046991e-02,1.117166761723233231e-01
5.340000000000000302e-01,1.249099797230356426e-02,-1.044238923730896051e-01,4.985393142526847732e-02
5.350000000000000311e-01,1.648202852164900312e-01,-1.945324627950363872e-01,-4.537798821428264129e-02
5.360000000000000320e-01,2.574719867636189319e-01,-2.191325967786672546e-01,-1.244172942512723895e-01
5.370000000000000329e-01,2.530933839810117214e-01,-1.538323030809774228e-01,-1.373483562725809071e-01
5.380000000000000338e-01,1.784219792783427738e-01,-6.044672527866708917e-02,-1.519536263692947975e-01
5.390000000000000346e-01,1.872541895756130864e-02,5.221638157848288581e-02,-8.495658709453263180e-02
5.400000000000000355e-01,-1.249481991358983440e-01,1.631798149404842802e-01,1.253148273801812755e-02
5.410000000000000364e-01,-2.280101565604805425e-01,2.025379576057703968e-01,9.494967989734862113e-02
5.420000000000000373e-01,-2.644831443384021985e-01,1.724758127190582357e-01,1.422590942459275587e-01
5.430000000000000382e-01,-2.024459855555808818e-01,9.545315148122782145e-02,1.391507725097262949e-01
5.440000000000000391e-01,-7.723892982039250177e-02,-3.628130033138288885e-02,1.123374858473455556e-01
5.450000000000000400e-01,7.603960660835040741e-02,-1.502907277439135547e-01,1.676425729683093946e-02
5.460000000000000409e-01,2.068502845451694327e-01,-2.112854932883110881e-01,-9.325177373260175318e-02
5.470000000000000417e-01,2.713518390675714875e-01,-1.938496674518936924e-01,-1.494107563227372593e-01
5.480000000000000426e-01,2.373886282242272106e-01,-1.241990444209558897e-01,-1.601881468025654620e-01
5.490000000000000435e-01,1.166036368654916749e-01,-5.141087567493501757e-03,-1.310446285708689318e-01
5.500000000000000444e-01,-3.814096170002238828e-02,1.189827382076501933e-01,-4.537491283296105765e-02
5.510000000000000453e-01,-1.732809496915392322e-01,2.111146229528388929e-01,2.081210357299828270e-02
5.520000000000000462e-01,-2.572921051114044344e-01,1.970437625564261108e-01,1.059167000992057711e-01
5.530000000000000471e-01,-2.551625001278198246e-01,1.457954253123412702e-01,1.570928997666653226e-01
5.540000000000000480e-01,-1.490212522990149169e-01,2.299469941922089797e-02,1.462913624656855538e-01
5.550000000000000488e-01,-2.710630537833307041e-02,-1.035499827456814598e-01,8.246929507480632582e-02
5.560000000000000497e-01,1.589150089115888564e-01,-1.919973753501927061e-01,-7.518833608204163188e-03
5.570000000000000506e-01,2.540157524575647474e-01,-2.074130960718338357e-01,-1.019458865854605822e-01
5.580000000000000515e-01,2.579398337034702893e-01,-1.538535607882622336e-01,-1.497826806680828682e-01
5.590000000000000524e-01,1.910969999087735183e-01,-4.808737926919510325e-02,-1.657381216490241560e-01
5.600000000000000533e-01,5.780803521337570666e-02,7.373365725639843826e-02,-1.171650348182761148e-01
5.610000000000000542e-01,-9.342094760552507871e-02,1.761301479081761878e-01,-2.115151079939810164e-02
5.620000000000000551e-01,-2.255955254294749190e-01,2.086300833285554823e-01,6.167706571122373582e-02
5.629999999999999449e-01,-2.672427254088087789e-01,1.722641076448430952e-01,1.403205632314354079e-01
5.639999999999999458e-01,-2.244710646894128581e-01,8.823019708784630988e-02,1.526756240469669124e-01
5.649999999999999467e-01,-8.558808054533550980e-02,-3.379933943991551837e-02,1.264544315031407018e-01
5.659999999999999476e-01,5.880705658814178172e-02,-1.460292966046050356e-01,6.266361886702014050e-02
5.669999999999999485e-01,2.046842407476056613e-01,-2.045372651312445111e-01,-2.577117441641875450e-02
5.679999999999999494e-01,2.575972771352336710e-01,-1.925915926244105569e-01,-1.192677115160832163e-01
5.689999999999999503e-01,2.359768331821280041e-01,-1.151491712988021998e-01,-1.616230366953721742e-01
5.699999999999999512e-01,1.543334170393246552e-01,1.461726336944585945e-02,-1.513425534175638354e-01
5.709999999999999520e-01,-9.580381640419145459e-03,1.220330432571610085e-01,-9.071844154951089201e-02
5.719999999999999529e-01,-1.507210400448724397e-01,1.816454076282817687e-01,2.268085080664998966e-03
5.729999999999999538e-01,-2.684777190020248838e-01,1.978147609569969601e-01,1.059737116446686916e-01
5.739999999999999547e-01,-2.583894196733590443e-01,1.308939570739334757e-01,1.482132108466230891e-01
5.749999999999999556e-01,-1.760151847536735314e-01,3.325594886616478618e-02,1.622817647834604859e-01
5.759999999999999565e-01,-3.059195626679990163e-02,-1.031121580075636812e-01,1.136986914600137538e-01
5.769999999999999574e-01,1.249459033970154176e-01,-1.874784534136336445e-01,3.135016152897651676e-02
5.779999999999999583e-01,2.328846638706130734e-01,-2.045984984172396770e-01,-6.113394062864718759e-02
5.789999999999999591e-01,2.605016573028832161e-01,-1.551534028327789805e-01,-1.406909624295705208e-01
5.799999999999999600e-01,2.127180971129563058e-01,-4.024693309351873999e-02,-1.545584465444294620e-01
5.809999999999999609e-01,7.611122502573174076e-02,6.473587814671312446e-02,-1.420009536887708035e-01
5.819999999999999618e-01,-7.011868856128654348e-02,1.865449791760471487e-01,-5.947430401101604786e-02
5.829999999999999627e-01,-1.929894248385686240e-01,2.118748400887406069e-01,2.931951137679242314e-02
5.839999999999999636e-01,-2.526915902420006077e-01,1.717815610521722103e-01,1.068390829521855129e-01
5.849999999999999645e-01,-2.473233184429780296e-01,7.142177647405308083e-02,1.629567715449206367e-01
5.859999999999999654e-01,-1.281935547505766437e-01,-3.973966417523557004e-02,1.378312399421417200e-01
5.869999999999999662e-01,4.699077710293403376e-02,-1.588197378138993254e-01,8.896725709571474960e-02
5.879999999999999671e-01,1.697250359307946599e-01,-2.092313081524513341e-01,-7.820611576267779905e-03
5.889999999999999680e-01,2.568284496740014800e-01,-1.925580925914130159e-01,-9.562824762362881481e-02
5.899999999999999689e-01,2.488694553960705547e-01,-9.809287984697835638e-02,-1.416404676872365376e-01
5.909999999999999698e-01,1.606202191509594479e-01,1.116294063271393647e-03,-1.538146215963976937e-01
5.919999999999999707e-01,2.846225031496158950e-02,1.400129253019601339e-01,-1.193367342568708717e-01
5.929999999999999716e-01,-1.363809202329632764e-01,2.085605498787333478e-01,-3.935462916405369632e-02
5.939999999999999725e-01,-2.588395128174933446e-01,2.064410054277207307e-01,6.526001243451057254e-02
5.949999999999999734e-01,-2.710495938844313391e-01,1.336498953307355964e-01,1.314623620712874197e-01
5.959999999999999742e-01,-2.095269276807506797e-01,3.130139993165257511e-02,1.606241455923217709e-01
5.969999999999999751e-01,-6.431602972848196598e-02,-8.979946802332930411e-02,1.323171300456052468e-01
5.979999999999999760e-01,8.651003065901341493e-02,-2.094280698990022282e-01,6.903861929992143043e-02
5.989999999999999769e-01,2.317727101547571722e-01,-1.992256089739337099e-01,-2.530695041427994882e-02
5.999999999999999778e-01,2.748002691373662709e-01,-1.689330264106556900e-01,-1.072786467853133752e-01
6.009999999999999787e-01,2.326635118538048774e-01,-4.521039406449799819e-02,-1.630764202012334740e-01
6.019999999999999796e-01,1.008366536787917295e-01,7.063929962844883725e-02,-1.464111239285570687e-01
6.029999999999999805e-01,-4.610565733590384074e-02,1.767775414734960859e-01,-9.278883286498273986e-02
6.039999999999999813e-01,-1.923001942162886058e-01,2.161506386843467242e-01,-7.926004117172827379e-03
6.049999999999999822e-01,-2.653086933562245897e-01,1.781743382334215198e-01,7.489034679780934289e-02
6.059999999999999831e-01,-2.545699160007721673e-01,6.811205619990874649e-02,1.530026029879814065e-01
6.069999999999999840e-01,-1.336043110083900420e-01,-5.352569939688175960e-02,1.481184688745660061e-01
6.079999999999999849e-01,-1.192048345602589321e-02,-1.637290011279146085e-01,1.307357987221521578e-01
6.089999999999999858e-01,1.554121731141596130e-01,-2.111286751823606700e-01,3.312630088004375750e-02
6.099999999999999867e-01,2.509350023374740668e-01,-1.771983022995178569e-01,-6.728839255907342887e-02
6.109999999999999876e-01,2.627652694141621725e-01,-9.937658135644134028e-02,-1.393300559097640223e-01
6.119999999999999885e-01,1.836153923632752594e-01,2.065538744007781868e-02,-1.625815407368936816e-01
6.129999999999999893e-01,4.702224436710817496e-02,1.328196751974910494e-01,-1.283901021051803704e-01
6.139999999999999902e-01,-1.252730002329089654e-01,2.038982589180634020e-01,-6.349972430440901927e-02
6.149999999999999911e-01,-2.180177570108345342e-01,2.198309650246084157e-01,3.336846026886250427e-02
6.159999999999999920e-01,-2.678701793372020856e-01,1.292827607554146996e-01,1.232200939444164506e-01
6.169999999999999929e-01,-2.104396935393780810e-01,1.246101493931065819e-02,1.513847084214595129e-01
6.179999999999999938e-01,-8.367684237948015691e-02,-1.118791328526441559e-01,1.570716291771228623e-01
6.189999999999999947e-01,8.866552158296896191e-02,-1.979198805019833640e-01,8.509150752366259618e-02
6.199999999999999956e-01,2.097694541428858084e-01,-2.066427166982940933e-01,9.430717115397646219e-03
6.209999999999999964e-01,2.684265881263149800e-01,-1.479275768473431452e-01,-7.804005192816085290e-02
6.219999999999999973e-01,2.399240503985828887e-01,-4.707373407571352475e-02,-1.557025241196613730e-01
6.229999999999999982e-01,1.272844150321021939e-01,8.806296061640783712e-02,-1.470004468799261665e-01
6.239999999999999991e-01,-1.393164184948349378e-02,1.816728430193256250e-01,-1.236041318953970264e-01
6.250000000000000000e-01,-1.624545041548872970e-01,2.057800432559893922e-01,-2.958031322981734962e-02
6.260000000000000009e-01,-2.574649518235163081e-01,1.718622414614057736e-01,4.520019061024688894e-02
6.270000000000000018e-01,-2.604470726120008406e-01,5.741301942018451482e-02,1.244751990554523596e-01
6.280000000000000027e-01,-1.685967216172770955e-01,-4.792412242450296012e-02,1.651839408096742734e-01
6.290000000000000036e-01,-5.146988308505444192e-03,-1.643668230131292984e-01,1.437789933091064565e-01
6.300000000000000044e-01,1.287126880141699070e-01,-2.130316644231400880e-01,6.747470549027734243e-02
6.310000000000000053e-01,2.384749879677068585e-01,-1.868990275320023819e-01,-3.140678614575493494e-02
6.320000000000000062e-01,2.610850033387841496e-01,-9.146980344402004526e-02,-1.067300065855575908e-01
6.330000000000000071e-01,2.054580074062649087e-01,1.821513494746704320e-02,-1.696615499524384008e-01
6.340000000000000080e-01,6.424339147421109786e-02,1.289267450601420117e-01,-1.638061676032137592e-01
6.350000000000000089e-01,-9.348553913065582588e-02,1.890493128771408016e-01,-9.547319677965965257e-02
6.360000000000000098e-01,-2.196866556220777589e-01,2.139156539209864372e-01,4.054599513943780422e-04
6.370000000000000107e-01,-2.645834881486305856e-01,1.338939117187182837e-01,7.087596344003607718e-02
6.380000000000000115e-01,-2.349331553349791601e-01,1.295947939798748789e-03,1.362952737466235631e-01
6.390000000000000124e-01,-1.077180849900923471e-01,-1.174628495313232157e-01,1.768298685210985544e-01
6.400000000000000133e-01,3.012055115747089978e-02,-1.782747631021381618e-01,1.238988836937998245e-01
6.410000000000000142e-01,1.847418120576252709e-01,-2.099798080437913494e-01,4.047603327901172499e-02
6.420000000000000151e-01,2.713093489802970160e-01,-1.397869187723918549e-01,-4.612850545154326132e-02
6.430000000000000160e-01,2.449049762316588552e-01,-3.406302332548675343e-02,-1.099468226892492406e-01
6.440000000000000169e-01,1.431032930841093787e-01,8.911882369795232073e-02,-1.665414061490019249e-01
6.450000000000000178e-01,-5.742646020036263135e-03,1.854618194883792814e-01,-1.117629469876833814e-01
6.460000000000000187e-01,-1.484448851136629666e-01,2.095079545352557249e-01,-6.398375271150975874e-02
6.470000000000000195e-01,-2.539019758503273660e-01,1.772813349127883298e-01,4.110094396677363600e-03
6.480000000000000204e-01,-2.541750459386786787e-01,7.069635988635877832e-02,1.003883075856728396e-01
6.490000000000000213e-01,-1.997927819080576317e-01,-5.575170696859647196e-02,1.613457950119715489e-01
6.500000000000000222e-01,-5.231172480491343146e-02,-1.700688495761694674e-01,1.540682116998479401e-01
6.510000000000000231e-01,1.039004014427313827e-01,-1.970847665609722077e-01,1.019957284324388702e-01
6.520000000000000240e-01,2.035777052250506980e-01,-1.932020757156878710e-01,1.764756812489031920e-02
6.530000000000000249e-01,2.748149700005198537e-01,-9.302607757135898658e-02,-8.639550277404201006e-02
6.540000000000000258e-01,2.188224504214955068e-01,3.435161516959203687e-02,-1.448722154682735852e-01
6.550000000000000266e-01,1.044085877432319176e-01,1.451832321265192349e-01,-1.613021819510811472e-01
6.560000000000000275e-01,-5.437278157368312381e-02,2.169711922087228517e-01,-1.253024370331967119e-01
6.570000000000000284e-01,-2.023586815508016390e-01,1.932365848810272957e-01,-6.036670837254662358e-02
6.580000000000000293e-01,-2.644408959489559230e-01,1.273031126775350519e-01,5.295385295552711841e-02
6.590000000000000302e-01,-2.404000569039052571e-01,1.403067246264710043e-02,1.106553583374178112e-01
6.600000000000000311e-01,-1.500892675572886026e-01,-1.241648393255516264e-01,1.495852874903276508e-01
6.610000000000000320e-01,4.587716738877255750e-03,-2.002528245936414375e-01,1.397103179140471718e-01
6.620000000000000329e-01,1.646581647685408933e-01,-2.046306721705768439e-01,7.709207254169815615e-02
6.630000000000000338e-01,2.437947023793610168e-01,-1.443998550367656397e-01,-6.861169965483878037e-03
6.640000000000000346e-01,2.528378268065057943e-01,-3.275198269234324416e-02,-8.884492940740833233e-02
6.650000000000000355e-01,1.688404573613664639e-01,1.014283560253210897e-01,-1.379225121101121943e-01
6.660000000000000364e-01,3.450387910186102775e-02,1.645254739948768807e-01,-1.621390053556596711e-01
6.670000000000000373e-01,-1.175007766718865615e-01,2.164468894683847511e-01,-8.967289007006366830e-02
6.680000000000000382e-01,-2.383964765967229449e-01,1.608133356437222716e-01,-2.518979733764848891e-02
6.690000000000000391e-01,-2.766963565743072451e-01,6.278827120520596994e-02,7.778571801219968940e-02
6.700000000000000400e-01,-2.033873440470513327e-01,-6.237521763713705508e-02,1.454224965542998405e-01
6.710000000000000409e-01,-6.126720366838311199e-02,-1.619325952815626746e-01,1.705724626320739012e-01
6.720000000000000417e-01,7.827829681922998661e-02,-2.239591324666673211e-01,1.371036636320489555e-01
6.730000000000000426e-01,2.151387377686817814e-01,-1.783365095622582441e-01,6.570653977194197692e-02
6.740000000000000435e-01,2.659625863764106257e-01,-8.572451588365846697e-02,-4.901280805441667748e-02
6.750000000000000444e-01,2.303324891353665527e-01,1.931639136067132487e-02,-1.229858331063612698e-01
6.760000000000000453e-01,1.253390169659802100e-01,1.400307984763710378e-01,-1.376965651183572614e-01
6.770000000000000462e-01,-2.846673556100963107e-02,1.925970736100302838e-01,-1.435367873631864521e-01
6.780000000000000471e-01,-1.875897475352123756e-01,2.009616016395424642e-01,-8.768276239123801163e-02
6.790000000000000480e-01,-2.619212845120993394e-01,1.162729939935596701e-01,9.232007989972293785e-04
6.800000000000000488e-01,-2.566856497065492793e-01,-2.619922905028932662e-03,1.020540536487098693e-01
6.810000000000000497e-01,-1.688489411791908312e-01,-1.177934597098000830e-01,1.420631356373241172e-01
6.820000000000000506e-01,-1.817988216125113882e-02,-1.869190778032414069e-01,1.649784251800747725e-01
6.830000000000000515e-01,1.344715612614841016e-01,-2.059090763235132127e-01,1.076127337791132205e-01
6.840000000000000524e-01,2.409500992638671513e-01,-1.463536699971760280e-01,2.253558757315094613e-02
6.850000000000000533e-01,2.642039300273184566e-01,-2.710360183183343694e-02,-7.606710108062399167e-02
6.860000000000000542e-01,1.933484663453910180e-01,8.659565048465395209e-02,-1.339910188779039335e-01
6.870000000000000551e-01,5.566154997762127327e-02,1.795882900746313127e-01,-1.679995537077658696e-01
6.879999999999999449e-01,-8.382926777212212910e-02,2.132394422789526955e-01,-1.387759383191238816e-01
6.889999999999999458e-01,-2.235976475934027818e-01,1.730141594080961964e-01,-5.569452604742695934e-02
6.899999999999999467e-01,-2.553753799616510500e-01,5.326540787256636711e-02,3.992495904024376263e-02
6.909999999999999476e-01,-2.298712090053506851e-01,-7.556254158214344152e-02,1.336158813454456085e-01
6.919999999999999485e-01,-1.090027265942648677e-01,-1.876590696024938998e-01,1.446652510888571941e-01
6.929999999999999494e-01,5.475539581779888948e-02,-2.224522717056639509e-01,1.383622664175086225e-01
6.939999999999999503e-01,1.963255803894651541e-01,-1.846928290696549513e-01,9.065909517035847243e-02
6.949999999999999512e-01,2.626415108167874379e-01,-9.483600852566094475e-02,-1.297386137414319185e-02
6.959999999999999520e-01,2.588464171536904446e-01,3.983128010886306802e-02,-1.102493001035581704e-01
6.969999999999999529e-01,1.349490789628803866e-01,1.601860332820634891e-01,-1.588330130746697655e-01
6.979999999999999538e-01,-7.644662183304463607e-03,1.956692464277462740e-01,-1.558194627971267177e-01
6.989999999999999547e-01,-1.494927476479989692e-01,1.874888781650463077e-01,-1.130768772428871055e-01
6.999999999999999556e-01,-2.412343175589864996e-01,1.142286993740412454e-01,-2.349190859662183412e-02
7.009999999999999565e-01,-2.692019119229078217e-01,-2.038082958569210901e-02,7.869224196403906690e-02
7.019999999999999574e-01,-1.795906273632175421e-01,-1.185277534133697269e-01,1.474798176098933156e-01
7.029999999999999583e-01,-4.124197955258373377e-02,-1.942938049052678195e-01,1.713957248489413054e-01
7.039999999999999591e-01,1.011466197771060810e-01,-2.132964487412419563e-01,1.398245226138414843e-01
7.049999999999999600e-01,2.203018926900724983e-01,-1.411554404410577945e-01,5.604887105226522698e-02
7.059999999999999609e-01,2.699905467308001961e-01,-1.800434324642776959e-02,-4.478496351009501192e-02
7.069999999999999618e-01,2.047078454893827004e-01,9.066720190971232218e-02,-1.317716540171657569e-01
7.079999999999999627e-01,8.882511251496914839e-02,1.884311242501601480e-01,-1.506043370450864949e-01
7.089999999999999636e-01,-6.505034654251476423e-02,2.147606516741208948e-01,-1.387560345441838650e-01
7.099999999999999645e-01,-2.096286065064385529e-01,1.667589162117489865e-01,-8.157758441372545133e-02
7.109999999999999654e-01,-2.558802863258139437e-01,4.060746702375693518e-02,3.369668699581938962e-03
7.119999999999999662e-01,-2.320608407192074618e-01,-7.092504690941747736e-02,1.004824350804707639e-01
7.129999999999999671e-01,-1.272219640174884481e-01,-1.652418854099119705e-01,1.440319822970056451e-01
7.139999999999999680e-01,7.487859079475958288e-03,-2.047894734267091676e-01,1.578661545918642051e-01
7.149999999999999689e-01,1.690649214898561348e-01,-1.826239813696263481e-01,1.212107973976783298e-01
7.159999999999999698e-01,2.540661032776379558e-01,-8.663256916626153881e-02,1.484754575632315533e-02
7.169999999999999707e-01,2.528653340299578112e-01,4.080137496516390849e-02,-6.797956112214680047e-02
7.179999999999999716e-01,1.679226116032784821e-01,1.603931850119799385e-01,-1.254953736933921427e-01
7.189999999999999725e-01,2.498519993809442813e-02,2.159689205937834477e-01,-1.561673975040276663e-01
7.199999999999999734e-01,-1.411197365444066543e-01,2.007801435143331814e-01,-1.399101038772001537e-01
7.209999999999999742e-01,-2.461323820820749686e-01,1.054937228905388075e-01,-7.117502402316604193e-02
7.219999999999999751e-01,-2.636051575105709532e-01,-2.818365535472789479e-02,2.241813933096335060e-02
7.229999999999999760e-01,-2.055785019844529604e-01,-1.325515737472362232e-01,1.149451724594793556e-01
7.239999999999999769e-01,-6.453781055479949902e-02,-2.065751126448130415e-01,1.740612613400476516e-01
7.249999999999999778e-01,8.536230693067076158e-02,-1.991252313489610404e-01,1.561873014276932981e-01
7.259999999999999787e-01,2.186414017223272943e-01,-1.389809825409877297e-01,9.947203697909601239e-02
7.269999999999999796e-01,2.658833770427822540e-01,-2.573642653422133358e-02,2.072359594560697210e-02
7.279999999999999805e-01,2.271538465722082178e-01,1.179682756404188820e-01,-8.076079689748996704e-02
7.289999999999999813e-01,9.485862576462195106e-02,2.039417826989333993e-01,-1.481706027975781270e-01
7.299999999999999822e-01,-3.862034900469724086e-02,2.002907084696801954e-01,-1.523741640487147886e-01
7.309999999999999831e-01,-1.736459783985536132e-01,1.586796556290048232e-01,-1.138114283450429448e-01
7.319999999999999840e-01,-2.606198713762113983e-01,4.504758187588390334e-02,-3.284794176969343255e-02
7.329999999999999849e-01,-2.351393031146252477e-01,-7.374741091430138396e-02,6.714673062268820825e-02
7.339999999999999858e-01,-1.581906623648764998e-01,-1.883458971729786713e-01,1.279962236935137110e-01
7.349999999999999867e-01,1.156774995037969725e-02,-1.993939224022625301e-01,1.630829922790701103e-01
7.359999999999999876e-01,1.383250910418361013e-01,-1.867005251734388527e-01,1.328376452611703118e-01
7.369999999999999885e-01,2.424522519489091810e-01,-7.608303732307016010e-02,5.571134050599722137e-02
7.379999999999999893e-01,2.650768898563516940e-01,5.267425911261175431e-02,-1.491655317269534667e-02
7.389999999999999902e-01,1.890967514475319633e-01,1.602365732231925133e-01,-1.124868091583302865e-01
7.399999999999999911e-01,5.442552999008975351e-02,2.037065810717860193e-01,-1.460586734207794946e-01
7.409999999999999920e-01,-1.096897687398168536e-01,1.952118351313755495e-01,-1.261523655408162414e-01
7.419999999999999929e-01,-2.336754731931014184e-01,1.073780705269316293e-01,-9.568854636235318845e-02
7.429999999999999938e-01,-2.744283613422888179e-01,-2.110706679916712555e-02,-7.500242781882909826e-03
7.439999999999999947e-01,-2.221359752280109567e-01,-1.414448529521680209e-01,7.116796902876483533e-02
7.449999999999999956e-01,-9.510341217587441054e-02,-2.060991013862324972e-01,1.325519228484622336e-01
7.459999999999999964e-01,6.293723362116704356e-02,-2.090060247673493632e-01,1.536586058103259766e-01
7.469999999999999973e-01,1.823445581959270978e-01,-1.331571385425175669e-01,1.248555781822157512e-01
7.479999999999999982e-01,2.556527745030517385e-01,-1.298235965776248051e-02,4.504000799328103377e-02
7.489999999999999991e-01,2.336477126152640971e-01,1.223562536830100078e-01,-4.012873366755397020e-02
7.500000000000000000e-01,1.253630202315004216e-01,1.869754089248309437e-01,-1.324217117882070527e-01
7.510000000000000009e-01,-7.625664265823610399e-03,2.271977636126057964e-01,-1.422875286964219443e-01
7.520000000000000018e-01,-1.700600698733244764e-01,1.553729009086648738e-01,-1.354616863806948901e-01
7.530000000000000027e-01,-2.433343492073679060e-01,4.142604874889975475e-02,-6.290274754507298172e-02
7.540000000000000036e-01,-2.539152774355283859e-01,-7.407384604675759654e-02,2.209076440196231297e-02
7.550000000000000044e-01,-1.736711221371053937e-01,-1.804891979100381461e-01,1.007702218404397110e-01
7.560000000000000053e-01,-3.267165567736095982e-02,-2.148900586348697628e-01,1.570396344117739318e-01
7.570000000000000062e-01,1.087716459083749448e-01,-1.725783605876008431e-01,1.445970489296817263e-01
7.580000000000000071e-01,2.352361718494814791e-01,-7.422909953996242871e-02,9.324861207349262326e-02
7.590000000000000080e-01,2.623642646537858170e-01,4.511048108772875570e-02,1.393420888475657184e-02
7.600000000000000089e-01,1.974944009567795589e-01,1.480804579509665542e-01,-7.423055352238620841e-02
7.610000000000000098e-01,6.193067081716297634e-02,2.042920691871438488e-01,-1.597520100132606702e-01
7.620000000000000107e-01,-9.563521226994310676e-02,1.972915745036266377e-01,-1.454443032064512975e-01
7.630000000000000115e-01,-2.097009526462762508e-01,1.012509345706577163e-01,-1.269585836218812269e-01
7.640000000000000124e-01,-2.727401165824948071e-01,-2.538980753310232652e-02,-4.546374184768409848e-02
7.650000000000000133e-01,-2.173280847522820192e-01,-1.278097262382950350e-01,4.714091719866800312e-02
7.660000000000000142e-01,-1.190293136258928075e-01,-2.143768849496725248e-01,1.358064693308056181e-01
7.670000000000000151e-01,3.647069127645251319e-02,-1.938401275219985564e-01,1.489861663933883251e-01
7.680000000000000160e-01,1.709110052002543456e-01,-1.337297875405592529e-01,1.335678317039582785e-01
7.690000000000000169e-01,2.587092049779758929e-01,-7.936883488699754755e-03,7.323441134779855310e-02
7.700000000000000178e-01,2.456019101357387047e-01,1.068180099248320220e-01,-3.357634306746883068e-02
7.710000000000000187e-01,1.497680387078722808e-01,1.954890704409843472e-01,-9.084919970795705957e-02
7.720000000000000195e-01,1.203808084214664197e-02,2.162556961116379739e-01,-1.701522795435673474e-01
7.730000000000000204e-01,-1.463285708300339216e-01,1.526111919316430199e-01,-1.514858764038734540e-01
7.740000000000000213e-01,-2.511409800210051002e-01,4.599827272594351341e-02,-8.630408042631609877e-02
7.750000000000000222e-01,-2.582146923483165657e-01,-9.132279493058916009e-02,2.863036376793741400e-03
7.760000000000000231e-01,-2.026810127060982847e-01,-1.899400544399659219e-01,8.363912033527882983e-02
7.770000000000000240e-01,-5.241656255234181799e-02,-2.206363899491919911e-01,1.484384829384777504e-01
7.780000000000000249e-01,9.139737673527474626e-02,-1.682699906670175050e-01,1.588951766656814535e-01
7.790000000000000258e-01,2.218829838690116740e-01,-7.301049254975540415e-02,1.260034795262303664e-01
7.800000000000000266e-01,2.707895279775205388e-01,5.584544913594881310e-02,5.176479127871703306e-02
7.810000000000000275e-01,2.292821753698572051e-01,1.745998670829146948e-01,-4.919667284059996148e-02
7.820000000000000284e-01,1.005303544862512777e-01,2.182205842369835946e-01,-1.283262410324835234e-01
7.830000000000000293e-01,-4.392815799041731306e-02,1.987790830110798546e-01,-1.579220928412066460e-01
7.840000000000000302e-01,-1.878813068676642717e-01,9.805818027120530300e-02,-1.446711291948575007e-01
7.850000000000000311e-01,-2.619155918445703612e-01,-1.848055839876806480e-02,-7.233035181225007382e-02
7.860000000000000320e-01,-2.370559501939825120e-01,-1.453130649287092679e-01,2.331749381362499887e-02
7.870000000000000329e-01,-1.419143401843181163e-01,-2.135654191866763751e-01,1.125813933202473027e-01
7.880000000000000338e-01,6.340169529291920722e-03,-1.884337741480982820e-01,1.446667923864569383e-01
7.890000000000000346e-01,1.585248184338835242e-01,-1.267321250766051399e-01,1.572355096335109892e-01
7.900000000000000355e-01,2.520506457292484015e-01,7.102909361218092896e-03,9.590509590686402408e-02
7.910000000000000364e-01,2.468763795373938030e-01,1.226017847930409715e-01,2.555417857217949507e-02
7.920000000000000373e-01,1.797933272364775625e-01,2.058640158084386329e-01,-7.878478975314234800e-02
7.930000000000000382e-01,4.271108612163131840e-02,2.094785617071572292e-01,-1.320678720177005383e-01
7.940000000000000391e-01,-1.087634235862180582e-01,1.486223215587879065e-01,-1.657750484395376922e-01
7.950000000000000400e-01,-2.156300125774980314e-01,3.294790416096245178e-02,-1.138282263701889535e-01
7.960000000000000409e-01,-2.773520087986036109e-01,-9.658555368190845092e-02,-4.027705554873257932e-02
7.970000000000000417e-01,-2.086534274261613309e-01,-1.752184526040863333e-01,3.741926812508985373e-02
7.980000000000000426e-01,-6.354095516538509070e-02,-2.071217032108323142e-01,1.204895296352147815e-01
7.990000000000000435e-01,8.276495128838144699e-02,-1.635714580849745581e-01,1.559493062256456786e-01
8.000000000000000444e-01,2.098232836477099961e-01,-7.030471165699180014e-02,1.586984701751091853e-01
8.010000000000000453e-01,2.658233356148949067e-01,5.769317800699305665e-02,7.490900815789262868e-02
8.020000000000000462e-01,2.316831833721012257e-01,1.700477047059445190e-01,-1.127811261086221831e-02
8.030000000000000471e-01,1.245909935023350595e-01,2.073840397324409612e-01,-9.386083016660264067e-02
8.040000000000000480e-01,-2.517766574276159713e-02,1.855809003548926361e-01,-1.510787780917594580e-01
8.050000000000000488e-01,-1.744507966474340421e-01,8.596274746257338839e-02,-1.513205353325053626e-01
8.060000000000000497e-01,-2.698081722929934201e-01,-2.084732163104930855e-02,-9.775165038998004374e-02
8.070000000000000506e-01,-2.504182054197134910e-01,-1.544081042964412231e-01,-2.028597407598992791e-02
8.080000000000000515e-01,-1.657751675565034000e-01,-1.934543101669205789e-01,6.805959849126355654e-02
8.090000000000000524e-01,-6.984803911104529861e-03,-1.997216019929744790e-01,1.376145233976094617e-01
8.100000000000000533e-01,1.451783946189634800e-01,-1.253596653455752163e-01,1.579537192270768498e-01
8.110000000000000542e-01,2.506528162315914132e-01,1.061055281833932738e-02,1.303282027326328474e-01
8.120000000000000551e-01,2.660355862464080512e-01,1.225583402708016328e-01,5.772661567167482882e-02
8.129999999999999449e-01,2.066452274070632311e-01,2.014334242192529489e-01,-5.346712330811780739e-02
8.139999999999999458e-01,6.131107806810683070e-02,2.020119020302416635e-01,-1.244200690725173336e-01
8.149999999999999467e-01,-9.758529410420807571e-02,1.561523206990018398e-01,-1.514520128526359866e-01
8.159999999999999476e-01,-2.154415853916835655e-01,2.974889925042659145e-02,-1.587027143786028660e-01
8.169999999999999485e-01,-2.681078624481699757e-01,-9.659909578714770406e-02,-8.508511500216128787e-02
8.179999999999999494e-01,-2.371984636367492627e-01,-2.034053683008738844e-01,1.909938108471739837e-02
8.189999999999999503e-01,-1.011554885389026881e-01,-2.161617872106989247e-01,1.141946980123331179e-01
8.199999999999999512e-01,3.279647198963673432e-02,-1.699891591702352711e-01,1.399619719467024570e-01
8.209999999999999520e-01,1.877598763011973648e-01,-5.374157812983767352e-02,1.484208139212691291e-01
8.219999999999999529e-01,2.495003042944941019e-01,5.566182719201901580e-02,1.083433421231415061e-01
8.229999999999999538e-01,2.535510183025777575e-01,1.709128354387431381e-01,1.925736900685039860e-02
8.239999999999999547e-01,1.540424598326698424e-01,2.280447616333583505e-01,-7.233416426283273415e-02
8.249999999999999556e-01,4.535603069589017738e-03,1.772672942263497087e-01,-1.427737673550688313e-01
8.259999999999999565e-01,-1.487801471304777134e-01,8.798880599118555357e-02,-1.654193768165745093e-01
8.269999999999999574e-01,-2.554401370562354168e-01,-3.382319487463865404e-02,-1.283881372400623722e-01
8.279999999999999583e-01,-2.760988467402938906e-01,-1.605772737526423299e-01,-5.749274212727329553e-02
8.289999999999999591e-01,-1.884184387069365585e-01,-1.937982003563195610e-01,4.462853396572347142e-02
8.299999999999999600e-01,-4.812528835275848432e-02,-2.012675201949110371e-01,1.072887470824821082e-01
8.309999999999999609e-01,1.089641881613787333e-01,-1.142284736996273531e-01,1.533957973916473261e-01
8.319999999999999618e-01,2.284945159703853368e-01,2.525063404060811853e-03,1.498404802635299737e-01
8.329999999999999627e-01,2.579545679160377691e-01,1.295148241576094816e-01,8.561586983298832831e-02
8.339999999999999636e-01,2.157540156163043898e-01,1.909559685465296308e-01,-1.922572782731916258e-02
8.349999999999999645e-01,8.825400378936892887e-02,2.201393806200656333e-01,-1.079484155958631286e-01
8.359999999999999654e-01,-7.029112548427277063e-02,1.429105958627579775e-01,-1.419953340257863739e-01
8.369999999999999662e-01,-1.876934437723224436e-01,1.042312768267408297e-02,-1.477902956874250495e-01
8.379999999999999671e-01,-2.701362103824577754e-01,-9.358666957996296387e-02,-9.937686520534817769e-02
8.389999999999999680e-01,-2.331021924849303040e-01,-1.838503470321165845e-01,-2.384047224380413457e-02
8.399999999999999689e-01,-1.305251137891657309e-01,-2.172343675380260797e-01,5.114282515768542314e-02
8.409999999999999698e-01,2.046438933411868707e-02,-1.750675338340230702e-01,1.411388671362066305e-01
8.419999999999999707e-01,1.649520909080640085e-01,-6.010879747165447790e-02,1.659164190342116985e-01
8.429999999999999716e-01,2.485603646337604666e-01,7.537227314932078148e-02,1.459358274326180704e-01
8.439999999999999725e-01,2.572449207569229568e-01,1.577451113108851166e-01,6.230105329147242466e-02
8.449999999999999734e-01,1.775373502968821127e-01,2.240291456472681408e-01,-3.720607076548728548e-02
8.459999999999999742e-01,3.145125956674608286e-02,1.832442790434904989e-01,-1.184701398917410858e-01
8.469999999999999751e-01,-1.263494614013981332e-01,9.388603719172017303e-02,-1.640427033688674485e-01
8.479999999999999760e-01,-2.390353441666883128e-01,-4.341392308066707728e-02,-1.523802958238086036e-01
8.489999999999999769e-01,-2.678405730676899354e-01,-1.661662488235135238e-01,-9.747495855266423426e-02
8.499999999999999778e-01,-2.017137205364758767e-01,-2.171212291819241691e-01,1.862961773287758914e-03
8.509999999999999787e-01,-8.308249810209873687e-02,-1.972979347505088854e-01,9.221667131870256440e-02
8.519999999999999796e-01,8.890421981332292944e-02,-1.070819754505000637e-01,1.455675686578916661e-01
8.529999999999999805e-01,2.051596046522549677e-01,-3.059629346422398054e-03,1.622539727276903487e-01
8.539999999999999813e-01,2.617847537958006843e-01,1.313880681585789245e-01,1.207582004478180010e-01
8.549999999999999822e-01,2.283238779242305894e-01,1.929274672852827055e-01,4.688596720465106060e-02
8.559999999999999831e-01,1.219363159253493006e-01,2.113582938657549148e-01,-5.377061666657762667e-02
8.569999999999999840e-01,-4.259789174781315052e-02,1.217419484468937607e-01,-1.327652541155987798e-01
8.579999999999999849e-01,-1.877549611789010309e-01,1.889381673572059980e-02,-1.601270723527207229e-01
8.589999999999999858e-01,-2.558960184823214079e-01,-1.042531909871389634e-01,-1.454361297392344765e-01
8.599999999999999867e-01,-2.544652307952778303e-01,-1.896231895788953736e-01,-6.151780939148898675e-02
8.609999999999999876e-01,-1.535293492772824842e-01,-2.113688099837218171e-01,3.975346191126910567e-02
8.619999999999999885e-01,-1.547736768206735107e-02,-1.579668052328560557e-01,1.185925188138417241e-01
8.629999999999999893e-01,1.353601320254088081e-01,-4.886455731512592132e-02,1.452754969550596187e-01
8.639999999999999902e-01,2.558154271191980245e-01,7.141021946698265788e-02,1.649359331629076109e-01
8.649999999999999911e-01,2.573773646306247165e-01,1.690607019616315598e-01,9.967103349153522140e-02
8.659999999999999920e-01,2.007396589661399611e-01,2.117928624372442670e-01,-7.094612060313343002e-03
8.669999999999999929e-01,5.826352514351639672e-02,1.751577390513759935e-01,-9.355300847391267993e-02
8.679999999999999938e-01,-1.006685766590905140e-01,7.835183054960560833e-02,-1.574163777685450571e-01
8.689999999999999947e-01,-2.183948306697497677e-01,-4.956029741929356136e-02,-1.474081744563578156e-01
8.699999999999999956e-01,-2.517562273864276112e-01,-1.586367807606044456e-01,-1.155931825041923988e-01
8.709999999999999964e-01,-2.159587331880970795e-01,-2.160946239088240017e-01,-3.906866854673658740e-02
8.719999999999999973e-01,-1.031738372908897194e-01,-1.902383577699681694e-01,6.281363821222074595e-02
8.729999999999999982e-01,6.341062088749246928e-02,-1.045554287104484559e-01,1.260810850775472558e-01
8.739999999999999991e-01,1.901120058874889995e-01,2.073195941481558585e-02,1.639948942073115867e-01
8.750000000000000000e-01,2.755502937272234498e-01,1.373878231749478818e-01,1.292375351489096214e-01
8.760000000000000009e-01,2.415669083705384301e-01,1.996860192627040176e-01,6.409772745799610649e-02
8.770000000000000018e-01,1.392853770180107476e-01,2.078755335145911765e-01,-3.693419933882932660e-02
8.780000000000000027e-01,-2.214800320728943853e-02,1.389022167802248520e-01,-1.058540431407515164e-01
8.790000000000000036e-01,-1.578141795160146188e-01,1.522543704227783713e-02,-1.520797329096480466e-01
8.800000000000000044e-01,-2.442905006046934002e-01,-1.179556378437234959e-01,-1.381109539211704540e-01
8.810000000000000053e-01,-2.602252518126801362e-01,-1.842010072289614331e-01,-1.006596950604602414e-01
8.820000000000000062e-01,-1.907218946502202972e-01,-1.994318301113968683e-01,-1.044862786103919680e-02
8.830000000000000071e-01,-2.363557516940464898e-02,-1.648887146290883288e-01,8.474819119462430328e-02
8.840000000000000080e-01,1.295707955133006406e-01,-4.354476286171415217e-02,1.387024938602218760e-01
8.850000000000000089e-01,2.406915719493134820e-01,8.357713640782374331e-02,1.530060505175418195e-01
8.860000000000000098e-01,2.551325364600931511e-01,1.735571428794990267e-01,1.166233984171395760e-01
8.870000000000000107e-01,2.176775144605335166e-01,2.120182004682457100e-01,5.238581598851001220e-02
8.880000000000000115e-01,7.692971509123452956e-02,1.611164991605093244e-01,-6.021040316069346116e-02
8.890000000000000124e-01,-6.789564386198507218e-02,8.304400827044862432e-02,-1.331630487973199661e-01
8.900000000000000133e-01,-2.015479307038230139e-01,-5.554109192299872683e-02,-1.508983982883682073e-01
8.910000000000000142e-01,-2.688277714047692113e-01,-1.543937758962559970e-01,-1.438900343522946657e-01
8.920000000000000151e-01,-2.406426410085015233e-01,-2.206925480460747713e-01,-6.793555379426730045e-02
8.930000000000000160e-01,-1.281263592774773141e-01,-2.000918612294220467e-01,1.952603398302967322e-02
8.940000000000000169e-01,2.970674458438968268e-02,-1.171217573147737695e-01,1.080928622164057107e-01
8.950000000000000178e-01,1.564659976204171576e-01,2.652523781859645116e-02,1.425951385938474258e-01
8.960000000000000187e-01,2.587076198767272461e-01,1.265305236853489501e-01,1.393910437370427247e-01
8.970000000000000195e-01,2.494143249622194081e-01,2.281522665660736804e-01,9.738584480423466416e-02
8.980000000000000204e-01,1.628199806699893171e-01,2.020437383945961896e-01,-1.217638740645891893e-02
8.990000000000000213e-01,1.552303290273051445e-02,1.217859633673478437e-01,-5.868991133589869513e-02
9.000000000000000222e-01,-1.269061365580348433e-01,1.772917377368531805e-02,-1.387721910694763305e-01
9.010000000000000231e-01,-2.349585335111415985e-01,-1.107783514460127655e-01,-1.581458166883797090e-01
9.020000000000000240e-01,-2.733742620642059529e-01,-1.877459371093121165e-01,-1.246780612610019490e-01
9.030000000000000249e-01,-1.918809621841961466e-01,-2.034862574252154221e-01,-3.533355913745696297e-02
9.040000000000000258e-01,-7.125998124709415071e-02,-1.533609746780476291e-01,5.473655465496325701e-02
9.050000000000000266e-01,9.738574991759665900e-02,-3.597069660286050796e-02,1.261036293388841656e-01
9.060000000000000275e-01,2.192685349588335830e-01,7.804807067281918642e-02,1.658315523032306005e-01
9.070000000000000284e-01,2.538417829818714888e-01,1.819186552114475941e-01,1.446958644018180862e-01
9.080000000000000293e-01,2.237350289679241044e-01,2.120860498467614097e-01,6.018130138079336861e-02
9.090000000000000302e-01,1.010103266199985639e-01,1.743178675679430967e-01,-1.567704774425692990e-02
9.100000000000000311e-01,-6.578151721002613306e-02,7.013742988375695764e-02,-1.097190464965750872e-01
9.110000000000000320e-01,-1.895896647425913961e-01,-6.016455812038293272e-02,-1.620005732347772898e-01
9.120000000000000329e-01,-2.552334710656972705e-01,-1.497076559172704768e-01,-1.450039329319236792e-01
9.130000000000000338e-01,-2.433581023760639228e-01,-2.070660393514679454e-01,-1.030751926068760871e-01
9.140000000000000346e-01,-1.410304302971476242e-01,-1.826455786704295758e-01,-1.005443666203866774e-03
9.150000000000000355e-01,-3.190310112994561211e-03,-1.112126526908022578e-01,8.871366109142851675e-02
9.160000000000000364e-01,1.493781513888494394e-01,3.810957997786876966e-02,1.389257618957077389e-01
9.170000000000000373e-01,2.451117583329836536e-01,1.467879156825224463e-01,1.642230897265645473e-01
9.180000000000000382e-01,2.573434272960519742e-01,2.046342582916807207e-01,1.260958007537544834e-01
9.190000000000000391e-01,1.769757505097340755e-01,2.034554665432443676e-01,4.537210245651584345e-02
9.200000000000000400e-01,4.789558562469545949e-02,1.200647241328664100e-01,-4.126569135830096546e-02
9.210000000000000409e-01,-1.080996315133769675e-01,1.452031634357848697e-02,-1.242322665751614125e-01
9.220000000000000417e-01,-2.273488186901713171e-01,-1.151206428518384978e-01,-1.561396775411646731e-01
9.230000000000000426e-01,-2.708317345081523997e-01,-1.809963423211077560e-01,-1.529428932250642970e-01
9.240000000000000435e-01,-2.091942687132399836e-01,-2.052370056365230566e-01,-7.046481544495343530e-02
9.250000000000000444e-01,-9.053567609198720501e-02,-1.564268973007009178e-01,1.239120967640985720e-02
9.260000000000000453e-01,5.339764696762203805e-02,-3.666723309532395059e-02,1.149907047349413430e-01
9.270000000000000462e-01,1.881165039406792749e-01,9.238650207394266678e-02,1.593337984138369634e-01
9.280000000000000471e-01,2.601174657781363808e-01,1.992390751025884532e-01,1.601356938889064718e-01
9.290000000000000480e-01,2.285568078013147097e-01,2.191796985832968059e-01,1.091976460292021778e-01
9.300000000000000488e-01,1.296743117352937846e-01,1.567387211760027654e-01,3.309733142363351782e-02
9.310000000000000497e-01,-2.904949366054053808e-02,6.790103879396823527e-02,-7.479787858011294199e-02
9.320000000000000506e-01,-1.644811482413541526e-01,-4.683709353668322889e-02,-1.544051984087895790e-01
9.330000000000000515e-01,-2.549458221640005240e-01,-1.651455539575725218e-01,-1.693624123979726448e-01
9.340000000000000524e-01,-2.665798267994425319e-01,-2.129842256898337172e-01,-1.231915800754863760e-01
9.350000000000000533e-01,-1.482968712777110454e-01,-1.902570263678432239e-01,-4.915981982827837687e-02
9.360000000000000542e-01,-2.158524531076248462e-02,-7.648050672962279639e-02,4.521968749597081449e-02
9.370000000000000551e-01,1.228727905965852352e-01,3.419598565544135216e-02,1.319910095779718018e-01
9.379999999999999449e-01,2.280215989573279589e-01,1.446110201557655184e-01,1.461828250082750913e-01
9.389999999999999458e-01,2.753278704019899159e-01,2.073201816157059230e-01,1.397499359828347776e-01
9.399999999999999467e-01,2.150295527842045196e-01,2.121191962231427641e-01,8.595630274095859835e-02
9.409999999999999476e-01,6.923422294767729579e-02,1.218836554908524911e-01,-9.991210122488561329e-03
9.419999999999999485e-01,-9.081650857795110776e-02,2.539471150907724600e-02,-9.948576543152350127e-02
9.429999999999999494e-01,-2.050326116396128662e-01,-1.149554364341813378e-01,-1.410236768782140160e-01
9.439999999999999503e-01,-2.828767451538557465e-01,-1.977148428802170399e-01,-1.420796786224144126e-01
9.449999999999999512e-01,-2.155605434614163984e-01,-2.083169239893153668e-01,-1.018570427561662078e-01
9.459999999999999520e-01,-1.015614199352974367e-01,-1.458758304177696918e-01,-1.128771304621986778e-02
9.469999999999999529e-01,3.579063905058107314e-02,-3.769974788020855755e-02,7.116641842231252735e-02
9.479999999999999538e-01,1.813999294848725186e-01,9.906083572612221777e-02,1.344840952081148011e-01
9.489999999999999547e-01,2.556322599928579908e-01,1.728649966504773039e-01,1.613823969935793134e-01
9.499999999999999556e-01,2.459897424802684751e-01,2.139453961794055004e-01,1.351381269255606810e-01
9.509999999999999565e-01,1.548065236486114438e-01,1.651432134476097935e-01,5.777768055895354804e-02
9.519999999999999574e-01,8.168658540861703163e-03,4.950632493069181961e-02,-3.841038078010088758e-02
9.529999999999999583e-01,-1.555537768270458254e-01,-6.802910990702537575e-02,-1.287956202660550109e-01
9.539999999999999591e-01,-2.444495730682786638e-01,-1.653292999369496696e-01,-1.537038579813016503e-01
9.549999999999999600e-01,-2.606607851901406869e-01,-2.136661562008290161e-01,-1.427368566384665249e-01
9.559999999999999609e-01,-1.960074943253087287e-01,-1.755025838416406636e-01,-9.354797233285443159e-02
9.569999999999999618e-01,-5.768496876631102471e-02,-8.904435161238871688e-02,9.676366993857087387e-03
9.579999999999999627e-01,1.217339733247507216e-01,1.092266765415292676e-02,1.005670376418587170e-01
9.589999999999999636e-01,2.238165529569673406e-01,1.508039853205968561e-01,1.539352674927837727e-01
9.599999999999999645e-01,2.818956969485357233e-01,2.072069177983879018e-01,1.625781218044998477e-01
9.609999999999999654e-01,2.302873562125297147e-01,1.909567341824502384e-01,1.033867647804701112e-01
9.619999999999999662e-01,9.917586347726034535e-02,1.152460553529865428e-01,1.353360702922914646e-02
9.629999999999999671e-01,-5.017091940427326896e-02,9.420542997994413303e-03,-7.475252904868691373e-02
9.639999999999999680e-01,-1.972972951721685686e-01,-1.272377407421624029e-01,-1.443454928477997667e-01
9.649999999999999689e-01,-2.693946455332070222e-01,-1.908515935173538403e-01,-1.477839110646727849e-01
9.659999999999999698e-01,-2.446398252264299078e-01,-2.087410868104295769e-01,-1.179483769837044865e-01
9.669999999999999707e-01,-1.417265702076212219e-01,-1.500119827319002230e-01,-5.575826743296490723e-02
9.679999999999999716e-01,1.765491849705606159e-02,-3.830102328930434091e-02,1.718049858941937333e-02
9.689999999999999725e-01,1.710651897247938980e-01,9.917970998340606970e-02,1.025645242934428991e-01
9.699999999999999734e-01,2.567252942890860812e-01,1.875633841515487732e-01,1.702533095769276916e-01
9.709999999999999742e-01,2.634052804546514470e-01,2.120270960593707288e-01,1.525756410910155403e-01
9.719999999999999751e-01,1.748317372244307388e-01,1.456162857505158281e-01,8.160877849110546867e-02
9.729999999999999760e-01,3.305355216242304717e-02,4.845276535087554570e-02,-1.552687996704072391e-02
9.739999999999999769e-01,-1.145709939127498439e-01,-7.530085377397491286e-02,-9.606446658608473743e-02
9.749999999999999778e-01,-2.406959241912599301e-01,-1.811722316562042467e-01,-1.495804342748982829e-01
9.759999999999999787e-01,-2.640623226081262320e-01,-2.151837497432670943e-01,-1.488139256443116176e-01
9.769999999999999796e-01,-2.050802981933796398e-01,-1.825437018749851148e-01,-1.097619821606530544e-01
9.779999999999999805e-01,-7.730511873704894177e-02,-8.171143623304064074e-02,-2.976595970726647958e-02
9.789999999999999813e-01,6.931113168634044086e-02,4.126752417661252309e-02,6.517763761483018337e-02
9.799999999999999822e-01,2.020238658070988291e-01,1.659489945285232138e-01,1.389594384026539009e-01
9.809999999999999831e-01,2.723894061835971936e-01,2.221504610834145188e-01,1.571378393543624297e-01
9.819999999999999840e-01,2.418995975480556504e-01,1.987992251071064032e-01,1.430810809783375770e-01
9.829999999999999849e-01,1.218239274476250328e-01,1.101219820618356965e-01,5.398261364531870693e-02
9.839999999999999858e-01,-1.802563277958017102e-02,-1.039631436590128868e-02,-3.175349827904414696e-02
9.849999999999999867e-01,-1.634167556129899335e-01,-1.311794342558667836e-01,-1.176193422666387961e-01
9.859999999999999876e-01,-2.487641629994270520e-01,-1.971114053383148934e-01,-1.586671344135577311e-01
9.869999999999999885e-01,-2.479607055925717451e-01,-1.955802264681585911e-01,-1.577636950253991921e-01
9.879999999999999893e-01,-1.736873542665645365e-01,-1.381647804455044537e-01,-8.378108264803203753e-02
9.889999999999999902e-01,-8.535769996658938014e-03,-1.383403678665125550e-02,-3.594461582246184610e-03
9.899999999999999911e-01,1.424373475933142508e-01,1.040527465335277235e-01,8.641015883791444696e-02
9.909999999999999920e-01,2.409690580423013706e-01,1.758602990329888593e-01,1.438651118698239806e-01
9.919999999999999929e-01,2.629523565196784651e-01,2.338455862030126842e-01,1.474936790769657280e-01
9.929999999999999938e-01,1.898745405698200883e-01,1.636291392452849935e-01,1.113190195030073354e-01
9.939999999999999947e-01,6.202446861672013256e-02,5.844477027028546767e-02,3.868150426291735999e-02
9.949999999999999956e-01,-1.021417200428868521e-01,-7.337264794387869660e-02,-6.524070179422773730e-02
9.959999999999999964e-01,-2.228263226411897613e-01,-1.863522731072229377e-01,-1.288184526596241330e-01
9.969999999999999973e-01,-2.686627811774915386e-01,-2.212617231501854964e-01,-1.450742527363950707e-01
9.979999999999999982e-01,-2.185708233698064329e-01,-1.756087741721822082e-01,-1.342354734101337266e-01
9.989999999999999991e-01,-1.095664835776943707e-01,-7.009664991935989076e-02,-7.156172457816710464e-02
1.000000000000000000e+00,5.348240091530908485e-02,5.931354276354539046e-02,3.396570579359287773e-02
1.000999999999999890e+00,1.969107882886869110e-01,1.595071103879084906e-01,1.222168851896750369e-01
1.002000000000000002e+00,2.671983334712869085e-01,2.137389933958628307e-01,1.470758821478831413e-01
1.002999999999999892e+00,2.390962143530306894e-01,1.906172024161640333e-01,1.511687578248766539e-01
1.004000000000000004e+00,1.398901201078983914e-01,9.172440668950387899e-02,8.180634112621404386e-02
1.004999999999999893e+00,1.387261595661487459e-03,-2.865014745607382535e-02,1.314530774424871491e-02
1.006000000000000005e+00,-1.563270811650483705e-01,-1.463261253379369298e-01,-8.965467716843769641e-02
1.006999999999999895e+00,-2.656237655073664938e-01,-2.090841661581253619e-01,-1.504692505750462317e-01
1.008000000000000007e+00,-2.675750193766519569e-01,-2.083737334147448272e-01,-1.599228231131421818e-01
1.008999999999999897e+00,-1.684761960856989149e-01,-1.495289751207653228e-01,-1.161069562512394987e-01
1.010000000000000009e+00,-5.359268390456592424e-02,-1.869251197129697187e-02,-4.191010393850580495e-02
1.010999999999999899e+00,9.354056468735730268e-02,9.076296184854021343e-02,6.046292313212087849e-02
1.012000000000000011e+00,2.420510149032147340e-01,1.853273332201526014e-01,1.370372487940960116e-01
1.012999999999999901e+00,2.567335110572550039e-01,2.257677657277284144e-01,1.575137242166935181e-01
1.014000000000000012e+00,1.923767919234756485e-01,1.611579436793121323e-01,1.437522302824755516e-01
1.014999999999999902e+00,8.294767846674169776e-02,3.456797250579640018e-02,6.090026297657448462e-02
1.016000000000000014e+00,-5.895396168653582736e-02,-7.808934548546887788e-02,-3.202402351903050476e-02
1.016999999999999904e+00,-2.016518547216684110e-01,-1.699306599373514026e-01,-1.213890748818352988e-01
1.018000000000000016e+00,-2.757576243526164150e-01,-2.052674296268943988e-01,-1.600322029970600579e-01
1.018999999999999906e+00,-2.423877366879947926e-01,-1.690904846496768532e-01,-1.658596052428982504e-01
1.020000000000000018e+00,-1.430864373232723086e-01,-7.068138412591042086e-02,-8.473730355172270912e-02
1.020999999999999908e+00,4.265973287514120138e-02,4.176458382883684733e-02,-2.334561210180819898e-02
1.022000000000000020e+00,1.783765151641513169e-01,1.676684195541445210e-01,8.272955513952490181e-02
1.022999999999999909e+00,2.726022954160479128e-01,2.106807352261397814e-01,1.403737704101305495e-01
1.024000000000000021e+00,2.568064057916668586e-01,1.915154775454428193e-01,1.544474286447607148e-01
1.024999999999999911e+00,1.644791404224847930e-01,1.362708586026667446e-01,1.100221184160696947e-01
1.026000000000000023e+00,2.195758937939663175e-02,-2.712071812226064804e-02,3.238502038775639691e-02
1.026999999999999913e+00,-1.294777182483022870e-01,-1.481639296536998995e-01,-4.264707007545560230e-02
1.028000000000000025e+00,-2.328296665645719354e-01,-2.000153640194566040e-01,-1.291727032219845417e-01
1.028999999999999915e+00,-2.665794023540941637e-01,-2.163631465998566705e-01,-1.635844548131190901e-01
1.030000000000000027e+00,-1.860693179295003219e-01,-1.268034528015348772e-01,-1.350101989079517395e-01
1.030999999999999917e+00,-6.987157411860672740e-02,-9.963860615804684753e-03,-6.451607900560629716e-02
1.032000000000000028e+00,8.098048890740587591e-02,1.005799568199550326e-01,5.926061011945676915e-03
1.032999999999999918e+00,2.302700909308366128e-01,1.946245993857076140e-01,1.173903024160646569e-01
1.034000000000000030e+00,2.529975969613631470e-01,2.050953227319794459e-01,1.630487091626961760e-01
1.034999999999999920e+00,2.288347216193820366e-01,1.468556695602569462e-01,1.602314913656977258e-01
1.036000000000000032e+00,1.174224769029153098e-01,3.700756887866592237e-02,1.044685793409915603e-01
1.036999999999999922e+00,-2.428207569682015385e-02,-8.206685530422408448e-02,1.482557492331982273e-03
1.038000000000000034e+00,-1.757672590087869247e-01,-1.750547051274429500e-01,-7.464555908320921751e-02
1.038999999999999924e+00,-2.618618271435866895e-01,-2.166899106816667364e-01,-1.329173657608598014e-01
1.040000000000000036e+00,-2.553491702795854801e-01,-1.659651325972031355e-01,-1.632928034390892791e-01
1.040999999999999925e+00,-1.535521962531160023e-01,-7.750220635209437159e-02,-1.237765191510619006e-01
1.042000000000000037e+00,-5.535624330428632429e-04,5.887745625144279182e-02,-5.941948936664618458e-02
1.042999999999999927e+00,1.358767062638913392e-01,1.664325476826603034e-01,4.591067799725341569e-02
1.044000000000000039e+00,2.410154522757407269e-01,2.112333746954482838e-01,1.176985317530503811e-01
1.044999999999999929e+00,2.622632319045434257e-01,1.940731884269319973e-01,1.728675990261279716e-01
1.046000000000000041e+00,1.879051260527485334e-01,1.005147592270514284e-01,1.363498971444091212e-01
1.046999999999999931e+00,5.236136275808734447e-02,-1.196876350910164657e-02,6.071882097531998423e-02
1.048000000000000043e+00,-1.207605005469979675e-01,-1.401751210275820614e-01,-1.027831281257822124e-02
1.048999999999999932e+00,-2.259459390973905801e-01,-1.981797987598092614e-01,-9.989706380679154452e-02
1.050000000000000044e+00,-2.851065786869012020e-01,-1.942743039798980331e-01,-1.460522015188514267e-01
1.050999999999999934e+00,-1.979444929146104981e-01,-1.429650218319930000e-01,-1.439359809214225128e-01
1.052000000000000046e+00,-9.189872367281866350e-02,-2.582011593394418179e-03,-1.018612650578571838e-01
1.052999999999999936e+00,5.759744426989781702e-02,1.061518382512470493e-01,-1.540907500946133747e-02
1.054000000000000048e+00,2.092963853557678333e-01,1.882401412478136582e-01,8.372322374481189211e-02
1.054999999999999938e+00,2.607620986360926207e-01,1.971393631615935005e-01,1.463056654679575352e-01
1.056000000000000050e+00,2.418992428300061615e-01,1.508859406643410783e-01,1.496462851987745146e-01
1.056999999999999940e+00,1.398844408087727142e-01,4.805441944094359513e-02,1.162265867433473349e-01
1.058000000000000052e+00,-1.142395676235877407e-02,-9.257599161556472056e-02,5.246189846945912422e-02
1.058999999999999941e+00,-1.705689508137245569e-01,-1.807238598521460071e-01,-4.938096177053394320e-02
1.060000000000000053e+00,-2.656644327328460120e-01,-2.302670072140067803e-01,-1.288763145751856687e-01
1.060999999999999943e+00,-2.637584544823416421e-01,-1.755257560229679936e-01,-1.754805391251712254e-01
1.062000000000000055e+00,-1.700429138327583523e-01,-7.573618738302763387e-02,-1.485066663413350252e-01
1.062999999999999945e+00,-2.091835769105456974e-02,5.008833059965364654e-02,-6.908075521766360305e-02
1.064000000000000057e+00,1.330192327319419943e-01,1.698226743229731550e-01,9.963364649239411092e-03
1.064999999999999947e+00,2.207685900619765496e-01,2.137701746333077746e-01,1.006980626641228865e-01
1.066000000000000059e+00,2.708605653469697283e-01,1.821843041544876363e-01,1.601042507178846441e-01
1.066999999999999948e+00,2.097513524219507541e-01,9.538219836654665551e-02,1.483124851429464541e-01
1.068000000000000060e+00,7.387858826444898552e-02,-2.547689690515818339e-02,1.229339276057421909e-01
1.068999999999999950e+00,-7.852029753456370165e-02,-1.516201196801098827e-01,6.112880580092489025e-03
1.070000000000000062e+00,-2.018200491856412537e-01,-2.067282966542551281e-01,-8.034311517290378124e-02
1.070999999999999952e+00,-2.868035140870809907e-01,-2.034681287251933202e-01,-1.329798562566762987e-01
1.072000000000000064e+00,-2.334464145851488925e-01,-1.225148728170751128e-01,-1.633639496186378992e-01
1.072999999999999954e+00,-1.083472493308770546e-01,-1.106261580113138653e-02,-1.304340002701382395e-01
1.074000000000000066e+00,5.105188168071114058e-02,1.195404118689583767e-01,-4.577618309426734200e-02
1.074999999999999956e+00,1.748639698505968509e-01,1.901594022012264851e-01,4.474082619330910920e-02
1.076000000000000068e+00,2.597038177669946379e-01,2.107746498686414727e-01,1.146428880442135062e-01
1.076999999999999957e+00,2.441666493984239739e-01,1.494500571886280549e-01,1.662300115402451650e-01
1.078000000000000069e+00,1.605334692063148661e-01,3.348947607548320021e-02,1.345518245305763472e-01
1.078999999999999959e+00,2.106509385050103766e-02,-9.271056237313693438e-02,7.162099951092672223e-02
1.080000000000000071e+00,-1.316407679778072437e-01,-1.869833428219018212e-01,-1.552463676400417554e-02
1.080999999999999961e+00,-2.442092294022234489e-01,-2.215446647553530046e-01,-1.072139951056416823e-01
1.082000000000000073e+00,-2.611922705319187910e-01,-1.785436508343893058e-01,-1.605894601323322735e-01
1.082999999999999963e+00,-1.839203907931711846e-01,-6.100032776389208850e-02,-1.665442873744523988e-01
1.084000000000000075e+00,-4.702454270747881415e-02,6.755744468672923719e-02,-9.874942493820076939e-02
1.084999999999999964e+00,9.094422453510256354e-02,1.602033737896934318e-01,-2.269098998379431506e-02
1.086000000000000076e+00,2.108876325354596126e-01,2.147782087619723723e-01,6.993539649103874822e-02
1.086999999999999966e+00,2.672565607037775126e-01,1.995643011336460104e-01,1.256021777580326182e-01
1.088000000000000078e+00,2.318975832727356301e-01,8.403558550787929016e-02,1.611773134373864491e-01
1.088999999999999968e+00,1.055891838956961037e-01,-3.270084274612723024e-02,1.133571141479603750e-01
1.090000000000000080e+00,-5.055714210019438687e-02,-1.379513398429514370e-01,6.339007566237334079e-02
1.090999999999999970e+00,-1.956469330469561563e-01,-2.089167277027344227e-01,-5.110123343381058059e-02
1.092000000000000082e+00,-2.637616311380573397e-01,-1.976434980984325407e-01,-1.160649774404401841e-01
1.092999999999999972e+00,-2.454669503330683955e-01,-1.164322477114179966e-01,-1.753451435448295792e-01
1.094000000000000083e+00,-1.402466065592455902e-01,1.497545398394403357e-02,-1.458270571341955535e-01
1.094999999999999973e+00,6.080183149159991939e-03,1.175713346702158407e-01,-9.080541289807755878e-02
1.096000000000000085e+00,1.547113880466264302e-01,2.111049594044386579e-01,1.370054614954202381e-02
1.096999999999999975e+00,2.615141104743906042e-01,2.075757978262499637e-01,1.057370622865809878e-01
1.098000000000000087e+00,2.580296108362712948e-01,1.422518700713755746e-01,1.501834201176995287e-01
1.098999999999999977e+00,1.657466336292696407e-01,3.325748555607121321e-02,1.537807367703705463e-01
1.100000000000000089e+00,2.856401018647901011e-02,-7.771948730394444282e-02,1.161565840629185942e-01
1.100999999999999979e+00,-1.318175941346137747e-01,-1.939039277443353471e-01,2.990098419461503093e-02
1.102000000000000091e+00,-2.473391118056633697e-01,-2.157026902155569636e-01,-5.648390075798047361e-02
1.102999999999999980e+00,-2.678871231244597251e-01,-1.693932754624300485e-01,-1.463421431234990799e-01
1.104000000000000092e+00,-2.265277405283114831e-01,-5.534838252521592089e-02,-1.667595824384953407e-01
1.104999999999999982e+00,-8.241147260284158171e-02,8.173370254762878095e-02,-1.293381006228969121e-01
1.106000000000000094e+00,7.231801054354547453e-02,1.719343710449456608e-01,-5.290610159804803175e-02
1.106999999999999984e+00,2.028882899359099601e-01,2.248886782910982374e-01,3.000349821109479440e-02
1.108000000000000096e+00,2.716102173377843432e-01,1.883043216482560289e-01,1.291194489033226089e-01
1.108999999999999986e+00,2.340964165879162173e-01,8.183534258168237430e-02,1.546624947773485859e-01
1.110000000000000098e+00,1.313435936913960045e-01,-3.604630638922413227e-02,1.415874095049275971e-01
1.110999999999999988e+00,-3.462520423135528186e-02,-1.501491767249108766e-01,7.964431408778704924e-02
1.112000000000000099e+00,-1.664431374188957979e-01,-2.123534605026057565e-01,-2.345038690805292120e-02
1.112999999999999989e+00,-2.652243828065274922e-01,-1.891775153012835164e-01,-7.851576303147531077e-02
1.114000000000000101e+00,-2.636131527208609437e-01,-1.243104694499556351e-01,-1.427246583292156312e-01
1.114999999999999991e+00,-1.794429623480899016e-01,4.585822846694417518e-03,-1.719919626658147904e-01
1.116000000000000103e+00,-2.233483119973824968e-02,1.198945656403298393e-01,-9.528204997465496151e-02
1.116999999999999993e+00,1.382015018730577138e-01,2.048349051568792434e-01,-3.543106740104299407e-02
1.118000000000000105e+00,2.503477803225402920e-01,2.187157479962069939e-01,7.199851756067139619e-02
1.118999999999999995e+00,2.554091963132967824e-01,1.333629485369429435e-01,1.212429870605797322e-01
1.120000000000000107e+00,1.944671258812697701e-01,3.207331485908016672e-02,1.645130904927391557e-01
1.120999999999999996e+00,6.032233315609270702e-02,-9.927288599407295411e-02,1.218543253519272923e-01
1.122000000000000108e+00,-8.240343959987125877e-02,-1.949338619613302237e-01,6.768413685541738167e-02
1.122999999999999998e+00,-2.240510132965061463e-01,-2.196575524749839470e-01,-3.810964699970334491e-02
1.124000000000000110e+00,-2.800685545610444582e-01,-1.674027964442211247e-01,-1.154051451577240428e-01
1.125000000000000000e+00,-2.309221409330826924e-01,-3.832222486539026141e-02,-1.620695140092427156e-01
1.125999999999999890e+00,-1.124088207596670996e-01,8.132663113596069748e-02,-1.490718480858834460e-01
1.127000000000000002e+00,5.329014446715617248e-02,1.687937426989232215e-01,-1.017336776366003087e-01
1.127999999999999892e+00,1.842945694389559186e-01,2.113448474017451673e-01,1.385148584376479607e-02
1.129000000000000004e+00,2.585118694819865670e-01,1.740575466828732931e-01,9.795720673999136485e-02
1.129999999999999893e+00,2.474239668297700534e-01,9.345757651155978118e-02,1.438421578774096710e-01
1.131000000000000005e+00,1.533609334616965469e-01,-4.442628236951668558e-02,1.571224255098927769e-01
1.131999999999999895e+00,-1.515261198114708531e-02,-1.653815479019073165e-01,1.153087096044461968e-01
1.133000000000000007e+00,-1.539224043790776153e-01,-2.198318716468215528e-01,6.467198957926805977e-03
1.133999999999999897e+00,-2.480540841312033895e-01,-1.972568485546988826e-01,-5.580004588044481378e-02
1.135000000000000009e+00,-2.603575342027532602e-01,-1.036356385471342012e-01,-1.303789548174844881e-01
1.135999999999999899e+00,-1.801369350352327314e-01,1.721358679994215365e-02,-1.516267943552417341e-01
1.137000000000000011e+00,-4.240851125765592033e-02,1.278275117813371387e-01,-1.401240517478870851e-01
1.137999999999999901e+00,1.097674458693346095e-01,2.128756893086590218e-01,-6.708062102590116316e-02
1.139000000000000012e+00,2.346490840833832248e-01,1.995076403860897296e-01,3.126558740272929182e-02
1.139999999999999902e+00,2.743289201694050217e-01,1.365011559779886474e-01,9.407712125627745725e-02
1.141000000000000014e+00,2.224573339656101822e-01,8.457893629851231249e-03,1.551089528802862549e-01
1.141999999999999904e+00,9.901911075973644782e-02,-1.095798096266326627e-01,1.499095043820064810e-01
1.143000000000000016e+00,-6.782853904305084780e-02,-1.964579936920586578e-01,8.773352536196271645e-02
1.143999999999999906e+00,-1.994776616567448813e-01,-2.080995932306280716e-01,2.883941429778150243e-03
1.145000000000000018e+00,-2.816352476482487099e-01,-1.611769030521538471e-01,-8.673079740210541677e-02
1.145999999999999908e+00,-2.523682733490748564e-01,-5.497236996764972433e-02,-1.429489540093034083e-01
1.147000000000000020e+00,-1.247178835272259173e-01,8.470142999482732638e-02,-1.448112421181673715e-01
1.147999999999999909e+00,1.629872967301374334e-02,1.673486252798456198e-01,-1.259942108533157190e-01
1.149000000000000021e+00,1.650182894546616263e-01,2.120938710952625927e-01,-2.017006950371780238e-02
1.149999999999999911e+00,2.572101072989694814e-01,1.804077628933204169e-01,6.168209896802655939e-02
1.151000000000000023e+00,2.621343721918998337e-01,8.914016506217070646e-02,1.384041155301875270e-01
1.151999999999999913e+00,1.684402670017467740e-01,-4.110581154248781760e-02,1.658623295799218356e-01
1.153000000000000025e+00,1.687596352996010782e-02,-1.410331620045070511e-01,1.371275811435126446e-01
1.153999999999999915e+00,-1.501692160926000608e-01,-2.021679486376409263e-01,7.698673019552325358e-02
1.155000000000000027e+00,-2.482272407429585437e-01,-1.827183543220112505e-01,-2.225090578289427162e-02
1.155999999999999917e+00,-2.623179099161093153e-01,-1.080282859652747229e-01,-1.118361525880776641e-01
1.157000000000000028e+00,-2.118425003508594417e-01,2.824705016656821679e-02,-1.450476908011796295e-01
1.157999999999999918e+00,-6.906619998400263805e-02,1.328145343582812499e-01,-1.405509447879906282e-01
1.159000000000000030e+00,7.740078333076375050e-02,2.147258476169875141e-01,-7.869015592370549872e-02
1.159999999999999920e+00,2.091266575184043686e-01,2.132740144797351522e-01,-4.617123497686718980e-03
1.161000000000000032e+00,2.600281261405754107e-01,1.238245254092679576e-01,7.036786232173446176e-02
1.161999999999999922e+00,2.220597028906372283e-01,2.648489746705969677e-02,1.293703400231089595e-01
1.163000000000000034e+00,1.122346295571064467e-01,-1.090080836064746678e-01,1.427889122842948832e-01
1.163999999999999924e+00,-4.176086035386553791e-02,-1.935503790323741258e-01,1.125171924854845990e-01
1.165000000000000036e+00,-1.796035870637741061e-01,-2.125836831358689227e-01,3.616211434425598004e-02
1.165999999999999925e+00,-2.587699655047334124e-01,-1.615014343064998525e-01,-5.669011057653410707e-02
1.167000000000000037e+00,-2.569851640845093321e-01,-3.915251574879206886e-02,-1.463914577613666668e-01
1.167999999999999927e+00,-1.506818518789173333e-01,8.147390733579461253e-02,-1.697777700983240101e-01
1.169000000000000039e+00,-1.198374573684461708e-02,1.863297789682757943e-01,-1.352927320392399435e-01
1.169999999999999929e+00,1.437999103448189264e-01,2.053440344149240204e-01,-7.300955787368897110e-02
1.171000000000000041e+00,2.470390293880026511e-01,1.838130529452492168e-01,1.491981877111424153e-02
1.171999999999999931e+00,2.605591170564792169e-01,7.211219584603116572e-02,1.025203745891127699e-01
1.173000000000000043e+00,1.797142651339393160e-01,-5.775713002431803050e-02,1.586905768355703072e-01
1.173999999999999932e+00,4.969050147560189618e-02,-1.497937262876706532e-01,1.502742428462254254e-01
1.175000000000000044e+00,-1.018253604372863219e-01,-2.201788198262161766e-01,1.148886372817550933e-01
1.175999999999999934e+00,-2.286931581205522424e-01,-1.905624355791334101e-01,9.053552069674076705e-03
1.177000000000000046e+00,-2.840735062636833841e-01,-1.025076889035240191e-01,-7.513995065588224831e-02
1.177999999999999936e+00,-2.210188139371777327e-01,2.784799438061277832e-02,-1.339811782332482049e-01
1.179000000000000048e+00,-8.670496312539302530e-02,1.301027514917634520e-01,-1.565930442498680575e-01
1.179999999999999938e+00,4.722044888441426225e-02,1.907282281812909541e-01,-1.188744993031509017e-01
1.181000000000000050e+00,1.806659408815375900e-01,2.110033746407699029e-01,-4.601151016915291242e-02
