time,acc_x,acc_y,acc_z
0.000000000000000000e+00,6.217777103228998570e-01,4.656360756983208282e-01,3.570552428230580611e-01
1.000000000000000021e-03,5.622624921373126083e-01,4.104145706620336287e-01,3.686818046116832615e-01
2.000000000000000042e-03,4.388967043091373532e-01,2.858315485513061582e-01,3.036122780259108422e-01
3.000000000000000062e-03,2.857133328667030292e-01,1.395704641433542781e-01,1.995180527618438393e-01
4.000000000000000083e-03,3.543974641118594060e-02,-3.260701916421415714e-02,7.296118454575153955e-02
5.000000000000000104e-03,-1.708901829084147339e-01,-1.937899582548945066e-01,-5.073766846304218758e-02
6.000000000000000125e-03,-3.408945953527790507e-01,-3.030220704091831641e-01,-1.901731303014266017e-01
7.000000000000000146e-03,-4.785035602261890064e-01,-3.924890469428800599e-01,-2.525107869448805498e-01
8.000000000000000167e-03,-5.313389346591841367e-01,-3.753160982045989358e-01,-3.165015975778953106e-01
8.999999999999999320e-03,-4.886402815527923216e-01,-3.469392163244459648e-01,-3.197877154283363388e-01
1.000000000000000021e-02,-3.583413064511810631e-01,-2.389080164800675976e-01,-2.893785248459135317e-01
1.099999999999999936e-02,-2.295215193286725130e-01,-7.489664875559605417e-02,-2.006165854166966356e-01
1.200000000000000025e-02,-3.679583888440556699e-02,4.375907722455982252e-02,-8.130551804707124297e-02
1.299999999999999940e-02,1.435038850346853911e-01,1.599186280657261816e-01,1.998777489308043234e-02
1.400000000000000029e-02,2.913197578480091754e-01,2.769169718419972059e-01,1.196280312055670592e-01
1.499999999999999944e-02,3.771514049322148843e-01,3.096984693666315902e-01,2.085127752920026833e-01
1.600000000000000033e-02,4.158702057491935333e-01,2.993640363942888794e-01,2.522491418101965865e-01
1.700000000000000122e-02,3.671435853873252220e-01,2.298381222244070821e-01,2.411672686026495871e-01
1.799999999999999864e-02,2.744567903843939116e-01,1.381716186312916261e-01,2.237491053325594836e-01
1.899999999999999953e-02,1.600914691438431459e-01,7.780015888347402431e-02,1.678461642451794245e-01
2.000000000000000042e-02,3.128549547808785747e-02,-4.237731807042042359e-02,7.957584530326730632e-02
2.100000000000000130e-02,-1.093711930133487997e-01,-1.353620418450226792e-01,-1.717362923201166264e-02
2.199999999999999872e-02,-2.244846550580950340e-01,-1.950557397007600668e-01,-1.144556061644283196e-01
2.299999999999999961e-02,-2.827455644724072847e-01,-1.993762448704680668e-01,-1.590210134495935179e-01
2.400000000000000050e-02,-2.878374267029918387e-01,-1.807213605307684823e-01,-2.099538717596087234e-01
2.500000000000000139e-02,-2.557098120930502150e-01,-1.258302843498041446e-01,-2.034509482150431148e-01
2.599999999999999881e-02,-1.828409284219002506e-01,-5.725025402100655803e-02,-1.589753278459533625e-01
2.699999999999999969e-02,-8.349975067963062714e-02,5.834074194045113168e-03,-8.757983288081236384e-02
2.800000000000000058e-02,5.342940996213171867e-03,8.065489523485594447e-02,-4.946396443701379930e-02
2.900000000000000147e-02,1.158981663139775631e-01,1.029228884267823357e-01,7.241143323429150881e-03
2.999999999999999889e-02,1.409001756866359034e-01,1.152714813586461773e-01,7.573952761685738555e-02
3.099999999999999978e-02,1.827412449216083701e-01,1.035189861642125814e-01,1.085419197852804246e-01
3.200000000000000067e-02,1.738955911759313966e-01,6.975040967338945463e-02,1.226212658433697422e-01
3.300000000000000155e-02,1.121710366133606973e-01,3.306090666445576920e-02,1.199006297409509203e-01
3.400000000000000244e-02,5.541294530773219207e-02,-1.983220112374851993e-03,1.019026731157459120e-01
3.500000000000000333e-02,-3.853570383912906239e-02,-6.226562132671755595e-02,2.405491071743572767e-02
3.599999999999999728e-02,-6.871233659860079279e-02,-6.818705043800749044e-02,-2.290191884607121336e-02
3.699999999999999817e-02,-1.326768017324414239e-01,-8.761958501694130930e-02,-6.294590775366327995e-02
3.799999999999999906e-02,-1.231581078238253996e-01,-6.870207516867916919e-02,-8.061548436576999876e-02
3.899999999999999994e-02,-8.786443957501906266e-02,-2.338316897777246300e-02,-8.921063148221716754e-02
4.000000000000000083e-02,-4.122172982447322442e-02,1.819892921147069770e-02,-6.350061460646566625e-02
4.100000000000000172e-02,2.518729547281390105e-02,8.690456234569050864e-02,-4.130993080324320971e-02
4.200000000000000261e-02,8.256737863172397551e-02,1.239811809522067820e-01,1.172499534309370990e-02
4.299999999999999656e-02,1.138475680068212897e-01,1.260064877604505085e-01,3.054269961350480206e-02
4.399999999999999745e-02,1.231240414411626932e-01,9.746831789768595211e-02,6.384691173018618160e-02
4.499999999999999833e-02,1.167768039629868554e-01,9.159892775822729705e-02,9.491950856566071237e-02
4.599999999999999922e-02,8.161833407292330700e-02,-7.768821526751551639e-03,7.346543171808861405e-02
4.700000000000000011e-02,1.970841146961865506e-02,-6.860388920970587889e-02,5.919230639360809065e-02
4.800000000000000100e-02,-6.136632385571262616e-02,-1.414193758175773807e-01,1.031483761517813097e-02
4.900000000000000189e-02,-1.531742087724727031e-01,-1.971047783888785487e-01,-3.280861249926784323e-02
5.000000000000000278e-02,-2.222473320041714884e-01,-2.159758182228005696e-01,-7.043492264319088647e-02
5.099999999999999672e-02,-2.444425344974568703e-01,-1.856074515017959170e-01,-1.158612435564965182e-01
5.199999999999999761e-02,-2.351471770302320519e-01,-1.304210474744599002e-01,-1.284001111865027966e-01
5.299999999999999850e-02,-1.768875610551378375e-01,-2.679618772768998028e-02,-1.291470877920919968e-01
5.399999999999999939e-02,-6.002882263992945222e-02,3.200063031695176557e-02,-9.828339583614809083e-02
5.500000000000000028e-02,5.662284527677798746e-02,1.559190816809442881e-01,-2.674953618866198271e-02
5.600000000000000117e-02,1.902737186097773203e-01,2.403668092662864519e-01,2.659801715927112998e-03
5.700000000000000205e-02,2.772270162984826758e-01,2.881907292728381753e-01,8.958400374416521095e-02
5.800000000000000294e-02,3.304535000709407089e-01,3.003845390195671317e-01,1.493318331412241962e-01
5.899999999999999689e-02,3.512803250098186503e-01,2.483761245183430388e-01,2.072779071271615148e-01
5.999999999999999778e-02,3.295209364505499172e-01,1.662730934667132066e-01,2.042704358133917986e-01
6.099999999999999867e-02,1.969514344626332181e-01,4.667430710957153062e-02,1.833926878313938413e-01
6.199999999999999956e-02,6.094305645373271352e-02,-9.194393546181610366e-02,1.056835561565229870e-01
6.300000000000000044e-02,-1.209111620828321881e-01,-2.418612627051787700e-01,5.824240106085096236e-02
6.400000000000000133e-02,-2.585713419058334739e-01,-3.184119880509837519e-01,-4.674203914437255469e-02
6.500000000000000222e-02,-3.649445290730661817e-01,-3.597904929308240463e-01,-1.495365622708491604e-01
6.600000000000000311e-02,-4.669318693046255464e-01,-3.765285846174661888e-01,-2.318580755654514880e-01
6.700000000000000400e-02,-4.535220467415003731e-01,-3.287885699343556789e-01,-2.448241398784796741e-01
6.800000000000000488e-02,-3.550001009323009993e-01,-2.068929403421841673e-01,-2.357956479557700158e-01
6.900000000000000577e-02,-2.344466858684459976e-01,-2.641908265148430746e-02,-2.161382802856453289e-01
7.000000000000000666e-02,-6.184646624387988428e-02,1.312785638449967818e-01,-1.393712834467280837e-01
7.099999999999999367e-02,1.346404528899801945e-01,2.942024490581907070e-01,-3.236071952881619529e-02
7.199999999999999456e-02,3.270999996490302486e-01,4.016960942864360451e-01,4.904786496522518802e-02
7.299999999999999545e-02,4.741466583618991204e-01,4.484940042548812844e-01,1.662933576798359403e-01
7.399999999999999634e-02,5.629010072132472065e-01,4.391729999332618650e-01,2.745124575757991736e-01
7.499999999999999722e-02,5.414212187870175441e-01,3.533176095925893434e-01,3.226108870771355330e-01
7.599999999999999811e-02,4.452879681914114207e-01,2.020499451688723691e-01,3.163355634183523390e-01
7.699999999999999900e-02,2.773022974949946318e-01,2.741340724564986231e-02,2.865651221133183046e-01
7.799999999999999989e-02,7.933014757558069785e-02,-1.375093134663635253e-01,2.122345983303334238e-01
7.900000000000000078e-02,-1.415801910189319890e-01,-3.409941131989091545e-01,5.409489631891883227e-02
8.000000000000000167e-02,-3.773349412539707681e-01,-4.533003601891183454e-01,-7.375535518008290159e-02
8.100000000000000255e-02,-5.271152873657334315e-01,-5.112325198635804258e-01,-1.913789850062414533e-01
8.200000000000000344e-02,-6.245330678485730980e-01,-4.916177553472040884e-01,-2.982082669719441359e-01
8.300000000000000433e-02,-6.335873451432183501e-01,-3.889016140375416430e-01,-3.556078148219611879e-01
8.400000000000000522e-02,-5.189721580568135151e-01,-2.497298050550021964e-01,-3.555396744760783712e-01
8.500000000000000611e-02,-3.276125280066662371e-01,-3.059115761566840591e-02,-3.421889003097381421e-01
8.599999999999999312e-02,-1.183887778322577355e-01,1.593193752436133925e-01,-2.398670338539778957e-01
8.699999999999999400e-02,1.480533971607588262e-01,3.680487351330422041e-01,-8.850695987615843363e-02
8.799999999999999489e-02,3.960762038429355703e-01,5.019733498817438022e-01,5.606275990395868936e-02
8.899999999999999578e-02,5.819615413812289084e-01,5.452610738781886734e-01,1.978496355837953691e-01
8.999999999999999667e-02,6.857977708765564673e-01,5.252944329649495980e-01,3.203097160653893272e-01
9.099999999999999756e-02,6.724091876843455440e-01,4.105014971784521904e-01,3.811744426127396945e-01
9.199999999999999845e-02,5.795766929338214135e-01,2.438194732033239498e-01,4.305488672754598789e-01
9.299999999999999933e-02,3.789720442628257135e-01,4.234875326470689122e-02,3.587748686719965385e-01
9.400000000000000022e-02,1.051589805421219298e-01,-1.786815915023231283e-01,2.729622630605760270e-01
9.500000000000000111e-02,-1.508231223726338444e-01,-3.740857103986432453e-01,1.134658172472978732e-01
9.600000000000000200e-02,-3.711033356358868218e-01,-4.919817121897741008e-01,-2.020520985586661197e-02
9.700000000000000289e-02,-5.885080965912756756e-01,-5.356725883036284053e-01,-1.781884904876229747e-01
9.800000000000000377e-02,-6.835613444540561412e-01,-5.304128701921069222e-01,-3.135022660203071188e-01
9.900000000000000466e-02,-6.814698047993241747e-01,-4.258010444285962870e-01,-4.016030917807490441e-01
1.000000000000000056e-01,-5.941606345221426277e-01,-2.381090919818256990e-01,-4.180944188206257572e-01
1.010000000000000064e-01,-4.107636339231165445e-01,-2.412089638079820478e-02,-3.759636622896552205e-01
1.019999999999999934e-01,-1.471821784536005429e-01,1.961647460835228562e-01,-2.936166160565336636e-01
1.029999999999999943e-01,1.260564453031629284e-01,3.853612438972925380e-01,-1.393250112357587167e-01
1.039999999999999952e-01,3.785121834468102575e-01,5.224869110486441981e-01,7.360784846720705259e-03
1.049999999999999961e-01,5.628893778983653506e-01,5.708640418508158509e-01,1.556871872099161447e-01
1.059999999999999970e-01,6.871835557951285756e-01,5.203472651539132743e-01,2.752089532086299251e-01
1.069999999999999979e-01,6.788400910193608251e-01,4.186464104722705248e-01,3.883534061214105604e-01
1.079999999999999988e-01,5.671333853839352068e-01,2.279164950755387109e-01,4.210866608458894156e-01
1.089999999999999997e-01,4.246702670620755571e-01,2.967518382194057197e-02,3.777972834357190002e-01
1.100000000000000006e-01,1.862415142722785300e-01,-1.663793526369619913e-01,3.043488114352352336e-01
1.110000000000000014e-01,-8.605956024121369508e-02,-3.366639424510575185e-01,1.705899746864941724e-01
1.120000000000000023e-01,-3.378064672144334146e-01,-4.625334305417420078e-01,-4.941087970089495969e-03
1.130000000000000032e-01,-5.406364947540509558e-01,-5.228743403827539327e-01,-1.363609032502919316e-01
1.140000000000000041e-01,-6.306362869956987360e-01,-4.940897048453359308e-01,-2.615037190300240622e-01
1.150000000000000050e-01,-6.576622711977617719e-01,-3.609593216690685225e-01,-3.534064685593930055e-01
1.160000000000000059e-01,-5.696086655623955330e-01,-2.336241231840622268e-01,-3.888972061824391702e-01
1.170000000000000068e-01,-3.985843422441432971e-01,-2.436807783078914422e-02,-3.688397112270055955e-01
1.179999999999999938e-01,-1.709335592507127410e-01,1.651608801945747829e-01,-2.955674462626659005e-01
1.189999999999999947e-01,9.426386328234277745e-02,3.108799115203444985e-01,-1.953720856543194606e-01
1.199999999999999956e-01,3.001831251842653758e-01,4.071536523536358199e-01,-3.736578517209187406e-02
1.209999999999999964e-01,4.774555796879716985e-01,4.583674593338514236e-01,1.031561958308442606e-01
1.219999999999999973e-01,5.748741446437000135e-01,4.245243780184072002e-01,2.420636062199989502e-01
1.229999999999999982e-01,5.986907714463488572e-01,3.250482120397633623e-01,3.401263030287017819e-01
1.239999999999999991e-01,5.193255680345130187e-01,1.720279454265785102e-01,3.661449150917940876e-01
1.250000000000000000e-01,3.626145963789498272e-01,6.616155502990370141e-03,3.491336273018038061e-01
1.260000000000000009e-01,1.574723325563902876e-01,-1.527032355350870507e-01,2.850014342475339912e-01
1.270000000000000018e-01,-8.289102002504138145e-02,-2.790290500048879241e-01,1.899281685814519227e-01
1.280000000000000027e-01,-2.463966754751291954e-01,-3.739501159386481310e-01,5.941360667064717049e-02
1.290000000000000036e-01,-4.094874081288632506e-01,-3.979283120029160070e-01,-6.459827859097873326e-02
1.300000000000000044e-01,-4.829343953924477573e-01,-3.557034187915989465e-01,-2.009885313516000249e-01
1.310000000000000053e-01,-5.015085416438935795e-01,-2.462460071132044070e-01,-2.627193349593635596e-01
1.320000000000000062e-01,-4.254887256952155639e-01,-1.398575879570740088e-01,-3.193524612478711999e-01
1.330000000000000071e-01,-3.006087728252803681e-01,-8.101945664134050859e-03,-3.087679201945915941e-01
1.340000000000000080e-01,-1.151280147308085533e-01,1.442641500847835212e-01,-2.616785900018049893e-01
1.350000000000000089e-01,6.073179621147961615e-02,2.293280312047751845e-01,-1.832453104246015430e-01
1.360000000000000098e-01,2.005911651928602435e-01,3.066347171971967600e-01,-4.117005655472660841e-02
1.370000000000000107e-01,3.338382225185445029e-01,3.140616488434962994e-01,6.360134519398796815e-02
1.380000000000000115e-01,3.733321891342046284e-01,2.699363799100583106e-01,1.480455075701367362e-01
1.390000000000000124e-01,4.014255206612950544e-01,1.919532969607654627e-01,1.917673953619637717e-01
1.400000000000000133e-01,3.451984227672223460e-01,8.150668036052369225e-02,2.411727705339132277e-01
1.409999999999999865e-01,2.262551818003450954e-01,-2.092385233040971668e-02,2.534054637316713876e-01
1.419999999999999873e-01,9.545886675877976457e-02,-1.299629910089955820e-01,1.737467160305254943e-01
1.429999999999999882e-01,-4.480896823174016635e-02,-1.941122771375833334e-01,1.530346797420986393e-01
1.439999999999999891e-01,-1.542857422148569413e-01,-2.051205619519189949e-01,5.107929877263798352e-02
1.449999999999999900e-01,-2.499628216035013062e-01,-2.034887233880329771e-01,-4.909529095009407956e-02
1.459999999999999909e-01,-2.888569329021172249e-01,-1.519828275981431331e-01,-1.096348597123893015e-01
1.469999999999999918e-01,-2.628121422131311502e-01,-8.515964363350979338e-02,-1.789278372024965535e-01
1.479999999999999927e-01,-2.127544642103963157e-01,-1.630669948283771861e-02,-1.785913020722824651e-01
1.489999999999999936e-01,-1.271643667177643766e-01,4.049497638919390130e-02,-2.007657547711382551e-01
1.499999999999999944e-01,-2.201674728611214063e-02,1.093262828748987753e-01,-1.450654034671572945e-01
1.509999999999999953e-01,8.086738988999232769e-02,1.264145245723315991e-01,-1.046556747152211642e-01
1.519999999999999962e-01,1.576485961245981393e-01,1.285636510488847861e-01,-9.888633788563564245e-03
1.529999999999999971e-01,1.631566478175905388e-01,9.201555384826380635e-02,5.055285503030764599e-02
1.539999999999999980e-01,1.778556397856054516e-01,5.167934559729234906e-02,7.981051574707848095e-02
1.549999999999999989e-01,1.494373096660235878e-01,-1.355791898829731591e-02,1.079370853551246540e-01
1.559999999999999998e-01,9.151922709310944537e-02,-5.218284721797922937e-02,1.235297803310499570e-01
1.570000000000000007e-01,2.085779922412368467e-02,-6.093198577743489525e-02,9.448589959201458832e-02
1.580000000000000016e-01,-4.357193300004318093e-02,-1.100908262288518985e-01,6.654793651546479782e-02
1.590000000000000024e-01,-1.001588453107727650e-01,-6.921403640143983238e-02,3.252304497446185938e-02
1.600000000000000033e-01,-1.162505890462686847e-01,-2.719237412693835398e-02,-1.291760057948964507e-02
1.610000000000000042e-01,-8.962364138621765897e-02,3.454176026058163040e-02,-4.763500804933811644e-02
1.620000000000000051e-01,-7.141160904219381877e-02,5.210007832854427617e-02,-6.094156734459314773e-02
1.630000000000000060e-01,-1.277622051040376919e-02,1.159138311742034938e-01,-8.461719089715974418e-02
1.640000000000000069e-01,4.954912209433467302e-02,1.507259520904216388e-01,-5.410564179811230140e-02
1.650000000000000078e-01,1.026534674398080771e-01,1.086734497556719470e-01,-4.249438033628571976e-02
1.660000000000000087e-01,1.412842746764454704e-01,8.109160431593188945e-02,2.564883775480744990e-02
1.670000000000000095e-01,1.468199951657895297e-01,8.757023817524578480e-03,4.834964715041294159e-02
1.680000000000000104e-01,1.275281483592742016e-01,-6.253550702180228626e-02,7.817798463558334188e-02
1.690000000000000113e-01,2.964253761621023914e-02,-1.318033720519721508e-01,8.321972493686977113e-02
1.700000000000000122e-01,-1.284268747370965850e-02,-1.834898854228614595e-01,5.331656934246471052e-02
1.710000000000000131e-01,-1.121098842967617332e-01,-1.863460216783864865e-01,4.034193066518900611e-02
1.719999999999999862e-01,-1.871373660206658573e-01,-1.975205353973281397e-01,1.274753729972362241e-02
1.729999999999999871e-01,-2.126385161977182303e-01,-1.599422040760052066e-01,-4.670849270013691101e-02
1.739999999999999880e-01,-2.187070717228396799e-01,-9.035031961801867628e-02,-9.282286257636704341e-02
1.749999999999999889e-01,-2.111801209988458383e-01,3.078563589316357652e-02,-1.175518358232801319e-01
1.759999999999999898e-01,-1.088752103795985887e-01,1.244462246276227813e-01,-1.213497013394487511e-01
1.769999999999999907e-01,-1.223740196177859792e-02,2.362498932951307973e-01,-8.866157025335200115e-02
1.779999999999999916e-01,1.259781276343651391e-01,2.959222546908273355e-01,-6.999033684408371980e-02
1.789999999999999925e-01,2.619330298490160636e-01,3.140408962343483878e-01,-4.281280917584697615e-02
1.799999999999999933e-01,3.210805898808312131e-01,2.595257625671036905e-01,2.524947023930181403e-02
1.809999999999999942e-01,3.516778499273542358e-01,1.844007956844488927e-01,1.126080317101686157e-01
1.819999999999999951e-01,3.290577007610936966e-01,9.611777175161749509e-02,1.763225922313199634e-01
1.829999999999999960e-01,2.620135211442565781e-01,-6.299236756272774684e-02,1.883616299201335276e-01
1.839999999999999969e-01,1.360688949136645565e-01,-1.843293235947550956e-01,2.080989965505135042e-01
1.849999999999999978e-01,-3.671972520316889310e-02,-2.979678929865691162e-01,1.728257866930139608e-01
1.859999999999999987e-01,-1.840901778349751383e-01,-3.776230821890846912e-01,1.149220586657191678e-01
1.869999999999999996e-01,-3.139745193196599171e-01,-3.940579649962239750e-01,1.301567681169939553e-02
1.880000000000000004e-01,-4.316557992260752208e-01,-3.396447347354349389e-01,-6.759677269715338999e-02
1.890000000000000013e-01,-5.050428991931831257e-01,-2.432060261990262873e-01,-1.670966879036916153e-01
1.900000000000000022e-01,-4.440248082287750475e-01,-1.032602045235296168e-01,-2.299265634265902913e-01
1.910000000000000031e-01,-3.248664218746015742e-01,7.025031911352393188e-02,-2.367186535878662013e-01
1.920000000000000040e-01,-1.588755200457354355e-01,2.496825140292454059e-01,-2.432559297029510958e-01
1.930000000000000049e-01,3.237998374543540892e-02,3.715682715811445824e-01,-2.036126108573186322e-01
1.940000000000000058e-01,2.305398724779441078e-01,4.633173401458161589e-01,-1.304556004451258855e-01
1.950000000000000067e-01,4.045764628749574099e-01,4.509105243290235099e-01,-2.300107236394362611e-02
1.960000000000000075e-01,5.292551887616885331e-01,3.998238671457878812e-01,6.982917736873001102e-02
1.970000000000000084e-01,5.581849615547945787e-01,2.674548699760750381e-01,2.031655512830566335e-01
1.980000000000000093e-01,5.184359699963991819e-01,1.099506147489750646e-01,2.783296231840346469e-01
1.990000000000000102e-01,3.936179583064831622e-01,-9.424969294804812214e-02,3.441443219066048775e-01
2.000000000000000111e-01,2.087721256495735367e-01,-2.753936590950916696e-01,3.128704267362167890e-01
2.010000000000000120e-01,-1.891759824845528140e-02,-4.064580098623098436e-01,2.587142574961133756e-01
2.020000000000000129e-01,-2.899774676943435159e-01,-5.150215749835488355e-01,1.804145962129559966e-01
2.030000000000000138e-01,-4.797221840111998148e-01,-5.143732562310950884e-01,3.648625267758765639e-02
2.039999999999999869e-01,-5.989024176409148970e-01,-4.435041048749783221e-01,-8.694932567949999191e-02
2.049999999999999878e-01,-6.392178317977506019e-01,-2.773669141026370299e-01,-2.197073452008653227e-01
2.059999999999999887e-01,-5.806221181095415629e-01,-1.049637628720993254e-01,-3.298874117976876019e-01
2.069999999999999896e-01,-4.490414100356235894e-01,1.300296809474770776e-01,-3.668107360721352683e-01
2.079999999999999905e-01,-2.440375604618947869e-01,2.959487163020477762e-01,-3.760098690362893570e-01
2.089999999999999913e-01,2.907641577034751623e-02,4.734794704282765387e-01,-3.016295052546794642e-01
2.099999999999999922e-01,2.765444228233006618e-01,5.414992851638823490e-01,-1.951430946934107624e-01
2.109999999999999931e-01,4.808656984845266491e-01,5.459978121620100433e-01,-7.302354941711183822e-02
2.119999999999999940e-01,6.527135392011523818e-01,4.551239737574705457e-01,8.918293867748561254e-02
2.129999999999999949e-01,6.833600981263554530e-01,2.971715576355859478e-01,2.217576979643044455e-01
2.139999999999999958e-01,6.468433277556633332e-01,1.018638517741575905e-01,3.291506201491758987e-01
2.149999999999999967e-01,4.729263255302452174e-01,-1.333793307880311030e-01,4.048237776673827559e-01
2.159999999999999976e-01,2.547216913736378707e-01,-3.123930968666752128e-01,3.813215533049169048e-01
2.169999999999999984e-01,-7.327847697123026152e-03,-4.583468028375559111e-01,3.679152195533124670e-01
2.179999999999999993e-01,-2.741026602971628479e-01,-5.404216190162927091e-01,2.380528592846220259e-01
2.190000000000000002e-01,-4.812290135988639972e-01,-5.408413512337316709e-01,8.156717256351599110e-02
2.200000000000000011e-01,-6.356628084354720709e-01,-4.634736466626757090e-01,-5.991479442663714267e-02
2.210000000000000020e-01,-7.124789102214562631e-01,-3.283531159462831361e-01,-2.109040051031354501e-01
2.220000000000000029e-01,-6.735242545287349891e-01,-1.017195061239929005e-01,-3.258504936455624557e-01
2.230000000000000038e-01,-5.281634364152174577e-01,1.141245429154299218e-01,-4.080943629765991232e-01
2.240000000000000047e-01,-2.805146327990342692e-01,3.019695781970729298e-01,-4.184190142171737015e-01
2.250000000000000056e-01,-3.757002418947844036e-02,4.613436141343917329e-01,-3.455957666225581981e-01
2.260000000000000064e-01,2.497681438169763180e-01,5.529016050810984240e-01,-2.621520940020810597e-01
2.270000000000000073e-01,4.658636919035517021e-01,5.457932466555612816e-01,-1.235459684640879963e-01
2.280000000000000082e-01,6.408172947360415428e-01,4.636362673888359542e-01,5.795964616285898680e-02
2.290000000000000091e-01,6.995881770799258215e-01,2.920850598431425915e-01,1.962353068862686123e-01
2.300000000000000100e-01,6.480533871339770879e-01,5.959801975783448474e-02,3.206726662256258464e-01
2.310000000000000109e-01,4.972347445528983445e-01,-1.225984199509762979e-01,4.008247411139209126e-01
2.320000000000000118e-01,2.891586142944862492e-01,-3.061039730546800675e-01,3.979075745367736117e-01
2.330000000000000127e-01,5.434373893129200439e-02,-4.536580837261213750e-01,3.697236561803691757e-01
2.340000000000000135e-01,-1.980715911192178769e-01,-5.252001393504989180e-01,2.559416907885822545e-01
2.349999999999999867e-01,-4.257110688724484726e-01,-5.001134916072459413e-01,1.297384112272463308e-01
2.359999999999999876e-01,-5.999218462966445786e-01,-3.930137571892156068e-01,-1.126730954859680306e-02
2.369999999999999885e-01,-6.696777126096847832e-01,-2.707801265006171687e-01,-1.708749730906071740e-01
2.379999999999999893e-01,-6.104842447606052547e-01,-1.025210550449922875e-01,-2.947910998911364988e-01
2.389999999999999902e-01,-5.261919196747956162e-01,8.654101726006610540e-02,-3.786524709515822207e-01
2.399999999999999911e-01,-2.995380409983286474e-01,2.800989961839955300e-01,-4.159788515318831315e-01
2.409999999999999920e-01,-4.536125083149818854e-02,4.177690638559136693e-01,-3.518291090368623197e-01
2.419999999999999929e-01,1.908665466537455835e-01,4.611638789658206172e-01,-2.625916311660207447e-01
2.429999999999999938e-01,3.773708733095197387e-01,4.341431190462929912e-01,-1.603782546694815514e-01
2.439999999999999947e-01,5.293728165925066786e-01,3.596784065955920817e-01,-7.124782222497776790e-03
2.449999999999999956e-01,6.002413318385342311e-01,2.429303065432076025e-01,1.344174212944107827e-01
2.459999999999999964e-01,5.587452352742902084e-01,6.386297109631007551e-02,2.700827356960849857e-01
2.469999999999999973e-01,4.316178350021084853e-01,-1.118052580705841126e-01,3.392505453808303817e-01
2.479999999999999982e-01,2.675797273501983042e-01,-2.503149491483148692e-01,3.604391536806630381e-01
2.489999999999999991e-01,6.309203692056521151e-02,-3.533659906556851360e-01,3.299382743803462859e-01
2.500000000000000000e-01,-1.588779026644238923e-01,-3.807399737346588431e-01,2.635157026569041050e-01
2.510000000000000009e-01,-3.139097963508201694e-01,-3.722331066380246134e-01,1.616890192502706547e-01
2.520000000000000018e-01,-4.483447941686972693e-01,-2.891091575359062138e-01,2.643768607896095427e-02
2.530000000000000027e-01,-5.288843364755411169e-01,-1.857479113558838102e-01,-9.467007602240747055e-02
2.540000000000000036e-01,-4.688019334687600348e-01,-3.166833872987538656e-02,-2.191459753187297022e-01
2.550000000000000044e-01,-3.711520474620279009e-01,8.219943273565565034e-02,-2.818323881711137791e-01
2.560000000000000053e-01,-2.202607924159745989e-01,2.106970914857445587e-01,-3.156534177622874471e-01
2.570000000000000062e-01,-4.386875438136397798e-02,3.017641308228319885e-01,-2.934401362334239094e-01
2.580000000000000071e-01,1.256329277149681456e-01,2.941971699672863427e-01,-2.219116548170742276e-01
2.590000000000000080e-01,2.606398299188514844e-01,2.615528440640243479e-01,-1.205290294667705486e-01
2.600000000000000089e-01,3.578827448727451843e-01,2.024637057325431311e-01,-1.768499075345910873e-02
2.610000000000000098e-01,4.119604149998511433e-01,1.089016427950735832e-01,6.860689704629627239e-02
2.620000000000000107e-01,3.597875102693441351e-01,-3.252443165391479853e-03,1.533459032951565437e-01
2.630000000000000115e-01,2.806325264038836975e-01,-9.742029726614151453e-02,2.371870604605778032e-01
2.640000000000000124e-01,1.578336667296461326e-01,-1.610473249016281250e-01,2.540667358204746762e-01
2.650000000000000133e-01,8.685157405013042842e-03,-2.017424364043938489e-01,2.196124584500926125e-01
2.660000000000000142e-01,-1.333401222160571220e-01,-2.146276364847669038e-01,1.881427746183180483e-01
2.670000000000000151e-01,-2.084113929501125173e-01,-1.602498222880475165e-01,1.164277425172808161e-01
2.680000000000000160e-01,-2.605558267872501443e-01,-1.081632814829967676e-01,3.351536048794198641e-02
2.690000000000000169e-01,-2.710345507643243668e-01,-5.015946087648796847e-02,-5.982851384731695255e-02
2.700000000000000178e-01,-2.312569557313402246e-01,3.074939010549507246e-02,-1.252038832729430451e-01
2.710000000000000187e-01,-1.775208886005931463e-01,1.035162932739804725e-01,-1.642658546926177299e-01
2.720000000000000195e-01,-8.273546392524147586e-02,1.065657164965657516e-01,-1.685833333998264794e-01
2.730000000000000204e-01,3.471344312585937508e-02,1.218224940749995100e-01,-1.746297521691154986e-01
2.740000000000000213e-01,1.321306430488519423e-01,1.200589331081592243e-01,-1.235913324570777905e-01
2.750000000000000222e-01,1.516081586945522419e-01,6.478238136317618356e-02,-7.203204930855471033e-02
2.760000000000000231e-01,1.589773613932112806e-01,-2.069700352718647704e-02,-8.618503785165579703e-03
2.770000000000000240e-01,1.534374401791880616e-01,-5.306318636186620891e-02,7.073930537511274874e-02
2.780000000000000249e-01,1.068619153402644156e-01,-8.446209629977854960e-02,9.849700799702855447e-02
2.790000000000000258e-01,6.155543581785569152e-02,-7.890979522721598693e-02,1.256327883114325972e-01
2.800000000000000266e-01,-1.145116088159015867e-02,-7.824682613797781516e-02,1.137562592184641064e-01
2.810000000000000275e-01,-9.557033107980031361e-02,-3.815875527052104560e-02,8.977893929819538710e-02
2.819999999999999729e-01,-1.006678706670924572e-01,6.263222189219268439e-03,4.076816470745493054e-02
2.829999999999999738e-01,-1.234179892282143559e-01,5.957784281892040262e-02,6.387341879243854312e-03
2.839999999999999747e-01,-9.264878966361329848e-02,1.123609549972540977e-01,-3.123591749047944371e-02
2.849999999999999756e-01,-4.254293218401062476e-02,1.232915013906683566e-01,-6.313971749049679394e-02
2.859999999999999765e-01,4.564000840759604299e-02,1.446715134621869570e-01,-6.007603840677896295e-02
2.869999999999999774e-01,9.444370539063282055e-02,9.602112461578304892e-02,-7.532779779908228834e-02
2.879999999999999782e-01,1.322449913762378249e-01,5.543381950445840783e-02,-5.093128760341988220e-02
2.889999999999999791e-01,1.273602579233917564e-01,-3.047025530573629903e-02,-1.066156532469314175e-02
2.899999999999999800e-01,1.040148230765584325e-01,-1.104774008648257561e-01,-8.963624527401091446e-03
2.909999999999999809e-01,9.601445342259361249e-02,-1.681322055592851250e-01,7.397991193670801213e-02
2.919999999999999818e-01,-1.478461407466489033e-02,-2.237829310349933321e-01,6.910780589866792611e-02
2.929999999999999827e-01,-7.086694401188553538e-02,-2.226191033724031210e-01,9.437862643157332587e-02
2.939999999999999836e-01,-1.713666898226502422e-01,-1.678868673255551058e-01,6.202184277847959393e-02
2.949999999999999845e-01,-2.335170622086949477e-01,-1.134611515177678526e-01,4.410840086348804395e-02
2.959999999999999853e-01,-2.262898030187449061e-01,-1.368973158575906984e-02,-5.037657672261622310e-03
2.969999999999999862e-01,-2.251042726425538654e-01,6.687793712661804779e-02,-5.420101811614399384e-02
2.979999999999999871e-01,-1.796653994328480941e-01,1.912457665964498732e-01,-8.837518844625734393e-02
2.989999999999999880e-01,-8.674084783080486527e-02,2.432223750802322837e-01,-1.352252868326971058e-01
2.999999999999999889e-01,4.155752429385416169e-02,2.878896842832572855e-01,-1.412281201480281578e-01
3.009999999999999898e-01,1.631630352009114937e-01,3.070720538942138811e-01,-1.103689159214946008e-01
3.019999999999999907e-01,3.052977638781505521e-01,2.545139111641309126e-01,-6.878424958423776103e-02
3.029999999999999916e-01,3.500965078982058998e-01,1.233029720484527803e-01,-1.833390134300892736e-03
3.039999999999999925e-01,3.620156623345045510e-01,-9.800551594634172858e-03,4.515054373651299080e-02
3.049999999999999933e-01,3.114891296062621273e-01,-1.510098636862067523e-01,1.220860005285481498e-01
3.059999999999999942e-01,2.031022571837613477e-01,-2.800620075692193400e-01,1.836660496916135699e-01
3.069999999999999951e-01,6.511877517919927028e-02,-3.672817609742624057e-01,1.795945015271732947e-01
3.079999999999999960e-01,-1.027121309593960197e-01,-3.796246434944366976e-01,1.906422514935936785e-01
3.089999999999999969e-01,-2.522440244985136859e-01,-3.638455369595126609e-01,1.401904142917227147e-01
3.099999999999999978e-01,-3.934317883802183613e-01,-2.632100427841234103e-01,1.075535067331165467e-01
3.109999999999999987e-01,-4.483203560197039916e-01,-1.408983895111846907e-01,-6.889048746261484078e-03
3.119999999999999996e-01,-4.662560429827067310e-01,2.166115116889679934e-02,-1.065865842077069747e-01
3.130000000000000004e-01,-3.825383777697074494e-01,1.972631897308055882e-01,-1.716827473928008441e-01
3.140000000000000013e-01,-2.726531784204463404e-01,3.414685046410031455e-01,-2.358034968884038240e-01
3.150000000000000022e-01,-7.297876960273791402e-02,4.338142597734223616e-01,-2.626473241854679341e-01
3.160000000000000031e-01,1.407507849566905778e-01,4.658663129373990519e-01,-2.805124203462804333e-01
3.170000000000000040e-01,3.322043425889700807e-01,4.355886155042953400e-01,-1.938164590952960453e-01
3.180000000000000049e-01,4.601787404870714693e-01,3.082371067260913922e-01,-9.916717570103066037e-02
3.190000000000000058e-01,5.455321214007644581e-01,1.545654404385071456e-01,-3.867834113888132114e-03
3.200000000000000067e-01,5.577707805794375195e-01,-4.248232671180837694e-02,1.495246380669893183e-01
3.210000000000000075e-01,4.573633620678477785e-01,-2.340501844615456850e-01,2.303489170684848708e-01
3.220000000000000084e-01,3.301046459779194975e-01,-3.970973820686831135e-01,3.043599942269981651e-01
3.230000000000000093e-01,8.309907139430607048e-02,-4.827760143325880438e-01,3.218990064393290051e-01
3.240000000000000102e-01,-1.486353464903265587e-01,-5.438775586627733194e-01,2.899412279714561613e-01
3.250000000000000111e-01,-3.644351318336567780e-01,-4.652950055333630042e-01,2.318068899475942413e-01
3.260000000000000120e-01,-5.362704550372017209e-01,-3.368234844324278221e-01,1.503568547776592546e-01
3.270000000000000129e-01,-6.180700362764309785e-01,-1.471943399141021069e-01,-4.093336008766546887e-03
3.280000000000000138e-01,-6.291220030390314299e-01,2.299722112641485253e-02,-1.150873019954115895e-01
3.290000000000000147e-01,-5.360850005395816353e-01,2.483197622062911225e-01,-2.558006328608630198e-01
3.300000000000000155e-01,-3.286702109658768967e-01,4.215838191645006616e-01,-3.365502624396748965e-01
3.310000000000000164e-01,-1.276293922928762037e-01,5.286735010027866499e-01,-3.627365996962955141e-01
3.320000000000000173e-01,1.347547083635525778e-01,5.622193838287503631e-01,-3.501480530724360718e-01
3.330000000000000182e-01,3.813802746879776939e-01,5.107498012111258978e-01,-2.888899028633659105e-01
3.340000000000000191e-01,5.826999137534307760e-01,3.574163098928501703e-01,-1.746913492578554550e-01
3.350000000000000200e-01,6.731158489457341743e-01,1.719017776161893551e-01,-2.890947247599001679e-02
3.360000000000000209e-01,6.670984479390441590e-01,-6.235001715903976810e-02,1.208620194956583349e-01
3.370000000000000218e-01,5.675269322833474961e-01,-2.628469739732305910e-01,2.631063022266871276e-01
3.380000000000000226e-01,3.935718431484611646e-01,-4.445963871655572719e-01,3.348006661777379600e-01
3.390000000000000235e-01,1.339030000888001559e-01,-5.444715573284595322e-01,4.146937411527939488e-01
3.400000000000000244e-01,-1.491774481779597206e-01,-5.637787426256152257e-01,3.905104608252691900e-01
3.410000000000000253e-01,-3.970246695744186760e-01,-5.113436420175013764e-01,3.365293886284851377e-01
3.420000000000000262e-01,-5.896379756438938635e-01,-3.545536639730862416e-01,2.220883287222346347e-01
3.430000000000000271e-01,-6.953911228128585309e-01,-1.715761116019185739e-01,6.345807544362869201e-02
3.439999999999999725e-01,-7.048525440095748662e-01,4.166406305787839076e-02,-9.039426803280059541e-02
3.449999999999999734e-01,-6.098025355294449668e-01,2.609548218299876932e-01,-2.575654365258319145e-01
3.459999999999999742e-01,-4.042632928056718034e-01,4.277495405330855593e-01,-3.635941634446123172e-01
3.469999999999999751e-01,-1.619597369465072545e-01,5.567678850688930758e-01,-4.155265493817149047e-01
3.479999999999999760e-01,1.149286504936406217e-01,5.475719072497635675e-01,-4.149155671872075124e-01
3.489999999999999769e-01,3.635491757701515558e-01,4.661350458036859212e-01,-3.440949569479757608e-01
3.499999999999999778e-01,5.520553606305734773e-01,3.377726920291089230e-01,-2.441341638681639448e-01
3.509999999999999787e-01,6.717013619613645403e-01,1.683378108347768909e-01,-7.706835732041301956e-02
3.519999999999999796e-01,6.753620066593537530e-01,-6.227841186494540576e-02,8.306001331963677736e-02
3.529999999999999805e-01,6.066380917153141317e-01,-2.365424461438914161e-01,2.153967491288585334e-01
3.539999999999999813e-01,4.145735388252140274e-01,-4.085964173576330238e-01,3.424887925332117389e-01
3.549999999999999822e-01,1.797292059451054969e-01,-4.725766588840372151e-01,4.033104200484534108e-01
3.559999999999999831e-01,-9.898662726350269947e-02,-5.217413572434179692e-01,4.043668290829857681e-01
3.569999999999999840e-01,-3.443530190241317901e-01,-4.374945607957897442e-01,3.569929607274128780e-01
3.579999999999999849e-01,-5.354320486431262127e-01,-3.230432950747083032e-01,2.476570449590355938e-01
3.589999999999999858e-01,-6.365649956993505443e-01,-1.423693730422292691e-01,1.022857664900494457e-01
3.599999999999999867e-01,-6.478994621208974403e-01,5.576828961329381024e-02,-5.282127606403831666e-02
3.609999999999999876e-01,-5.831677184231808253e-01,1.985914662071121273e-01,-1.876591384480056357e-01
3.619999999999999885e-01,-4.068348030392506809e-01,3.643909227544101515e-01,-3.114370368548288193e-01
3.629999999999999893e-01,-1.826376182085172883e-01,4.433174436104443394e-01,-3.895142058746628444e-01
3.639999999999999902e-01,4.509572100956055901e-02,4.679996058997947794e-01,-3.841192590296638731e-01
3.649999999999999911e-01,2.788092744876996543e-01,4.020572271676089993e-01,-3.504540581367079355e-01
3.659999999999999920e-01,4.598624124206539543e-01,2.794133212061016280e-01,-2.412868935605689269e-01
3.669999999999999929e-01,5.670979768139855492e-01,1.168667884397300849e-01,-1.200037447082018954e-01
3.679999999999999938e-01,5.866748333627265222e-01,-5.780277129807961933e-02,3.666090365032067394e-02
3.689999999999999947e-01,5.200578714277012127e-01,-1.892629089363936368e-01,1.668832559713853414e-01
3.699999999999999956e-01,3.521840232095383438e-01,-3.147536392382771497e-01,2.778694125943245719e-01
3.709999999999999964e-01,1.808819868608567139e-01,-3.740885760179713526e-01,3.613287436330204772e-01
3.719999999999999973e-01,-5.266593936800328946e-02,-3.628189798741187078e-01,3.426768382207675545e-01
3.729999999999999982e-01,-2.477036627244481037e-01,-3.000906114259453972e-01,3.211743351221288956e-01
3.739999999999999991e-01,-4.048698053213603543e-01,-2.224935057738240962e-01,2.419675836284879700e-01
3.750000000000000000e-01,-4.816631622933296164e-01,-8.531405725437406218e-02,1.267696860001485404e-01
3.760000000000000009e-01,-4.950886853141504007e-01,6.013519514898137130e-02,-3.438068944237838813e-03
3.770000000000000018e-01,-4.315037904534377855e-01,1.506195919601852617e-01,-1.183491513377945697e-01
3.780000000000000027e-01,-2.923566205681874530e-01,2.641245172854130852e-01,-2.281382032631311951e-01
3.790000000000000036e-01,-1.197103759785025229e-01,2.925812929478609492e-01,-2.932007984258096500e-01
3.800000000000000044e-01,5.015482251882208420e-02,2.713798623329440329e-01,-2.998533657699645194e-01
3.810000000000000053e-01,2.020740910751213371e-01,2.223266083786255287e-01,-2.989247180427269668e-01
3.820000000000000062e-01,3.230909553754230945e-01,1.385343920769319392e-01,-2.143619932894553493e-01
3.830000000000000071e-01,3.676930841846733911e-01,2.330283739003941729e-02,-1.380364922012639328e-01
3.840000000000000080e-01,3.965440204539518176e-01,-6.390333914951794314e-02,4.927749610806944451e-03
3.850000000000000089e-01,3.202584780224463357e-01,-1.252009388529004286e-01,1.096543100413942817e-01
3.860000000000000098e-01,2.126713172608843683e-01,-1.686829598417169118e-01,2.080165060735550964e-01
3.870000000000000107e-01,7.054475871755426508e-02,-2.345019184651637723e-01,2.427692716758426961e-01
3.880000000000000115e-01,-3.619851322840640651e-02,-1.884638060690164707e-01,2.478693999490793609e-01
3.890000000000000124e-01,-1.669965235675517634e-01,-1.110890436944272502e-01,2.309056510468915080e-01
3.900000000000000133e-01,-2.468951576410527704e-01,-6.528967455075715409e-02,1.675683290680663184e-01
3.910000000000000142e-01,-2.876747278551615161e-01,1.156842094831351392e-02,9.918119781541161195e-02
3.920000000000000151e-01,-2.629774758663107614e-01,8.812312513962826388e-02,8.792529136835125145e-03
3.930000000000000160e-01,-2.036532446092896576e-01,1.137364735428542245e-01,-6.844071237441433364e-02
3.940000000000000169e-01,-1.188447072451969677e-01,1.184346847798630753e-01,-1.503212281818684104e-01
3.950000000000000178e-01,-2.876690424571554799e-02,1.031137233960849053e-01,-1.827473284686507160e-01
3.960000000000000187e-01,6.150315865732992188e-02,5.000194659423935067e-02,-1.868301468470836002e-01
3.970000000000000195e-01,1.249360193004413894e-01,1.648637164039034111e-02,-1.571328316850804652e-01
3.980000000000000204e-01,1.867203189121470763e-01,-2.536461751585302252e-02,-1.053220791936853168e-01
3.990000000000000213e-01,1.688213605669119932e-01,-6.129153476474668433e-02,-5.708377549265353235e-02
4.000000000000000222e-01,1.505501264894466840e-01,-1.129391328267762562e-01,6.097398243795211850e-03
4.010000000000000231e-01,7.695170743647264389e-02,-1.001865336754071273e-01,8.741163603216613176e-02
4.020000000000000240e-01,-9.007459982713314148e-03,-7.576756298859370353e-02,1.119758441513738628e-01
4.030000000000000249e-01,-6.890296319052024998e-02,-6.930949458227841573e-03,9.047757152050978080e-02
4.040000000000000258e-01,-9.601545225250343596e-02,4.799509764789578609e-02,1.022499341923094190e-01
4.050000000000000266e-01,-1.107351510842248948e-01,8.322558669578626611e-02,9.112550056160331757e-02
4.060000000000000275e-01,-1.053928843031081142e-01,1.448253360630059050e-01,3.735184737863398580e-02
4.069999999999999729e-01,-6.586207491106488288e-02,1.471903014325416648e-01,-1.825474537963272387e-02
4.079999999999999738e-01,1.363666297939082617e-02,1.203562210696139806e-01,-2.478564654189095023e-02
4.089999999999999747e-01,5.692813804086530038e-02,6.771201191930308061e-02,-6.913643845208256034e-02
4.099999999999999756e-01,1.332237505583112880e-01,4.694628264209961370e-03,-5.257960709910881186e-02
4.109999999999999765e-01,1.657815726671149903e-01,-7.439854563581216329e-02,-5.845057462444734619e-02
4.119999999999999774e-01,1.605095953927485608e-01,-1.419528935460028229e-01,-3.692239493602182676e-02
4.129999999999999782e-01,1.097560193117787103e-01,-1.946015088751129329e-01,-1.809982454292295359e-02
4.139999999999999791e-01,4.211869096795683998e-02,-2.332595836191940220e-01,4.080695997195347285e-02
4.149999999999999800e-01,-2.709368983827883243e-02,-1.938911283706311606e-01,8.528357766119257222e-02
4.159999999999999809e-01,-1.134074551062499159e-01,-1.442948737474593901e-01,8.806216172475668513e-02
4.169999999999999818e-01,-2.002810883988225821e-01,-3.569512888561814090e-02,7.881982633119376247e-02
4.179999999999999827e-01,-2.330521175310532045e-01,5.382520456312394480e-02,4.382650593042180381e-02
4.189999999999999836e-01,-2.559493757380010281e-01,1.793242574016886415e-01,4.156546480572469171e-02
4.199999999999999845e-01,-2.194055600584629562e-01,2.685517862298044123e-01,-2.327909063005393145e-02
4.209999999999999853e-01,-1.151013910158064646e-01,2.895237335741400186e-01,-6.949752040965968825e-02
4.219999999999999862e-01,-2.425836218214838785e-03,3.117153709570978370e-01,-1.171731972070446104e-01
4.229999999999999871e-01,1.036854567981564945e-01,2.595049388568583804e-01,-1.440604698898684810e-01
4.239999999999999880e-01,2.501157349578905786e-01,1.644548110814630648e-01,-1.426088074628083235e-01
4.249999999999999889e-01,3.111152372592345117e-01,4.102285231270172416e-02,-1.116808783168279223e-01
4.259999999999999898e-01,3.617654494027190415e-01,-9.917451960259428267e-02,-5.688550626943682936e-02
4.269999999999999907e-01,3.514292849835969346e-01,-2.288473948532305513e-01,2.478106667633870122e-02
4.279999999999999916e-01,2.670967797782913267e-01,-3.300367699455795667e-01,8.218959129408270892e-02
4.289999999999999925e-01,1.465598263872978924e-01,-4.138774760327296742e-01,1.493514213338247854e-01
4.299999999999999933e-01,-3.103261337685334423e-02,-3.844225807295532649e-01,1.848932256153480447e-01
4.309999999999999942e-01,-1.654973151201247217e-01,-3.215913932517096563e-01,1.746975294859017813e-01
4.319999999999999951e-01,-3.383976954370957468e-01,-1.878270004260514103e-01,1.824052681307025414e-01
4.329999999999999960e-01,-4.357101988288733518e-01,-1.822364655487746996e-02,1.447658997599579056e-01
4.339999999999999969e-01,-4.769417409929653240e-01,1.293676102072579270e-01,4.803792254243182541e-02
4.349999999999999978e-01,-4.421166453054576895e-01,2.714620275306200980e-01,-3.339601378587653963e-02
4.359999999999999987e-01,-3.383060309262619358e-01,4.304469636894613926e-01,-1.154165701011646422e-01
4.369999999999999996e-01,-1.731280878297895565e-01,4.656802804225870229e-01,-2.097610074279571968e-01
4.380000000000000004e-01,2.238478202350038457e-02,4.674002354750822485e-01,-2.552024039628367214e-01
4.390000000000000013e-01,2.346232356854388024e-01,3.465977116738168662e-01,-2.499144200012000383e-01
4.400000000000000022e-01,4.019820536562809798e-01,2.216263872937728474e-01,-2.398760955511893278e-01
4.410000000000000031e-01,5.222848244421566255e-01,6.372447646365346496e-03,-1.765439363550678209e-01
4.420000000000000040e-01,5.864355609553530968e-01,-1.788650858338080574e-01,-9.544449646796542008e-02
4.430000000000000049e-01,5.462759776384630284e-01,-3.383103387011451857e-01,1.140613846552278147e-02
4.440000000000000058e-01,3.982162901189510440e-01,-4.680880125935731884e-01,1.770717246212459017e-01
4.450000000000000067e-01,2.098179424843523988e-01,-5.108547507205866145e-01,2.458698506414461749e-01
4.460000000000000075e-01,-5.543687865024794249e-04,-4.988873069183720754e-01,3.107894416313873309e-01
4.470000000000000084e-01,-2.710744070975525943e-01,-4.112110569265280402e-01,3.399480990207920383e-01
4.480000000000000093e-01,-4.532067197392083968e-01,-2.327618989219001899e-01,3.071055116052341383e-01
4.490000000000000102e-01,-5.969125964823398522e-01,-2.141681977432273454e-02,2.248394051307011088e-01
4.500000000000000111e-01,-6.453211822502047390e-01,1.807310080161171062e-01,1.172068092278218815e-01
4.510000000000000120e-01,-5.936964825609690743e-01,3.591507058774977001e-01,-3.313531464379351754e-02
4.520000000000000129e-01,-4.624209318264151380e-01,4.936277077198899521e-01,-1.564596867534465419e-01
4.530000000000000138e-01,-2.570375966197282480e-01,5.506304173644376299e-01,-2.773574171457138249e-01
4.540000000000000147e-01,8.302373959305213436e-03,5.170270637253004953e-01,-3.570103090464195050e-01
4.550000000000000155e-01,2.592016192130423002e-01,3.892167412789685477e-01,-3.802312980269459408e-01
4.560000000000000164e-01,4.765027585889139439e-01,2.442171014940186791e-01,-3.334514794450217368e-01
4.570000000000000173e-01,6.411856889724685260e-01,3.656892628767331732e-02,-2.683409214699440937e-01
4.580000000000000182e-01,7.030679975736126019e-01,-2.122743604887341040e-01,-1.366215376431985651e-01
4.590000000000000191e-01,6.313660571652721654e-01,-3.933719321295930382e-01,2.350871471606026664e-02
4.600000000000000200e-01,5.043518236061215188e-01,-5.067388469385684102e-01,1.659442188013694752e-01
4.610000000000000209e-01,3.024734167874625346e-01,-5.508934975999749684e-01,2.913255045471336291e-01
4.620000000000000218e-01,2.061221599687695916e-02,-5.322590950640241347e-01,3.712675384128310552e-01
4.630000000000000226e-01,-2.537575840340793309e-01,-4.088174446842811061e-01,3.936942059012284445e-01
4.640000000000000235e-01,-4.851490680140432832e-01,-2.327379125303169205e-01,3.983844892340122623e-01
4.650000000000000244e-01,-6.341372307246150308e-01,-2.629559421509018377e-02,3.025904963459876695e-01
4.660000000000000253e-01,-6.934583621202641268e-01,1.886061701014893344e-01,1.935422921906174154e-01
4.670000000000000262e-01,-6.591810165164259105e-01,3.857770260172013188e-01,2.305570369542448567e-02
4.680000000000000271e-01,-5.132383649872882536e-01,5.148616098139234820e-01,-1.388784561115803118e-01
4.689999999999999725e-01,-3.016128362478271985e-01,5.434236468812866372e-01,-2.570794475880231467e-01
4.699999999999999734e-01,-3.892442392164170706e-02,5.167877453279127176e-01,-3.814490531720831079e-01
4.709999999999999742e-01,2.456660041969931652e-01,3.924322210513297438e-01,-4.376966285027579229e-01
4.719999999999999751e-01,4.750658645189446694e-01,2.336728790951455026e-01,-3.895908395645802935e-01
4.729999999999999760e-01,6.217279733104886796e-01,4.740373739395826319e-02,-3.281875389371064489e-01
4.739999999999999769e-01,6.804235030968635023e-01,-1.994767696973324678e-01,-1.973436005798855919e-01
4.749999999999999778e-01,6.401065281345271751e-01,-3.547452652607747114e-01,-4.651104986427832821e-02
4.759999999999999787e-01,5.164262541272709450e-01,-4.841627830161020496e-01,9.747803254159503883e-02
4.769999999999999796e-01,3.068221027887966801e-01,-5.346314674940868539e-01,2.514097856725878710e-01
4.779999999999999805e-01,5.291069634552010570e-02,-4.627887265784080828e-01,3.658135154205728878e-01
4.789999999999999813e-01,-2.014574101783003501e-01,-3.769186329615074604e-01,4.089132438495668431e-01
4.799999999999999822e-01,-4.359769086238964864e-01,-1.937612978106248995e-01,3.931646020484263482e-01
4.809999999999999831e-01,-5.997234016434658255e-01,-2.752599369441144448e-03,3.548038663406480331e-01
4.819999999999999840e-01,-6.620966059065608311e-01,1.738363292319463627e-01,2.339580741878271863e-01
4.829999999999999849e-01,-6.301540749139190600e-01,2.994741591572828709e-01,7.620823837819010182e-02
4.839999999999999858e-01,-5.077747501450701195e-01,4.271260327773454546e-01,-9.157742318483765021e-02
4.849999999999999867e-01,-3.051406984074498951e-01,4.345193412053152682e-01,-2.407940565787715925e-01
4.859999999999999876e-01,-6.880506574461296709e-02,4.304730422889066488e-01,-3.393860128457591441e-01
4.869999999999999885e-01,1.826362708075795482e-01,3.131561804267216642e-01,-3.882851150641693505e-01
4.879999999999999893e-01,3.789275861792577027e-01,1.662461321390877877e-01,-3.905549412543674048e-01
4.889999999999999902e-01,5.330081152366830111e-01,2.235770729994305400e-02,-3.260387463077776826e-01
4.899999999999999911e-01,5.587861860693397187e-01,-1.412864996427000974e-01,-2.289673101043788461e-01
4.909999999999999920e-01,5.520014233866905595e-01,-2.668428462036661619e-01,-8.479659824194799023e-02
4.919999999999999929e-01,4.484143642010328112e-01,-3.535918728827961988e-01,5.348803840758242084e-02
4.929999999999999938e-01,2.774833973550844268e-01,-3.767028944141688207e-01,2.137457806500884239e-01
4.939999999999999947e-01,7.693351655875417527e-02,-3.425688392095096457e-01,2.988949123180700829e-01
4.949999999999999956e-01,-1.397726994243725374e-01,-2.689501787434111502e-01,3.588232358784296805e-01
4.959999999999999964e-01,-3.041961348498981033e-01,-1.191240629018304464e-01,3.716724493820778297e-01
4.969999999999999973e-01,-4.430396079204025894e-01,1.680245454544929129e-02,2.836457949259845179e-01
4.979999999999999982e-01,-4.906635189085347681e-01,1.332544358723137534e-01,2.176754112505460137e-01
4.989999999999999991e-01,-4.706662114095266358e-01,2.337174283030110378e-01,7.609996114890059393e-02
5.000000000000000000e-01,-3.813607630306138918e-01,2.691396451119172917e-01,-3.329495797920242750e-02
5.010000000000000009e-01,-2.225712378213090537e-01,2.848828349154365336e-01,-1.418626898559292027e-01
5.020000000000000018e-01,-4.292341238282637583e-02,2.360001967922843169e-01,-2.513145851763028404e-01
5.030000000000000027e-01,1.305874369540729885e-01,1.618122687743745181e-01,-2.957241544119126875e-01
5.040000000000000036e-01,2.608884321362932579e-01,7.493985531616911833e-02,-2.815700955468961042e-01
5.050000000000000044e-01,3.668725617499550284e-01,-4.310343903862254300e-02,-2.763075182562437782e-01
5.060000000000000053e-01,3.898119794113806269e-01,-1.274983407251424894e-01,-1.867570475636204375e-01
5.070000000000000062e-01,3.599608136310918360e-01,-1.892902381185295746e-01,-9.599933445599807824e-02
5.080000000000000071e-01,2.649201891490096661e-01,-1.794641669529460082e-01,1.460803098647535554e-02
5.090000000000000080e-01,1.612792481881711593e-01,-1.766609576673369708e-01,1.277936530820261707e-01
5.100000000000000089e-01,3.624531560765435062e-02,-1.157654953350570198e-01,2.003711418866658267e-01
5.110000000000000098e-01,-1.130943359280981164e-01,-6.476885343072018297e-02,2.453381612705029524e-01
5.120000000000000107e-01,-1.865946496626599282e-01,-9.009063000186791001e-03,2.587507847790931903e-01
5.130000000000000115e-01,-2.562201544011964427e-01,7.575515352136868996e-02,1.995417418757242101e-01
5.140000000000000124e-01,-2.650867595740906690e-01,9.795456662028137473e-02,1.343676126980526131e-01
5.150000000000000133e-01,-2.194684650572014117e-01,1.270123126876568365e-01,6.018938073528223853e-02
5.160000000000000142e-01,-1.669413440223620759e-01,1.181702424399011797e-01,-2.950349770777237549e-02
5.170000000000000151e-01,-6.657890063192239971e-02,8.987910151768553624e-02,-9.566921451029726520e-02
5.180000000000000160e-01,2.646661977304554103e-02,9.132335596936080532e-03,-1.327110826319901071e-01
5.190000000000000169e-01,1.069174055099997578e-01,-2.566503997796273223e-02,-1.797268820917665155e-01
5.200000000000000178e-01,1.581359733145136781e-01,-5.527774245102912154e-02,-1.784152808348409280e-01
5.210000000000000187e-01,1.794412434860059025e-01,-9.126218031024264932e-02,-1.534156194352384872e-01
5.220000000000000195e-01,1.404166762782443623e-01,-9.566400200053916392e-02,-8.757225004383933920e-02
5.230000000000000204e-01,1.005899071035615128e-01,-5.310021695951176041e-02,-2.799304014475371971e-02
5.240000000000000213e-01,4.141123461973723191e-02,-1.890035689178196088e-02,1.236663994295285861e-02
5.250000000000000222e-01,-2.168113026284678585e-02,4.814683738462687684e-02,6.531375328061052310e-02
5.260000000000000231e-01,-7.989565416339922121e-02,7.720542341117128671e-02,9.464537610657025590e-02
5.270000000000000240e-01,-1.447475902045411156e-01,1.436307651610607694e-01,1.117832190451359398e-01
5.280000000000000249e-01,-1.253803544847759688e-01,1.255286378005169845e-01,8.459772184525682359e-02
5.290000000000000258e-01,-5.288971036924736829e-02,1.317274070657227236e-01,5.481762699670069544e-02
5.300000000000000266e-01,-3.259270963205843086e-02,7.626061173486124722e-02,1.869055789123147057e-02
5.310000000000000275e-01,3.301493380726810284e-02,1.043352992593236245e-02,-3.837942548807534576e-02
5.320000000000000284e-01,1.077954028205821563e-01,-7.922654527972590455e-02,-6.282856748845155881e-02
5.330000000000000293e-01,1.447459293470087227e-01,-1.273390659113783352e-01,-8.129218944293754856e-02
5.340000000000000302e-01,1.350007808419018684e-01,-1.986334818103727695e-01,-6.728887766936467174e-02
5.350000000000000311e-01,1.236529925389837914e-01,-2.360888185928230742e-01,-5.004593251984947033e-02
5.360000000000000320e-01,7.912739424815691536e-02,-2.253775063620135632e-01,-3.360052821162013564e-02
5.370000000000000329e-01,1.348323356138874177e-02,-1.925960837164999995e-01,7.046427510396347600e-05
5.380000000000000338e-01,-9.777945118061888430e-02,-9.338277278520248914e-02,5.624532430060816962e-02
5.390000000000000346e-01,-1.886358375080776084e-01,3.044745370980078344e-02,9.198005033165516930e-02
5.400000000000000355e-01,-2.302836776443277222e-01,1.327793801726760703e-01,7.684673239322364902e-02
5.410000000000000364e-01,-2.515766154106149344e-01,2.431772932036543322e-01,8.028804497160985099e-02
5.420000000000000373e-01,-2.462789809049373557e-01,3.052304530349818634e-01,3.736905319200690273e-02
5.430000000000000382e-01,-1.708478826875300116e-01,2.940838893343054039e-01,-1.223137188862971451e-02
5.440000000000000391e-01,-7.214169043500121004e-02,2.831355395872197089e-01,-9.543430308477448762e-03
5.450000000000000400e-01,6.219436039340851818e-02,2.073939117927755815e-01,-1.081471885991592830e-01
5.460000000000000409e-01,1.732534314505174700e-01,8.740784044883899429e-02,-1.388520643692129908e-01
5.470000000000000417e-01,2.922833354577696330e-01,-7.099898842708596280e-02,-1.298199645499180932e-01
5.480000000000000426e-01,3.467473933971109701e-01,-2.231333819187221457e-01,-1.422900554174284238e-01
5.490000000000000435e-01,3.638843812389592203e-01,-3.305393597491296798e-01,-1.220974438209794927e-01
5.500000000000000444e-01,3.251865772988077885e-01,-3.991105810889913341e-01,-2.427348992067062880e-02
5.510000000000000453e-01,2.345025139420227611e-01,-4.066452851857073614e-01,3.323024079841610523e-02
5.520000000000000462e-01,8.063350900676471977e-02,-3.442215888495037679e-01,1.113840836045225241e-01
5.530000000000000471e-01,-8.658883373918485615e-02,-2.512516172608990073e-01,1.834314658460528824e-01
5.540000000000000480e-01,-2.755286580660507023e-01,-7.706794286595956833e-02,1.908871493728119817e-01
5.550000000000000488e-01,-3.905011166656302546e-01,9.228913931571122720e-02,2.173297606953225602e-01
5.560000000000000497e-01,-4.755601167934656592e-01,2.563821776262483199e-01,1.840704459372156376e-01
5.570000000000000506e-01,-4.827764454222457369e-01,3.825451423284235708e-01,1.423128765970551601e-01
5.580000000000000515e-01,-3.915083659001420413e-01,4.636060891639899317e-01,3.946998520681385680e-02
5.590000000000000524e-01,-2.479202160923709986e-01,4.468485343596419468e-01,-6.615196911119225476e-02
5.600000000000000533e-01,-8.656825543080184926e-02,3.960016407612224620e-01,-1.305911674869357220e-01
5.610000000000000542e-01,1.254110132964386948e-01,2.616637263537232583e-01,-2.158665709387689591e-01
5.620000000000000551e-01,3.179672787764498687e-01,7.548976086638217731e-02,-2.899431470465168581e-01
5.629999999999999449e-01,4.958790000923046226e-01,-1.088842172342485565e-01,-2.797276360189299149e-01
5.639999999999999458e-01,5.560826456764453862e-01,-3.001121254923160842e-01,-2.284605217805689426e-01
5.649999999999999467e-01,5.639845968925615294e-01,-4.458147866990039287e-01,-1.413747985896703085e-01
5.659999999999999476e-01,4.780863635079676266e-01,-5.174160388096626928e-01,-6.280829472286950099e-02
5.669999999999999485e-01,3.219333354077452136e-01,-5.099596584704202407e-01,7.513929511272332551e-02
5.679999999999999494e-01,9.872230584035771028e-02,-4.196362479056111594e-01,1.645502299189239570e-01
5.689999999999999503e-01,-1.335789455904902723e-01,-2.893155174525037787e-01,2.750158614149510461e-01
5.699999999999999512e-01,-3.568325062353424060e-01,-6.478642144344486098e-02,3.325981230709842973e-01
5.709999999999999520e-01,-5.458798429097954097e-01,1.167460884363926976e-01,3.291309814194761096e-01
5.719999999999999529e-01,-6.428655693338074517e-01,3.069982216772208505e-01,3.046595742194139755e-01
5.729999999999999538e-01,-6.528070958360180365e-01,4.797842504037896361e-01,2.005271364190360506e-01
5.739999999999999547e-01,-5.399154092749539613e-01,5.501252211664089398e-01,8.369066880766669325e-02
5.749999999999999556e-01,-3.802077667460346810e-01,5.405359323389178350e-01,-4.872732180387747553e-02
5.759999999999999565e-01,-1.310816756310204945e-01,4.784662501328582063e-01,-1.923460406273672374e-01
5.769999999999999574e-01,1.329615396758706825e-01,2.996756368834517237e-01,-3.155292780009728015e-01
5.779999999999999583e-01,3.638573037209982264e-01,8.178746703596176393e-02,-3.685480607804341724e-01
5.789999999999999591e-01,5.675307688272720474e-01,-1.199100001250937297e-01,-3.652145551640756382e-01
5.799999999999999600e-01,6.692277197481996120e-01,-3.150673855806406243e-01,-3.259663348546842920e-01
5.809999999999999609e-01,6.696263755968212550e-01,-4.724724931935898598e-01,-2.527941520935182429e-01
5.819999999999999618e-01,5.745920042878820411e-01,-5.438097744798936484e-01,-1.060150922146169961e-01
5.829999999999999627e-01,4.148028802049485431e-01,-5.469634440080475279e-01,4.549415599240323044e-02
5.839999999999999636e-01,1.712474516180053363e-01,-4.644508022474770348e-01,1.825260014029592703e-01
5.849999999999999645e-01,-1.019639284599184875e-01,-2.783565661311635520e-01,3.021861309394898720e-01
5.859999999999999654e-01,-3.694836072364848789e-01,-7.831793074938676880e-02,3.879031231367554011e-01
5.869999999999999662e-01,-5.613929612111377976e-01,1.111140486572727293e-01,3.943276382811530811e-01
5.879999999999999671e-01,-7.018336583759280378e-01,3.161389489872460379e-01,3.668346033483325108e-01
5.889999999999999680e-01,-6.840536559521180893e-01,4.621969644219731665e-01,2.765931748703802096e-01
5.899999999999999689e-01,-6.344845357422850274e-01,5.566732003088539216e-01,1.216693658703723452e-01
5.909999999999999698e-01,-4.293327468839450711e-01,5.379074046415138755e-01,-3.628497665176825399e-02
5.919999999999999707e-01,-1.587288569728617094e-01,4.384627413620569292e-01,-1.646274099736221852e-01
5.929999999999999716e-01,8.198795542918987933e-02,2.765953235591259163e-01,-2.937343773900693011e-01
5.939999999999999725e-01,3.532855942649467673e-01,8.961512132179370871e-02,-3.758155850554871225e-01
5.949999999999999734e-01,5.555654085850110224e-01,-1.437053107931697271e-01,-4.319552092536351751e-01
5.959999999999999742e-01,6.615379149190889763e-01,-3.043826587334918510e-01,-4.059905635141137226e-01
5.969999999999999751e-01,7.036476529647078815e-01,-4.225133321287942723e-01,-3.078868852424322955e-01
5.979999999999999760e-01,5.795898355381221556e-01,-5.146133962438234066e-01,-1.664238333370777201e-01
5.989999999999999769e-01,4.265188598535933906e-01,-4.839508360354528027e-01,-1.207410936002459474e-02
5.999999999999999778e-01,1.810974825166620505e-01,-4.065917727733403542e-01,1.446679711435909510e-01
6.009999999999999787e-01,-7.155858560274058755e-02,-2.644912187218611543e-01,2.956170520612498853e-01
6.019999999999999796e-01,-3.251545123414956162e-01,-7.928280304376777998e-02,4.037959678732552238e-01
6.029999999999999805e-01,-5.215147687679720923e-01,9.833989122647004977e-02,4.026643148446575893e-01
6.039999999999999813e-01,-6.148085945462249402e-01,2.719777665954376533e-01,3.986502088067890859e-01
6.049999999999999822e-01,-6.401942504345720097e-01,4.110160433044844353e-01,2.959758407977053918e-01
6.059999999999999831e-01,-5.665366297730776157e-01,4.609668296738094195e-01,1.785356195335567608e-01
6.069999999999999840e-01,-4.332653380450043334e-01,4.543486303111184954e-01,1.818543160645533577e-02
6.079999999999999849e-01,-1.890144481468424009e-01,3.390529592791037827e-01,-1.387798470443412369e-01
6.089999999999999858e-01,5.392405810192769239e-02,2.215431147650158417e-01,-2.590469237888855525e-01
6.099999999999999867e-01,2.689031286308977697e-01,6.084083569433013788e-02,-3.527266686408273011e-01
6.109999999999999876e-01,4.829020821612838299e-01,-8.383777674830956983e-02,-3.975794553054290970e-01
6.119999999999999885e-01,5.661738786096808251e-01,-2.500110092025008002e-01,-3.718213001507085780e-01
6.129999999999999893e-01,5.766532401899702176e-01,-3.476133953520205155e-01,-2.797656564113287780e-01
6.139999999999999902e-01,5.157079676516567179e-01,-3.619857899463312934e-01,-1.909923009617227607e-01
6.149999999999999911e-01,3.590711169328922869e-01,-3.553932356044011698e-01,-6.120473703411846711e-02
6.159999999999999920e-01,1.650632253861516185e-01,-2.714641889059600244e-01,8.826583593758877133e-02
6.169999999999999929e-01,-4.045101286634165960e-02,-1.692449433694946936e-01,2.262002197532533287e-01
6.179999999999999938e-01,-2.329456767791606708e-01,-3.044729781656698928e-02,3.133582517757096952e-01
6.189999999999999947e-01,-3.807952220337976201e-01,8.746889019914531882e-02,3.515769259675605718e-01
6.199999999999999956e-01,-4.687482060069837475e-01,1.881655710101680923e-01,3.557286804518178247e-01
6.209999999999999964e-01,-4.752707579666897719e-01,2.677498854020861629e-01,2.879304196293235307e-01
6.219999999999999973e-01,-4.242401967770174642e-01,2.669787638868323931e-01,1.936397631089365745e-01
6.229999999999999982e-01,-2.968713077736278572e-01,2.571723198616499562e-01,6.184406661694698271e-02
6.239999999999999991e-01,-1.606774629178279179e-01,1.911190198541272978e-01,-6.768976908366444722e-02
6.250000000000000000e-01,1.661703127079640005e-02,8.682122917888640545e-02,-1.880771213700463407e-01
6.260000000000000009e-01,2.250264545525812454e-01,-2.366499441200462656e-03,-2.651148990207475853e-01
6.270000000000000018e-01,3.065434353978228610e-01,-9.682341008689902828e-02,-2.917155290312937743e-01
6.280000000000000027e-01,3.784980348666386885e-01,-1.533197784269638708e-01,-2.935567744069270679e-01
6.290000000000000036e-01,3.854055511780125620e-01,-1.741781566331093711e-01,-2.336301850927917922e-01
6.300000000000000044e-01,3.018907482631763561e-01,-1.929570674197314262e-01,-1.479086952601349203e-01
6.310000000000000053e-01,2.150932847457043273e-01,-1.653462010480204747e-01,-4.487822488046571551e-02
6.320000000000000062e-01,9.907121768549267959e-02,-7.969240505470867597e-02,5.552950537099950179e-02
6.330000000000000071e-01,-2.789967078199830086e-02,-3.240064387588509343e-02,1.447711459497743325e-01
6.340000000000000080e-01,-1.353563471581303024e-01,4.519935763129668410e-02,2.290302713267975410e-01
6.350000000000000089e-01,-2.342809540645609256e-01,9.836116730022453902e-02,2.487995123517201257e-01
6.360000000000000098e-01,-2.686407477448222725e-01,1.151167812043272926e-01,2.201765870730955366e-01
6.370000000000000107e-01,-2.531461649866559305e-01,1.000334035402733884e-01,1.879270968855540347e-01
6.380000000000000115e-01,-1.764387158317155258e-01,7.011856878910993629e-02,1.254734533318719314e-01
6.390000000000000124e-01,-1.188258025337786405e-01,4.250520745890033758e-02,5.076209430350613061e-02
6.400000000000000133e-01,-3.987743385793178497e-02,-1.227678529714874150e-02,-4.575670796833326143e-02
6.410000000000000142e-01,6.354457411863102811e-02,-5.900643595062191049e-02,-1.108999109909151320e-01
6.420000000000000151e-01,1.320748779634196568e-01,-9.776636796960037901e-02,-1.518501194153923928e-01
6.430000000000000160e-01,1.467122728680631538e-01,-1.025635971588379491e-01,-1.656794366077145586e-01
6.440000000000000169e-01,1.468939285432266373e-01,-5.639132333334332531e-02,-1.593613626933573502e-01
6.450000000000000178e-01,1.144548957676048556e-01,-1.750943188766995728e-02,-1.362283727274630762e-01
6.460000000000000187e-01,7.787036116491348470e-02,-1.713957213027150761e-02,-5.091979189804714950e-02
6.470000000000000195e-01,-2.878339133768138824e-02,8.550879371298231169e-02,-2.059924390492326451e-02
6.480000000000000204e-01,-5.328819006568637218e-02,1.112122727290160151e-01,4.589897417703105165e-02
6.490000000000000213e-01,-9.238933340485161461e-02,1.629749571347420545e-01,7.778970210137299557e-02
6.500000000000000222e-01,-1.101760532726730468e-01,1.365506468114136285e-01,1.137454278882691766e-01
6.510000000000000231e-01,-1.075602348695240962e-01,9.213066528690547208e-02,1.153514192595049004e-01
6.520000000000000240e-01,-3.891492297098621267e-02,3.181002107717357391e-02,9.191301272047153192e-02
6.530000000000000249e-01,-4.489394057440080320e-03,-5.492327166550233647e-02,4.599922508095122264e-02
6.540000000000000258e-01,7.575329536476586856e-02,-1.183771057761838358e-01,7.226261854081234004e-03
6.550000000000000266e-01,1.034218614086568760e-01,-1.932986742014448645e-01,-2.811975259714915437e-02
6.560000000000000275e-01,1.689709038946192454e-01,-2.255963507976165017e-01,-7.161705500659285017e-02
6.570000000000000284e-01,1.490519686878213901e-01,-2.200548401866028458e-01,-7.241212804717996054e-02
6.580000000000000293e-01,1.057608292891678431e-01,-2.026008441913595970e-01,-5.778586388752665615e-02
6.590000000000000302e-01,4.128901982656250219e-02,-1.113782698363999235e-01,-4.342914209416592203e-02
6.600000000000000311e-01,-3.537648431416770545e-02,-9.158454125111089791e-03,-2.032764729806863652e-02
6.610000000000000320e-01,-1.203215430399978414e-01,1.039067569198311447e-01,1.310557625915368708e-02
6.620000000000000329e-01,-2.286267223962867023e-01,2.083539012067255891e-01,6.538499826210500410e-02
6.630000000000000338e-01,-2.517790617302212430e-01,2.660238425462896905e-01,9.770599191954063012e-02
6.640000000000000346e-01,-2.342158339589487659e-01,3.252549522828986350e-01,7.511783468626828664e-02
6.650000000000000355e-01,-2.488147559169586187e-01,2.990683817300278657e-01,7.436275401754667558e-02
6.660000000000000364e-01,-1.317292918901253884e-01,2.483442009264764938e-01,3.618764362771649534e-02
6.670000000000000373e-01,-9.033831774144188836e-03,1.011353665826292964e-01,2.003605638624160815e-03
6.680000000000000382e-01,1.102104312677460174e-01,1.249419023968573877e-02,-4.614386121635062621e-02
6.690000000000000391e-01,2.534568502765801590e-01,-1.652587183101281165e-01,-8.775811831214207215e-02
6.700000000000000400e-01,3.433298749797934479e-01,-2.792225842130421354e-01,-1.414263012722806467e-01
6.710000000000000409e-01,3.826012273639328165e-01,-3.584078747207640192e-01,-1.472899515603397491e-01
6.720000000000000417e-01,3.669988612726315380e-01,-4.218191505372868577e-01,-1.292952490786744013e-01
6.730000000000000426e-01,2.918122282674210366e-01,-3.608209780946073364e-01,-7.914526650251947626e-02
6.740000000000000435e-01,1.543434744186192586e-01,-2.935184118722789504e-01,-2.695213362022856260e-02
6.750000000000000444e-01,5.428889560647798262e-03,-1.198761356605886896e-01,5.057583441620826931e-02
6.760000000000000453e-01,-1.587426426480017527e-01,3.963187389708275332e-02,1.342576152803156009e-01
6.770000000000000462e-01,-3.425187037624578545e-01,2.064794747074035208e-01,1.754504829373484120e-01
6.780000000000000471e-01,-4.349425218194676312e-01,3.674399632792411663e-01,2.032759475717651199e-01
6.790000000000000480e-01,-4.928747825280931361e-01,4.440450481062352961e-01,2.077011542588511339e-01
6.800000000000000488e-01,-4.679802533343930815e-01,4.904914048738360233e-01,1.872543770024527321e-01
6.810000000000000497e-01,-3.500130620637391665e-01,4.316279540751293831e-01,8.558496009700186646e-02
6.820000000000000506e-01,-1.838032235942172743e-01,3.397204122647617397e-01,1.695855829086910516e-02
6.830000000000000515e-01,3.186326945116019216e-02,1.485647649536289139e-01,-7.060819167493957715e-02
6.840000000000000524e-01,2.412916144933243412e-01,-5.943950344623911974e-02,-1.727480763694063393e-01
6.850000000000000533e-01,4.070233374246614022e-01,-2.625831246471445057e-01,-2.418258733851830489e-01
6.860000000000000542e-01,5.167486764618577366e-01,-4.082015635978690771e-01,-2.690873490867143336e-01
6.870000000000000551e-01,5.845015319636961415e-01,-5.055510567058276727e-01,-2.815519452612528228e-01
6.879999999999999449e-01,5.459826799069291692e-01,-5.092596054160857255e-01,-2.357211857071179473e-01
6.889999999999999458e-01,4.155377669076322222e-01,-4.748904130200712892e-01,-1.321778212046285650e-01
6.899999999999999467e-01,2.341437868375683684e-01,-3.219059154637956555e-01,-2.610025296588731891e-02
6.909999999999999476e-01,-3.285134229862929356e-02,-1.369900719870058292e-01,7.846865473332097218e-02
6.919999999999999485e-01,-2.164404043663675226e-01,5.766249977488204642e-02,2.109544398322049097e-01
6.929999999999999494e-01,-4.475521963743183673e-01,2.509842484529192785e-01,2.797062504000578098e-01
6.939999999999999503e-01,-5.928229911217413051e-01,4.581329933192866410e-01,3.333306144253188052e-01
6.949999999999999512e-01,-6.556684810254451712e-01,5.400083361612583177e-01,3.018118430566545385e-01
6.959999999999999520e-01,-6.197964772064179506e-01,5.609921075343864416e-01,2.716921388393697123e-01
6.969999999999999529e-01,-4.555236464854696687e-01,4.957377818341038300e-01,1.850616593193870896e-01
6.979999999999999538e-01,-2.668314632881278459e-01,3.389278072293832045e-01,5.514967899211834640e-02
6.989999999999999547e-01,-1.468419150197799658e-02,1.461371990242723573e-01,-8.871707947782205006e-02
6.999999999999999556e-01,2.279188779078220040e-01,-7.803806180987535313e-02,-2.297464948301533860e-01
7.009999999999999565e-01,5.017744145629283725e-01,-2.683898512338497300e-01,-3.443486153833452690e-01
7.019999999999999574e-01,6.226897024714573847e-01,-4.355395809309527966e-01,-3.610978543571974342e-01
7.029999999999999583e-01,6.877995122591313848e-01,-5.235694942685611419e-01,-3.717085308198326832e-01
7.039999999999999591e-01,6.451465749298522789e-01,-5.454775034685760415e-01,-3.133902445655182278e-01
7.049999999999999600e-01,4.988637399825524010e-01,-4.878583790579526513e-01,-2.130620606875291423e-01
7.059999999999999609e-01,2.863691424384874895e-01,-3.564599788430522498e-01,-8.103595783097762573e-02
7.069999999999999618e-01,2.640601836143805989e-02,-1.596906289240823396e-01,8.309387683845474715e-02
7.079999999999999627e-01,-2.456901886917371436e-01,6.139813874714439290e-02,2.171474339994298453e-01
7.089999999999999636e-01,-4.609542414841933389e-01,2.790201007621626594e-01,3.347002762097321948e-01
7.099999999999999645e-01,-6.411510640690383234e-01,4.599977606064525881e-01,3.959665268637268531e-01
7.109999999999999654e-01,-6.923400654212046312e-01,5.212835832887764420e-01,3.973939862431338232e-01
7.119999999999999662e-01,-6.805591718333667828e-01,5.413342620496244262e-01,3.525574315841860651e-01
7.129999999999999671e-01,-5.325776933840113969e-01,4.587597942092215830e-01,2.379993022674218028e-01
7.139999999999999680e-01,-3.237735413658535677e-01,3.214915106121993271e-01,1.054080739354761181e-01
7.149999999999999689e-01,-3.578462821014081335e-02,1.539219415423730974e-01,-6.109857730783228857e-02
7.159999999999999698e-01,2.121857673937228295e-01,-6.782584928322044071e-02,-2.222799411960480753e-01
7.169999999999999707e-01,4.650364088864123446e-01,-2.398434223479168625e-01,-3.373921478334221402e-01
7.179999999999999716e-01,5.995965119551442957e-01,-4.182999364804493858e-01,-4.115916714918916308e-01
7.189999999999999725e-01,6.834451046835285926e-01,-5.058408098975707423e-01,-4.352682300610675181e-01
7.199999999999999734e-01,6.642605739399901621e-01,-5.015014633529474297e-01,-3.712200700232086148e-01
7.209999999999999742e-01,5.249413294255086404e-01,-4.359439759166029993e-01,-2.791468347388060822e-01
7.219999999999999751e-01,3.317505530587763762e-01,-3.146889941176192473e-01,-1.317258246834780988e-01
7.229999999999999760e-01,7.098971005726864569e-02,-1.327871511999854370e-01,5.232753058416812764e-02
7.239999999999999769e-01,-2.031043059072388524e-01,6.458109222310073894e-02,1.832966680900008638e-01
7.249999999999999778e-01,-4.131608352848325505e-01,2.371565080555879668e-01,3.296629666241600587e-01
7.259999999999999787e-01,-5.715000985450895410e-01,3.599798812140939663e-01,3.840381028099288385e-01
7.269999999999999796e-01,-6.449422649137845909e-01,4.441651279881212999e-01,4.300128865911221343e-01
7.279999999999999805e-01,-6.086084690061692726e-01,4.373592142244958625e-01,4.035977579254730330e-01
7.289999999999999813e-01,-4.760441826879903693e-01,3.874775729457191620e-01,2.846693815409093720e-01
7.299999999999999822e-01,-3.088189428410781368e-01,2.792019353749269350e-01,1.553371367409737136e-01
7.309999999999999831e-01,-6.272163150863117875e-02,1.032882631409095670e-01,-2.131819100788877319e-02
7.319999999999999840e-01,1.568954011408664750e-01,-4.040967808227486496e-02,-1.774537269419163843e-01
7.329999999999999849e-01,3.742469939259461253e-01,-1.951505183576345559e-01,-2.656767262526364415e-01
7.339999999999999858e-01,5.164022060744403175e-01,-3.252250789852015322e-01,-3.870728499974144809e-01
7.349999999999999867e-01,5.760717719998875719e-01,-3.596442637962121158e-01,-3.972553776455119423e-01
7.359999999999999876e-01,5.337478405656420621e-01,-3.606212101102123646e-01,-3.698003913477218019e-01
7.369999999999999885e-01,4.358130273253979503e-01,-2.805838704271182427e-01,-2.721716679799304761e-01
7.379999999999999893e-01,2.974603949923982360e-01,-1.872940196625085263e-01,-1.432315240858502425e-01
7.389999999999999902e-01,7.411533954323962226e-02,-8.187574295073242470e-02,-6.069188708405223037e-03
7.399999999999999911e-01,-1.524111581371425106e-01,7.820362602801769758e-02,1.159247129561832151e-01
7.409999999999999920e-01,-3.075492513719368382e-01,1.832110169936568833e-01,2.258686880103801253e-01
7.419999999999999929e-01,-4.500445822254588446e-01,2.353366921436903514e-01,3.403699141181836807e-01
7.429999999999999938e-01,-4.762317300444842694e-01,2.748821892591983840e-01,3.576760238525758528e-01
7.439999999999999947e-01,-4.632195254312293509e-01,2.482970396780591615e-01,3.556160682678407015e-01
7.449999999999999956e-01,-3.843985705398220154e-01,2.074280962039665444e-01,2.688836658846161520e-01
7.459999999999999964e-01,-2.236705003210305853e-01,1.219869552052914863e-01,1.330302080728800185e-01
7.469999999999999973e-01,-6.144721493381294364e-02,1.166231215109740996e-02,1.675917521270793922e-02
7.479999999999999982e-01,1.088496698993556555e-01,-8.523249303137298005e-02,-1.002183260283714822e-01
7.489999999999999991e-01,2.429312325472343936e-01,-1.416823270693747250e-01,-1.866782182099846199e-01
7.500000000000000000e-01,3.452873626678547581e-01,-2.032066848440790829e-01,-2.809699036422225182e-01
7.510000000000000009e-01,3.782188576852662520e-01,-1.857243312650790901e-01,-2.815522112180148806e-01
7.520000000000000018e-01,3.490511818245133902e-01,-1.447607466786573482e-01,-2.735825719753844365e-01
7.530000000000000027e-01,2.818884955864127684e-01,-1.050103643419627863e-01,-2.209436750000077498e-01
7.540000000000000036e-01,1.582909851916584065e-01,-4.326173451585563212e-02,-1.505194593390950242e-01
7.550000000000000044e-01,2.031103069478919915e-02,3.820484388532878472e-02,-4.491455580715635748e-02
7.560000000000000053e-01,-1.105858597953479627e-01,6.412338790170532543e-02,8.319821715953451546e-02
7.570000000000000062e-01,-1.947673914801457962e-01,1.155673190185556587e-01,1.416210901463008931e-01
7.580000000000000071e-01,-2.373741057403068455e-01,1.132831913320827832e-01,2.033354205067171849e-01
7.590000000000000080e-01,-2.600181146140354560e-01,8.212153835913087174e-02,2.275578694133964797e-01
7.600000000000000089e-01,-2.223282330317726541e-01,2.698924547945045702e-02,2.386451709756540751e-01
7.610000000000000098e-01,-1.505965467083723863e-01,-3.538903008120906218e-02,1.656567839379407547e-01
7.620000000000000107e-01,-8.396218401867222569e-02,-4.043231624890972209e-02,9.556701760682749514e-02
7.630000000000000115e-01,3.779219772388218296e-02,-7.822622251938324278e-02,1.789208401503352558e-02
7.640000000000000124e-01,1.159852812318924314e-01,-7.360341594162223000e-02,-6.328941142894967120e-02
7.650000000000000133e-01,1.585254784351415314e-01,-8.753100045842836241e-02,-1.271330685203123367e-01
7.660000000000000142e-01,1.401031263923772918e-01,-4.348686868631240765e-02,-1.513945960270607072e-01
7.670000000000000151e-01,1.169688262943822665e-01,-3.921089455998009424e-04,-1.647742806851231756e-01
7.680000000000000160e-01,7.519990962750439101e-02,7.897538483040361657e-02,-1.718485705409736608e-01
7.690000000000000169e-01,2.862817498015510220e-02,1.168620658984323296e-01,-1.112122956256505341e-01
7.700000000000000178e-01,-3.544874994762861609e-02,1.644130953777118431e-01,-5.481494362687239219e-02
7.710000000000000187e-01,-8.791514936540008318e-02,1.354982840777939623e-01,-1.978831657729867785e-02
7.720000000000000195e-01,-1.019575817569408765e-01,1.252181087543299820e-01,4.899566194824288290e-02
7.730000000000000204e-01,-1.061889994212124183e-01,6.259628120176999322e-02,7.782523751521031041e-02
7.740000000000000213e-01,-6.398557307311220077e-02,-9.859125255084597375e-03,1.046599126890136455e-01
7.750000000000000222e-01,-1.676383402437682177e-02,-1.156615449936273937e-01,1.080731687021429105e-01
7.760000000000000231e-01,4.253296609378380555e-02,-1.882576189577939429e-01,8.169572423965609786e-02
7.770000000000000240e-01,1.040837145983230100e-01,-2.090338045971956438e-01,3.268857767491912397e-02
7.780000000000000249e-01,1.604846903696878768e-01,-2.439703939707836278e-01,3.844229118834600369e-03
7.790000000000000258e-01,1.647593309564709119e-01,-1.887175494053315583e-01,-3.407668450855449310e-02
7.800000000000000266e-01,1.185791953019856293e-01,-1.273798286790866485e-01,-8.053131831062625146e-02
7.810000000000000275e-01,8.130054861738790495e-02,-3.085483773756008893e-02,-7.831285288755751584e-02
7.820000000000000284e-01,5.616176067617459876e-03,9.746076586490577676e-02,-6.935267484421886452e-02
7.830000000000000293e-01,-9.551610638422006194e-02,1.858750086476313179e-01,-2.094710310761220204e-02
7.840000000000000302e-01,-1.593713207556111122e-01,2.759186604901913142e-01,-3.502381491299772290e-03
7.850000000000000311e-01,-2.522552825917858677e-01,3.314359812829119067e-01,3.018781182123948456e-02
7.860000000000000320e-01,-2.840147400968997538e-01,3.122938034478540126e-01,7.531090642582002892e-02
7.870000000000000329e-01,-2.429144672283286011e-01,2.589560590632540849e-01,6.560712042919714104e-02
7.880000000000000338e-01,-1.682268771762215065e-01,1.707323465888040681e-01,6.145312328521527340e-02
7.890000000000000346e-01,-8.074747960531125646e-02,2.551591792340807130e-02,6.743388460544144647e-02
7.900000000000000355e-01,4.699329943798819659e-02,-1.045340275519810319e-01,1.428212610615792189e-02
7.910000000000000364e-01,2.048067652556780083e-01,-2.413685171611044122e-01,-2.766257835856983371e-02
7.920000000000000373e-01,2.814669365287052472e-01,-3.577840900335201857e-01,-7.636255847808062769e-02
7.930000000000000382e-01,3.507639939955208286e-01,-4.069145237468484444e-01,-1.226104522506454575e-01
7.940000000000000391e-01,3.731566761930465437e-01,-3.844040155962250571e-01,-1.605614847855457716e-01
7.950000000000000400e-01,3.226271218870683799e-01,-3.027478243142414649e-01,-1.539341061597297999e-01
7.960000000000000409e-01,2.335256440177292947e-01,-1.791106628618200636e-01,-1.119922934928965219e-01
7.970000000000000417e-01,1.001693346266100126e-01,-5.773875426835728582e-03,-6.515193023383916704e-02
7.980000000000000426e-01,-7.360073295597695242e-02,1.603735745868551110e-01,6.536163863173052781e-04
7.990000000000000435e-01,-2.737394058491127713e-01,3.274734059497613758e-01,5.092650485166606150e-02
8.000000000000000444e-01,-3.877406052383377544e-01,4.251640826006876650e-01,1.418556184710139945e-01
8.010000000000000453e-01,-4.854489555308386106e-01,4.972725519118124105e-01,1.758943723728744191e-01
8.020000000000000462e-01,-4.790587140831327750e-01,4.655823157557591463e-01,2.235805190613040228e-01
8.030000000000000471e-01,-4.080685790153117942e-01,3.591777730987749662e-01,1.999173372661118553e-01
8.040000000000000480e-01,-2.680205280810012969e-01,2.171737985659202563e-01,1.796314004528402342e-01
8.050000000000000488e-01,-8.048551859175545609e-02,1.404688382425135773e-02,8.137952627984666731e-02
8.060000000000000497e-01,1.170176613121665654e-01,-1.920334364569915853e-01,-6.251186279108184203e-03
8.070000000000000506e-01,3.282176008018819480e-01,-3.602381280573377920e-01,-1.093776769485500094e-01
8.080000000000000515e-01,4.788654680789370954e-01,-4.851874272375064634e-01,-2.005731354766092378e-01
8.090000000000000524e-01,5.727601592891971016e-01,-5.364993225988096137e-01,-2.566784769578162040e-01
8.100000000000000533e-01,5.881862936566873978e-01,-5.027137228968956428e-01,-2.864617183949263457e-01
8.110000000000000542e-01,4.731487478249929435e-01,-3.901290786183744252e-01,-2.594283943820687721e-01
8.120000000000000551e-01,3.422597456515531489e-01,-2.254735781024541919e-01,-1.900816301869795444e-01
8.129999999999999449e-01,1.187958662606529020e-01,-2.569171962265628245e-02,-8.746784422703046680e-02
8.139999999999999458e-01,-1.129872836996240609e-01,2.125765261902823333e-01,-5.464856009061474368e-03
8.149999999999999467e-01,-3.501490483326512027e-01,4.072774175353898740e-01,1.212722149759219853e-01
8.159999999999999476e-01,-5.440336369199961775e-01,5.078546652534184913e-01,2.371618356001986283e-01
8.169999999999999485e-01,-6.349711129126350828e-01,5.720097718104732998e-01,3.106420538954886568e-01
8.179999999999999494e-01,-6.371807557972276603e-01,5.515170200900355590e-01,3.418088017280921931e-01
8.189999999999999503e-01,-5.456031606862374872e-01,3.831343355979521248e-01,3.208145843152606091e-01
8.199999999999999512e-01,-3.637923616652478098e-01,2.263862734659202181e-01,2.611008829489125938e-01
8.209999999999999520e-01,-1.420156851482765048e-01,1.635692712776400191e-03,1.638935297364719212e-01
8.219999999999999529e-01,1.202705835494727732e-01,-2.098762390308326620e-01,3.841785124732374768e-02
8.229999999999999538e-01,3.762839592683998036e-01,-3.746726670304033613e-01,-1.259741708264388582e-01
8.239999999999999547e-01,5.748712661880547303e-01,-5.341789172307406242e-01,-2.477817619783080627e-01
8.249999999999999556e-01,6.679109847925258636e-01,-5.661273052899689073e-01,-3.233034720340323687e-01
8.259999999999999565e-01,6.960682681434132713e-01,-5.470846720022606302e-01,-3.779670090957856221e-01
8.269999999999999574e-01,5.919031432646703061e-01,-3.923253728098811677e-01,-3.710397533443329232e-01
8.279999999999999583e-01,4.155123955856576123e-01,-2.220425117288364059e-01,-3.061895304961860798e-01
8.289999999999999591e-01,1.914145683521432384e-01,-2.597166539132961943e-02,-1.824784207531136848e-01
8.299999999999999600e-01,-8.838406045986771375e-02,1.930634007834648447e-01,-3.478253329623615803e-02
8.309999999999999609e-01,-3.757720470804578050e-01,3.945088889132647436e-01,1.133794855652107275e-01
8.319999999999999618e-01,-5.616793154777218744e-01,5.080284033112377751e-01,2.562258558776787654e-01
8.329999999999999627e-01,-6.812036114810873233e-01,5.383759033650348247e-01,3.732025062291265960e-01
8.339999999999999636e-01,-6.963001086724361910e-01,5.047773169991621733e-01,4.045464119463405006e-01
8.349999999999999645e-01,-6.249308776459316928e-01,3.613981504476966311e-01,4.250642857895418625e-01
8.359999999999999654e-01,-4.349427584086810183e-01,2.109277953783838810e-01,3.172992730723032673e-01
8.369999999999999662e-01,-1.914267060987758784e-01,-1.388439974949627967e-02,2.304646237274723675e-01
8.379999999999999671e-01,8.054068790395789434e-02,-1.720847792676353238e-01,4.756625440103090519e-02
8.389999999999999680e-01,3.345564404882876430e-01,-3.560671965960687801e-01,-1.010780891039248369e-01
8.399999999999999689e-01,5.574409105640333317e-01,-4.798621601508819556e-01,-2.593015754199826661e-01
8.409999999999999698e-01,6.809805835583735423e-01,-5.033329106974170353e-01,-3.501081226954781411e-01
8.419999999999999707e-01,6.873544261649304765e-01,-4.511090184801094249e-01,-4.310091378693389208e-01
8.429999999999999716e-01,6.141898277397639383e-01,-3.589798696956144619e-01,-4.265732394683785511e-01
8.439999999999999725e-01,4.272909749062155926e-01,-1.851582556955750358e-01,-3.486656388071836532e-01
8.449999999999999734e-01,1.972996295965986635e-01,-1.907765474114246976e-02,-2.583394707278771629e-01
8.459999999999999742e-01,-4.317377428221263330e-02,1.750505088913800467e-01,-8.794972031836692516e-02
8.469999999999999751e-01,-3.014233470774240198e-01,3.271245495918945201e-01,7.075180297593253176e-02
8.479999999999999760e-01,-5.066472571002925696e-01,4.182522574519422220e-01,2.040537075460902572e-01
8.489999999999999769e-01,-6.090892758708417176e-01,4.515842757759262471e-01,3.370761222318419126e-01
8.499999999999999778e-01,-6.429174553668487446e-01,4.135227185350626167e-01,3.907069970253624347e-01
8.509999999999999787e-01,-5.619247949676797749e-01,2.931427001553698619e-01,4.218282288872421404e-01
8.519999999999999796e-01,-4.132386609321043180e-01,1.469675820320326121e-01,3.505425066994496963e-01
8.529999999999999805e-01,-2.038670351713951223e-01,1.664409021745502692e-03,2.461809595257108962e-01
8.539999999999999813e-01,2.339415109896438374e-02,-1.517762263555190450e-01,9.617461535559226893e-02
8.549999999999999822e-01,2.667694135010567069e-01,-2.795618918268340525e-01,-4.368490702783221075e-02
8.559999999999999831e-01,4.308877298778376330e-01,-3.538432298260430486e-01,-2.025288134653170091e-01
8.569999999999999840e-01,5.403782147985990436e-01,-3.775105180289250462e-01,-3.040089823273466330e-01
8.579999999999999849e-01,5.848573573840469830e-01,-3.267673427806510045e-01,-3.841411772680197179e-01
8.589999999999999858e-01,4.913541242751661708e-01,-2.302699588942799525e-01,-3.845082696764307584e-01
8.599999999999999867e-01,3.778467473968269985e-01,-1.056868826818066348e-01,-3.471330283869273337e-01
8.609999999999999876e-01,1.815460273661758661e-01,4.400160693715727406e-02,-2.598805124824015711e-01
8.619999999999999885e-01,-1.379001823698322755e-02,1.484054779338073171e-01,-1.250029905853609902e-01
8.629999999999999893e-01,-2.056458126220303273e-01,2.196396362533478142e-01,2.562551652675809297e-02
8.639999999999999902e-01,-3.961806424072861765e-01,2.823283855448754376e-01,1.662971303390395061e-01
8.649999999999999911e-01,-4.525805618692636534e-01,2.594283218600286212e-01,2.894691349296864558e-01
8.659999999999999920e-01,-4.495826255929821769e-01,2.341910651721339776e-01,3.239269595659027279e-01
8.669999999999999929e-01,-4.229828033611090499e-01,1.490364338089424368e-01,3.451453783350717508e-01
8.679999999999999938e-01,-3.217203738074391750e-01,4.491965507183309780e-02,3.210272175195171274e-01
8.689999999999999947e-01,-1.449371451923428533e-01,-5.748847633749172570e-02,2.462116390204610872e-01
8.699999999999999956e-01,3.049803091762209178e-02,-1.201024794491119402e-01,1.070322093231884514e-01
8.709999999999999964e-01,1.804633753362294701e-01,-1.812707327363791143e-01,-2.991937200389719123e-02
8.719999999999999973e-01,2.929592621513948947e-01,-1.779801704619118907e-01,-1.221211100394124782e-01
8.729999999999999982e-01,3.479883636196594021e-01,-1.552694501169578356e-01,-2.237070968667877746e-01
8.739999999999999991e-01,3.725724488674174162e-01,-1.131661244291047863e-01,-2.930593253270340481e-01
8.750000000000000000e-01,2.942419352485202699e-01,-5.083095424211252211e-02,-2.871444588085887428e-01
8.760000000000000009e-01,2.140853760163952124e-01,2.413393904904586815e-03,-2.674288474331242282e-01
8.770000000000000018e-01,9.492295316639141889e-02,4.855798985685585295e-02,-2.055604111523548772e-01
8.780000000000000027e-01,-3.393442257947026225e-02,1.001082294166468073e-01,-1.058951309898090859e-01
8.790000000000000036e-01,-1.601467470078186961e-01,1.125378332650635721e-01,1.180045820857216279e-02
8.800000000000000044e-01,-2.273419893117565593e-01,8.196060401736827983e-02,9.203696333228753024e-02
8.810000000000000053e-01,-2.365020199779563626e-01,6.091510342523007854e-02,1.857504926295453218e-01
8.820000000000000062e-01,-2.371881957966582022e-01,-3.744782994659066910e-05,2.227793464554178038e-01
8.830000000000000071e-01,-1.957879663049102992e-01,-5.753865352299271374e-02,2.399252122593251713e-01
8.840000000000000080e-01,-1.208559512643498091e-01,-8.955464493806332416e-02,2.001380583242375055e-01
8.850000000000000089e-01,-2.024463589034885755e-03,-1.045109703007445906e-01,1.512287028305152048e-01
8.860000000000000098e-01,5.563606519938373712e-02,-8.346050462145998550e-02,9.992634400617932122e-02
8.870000000000000107e-01,1.165218592050228236e-01,-6.444087410771734414e-02,-7.365776895585359439e-03
8.880000000000000115e-01,1.754868955048677626e-01,-4.033298854323566149e-03,-6.047396526285525598e-02
8.890000000000000124e-01,1.537052077833793162e-01,5.173142240719673379e-02,-1.279955282607579126e-01
8.900000000000000133e-01,9.063045052607704433e-02,1.063572210412153662e-01,-1.679446389422217800e-01
8.910000000000000142e-01,4.410519237312460206e-02,1.435976078405907519e-01,-1.909643039854102275e-01
8.920000000000000151e-01,-3.300409062887952466e-02,1.404878967363727138e-01,-1.564140116871458597e-01
8.930000000000000160e-01,-8.791535834183250575e-02,1.353578681193333411e-01,-9.757132832373689724e-02
8.940000000000000169e-01,-8.869952183508793275e-02,8.179250599973947322e-02,-5.661497162588011167e-02
8.950000000000000178e-01,-1.022110583537695766e-01,-1.512558490980963569e-03,1.359852141475149023e-03
8.960000000000000187e-01,-7.818678914075563591e-02,-1.011414181825461694e-01,7.531036194544046825e-02
8.970000000000000195e-01,-3.567988279075225144e-02,-1.719162593637129088e-01,1.040635329345974275e-01
8.980000000000000204e-01,3.324142291451147313e-02,-2.251855298347227585e-01,1.041432708514823530e-01
8.990000000000000213e-01,7.838610936112944128e-02,-2.369490858719060788e-01,8.032743745701745319e-02
9.000000000000000222e-01,1.328746802580497988e-01,-2.207723852864290071e-01,5.716529559148097323e-02
9.010000000000000231e-01,1.680602062433990962e-01,-1.772463610242483723e-01,3.426874543530993023e-02
9.020000000000000240e-01,1.621065197696445748e-01,-6.311360638336017959e-02,-1.964420256022161859e-02
9.030000000000000249e-01,1.390169230238608722e-01,4.698996044683505235e-02,-2.559222980633809805e-02
9.040000000000000258e-01,3.449780591621499221e-02,1.597255581099815969e-01,-6.332000072427092230e-02
9.050000000000000266e-01,-5.337833529694333001e-02,2.757252214172976057e-01,-7.921388714949512133e-02
9.060000000000000275e-01,-1.466852425686487049e-01,3.277225098633206324e-01,-5.319252396569452979e-02
9.070000000000000284e-01,-2.434698906131988749e-01,3.307020174503458310e-01,-3.013218902047093764e-02
9.080000000000000293e-01,-2.823803438489708717e-01,2.832061656797120741e-01,2.395770909349418179e-02
9.090000000000000302e-01,-2.642469253882827607e-01,1.976769774720142925e-01,5.421883132923289300e-02
9.100000000000000311e-01,-2.211111375232028553e-01,6.203301586130767487e-02,7.541916408133002292e-02
9.110000000000000320e-01,-1.584537607671294979e-01,-6.397248994560071622e-02,1.077880756987163874e-01
9.120000000000000329e-01,-9.728424368093189015e-03,-2.120968187878440880e-01,8.185977114090894902e-02
9.130000000000000338e-01,1.147453516844731958e-01,-3.317250873898075492e-01,4.587897051346014055e-02
9.140000000000000346e-01,2.512518656431481090e-01,-4.038700921489103979e-01,9.019904807232241584e-03
9.150000000000000355e-01,3.368026523831076924e-01,-4.164343048421916271e-01,-3.579344009098950341e-02
9.160000000000000364e-01,4.005954397628955777e-01,-3.674241089795279303e-01,-1.045884052038320161e-01
9.170000000000000373e-01,3.812449248079158859e-01,-2.288894633974264403e-01,-1.166552251545766167e-01
9.180000000000000382e-01,2.871019387523177091e-01,-6.256654118995573499e-02,-1.459806576447139348e-01
9.190000000000000391e-01,1.762454352524444601e-01,1.020880525174729103e-01,-1.603982067313337034e-01
9.200000000000000400e-01,2.552531861641020063e-03,2.863579307915392613e-01,-1.056851975195003124e-01
9.210000000000000409e-01,-1.734085253043859132e-01,3.897286137844289677e-01,-4.223960334534106881e-02
9.220000000000000417e-01,-3.345670855535982646e-01,4.714794971841308469e-01,-3.025417674103976929e-03
9.230000000000000426e-01,-4.419785425865561113e-01,4.749643042923649694e-01,9.752097212696510253e-02
9.240000000000000435e-01,-5.086296284261839773e-01,3.979579285784101139e-01,1.657742261557424990e-01
9.250000000000000444e-01,-4.786865872864878857e-01,2.670200511301749069e-01,2.182303865746250682e-01
9.260000000000000453e-01,-3.768459544283551677e-01,7.403309095050868149e-02,2.223624512322257274e-01
9.270000000000000462e-01,-1.995268272973279300e-01,-1.273136650512355916e-01,2.223036282873699920e-01
9.280000000000000471e-01,-1.800776656618448268e-02,-3.071153854442966180e-01,1.423580902777486223e-01
9.290000000000000480e-01,1.905921278217640458e-01,-4.628309957205704039e-01,8.008163362555338616e-02
9.300000000000000488e-01,4.075531514288087132e-01,-5.299545916025101278e-01,-3.917676835930981177e-02
9.310000000000000497e-01,5.480398363971619169e-01,-5.252498732994260733e-01,-1.328726542936611577e-01
9.320000000000000506e-01,5.952876428643365525e-01,-4.206222326367846098e-01,-2.396481712244978024e-01
9.330000000000000515e-01,5.514051331375786624e-01,-2.883249927992055373e-01,-2.634968485364811430e-01
9.340000000000000524e-01,4.099546549462479428e-01,-7.021585661099241649e-02,-2.762107860628079670e-01
9.350000000000000533e-01,2.336832254859170233e-01,1.273016702697932212e-01,-2.634903174482708388e-01
9.360000000000000542e-01,-1.084084768351377057e-02,3.409571566198472126e-01,-2.103052740130313680e-01
9.370000000000000551e-01,-2.241503416795095072e-01,4.777029931876146107e-01,-8.681945991721512490e-02
9.379999999999999449e-01,-4.487019636058296457e-01,5.433934679835794590e-01,3.221112972476581487e-02
9.389999999999999458e-01,-5.865917460799959793e-01,5.370642895502798497e-01,1.341124719261182485e-01
9.399999999999999467e-01,-6.682075144987849047e-01,4.494304315433619856e-01,2.643031958316686136e-01
9.409999999999999476e-01,-5.951354351706832357e-01,2.796792047392678282e-01,3.236664380222396553e-01
9.419999999999999485e-01,-4.779337233727629641e-01,8.259288307532720863e-02,3.469984072773196759e-01
9.429999999999999494e-01,-2.531455950098764340e-01,-1.486707051936298762e-01,3.062985383692736763e-01
9.439999999999999503e-01,-2.873344484033927074e-02,-3.524489550816681804e-01,2.349262325358598136e-01
9.449999999999999512e-01,2.366482042733631663e-01,-4.944111842911448340e-01,1.085628160153509075e-01
9.459999999999999520e-01,4.734095419681736416e-01,-5.542463173931817533e-01,-6.853379807935215846e-03
9.469999999999999529e-01,6.223559247528407390e-01,-5.479073517189974041e-01,-1.796124242656519376e-01
9.479999999999999538e-01,7.254110885770792549e-01,-4.551500100732895904e-01,-2.905208641061732822e-01
9.489999999999999547e-01,6.562852900819479141e-01,-2.951320640354093139e-01,-3.304271885929845332e-01
9.499999999999999556e-01,5.298687740601147889e-01,-7.940459597910701217e-02,-3.901481596774288851e-01
9.509999999999999565e-01,2.981404520530254176e-01,1.344170970469331650e-01,-3.653808952405124821e-01
9.519999999999999574e-01,5.236957607954358107e-02,3.310133079889295282e-01,-2.849513988139680820e-01
9.529999999999999583e-01,-2.329267771876140092e-01,4.674404800973204210e-01,-1.379268792683119027e-01
9.539999999999999591e-01,-4.780554645901644029e-01,5.304007466152503847e-01,-1.510466046375822692e-02
9.549999999999999600e-01,-6.229022361015145171e-01,5.356077596838252353e-01,1.367641431223564075e-01
9.559999999999999609e-01,-6.857205808621280596e-01,4.576395016555673823e-01,2.808613576691302294e-01
9.569999999999999618e-01,-6.707124637335746264e-01,2.718869997670303462e-01,3.752171278305849178e-01
9.579999999999999627e-01,-5.355223833973329350e-01,7.514126821217824437e-02,4.175576036750612841e-01
9.589999999999999636e-01,-3.219056166029354848e-01,-1.256328085425260643e-01,3.952623784385572714e-01
9.599999999999999645e-01,-6.072930838001056042e-02,-3.184057393180596551e-01,3.132684070384910702e-01
9.609999999999999654e-01,2.102838187737766373e-01,-4.504121018512020624e-01,1.853698056554309026e-01
9.619999999999999662e-01,4.429710357815894173e-01,-4.836975568695562888e-01,2.041009137714301647e-02
9.629999999999999671e-01,6.008471739471031858e-01,-4.626975343132355700e-01,-1.502408454409498717e-01
9.639999999999999680e-01,6.935443443535569408e-01,-3.798346275221896051e-01,-2.848574623507363901e-01
9.649999999999999689e-01,6.746738179993589934e-01,-2.272526250679829662e-01,-3.685988497887955351e-01
9.659999999999999698e-01,5.153622934193169414e-01,-7.300262313408251158e-02,-4.370241626313227656e-01
9.669999999999999707e-01,3.297705238713701248e-01,1.286267793404004822e-01,-3.933328878947195961e-01
9.679999999999999716e-01,9.300954077053992519e-02,2.620153454634129853e-01,-3.317003070366940642e-01
9.689999999999999725e-01,-1.732568677899421206e-01,3.835610002726031476e-01,-2.080432088614554975e-01
9.699999999999999734e-01,-4.042306441829482400e-01,4.451468436811122920e-01,-6.281509356246058051e-02
9.709999999999999742e-01,-5.506865292853700966e-01,4.062523298880183487e-01,9.213072230144833674e-02
9.719999999999999751e-01,-6.395768999708927316e-01,3.479017775559573034e-01,2.397474356269504447e-01
9.729999999999999760e-01,-5.942280850430798900e-01,1.992578756330276868e-01,3.378758724375844347e-01
9.739999999999999769e-01,-5.147751149898348588e-01,4.127656636483809788e-02,4.125598815286552479e-01
9.749999999999999778e-01,-3.006011746792845440e-01,-1.231322989671823354e-01,4.110987289168342440e-01
9.759999999999999787e-01,-9.310289981758035349e-02,-2.422308230099262660e-01,3.370362508791475142e-01
9.769999999999999796e-01,1.491776608092906242e-01,-3.228853369732785916e-01,2.201110473161642933e-01
9.779999999999999805e-01,3.420006311766184970e-01,-3.645836766727434397e-01,7.375997774920056704e-02
9.789999999999999813e-01,4.728447174576632106e-01,-3.221474120641588668e-01,-9.690277712482774086e-02
9.799999999999999822e-01,5.595663561018324739e-01,-2.665830209675238427e-01,-2.386741496245910199e-01
9.809999999999999831e-01,5.347134086247734563e-01,-1.294739707745428126e-01,-3.225349890617978388e-01
9.819999999999999840e-01,4.444275849717772009e-01,-1.575073822851141489e-02,-3.805995403040717817e-01
9.829999999999999849e-01,2.897891302639684641e-01,8.550382069380398076e-02,-3.887541575496938906e-01
9.839999999999999858e-01,7.156518437055028881e-02,2.067223275919474745e-01,-3.223954590368819373e-01
9.849999999999999867e-01,-1.315990299043272027e-01,2.447814528942091061e-01,-2.233287886454825011e-01
9.859999999999999876e-01,-2.985659899512737581e-01,2.459458254030270352e-01,-1.096768945410423607e-01
9.869999999999999885e-01,-4.293356116348742701e-01,2.450438374136223452e-01,6.411744279912920397e-02
9.879999999999999893e-01,-4.830086886811532088e-01,1.576746123800719657e-01,1.926631305272364370e-01
9.889999999999999902e-01,-4.446692089508241241e-01,7.518672992217619033e-02,2.830946982331200568e-01
9.899999999999999911e-01,-3.539685750259978780e-01,-1.618885211084021905e-02,3.356610975117239049e-01
9.909999999999999920e-01,-2.183564898257489562e-01,-9.934199855450323580e-02,3.431145553809064608e-01
9.919999999999999929e-01,-6.073924912060620074e-02,-1.602649006383927155e-01,3.266155628125348986e-01
9.929999999999999938e-01,1.173172455003242548e-01,-1.939328584471442796e-01,2.099753408346045902e-01
9.939999999999999947e-01,2.333389057732947469e-01,-1.752213345207594142e-01,9.597395182069913544e-02
9.949999999999999956e-01,3.419163250723650238e-01,-1.343356165007277003e-01,-4.369945183469230859e-02
9.959999999999999964e-01,3.770344572685432327e-01,-8.258988917608185709e-02,-1.321598163849625474e-01
9.969999999999999973e-01,3.209203761877681971e-01,-3.706797601465574438e-02,-2.354242090925700581e-01
9.979999999999999982e-01,2.567771360608335218e-01,3.229955185170298171e-02,-2.956970513211087392e-01
9.989999999999999991e-01,1.659565161905536268e-01,7.874128179331789379e-02,-3.042516121458359590e-01
1.000000000000000000e+00,1.194087343062967543e-02,1.134437471564940098e-01,-2.577006874422094196e-01
1.000999999999999890e+00,-9.635804535064031173e-02,9.692127894047038172e-02,-1.830132367894050927e-01
1.002000000000000002e+00,-1.931459324753981022e-01,6.032145050732135028e-02,-9.488735312027682389e-02
1.002999999999999892e+00,-2.508607956762726743e-01,4.991609910604613565e-03,1.718551580300412690e-02
1.004000000000000004e+00,-2.618267428533669894e-01,-2.140128391257979310e-02,1.186846657008501366e-01
1.004999999999999893e+00,-2.133944397334290033e-01,-6.112463356011226673e-02,1.946247562189727387e-01
1.006000000000000005e+00,-1.177410031010667768e-01,-1.085572238934672390e-01,2.221294030258008367e-01
1.006999999999999895e+00,-6.387862057604458410e-02,-1.037143872677497025e-01,2.491345394184171780e-01
1.008000000000000007e+00,3.105452263612402605e-02,-8.355750670651627965e-02,1.726555459968079076e-01
1.008999999999999897e+00,9.288730017360542768e-02,-2.256951901903887087e-02,1.520927685636875026e-01
1.010000000000000009e+00,1.372196179365207935e-01,3.635287048918207919e-02,5.185153534128940367e-02
1.010999999999999899e+00,1.627405364949568722e-01,1.035584516621881057e-01,-2.465822607535746863e-02
1.012000000000000011e+00,9.926412048642561936e-02,1.490572567482242872e-01,-1.024954838619819147e-01
1.012999999999999901e+00,7.777204520609946881e-02,1.618243412909747547e-01,-1.458670319561852502e-01
1.014000000000000012e+00,2.759342036491589656e-02,1.366184821772668812e-01,-1.624480683058023289e-01
1.014999999999999902e+00,-3.993023230900804438e-02,1.113550554949105653e-01,-1.685506584569826660e-01
1.016000000000000014e+00,-1.054594802943089465e-01,4.173814091353646866e-02,-1.312195720609832528e-01
1.016999999999999904e+00,-1.059903869592286468e-01,-4.986274809541572234e-02,-7.752631123858974571e-02
1.018000000000000016e+00,-1.076036011594505987e-01,-1.525862574925547499e-01,-1.657626876432104213e-02
1.018999999999999906e+00,-7.983469065057810510e-02,-1.965378498836382881e-01,5.507517947330195507e-02
1.020000000000000018e+00,3.476315377040363561e-03,-2.480142294052443686e-01,7.698870492323701964e-02
1.020999999999999908e+00,6.437632027078232788e-02,-2.330427372553607324e-01,1.028033229372072727e-01
1.022000000000000020e+00,1.102621975213198130e-01,-1.832073944774797181e-01,9.703086810516320382e-02
1.022999999999999909e+00,1.785986167320847418e-01,-8.967087673237149337e-02,9.093485857974903386e-02
1.024000000000000021e+00,1.664773908541566372e-01,1.944850236335343360e-02,3.798918970453816352e-02
1.024999999999999911e+00,1.659838717975534172e-01,1.376445319908125853e-01,1.748358066591703536e-02
1.026000000000000023e+00,9.545544784787242387e-02,2.407601263630723687e-01,-2.322809348406812760e-02
1.026999999999999913e+00,-7.951772526411287137e-03,3.128180957820327901e-01,-4.005347856709341042e-02
1.028000000000000025e+00,-8.114408940215721289e-02,3.423716616794567624e-01,-8.010185828785354456e-02
1.028999999999999915e+00,-1.846879331547456038e-01,3.145327502642894513e-01,-5.648281931133634221e-02
1.030000000000000027e+00,-2.581797309708154797e-01,2.332457857115471656e-01,-3.942599448203767953e-02
1.030999999999999917e+00,-2.685590796858470797e-01,1.210417348284107963e-01,-5.601070855027893199e-04
1.032000000000000028e+00,-2.347353755325178593e-01,-3.605766101958441522e-02,3.590687002965739505e-02
1.032999999999999918e+00,-1.959952273532686307e-01,-1.968841693617954802e-01,5.747234055766097666e-02
1.034000000000000030e+00,-7.200469071673930299e-02,-2.888838609612257025e-01,9.598349653493622180e-02
1.034999999999999920e+00,3.921530723737032958e-02,-3.974931601155117789e-01,1.128536592948679723e-01
1.036000000000000032e+00,1.827087205884766752e-01,-4.319236566223835228e-01,9.079109806055772613e-02
1.036999999999999922e+00,2.971314362374714024e-01,-3.772266093545575405e-01,5.876159680251437367e-02
1.038000000000000034e+00,3.744021327478257999e-01,-2.594920366636170317e-01,-8.801312329837445922e-03
1.038999999999999924e+00,4.197525035099047841e-01,-1.381021859847153810e-01,-6.676432800005380197e-02
1.040000000000000036e+00,3.549400064249229048e-01,4.898828208063289030e-02,-1.175167076150322454e-01
1.040999999999999925e+00,2.511739391910171038e-01,2.342928704843751930e-01,-1.469997958670274663e-01
1.042000000000000037e+00,8.437492433917519186e-02,3.572265051386257495e-01,-1.474749564095536869e-01
1.042999999999999927e+00,-9.262677916143217949e-02,4.810321728289619347e-01,-1.340014114724094318e-01
1.044000000000000039e+00,-2.641998375692142242e-01,4.673955055523733026e-01,-1.140601791750658484e-01
1.044999999999999929e+00,-4.071690032789749281e-01,4.335322678523288453e-01,-1.209573104979123209e-02
1.046000000000000041e+00,-4.746688971282346237e-01,3.033727351654868509e-01,3.896130177529411043e-02
1.046999999999999931e+00,-4.944839687756975577e-01,1.445704319270973426e-01,1.085391866899818175e-01
1.048000000000000043e+00,-4.476130354843704251e-01,-6.049496674416814795e-02,1.889211144106746065e-01
1.048999999999999932e+00,-2.908481933659113894e-01,-2.518143461497868718e-01,2.275749425116205538e-01
1.050000000000000044e+00,-1.175584939143297231e-01,-4.203920878232894065e-01,2.341983222624224315e-01
1.050999999999999934e+00,1.145609884289230523e-01,-5.074038381724323976e-01,2.001873939810821790e-01
1.052000000000000046e+00,3.289533465990381322e-01,-5.117179772524333980e-01,1.450647379050921115e-01
1.052999999999999936e+00,4.646670642084271829e-01,-4.769547745373992620e-01,4.577711741875236523e-02
1.054000000000000048e+00,5.701749476485246104e-01,-3.253009905889641673e-01,-5.527276489972098028e-02
1.054999999999999938e+00,5.886942655644262778e-01,-1.360387044898131725e-01,-1.457348004932577101e-01
1.056000000000000050e+00,5.002762486760797822e-01,7.975734259622281608e-02,-2.248005022271650777e-01
1.056999999999999940e+00,3.570855068317718151e-01,2.788519977634849045e-01,-3.052010852389588358e-01
1.058000000000000052e+00,1.264332495785270571e-01,4.639616533747505933e-01,-3.053889759341392729e-01
1.058999999999999941e+00,-1.103139336960040628e-01,5.541095454731467251e-01,-2.668357347781349920e-01
1.060000000000000053e+00,-3.705241149797505740e-01,5.572871803347678732e-01,-1.616775837326830390e-01
1.060999999999999943e+00,-5.326323444928701134e-01,4.835048708813046714e-01,-5.842179650873149249e-02
1.062000000000000055e+00,-6.443637121451867289e-01,3.493498526546672811e-01,5.409542131739496912e-02
1.062999999999999945e+00,-6.418835790484692660e-01,1.426885302222106466e-01,1.818907726921620005e-01
1.064000000000000057e+00,-5.582496798959976081e-01,-6.232119335673314692e-02,2.815308735409781105e-01
1.064999999999999947e+00,-3.884065482537996106e-01,-2.646504447239115265e-01,3.169883316750795044e-01
1.066000000000000059e+00,-1.651693454545443140e-01,-4.795019641438284519e-01,3.553255408487583922e-01
1.066999999999999948e+00,1.053575488342084476e-01,-5.605127682422387236e-01,2.850171928373970709e-01
1.068000000000000060e+00,3.371807822116915654e-01,-5.323534517948164124e-01,2.259804797136276966e-01
1.068999999999999950e+00,5.816630453277772395e-01,-4.682734057308077791e-01,9.326629808850096792e-02
1.070000000000000062e+00,6.629207657710978197e-01,-3.425537213373482381e-01,-4.963831776320232203e-02
1.070999999999999952e+00,6.961272834628263739e-01,-1.324149383977591132e-01,-1.985969144711061396e-01
1.072000000000000064e+00,5.785580129739323896e-01,7.074003932262344641e-02,-3.038437853731410510e-01
1.072999999999999954e+00,3.987414958102484808e-01,2.793933937218032182e-01,-3.875424026506282815e-01
1.074000000000000066e+00,1.839678565696393764e-01,4.438087761573820678e-01,-3.778118233995992337e-01
1.074999999999999956e+00,-8.240644546130637682e-02,5.251337594725778990e-01,-3.297002074644845848e-01
1.076000000000000068e+00,-3.601995564366245461e-01,5.435567519517811030e-01,-2.475756481511738050e-01
1.076999999999999957e+00,-5.634150982814463138e-01,4.561590308750240741e-01,-1.176038928069861600e-01
1.078000000000000069e+00,-6.706396011951419878e-01,3.100204318742859622e-01,4.592464727996964369e-02
1.078999999999999959e+00,-6.977631803016763890e-01,1.429079745550574099e-01,2.140298386874574799e-01
1.080000000000000071e+00,-6.128884621977546132e-01,-6.285134482022962377e-02,2.985983841890265111e-01
1.080999999999999961e+00,-4.467666147876882543e-01,-2.359932262575839823e-01,3.878959505090270321e-01
1.082000000000000073e+00,-1.821792999786152334e-01,-4.139036111791752903e-01,4.268322471246457916e-01
1.082999999999999963e+00,5.149762580158318004e-02,-4.804931153017361067e-01,3.519437613581657964e-01
1.084000000000000075e+00,3.098480131273629867e-01,-4.900354123261621564e-01,2.747215591028231430e-01
1.084999999999999964e+00,5.355025893763134537e-01,-4.332110489178663815e-01,1.113826039039057525e-01
1.086000000000000076e+00,6.734368688270913061e-01,-2.903643680738027810e-01,-2.597646374873942635e-02
1.086999999999999966e+00,6.713825134542570350e-01,-9.594630443767684924e-02,-1.584448980238000459e-01
1.088000000000000078e+00,6.044799697319515053e-01,6.007639363810506755e-02,-3.102287168469784473e-01
1.088999999999999968e+00,4.577661318134466084e-01,2.155026474621480337e-01,-3.768799701314781703e-01
1.090000000000000080e+00,2.163644266866720511e-01,3.630442188992284991e-01,-4.336094344613974361e-01
1.090999999999999970e+00,-2.245669936263874553e-02,4.411014219848129470e-01,-3.650146677773449810e-01
1.092000000000000082e+00,-2.859638634308681038e-01,4.303458016993341184e-01,-2.982263201947795150e-01
1.092999999999999972e+00,-4.705760545628339675e-01,3.374233649001905921e-01,-1.865734714752761703e-01
1.094000000000000083e+00,-6.027005153288790273e-01,2.316236144032306210e-01,-2.069925614369581141e-02
1.094999999999999973e+00,-6.291955137399580789e-01,9.757312828849955266e-02,1.206150474463358602e-01
1.096000000000000085e+00,-5.605080585740352950e-01,-8.367371377830937207e-02,2.875539159389099431e-01
1.096999999999999975e+00,-4.206725079004419721e-01,-1.969002507554604708e-01,3.753552924383449785e-01
1.098000000000000087e+00,-1.969073908222145897e-01,-3.127106602982516192e-01,4.179173590517248349e-01
1.098999999999999977e+00,3.602949806746955780e-02,-3.587525118008266234e-01,3.947557079155898929e-01
1.100000000000000089e+00,2.358698583459191978e-01,-3.500959284846041353e-01,3.339509439760633969e-01
1.100999999999999979e+00,4.144081923658113342e-01,-2.803835763186676155e-01,1.815657317802945592e-01
1.102000000000000091e+00,5.403974149748401734e-01,-1.608329265117171836e-01,3.931497261769476698e-02
1.102999999999999980e+00,5.781947515068240895e-01,-4.333878097156896453e-02,-1.368043066882538850e-01
1.104000000000000092e+00,4.900201984307902547e-01,6.537191332621589135e-02,-2.238895566655637048e-01
1.104999999999999982e+00,3.641443764757367196e-01,1.833388019277359948e-01,-3.235590532026196287e-01
1.106000000000000094e+00,1.686756229774442062e-01,2.248139604041922979e-01,-3.782957873500452095e-01
1.106999999999999984e+00,-5.773366584193874960e-03,2.642530609581269507e-01,-3.708502835827212074e-01
1.108000000000000096e+00,-2.029594458239337706e-01,2.611713235640024666e-01,-3.096927239338836402e-01
1.108999999999999986e+00,-3.729983657743654035e-01,1.771847728647348297e-01,-1.862834003162023855e-01
1.110000000000000098e+00,-4.454982853905902207e-01,9.743327643580847186e-02,-5.604763393419653905e-02
1.110999999999999988e+00,-4.394019642317013585e-01,1.934030190126670434e-02,7.005847697139476471e-02
1.112000000000000099e+00,-4.073038300172260873e-01,-7.381090806536978743e-02,2.059764270423655175e-01
1.112999999999999989e+00,-2.781706594035319724e-01,-1.340077609603721465e-01,2.893241643285129894e-01
1.114000000000000101e+00,-1.417264979174955308e-01,-1.739531019720345628e-01,3.416258530076348165e-01
1.114999999999999991e+00,1.601337002752427612e-03,-1.806886905480878103e-01,3.233509541012129507e-01
1.116000000000000103e+00,1.683197724900780679e-01,-1.491292007741257253e-01,2.689378507262960016e-01
1.116999999999999993e+00,3.068173412017468626e-01,-9.066096542122871471e-02,1.656459477722921902e-01
1.118000000000000105e+00,3.383851551458789131e-01,-1.667083787801644859e-02,5.238764382480035758e-02
1.118999999999999995e+00,3.367595091790922535e-01,2.469943183533734876e-02,-6.238726856130293041e-02
1.120000000000000107e+00,2.906880055909503713e-01,5.517079303920215810e-02,-1.837826918137059062e-01
1.120999999999999996e+00,1.987512052350578762e-01,1.113668799373594559e-01,-2.454630150307447189e-01
1.122000000000000108e+00,8.335672440243092896e-02,1.040340156304032232e-01,-3.101127943192940606e-01
1.122999999999999998e+00,-3.869142934541342643e-02,7.116153014125026210e-02,-2.974549649569870891e-01
1.124000000000000110e+00,-1.410719012520370019e-01,3.548624691431224304e-02,-2.458634010376740120e-01
1.125000000000000000e+00,-2.241090435666021619e-01,-3.620250113526835012e-02,-1.727584489268754464e-01
1.125999999999999890e+00,-2.325938265200126753e-01,-8.044645452633532312e-02,-5.087857466218978497e-02
1.127000000000000002e+00,-2.288759373487802562e-01,-1.240215480705782053e-01,3.919372345024273174e-02
1.127999999999999892e+00,-1.765086116342041711e-01,-9.235001681214216607e-02,1.316353098395619536e-01
1.129000000000000004e+00,-1.058904033989828825e-01,-6.628312082042771280e-02,2.138963027991111487e-01
1.129999999999999893e+00,-1.522755755279676416e-02,-3.246580438522464473e-02,2.149068952583975123e-01
1.131000000000000005e+00,4.982993871832112898e-02,1.751303178994831691e-02,2.214159790377430159e-01
1.131999999999999895e+00,1.319621322029899957e-01,8.138489044886629276e-02,1.762909618390368360e-01
1.133000000000000007e+00,1.515670858475331728e-01,1.475839266806461825e-01,1.111233436005738401e-01
1.133999999999999897e+00,1.445866331147219186e-01,1.436610640461925825e-01,3.444682310542568349e-02
1.135000000000000009e+00,1.094419424778585725e-01,1.378752952819533029e-01,-3.867212653599502725e-02
1.135999999999999899e+00,3.963493663739787315e-02,1.091174144103483484e-01,-9.199306152108140122e-02
1.137000000000000011e+00,-2.357636202003062908e-03,4.575161710051298125e-02,-1.557567753327377402e-01
1.137999999999999901e+00,-5.837589504816585728e-02,-3.917093158725901830e-02,-1.570479498377384542e-01
1.139000000000000012e+00,-1.183906111878588047e-01,-1.275032656392005859e-01,-1.665249818584892127e-01
1.139999999999999902e+00,-9.298116310699204579e-02,-1.874209248218411950e-01,-9.670212353814704176e-02
1.141000000000000014e+00,-9.559234821817745587e-02,-2.446236747516986332e-01,-6.722179392889301996e-02
1.141999999999999904e+00,-3.275151346156365828e-02,-2.482086120959131614e-01,-1.446746980670464769e-02
1.143000000000000016e+00,4.418721245243132506e-02,-2.158269665195813314e-01,4.196777123056195935e-02
1.143999999999999906e+00,9.608506743174777265e-02,-1.366782845545759795e-01,6.711647201137513341e-02
1.145000000000000018e+00,1.535914039706837986e-01,-1.029129529862071561e-02,9.146867340419466419e-02
1.145999999999999908e+00,1.626803617208830155e-01,9.175654263773724839e-02,9.210736549681304564e-02
1.147000000000000020e+00,1.863891347916848407e-01,2.110468105739585210e-01,6.895288290038335821e-02
1.147999999999999909e+00,1.279918508510643482e-01,2.784792690133868764e-01,3.865988975841284925e-02
1.149000000000000021e+00,4.361757382128734345e-02,3.070412557350323812e-01,7.729898473601700196e-03
1.149999999999999911e+00,-4.186933979405525058e-02,3.234576527875540619e-01,-2.861390086922375314e-02
1.151000000000000023e+00,-1.525870047563182008e-01,2.688231641497451641e-01,-5.342628589861272981e-02
1.151999999999999913e+00,-2.115860534804416271e-01,1.397781737879537634e-01,-5.995656337284688275e-02
1.153000000000000025e+00,-2.973512403679550720e-01,-1.613550684689665912e-03,-7.499306629471082231e-02
1.153999999999999915e+00,-2.929321503476828292e-01,-1.380390276600985122e-01,-3.980480641530276947e-02
1.155000000000000027e+00,-2.414683849138701266e-01,-2.862207376165782913e-01,-1.025586624733600648e-02
1.155999999999999917e+00,-1.518297101058461440e-01,-3.694833215216261624e-01,3.139419505414595829e-02
1.157000000000000028e+00,1.561399334135452933e-02,-4.179412101306634875e-01,7.713776825832995010e-02
1.157999999999999918e+00,1.318606198969473897e-01,-3.847520757531658897e-01,9.298896967437687844e-02
1.159000000000000030e+00,2.606825343716594467e-01,-3.395366274655425842e-01,1.021543288361505819e-01
1.159999999999999920e+00,3.802306765699045021e-01,-1.937385922542756156e-01,5.830841175596097187e-02
1.161000000000000032e+00,3.804237299325639587e-01,-1.714453345666425502e-02,2.863982990830730990e-02
1.161999999999999922e+00,3.921363099513689998e-01,1.631553770384062407e-01,-5.805762524501933974e-03
1.163000000000000034e+00,3.222272468809519452e-01,3.361644941204020021e-01,-4.923421806477296103e-02
1.163999999999999924e+00,1.685269627148804905e-01,4.583809900304693929e-01,-1.166354797834982110e-01
1.165000000000000036e+00,1.090852027355946469e-02,4.968542873455090159e-01,-1.403639062646785951e-01
1.165999999999999925e+00,-1.746687987681686538e-01,4.640915743015919803e-01,-1.507031284539744054e-01
1.167000000000000037e+00,-3.483421647161587531e-01,3.626642171577790230e-01,-1.567216964644137234e-01
1.167999999999999927e+00,-4.564207316743045251e-01,2.040992233028406655e-01,-9.699212237250273705e-02
1.169000000000000039e+00,-5.036645140628848161e-01,-3.192905041720743402e-03,-1.200099138083863572e-02
1.169999999999999929e+00,-4.808751484428535616e-01,-2.136705078838201377e-01,4.138752671169650815e-02
1.171000000000000041e+00,-3.933266276387054616e-01,-3.874459820221464179e-01,1.099047011516671862e-01
1.171999999999999931e+00,-1.995116292078956688e-01,-5.048193343728365479e-01,2.043383054703398483e-01
1.173000000000000043e+00,-1.831504142113264330e-02,-5.416218384226726412e-01,2.152238399940372138e-01
1.173999999999999932e+00,2.070119874014517691e-01,-5.098304387119523273e-01,2.136420105204768771e-01
1.175000000000000044e+00,3.872524786976412892e-01,-3.827664660990361400e-01,1.823172105768403328e-01
1.175999999999999934e+00,5.457782913179257678e-01,-2.058528989098070694e-01,1.206522552144706079e-01
1.177000000000000046e+00,6.042584410737125156e-01,-1.055468441237427876e-02,1.545013387882250740e-02
1.177999999999999936e+00,5.550769796547713186e-01,1.873437012413833591e-01,-9.738005878912510405e-02
1.179000000000000048e+00,4.302968462269809446e-01,4.129443330061188799e-01,-1.640160431647124106e-01
1.179999999999999938e+00,2.494311018348307762e-01,5.153994645470468816e-01,-2.372498760316831823e-01
