time,acc_x,acc_y,acc_z
0.000000000000000000e+00,1.696851891675822399e-01,2.311024455132485445e-01,3.609182027906597534e-02
1.000000000000000021e-03,1.161414834866795615e-01,1.382111421593485712e-01,-2.280518038115104257e-02
2.000000000000000042e-03,5.265267452239345142e-02,1.125134350778482228e-01,-5.336673425551329702e-02
3.000000000000000062e-03,2.109856023143972525e-01,2.312439349963694435e-01,5.745780922151270259e-02
4.000000000000000083e-03,5.429718894955432029e-01,4.474297239526368042e-01,2.333580836166438965e-01
5.000000000000000104e-03,6.489569606254049772e-01,4.595056938054443707e-01,3.681130158689415177e-01
6.000000000000000125e-03,4.769284134347345216e-01,2.352628869982571203e-01,3.209032618788055791e-01
7.000000000000000146e-03,2.394222968377418270e-01,8.382640754564404939e-02,1.882446622345207432e-01
8.000000000000000167e-03,2.213553369326189957e-01,1.145024476558284959e-01,1.768773607081150223e-01
8.999999999999999320e-03,3.646526956273341558e-01,2.192491785292219886e-01,2.587804018165489328e-01
1.000000000000000021e-02,3.644772586868188502e-01,1.945843823510717274e-01,3.038168430844465639e-01
1.099999999999999936e-02,1.166903852774827666e-01,5.179314967978142920e-03,1.836666398168888825e-01
1.200000000000000025e-02,-1.508968503065690747e-01,-1.614503601099158414e-01,-3.176079835073976343e-02
1.299999999999999940e-02,-1.503369161566248946e-01,-7.157181806817194958e-02,-1.134042994429570739e-01
1.400000000000000029e-02,5.821740474931243192e-02,1.473512580802289751e-01,-4.824979024299067172e-03
1.499999999999999944e-02,1.537804084798002346e-01,2.146142181688631412e-01,7.370370085007690863e-02
1.600000000000000033e-02,4.871591837539797354e-02,9.103353172645527180e-02,7.825051861659420432e-03
1.700000000000000122e-02,-1.275199554179571315e-01,-3.013445360463464645e-03,-9.910525132948462546e-02
1.799999999999999864e-02,-6.400261932138646970e-02,8.613746731500984688e-02,-9.554136968812615427e-02
1.899999999999999953e-02,2.047475387095177846e-01,2.851779711900804815e-01,1.624179672302373829e-03
2.000000000000000042e-02,3.557850675275489039e-01,3.179723611920532433e-01,1.536470019329839731e-01
2.100000000000000130e-02,2.035804285217683307e-01,6.684544713852631770e-02,1.482883858208765282e-01
2.199999999999999872e-02,-5.114956300493217478e-02,-1.334558392654575376e-01,1.178215078154678554e-02
2.299999999999999961e-02,-9.815208966930635825e-02,-1.431969856024809806e-01,-6.317720481069935556e-02
2.400000000000000050e-02,-7.862400264973696054e-03,-7.511600152199929270e-02,8.278028327248120738e-03
2.500000000000000139e-02,2.275518008705277803e-02,-1.368869521125638533e-01,8.569658528076777582e-02
2.599999999999999881e-02,-2.229729219224317882e-01,-3.467927597607580181e-01,2.075112228149075463e-02
2.699999999999999969e-02,-5.255783117927308457e-01,-5.296131455607925309e-01,-1.424714049449690989e-01
2.800000000000000058e-02,-6.025858684335863025e-01,-4.531371585227678134e-01,-2.882253400408839594e-01
2.900000000000000147e-02,-4.280597204034007341e-01,-2.488430659754145291e-01,-2.701483863922441997e-01
2.999999999999999889e-02,-2.728712892885587493e-01,-1.954764121963070700e-01,-1.952473849864494182e-01
3.099999999999999978e-02,-3.485581913371257889e-01,-2.612799740730886167e-01,-1.924840184234226648e-01
3.200000000000000067e-02,-5.067258249998410902e-01,-3.318176663257459413e-01,-3.095441484516845421e-01
3.300000000000000155e-02,-4.803409034956300783e-01,-1.419237143773242615e-01,-3.757435711110228560e-01
3.400000000000000244e-02,-1.323060903523340104e-01,1.170505644760396896e-01,-2.397179919368953305e-01
3.500000000000000333e-02,1.576999656780261605e-01,2.176187312204970747e-01,-7.280211521479093562e-02
3.599999999999999728e-02,1.471746876731279130e-01,6.957281103719789583e-02,5.163061417451558777e-02
3.699999999999999817e-02,1.123561869074623902e-02,-2.867403805400302666e-02,2.272897766228257344e-02
3.799999999999999906e-02,-2.581900079690302094e-02,2.226337818709708469e-02,-3.502940967390268112e-02
3.899999999999999994e-02,1.734731478791630699e-01,1.669694207337084624e-01,4.812279213409795253e-02
4.000000000000000083e-02,3.555377853338427818e-01,1.564182624496334717e-01,1.998155374782757399e-01
4.100000000000000172e-02,2.434702918435966701e-01,-4.087130910534136907e-02,2.554062175918452304e-01
4.200000000000000261e-02,-3.383073055924484818e-02,-2.024782263603034094e-01,1.522708804231111268e-01
4.299999999999999656e-02,-1.672660875214147802e-01,-1.329968665021516172e-01,4.028029221034234997e-03
4.399999999999999745e-02,-3.078733235774408494e-02,7.703365914939752646e-02,2.999704883742190711e-03
4.499999999999999833e-02,1.575758419252095699e-01,1.196248268328119202e-01,9.754311206116321464e-02
4.599999999999999922e-02,8.849182731366643517e-02,8.105703135991793040e-02,1.231477760799240817e-01
4.700000000000000011e-02,-7.080148974693767361e-02,-1.634799525329004577e-02,4.695849664432356213e-02
4.800000000000000100e-02,-8.547159209370881749e-02,1.345910713217710331e-01,-9.586524793792232380e-02
4.900000000000000189e-02,1.998253980223109183e-01,3.688780411263344883e-01,-6.438653032674440668e-02
5.000000000000000278e-02,4.647828052844713009e-01,4.886321939503054934e-01,6.493841904256826558e-02
5.099999999999999672e-02,4.798331902801111215e-01,3.628175576518568035e-01,2.037860351781549950e-01
5.199999999999999761e-02,3.121148318991224246e-01,2.166639935928996730e-01,1.882529744198115085e-01
5.299999999999999850e-02,2.308815983352820733e-01,2.350012086746059992e-01,1.083382971156581220e-01
5.399999999999999939e-02,3.937351839464657277e-01,3.511265428536766153e-01,1.342084798088282183e-01
5.500000000000000028e-02,5.597357316940889671e-01,3.522720707993678424e-01,2.530238253050066666e-01
5.600000000000000117e-02,4.524156967853747435e-01,1.063716212825213669e-01,3.559061784360688097e-01
5.700000000000000205e-02,1.099366908838467077e-01,-1.672169892338999653e-01,2.644422291086719334e-01
5.800000000000000294e-02,-1.163038760632924828e-01,-1.689694349066181156e-01,8.663149774919637336e-02
5.899999999999999689e-02,-6.602826098177998204e-02,-6.366803988304471640e-02,-1.128029926760529787e-02
5.999999999999999778e-02,-1.696003314879078287e-03,-7.478867685299785129e-02,5.490954630192338565e-02
6.099999999999999867e-02,-8.709833221807145032e-02,-2.426318502133617272e-01,5.654119305924409228e-02
6.199999999999999956e-02,-3.637268715341853698e-01,-3.506743412645527691e-01,-2.131777088265430706e-02
6.300000000000000044e-02,-5.324915261261511379e-01,-3.004029670462989854e-01,-2.402824491271026708e-01
6.400000000000000133e-02,-3.922599657577660048e-01,-5.747100938041812407e-02,-2.956047316723283136e-01
6.500000000000000222e-02,-1.533885411368245411e-01,7.792547577313699292e-02,-2.630097605671635197e-01
6.600000000000000311e-02,-4.515254277222211649e-02,-6.234105248484765605e-02,-1.303440764558895515e-01
6.700000000000000400e-02,-1.906215619523068394e-01,-1.604538550588520962e-01,-1.072063729781745356e-01
6.800000000000000488e-02,-2.809373838645173871e-01,-7.233761916228306776e-02,-1.951159676578907431e-01
6.900000000000000577e-02,-1.232625630207342116e-01,6.751928285203692703e-02,-2.394714931072431108e-01
7.000000000000000666e-02,9.512398345289206636e-02,1.080889790636326703e-01,-9.819391511000208350e-02
7.099999999999999367e-02,1.411359392221097353e-01,-1.097331417719355912e-01,4.402012700400790429e-02
7.199999999999999456e-02,-7.893906942445298724e-02,-3.101751555076864286e-01,8.820073905698215533e-02
7.299999999999999545e-02,-3.029144946361313484e-01,-3.237024908606779827e-01,-4.576037676728926529e-02
7.399999999999999634e-02,-2.807422988493992189e-01,-2.059709447371300406e-01,-1.341604075464396806e-01
7.499999999999999722e-02,-1.230848800260250508e-01,-1.617942897772885746e-01,-8.081059315344492344e-02
7.599999999999999811e-02,-9.205042476574103183e-02,-2.858920628297206834e-01,9.389088337098776271e-03
7.699999999999999900e-02,-3.732549173658448183e-01,-3.863504559362471724e-01,-4.231386886737039874e-03
7.799999999999999989e-02,-5.178111142397825439e-01,-3.035486878123548338e-01,-1.470905818653477637e-01
7.900000000000000078e-02,-3.971760094137017361e-01,-3.316031565036924034e-02,-3.120530345655386784e-01
8.000000000000000167e-02,-1.007187284399471278e-01,1.655387825761738818e-01,-2.225973554280730460e-01
8.100000000000000255e-02,8.580359985198553197e-02,1.142947680010189260e-01,-1.017587235272389562e-01
8.200000000000000344e-02,1.520291647849487948e-02,5.956625486783607287e-02,-4.204189651442511583e-03
8.300000000000000433e-02,-3.071818925543100265e-02,1.752326166987856759e-01,-7.455529271866312424e-02
8.400000000000000522e-02,1.379679443443184439e-01,4.103857750918035174e-01,-1.012664703944463618e-01
8.500000000000000611e-02,4.555273768048789251e-01,4.908901063453777747e-01,1.868373390697375402e-02
8.599999999999999312e-02,6.287374852675470249e-01,3.389320244214084066e-01,2.069538515946370560e-01
8.699999999999999400e-02,4.846675387949645475e-01,1.335958774728531473e-01,3.348802233098933101e-01
8.799999999999999489e-02,2.979708230519422796e-01,1.244339851560721799e-01,2.701352961682539910e-01
8.899999999999999578e-02,2.706709891005721347e-01,2.224447820253026009e-01,1.951644666218217694e-01
8.999999999999999667e-02,4.055193834472116121e-01,2.149212361961742312e-01,1.921351655091047828e-01
9.099999999999999756e-02,4.319188156509396470e-01,5.067537417230328495e-02,2.941697584524057829e-01
9.199999999999999845e-02,1.670658399249699555e-01,-1.345272871443966289e-01,3.435758006904660600e-01
9.299999999999999933e-02,-1.243481734861255211e-01,-1.220885679771518406e-01,1.833774827602255575e-01
9.400000000000000022e-02,-1.501818562820066705e-01,1.054068469505815564e-01,1.461249967623991404e-02
9.500000000000000111e-02,1.291280278223971845e-02,2.154198692348079369e-01,-4.658403303456843531e-02
9.600000000000000200e-02,1.276158340392960500e-01,1.131445701912052876e-01,1.793464461431209037e-02
9.700000000000000289e-02,3.334271605637602331e-02,6.863808541323511078e-03,8.504206194459426604e-02
9.800000000000000377e-02,-1.269707273660216906e-01,6.282214014444509331e-02,5.375697568963401160e-03
9.900000000000000466e-02,-6.103149853258890700e-02,2.478491824457394188e-01,-1.192799161757711196e-01
1.000000000000000056e-01,1.777988804803754541e-01,3.225162438256864439e-01,-1.259898336550337172e-01
1.010000000000000064e-01,3.591064498018256557e-01,1.930126423707452799e-01,1.832094216519104465e-02
1.019999999999999934e-01,2.232072765392369984e-01,-2.976152899275093591e-02,1.365284567837104501e-01
1.029999999999999943e-01,3.036665010530822939e-02,-9.451374972319806500e-02,1.354877320263178364e-01
1.039999999999999952e-01,-9.420149403977509661e-02,-2.467859779675354512e-02,2.584486859195956124e-02
1.049999999999999961e-01,3.995286384552915182e-02,-3.984008759779662789e-02,-2.996348311713622689e-02
1.059999999999999970e-01,1.222859637020231038e-01,-2.374668143903367612e-01,2.860456074468371510e-02
1.069999999999999979e-01,-1.196811432896755512e-01,-4.988272240834194515e-01,1.277420059705058897e-01
1.079999999999999988e-01,-4.518061448746442110e-01,-4.947726492695863065e-01,4.154722041600367871e-02
1.089999999999999997e-01,-6.133002170126626851e-01,-3.251755486725700917e-01,-1.521709609894029425e-01
1.100000000000000006e-01,-4.310133182170362010e-01,-1.872551943505652294e-01,-2.815628123392464599e-01
1.110000000000000014e-01,-3.092075522192617165e-01,-2.865128602211508557e-01,-2.468060070509352499e-01
1.120000000000000023e-01,-3.566082175662858567e-01,-3.469644403067060900e-01,-1.676032974250064311e-01
1.130000000000000032e-01,-5.736370312976196706e-01,-2.738160133055555501e-01,-2.242045289994842316e-01
1.140000000000000041e-01,-4.915572504800588272e-01,2.380895980478471563e-02,-3.260572511599648671e-01
1.150000000000000050e-01,-2.201003736048488812e-01,1.562844337663422400e-01,-3.723509846971800874e-01
1.160000000000000059e-01,8.608683620444830542e-02,9.524037088065070988e-02,-2.643346374840860324e-01
1.170000000000000068e-01,1.087862943159047802e-01,-5.042267706191602000e-02,-7.230253277770283538e-02
1.179999999999999938e-01,-2.603292293064753821e-02,-1.013908856091575578e-02,7.845422074507999929e-03
1.189999999999999947e-01,-3.083867806110177079e-02,1.224791491746994032e-01,-3.972920762248275534e-02
1.199999999999999956e-01,1.780732294702635499e-01,2.085939388571078912e-01,-6.709103743499066075e-02
1.209999999999999964e-01,3.498392050674786757e-01,4.030577586492386372e-02,4.042922469069176739e-02
1.219999999999999973e-01,2.549369340336030687e-01,-1.605695648906979578e-01,1.800500749774228693e-01
1.229999999999999982e-01,1.194115721186847154e-02,-2.151992409616215185e-01,2.361762467394273868e-01
1.239999999999999991e-01,-1.416294842173747848e-01,-4.312120834066921621e-02,1.403731254941176787e-01
1.250000000000000000e-01,-2.606004651712339609e-02,8.833730237125138329e-02,1.875652394996666153e-02
1.260000000000000009e-01,1.442351737853992399e-01,3.239045583285242447e-02,3.348532890096620612e-02
1.270000000000000018e-01,9.392457644696700081e-02,-6.847686397953106630e-02,1.201571942256364628e-01
1.280000000000000027e-01,-1.061015556937626031e-01,3.301066043737221206e-02,1.279465495961338017e-01
1.290000000000000036e-01,-1.260628308257502050e-01,2.699633718952309525e-01,1.177646045691573690e-02
1.300000000000000044e-01,7.610733209843542624e-02,4.542915371861482310e-01,-1.037914393296318766e-01
1.310000000000000053e-01,3.879671906138464355e-01,4.032888492079492737e-01,-7.617994327920087072e-02
1.320000000000000062e-01,4.585935735515409006e-01,2.580578381711538527e-01,6.683769434754853467e-02
1.330000000000000071e-01,3.196782941305489345e-01,2.565232929626320990e-01,1.911114565104886920e-01
1.340000000000000080e-01,2.365605803126219209e-01,3.911851053501616549e-01,1.411995640987956380e-01
1.350000000000000089e-01,4.050702736403837823e-01,4.086370700742794071e-01,6.258615855529010841e-02
1.360000000000000098e-01,5.824797644897629079e-01,2.316142647319431591e-01,1.284809716243424937e-01
1.370000000000000107e-01,5.406685872934077208e-01,-3.339853634236584351e-02,2.793939789450534672e-01
1.380000000000000115e-01,2.600922530775551245e-01,-1.459987496914032234e-01,3.592016321638689669e-01
1.390000000000000124e-01,-3.558889886754422471e-02,-7.649548681371004522e-02,2.730358323666539633e-01
1.400000000000000133e-01,-3.671337211134629436e-02,1.728632423038221899e-02,8.953732119693291747e-02
1.409999999999999865e-01,6.327899375620357758e-02,-1.519933303871221497e-01,3.690206229005121158e-02
1.419999999999999873e-01,-2.886355261133146874e-02,-3.510453965452949854e-01,9.551879710239839782e-02
1.429999999999999882e-01,-3.008251487188994822e-01,-2.899741106194315687e-01,7.934148056866005549e-02
1.439999999999999891e-01,-5.174295857040382973e-01,-1.162537938623396938e-01,-2.946875831451494301e-02
1.449999999999999900e-01,-3.948046222476321865e-01,5.168935168836243793e-02,-2.125624871987847886e-01
1.459999999999999909e-01,-1.969749909042921299e-01,-3.674559072317487574e-02,-2.792359792521086348e-01
1.469999999999999918e-01,-8.909168388867304278e-02,-1.443963627689600904e-01,-2.309104956969003641e-01
1.479999999999999927e-01,-2.069899497027366531e-01,-1.472311918132966913e-01,-1.008529957899092777e-01
1.489999999999999936e-01,-3.154505821615058991e-01,4.834116930094558423e-02,-1.816764656040313064e-01
1.499999999999999944e-01,-1.730671348568762202e-01,1.150536178451513347e-01,-2.390723477127555396e-01
1.509999999999999953e-01,8.073642028392688519e-02,-3.411933245863062181e-02,-2.505603995554129271e-01
1.519999999999999962e-01,1.509317274282772625e-01,-2.567849389604558996e-01,-8.818050869746645037e-02
1.529999999999999971e-01,-4.097926753579581721e-02,-3.097695844553375322e-01,7.461552156476017328e-02
1.539999999999999980e-01,-2.556743874080847911e-01,-1.989452843373233915e-01,5.372204062410727149e-02
1.549999999999999989e-01,-2.517242132929428111e-01,-1.533888880431027169e-01,-5.511502182479781353e-02
1.559999999999999998e-01,-1.208113838673440660e-01,-2.495529711145893781e-01,-1.597387642319158252e-01
1.570000000000000007e-01,-8.315039491925471649e-02,-4.101529940194936774e-01,-6.373781197097182216e-02
1.580000000000000016e-01,-3.067809221008814813e-01,-3.845598384917190971e-01,5.894140542396396343e-02
1.590000000000000024e-01,-4.989523996407100870e-01,-1.429292012060069672e-01,1.393222673991521485e-02
1.600000000000000033e-01,-4.179133837933453055e-01,7.630397734546957855e-02,-1.774848922937275753e-01
1.610000000000000042e-01,-1.612100001513794290e-01,9.372867546422231078e-02,-2.733530657920604789e-01
1.620000000000000051e-01,3.070490892936830404e-02,-1.152985736801134635e-02,-2.073218728713579762e-01
1.630000000000000060e-01,-1.637506871544387385e-02,8.190341927159490443e-02,-1.033237566998843893e-01
1.640000000000000069e-01,-1.518665677276989090e-01,3.077734772373685312e-01,-3.314519377542077955e-02
1.650000000000000078e-01,6.416127760532447377e-02,4.553912057540948077e-01,-9.803953733761089362e-02
1.660000000000000087e-01,3.414928216831392138e-01,3.905091551014420737e-01,-1.256849193686079003e-01
1.670000000000000095e-01,5.543599895227089291e-01,2.023290718674468358e-01,-1.396006323928714737e-02
1.680000000000000104e-01,4.747747986722601898e-01,1.182919091952530782e-01,1.848867315835030778e-01
1.690000000000000113e-01,2.919321781555578865e-01,2.337695965814010346e-01,3.081692500914623434e-01
1.700000000000000122e-01,2.718348587192684906e-01,2.757284851292134409e-01,2.381059428045351201e-01
1.710000000000000131e-01,4.182490157059618463e-01,1.827026802558872065e-01,1.742948422438232170e-01
1.719999999999999862e-01,4.674725961657797413e-01,-7.046130895190619303e-02,2.142645246288306382e-01
1.729999999999999871e-01,2.707667541639470210e-01,-1.602045526125943919e-01,3.109009208755033615e-01
1.739999999999999880e-01,-5.604981482379190610e-02,2.380920919666405094e-02,3.466857530453818503e-01
1.749999999999999889e-01,-1.277313388529427718e-01,1.487496095227427151e-01,1.994326971314819286e-01
1.759999999999999898e-01,1.935854668525898228e-02,1.078860502583819519e-01,2.821117323282940764e-02
1.769999999999999907e-01,1.622880188298427839e-01,-2.573409414550871088e-03,-4.517967745600945037e-03
1.779999999999999916e-01,4.489569646085163346e-02,-9.505317318761379378e-03,4.858837372687685452e-02
1.789999999999999925e-01,-1.241857657164027740e-01,1.958446515273501165e-01,7.534813476244014985e-02
1.799999999999999933e-01,-1.039886878286857275e-01,3.410718638881750087e-01,4.346909239112717836e-03
1.809999999999999942e-01,1.395562564040354891e-01,2.616628539555386213e-01,-1.396254090106633927e-01
1.819999999999999951e-01,3.422177102760712297e-01,5.112428121915080920e-02,-1.225100741799151488e-01
1.829999999999999960e-01,2.659034313028330043e-01,-7.115597500741815962e-02,1.139541809297870897e-03
1.839999999999999969e-01,5.374752136888838461e-02,1.004837424374326570e-02,1.328346197166537512e-01
1.849999999999999978e-01,-1.112404567003671789e-02,6.451001522550697809e-02,1.161152887733101768e-01
1.859999999999999987e-01,9.085685081229828708e-02,-1.395469086739231090e-01,3.361809068005267107e-03
1.869999999999999996e-01,1.752567029996897341e-01,-3.861487044691332970e-01,-4.158674429595670546e-02
1.880000000000000004e-01,-3.576597380610190002e-02,-5.040907352678267728e-01,6.272915176422645678e-02
1.890000000000000013e-01,-3.562407201872607732e-01,-3.643982439875793622e-01,1.382704872715705413e-01
1.900000000000000022e-01,-5.262012271628375704e-01,-2.293910351980132933e-01,8.628041832738396477e-02
1.910000000000000031e-01,-4.340167326141335935e-01,-3.091903440493429245e-01,-1.435493579889803584e-01
1.920000000000000040e-01,-3.090997548694289776e-01,-3.886698781453786777e-01,-2.426798373637574224e-01
1.930000000000000049e-01,-3.458258476534876169e-01,-3.704453280111869584e-01,-2.006006959911661724e-01
1.940000000000000058e-01,-5.716583703786520809e-01,-9.945615478046353208e-02,-1.553422958529186160e-01
1.950000000000000067e-01,-5.807646332366555031e-01,1.309898019968097904e-01,-1.781765556337664702e-01
1.960000000000000075e-01,-3.257293942586418356e-01,1.002441916418222168e-01,-3.569842540549958421e-01
1.970000000000000084e-01,7.465032388115210894e-03,-3.855884979773156751e-02,-4.012303424975979249e-01
1.980000000000000093e-01,7.462169752833404390e-02,-5.246677335233689010e-02,-2.665875500247024132e-01
1.990000000000000102e-01,-1.061312224125490894e-01,1.062673784703501850e-01,-9.443056843252514709e-02
2.000000000000000111e-01,-1.144421019679768420e-01,2.220489762565619751e-01,-5.633445761572174193e-02
2.010000000000000120e-01,1.228520937423538684e-01,1.216586533246055840e-01,-1.320935229036111491e-01
2.020000000000000129e-01,3.336270522201368882e-01,-1.042941525115843038e-01,-1.116213692869673507e-01
2.030000000000000138e-01,2.818016765817533131e-01,-1.907092302729878619e-01,4.256623463330899693e-02
2.039999999999999869e-01,3.992124983362334290e-02,-5.760354338729664625e-02,1.758094314265413738e-01
2.049999999999999878e-01,-1.333793892411801463e-01,7.250058302063414062e-02,2.490976591616621549e-01
2.059999999999999887e-01,-4.363889078294775486e-02,6.235054057705025077e-02,9.157647756269404749e-02
2.069999999999999896e-01,1.137628798521737317e-01,-8.126014871479794732e-02,-1.448092026974112830e-02
2.079999999999999905e-01,1.127325613532640797e-01,-3.929593630644404034e-02,2.950017869193690551e-02
2.089999999999999913e-01,-1.128606999252081827e-01,1.671075761923092040e-01,1.362312505506119709e-01
2.099999999999999922e-01,-1.670310594407762583e-01,4.061143728037090450e-01,1.319988115836305820e-01
2.109999999999999931e-01,3.745751269086034646e-02,3.953584515265273769e-01,2.676666809474820621e-02
2.119999999999999940e-01,2.750524507751933023e-01,2.776322746837644462e-01,-1.054127518090034049e-01
2.129999999999999949e-01,4.090851917138379479e-01,2.503266010536627229e-01,-7.388300759000190898e-02
2.139999999999999958e-01,3.063775630216294954e-01,3.898307364886657300e-01,6.305167062592864635e-02
2.149999999999999967e-01,2.173502872183215862e-01,4.757722609530466995e-01,2.114305909568619246e-01
2.159999999999999976e-01,3.417142383060690070e-01,3.257030593424768417e-01,1.141774720500838836e-01
2.169999999999999984e-01,6.119266396462084145e-01,1.086852605024684199e-01,4.887109422834128719e-02
2.179999999999999993e-01,6.089455656318557564e-01,-9.047965817652338372e-02,1.397116649885945250e-01
2.190000000000000002e-01,3.368659552161798465e-01,-1.963709269869361521e-02,3.033457743764455539e-01
2.200000000000000011e-01,4.258133065861050698e-02,5.259679196623533864e-02,3.725836748942079613e-01
2.210000000000000020e-01,5.701448752198550601e-02,-1.024755304771797215e-01,3.010148993156003261e-01
2.220000000000000029e-01,1.358636633705881391e-01,-3.070296229790445697e-01,1.346479960523362662e-01
2.230000000000000038e-01,8.494119827481447227e-02,-3.576609477470200638e-01,6.390318884465026605e-02
2.240000000000000047e-01,-2.368130461186256364e-01,-1.940941480270425845e-01,1.514852969607452249e-01
2.250000000000000056e-01,-4.647997013471661942e-01,-1.802578052661608574e-02,1.340486313118946504e-01
2.260000000000000064e-01,-4.442186701668489057e-01,5.028831896519466403e-03,2.987102205626780086e-03
2.270000000000000073e-01,-1.857875473554779777e-01,-1.555915617928750327e-01,-2.030503754497290925e-01
2.280000000000000082e-01,-8.939530391245638363e-02,-1.552596673306067265e-01,-2.590281904775670885e-01
2.290000000000000091e-01,-2.343274692104105883e-01,-1.580299460989282733e-04,-1.997841395152690214e-01
2.300000000000000100e-01,-3.360182638528901866e-01,1.191682149247834666e-01,-1.241427609289038753e-01
2.310000000000000109e-01,-2.075080381252026041e-01,6.903890016488369030e-02,-1.573514627406752686e-01
2.320000000000000118e-01,7.036268750855106946e-02,-1.771093096904700903e-01,-2.674397339660168349e-01
2.330000000000000127e-01,1.644676268833558386e-01,-3.009757541642020251e-01,-2.326915489426450157e-01
2.340000000000000135e-01,-1.257076049489103467e-02,-2.310148708626078573e-01,-1.381489669544169741e-01
2.349999999999999867e-01,-2.270882670926281932e-01,-1.189857627453552447e-01,2.392981266456249700e-02
2.359999999999999876e-01,-2.293493980138934241e-01,-1.939309916536455236e-01,6.691147365680014114e-02
2.369999999999999885e-01,-8.532424480525106769e-02,-3.964748199380965787e-01,-6.314627221931033707e-02
2.379999999999999893e-01,-4.909409070547818277e-02,-4.527247532519797502e-01,-1.197662425264728325e-01
2.389999999999999902e-01,-2.714066005839845253e-01,-2.667705471835066233e-01,-2.104059207061050735e-02
2.399999999999999911e-01,-5.135697875562124093e-01,-1.621361585238779643e-02,4.334119064011744682e-02
2.409999999999999920e-01,-5.156314869951050817e-01,4.122112282687082074e-02,2.045250857394822867e-03
2.419999999999999929e-01,-2.414388846454486870e-01,-5.673838973705971900e-02,-1.836814973209444368e-01
2.429999999999999938e-01,-4.088765748300694780e-02,-4.105162000227171454e-02,-2.801141061913479668e-01
2.439999999999999947e-01,-8.823598862005745114e-02,1.834617156416761541e-01,-1.996459009435923859e-01
2.449999999999999956e-01,-2.069822313321315055e-01,4.441676059156784429e-01,-9.252103791772556263e-02
2.459999999999999964e-01,-5.609398797403504500e-02,4.016947240436010702e-01,-6.168380684852406426e-02
2.469999999999999973e-01,2.702339428654836895e-01,2.417335406357234429e-01,-1.548546921329922998e-01
2.479999999999999982e-01,5.267284121565303234e-01,1.233309031395759953e-01,-1.702999750253676448e-01
2.489999999999999991e-01,4.575511750422644464e-01,2.096474146133912031e-01,-5.950366144713582078e-02
2.500000000000000000e-01,2.946687358025606440e-01,3.393135458657957071e-01,1.419140643475208519e-01
2.510000000000000009e-01,2.476567168932385654e-01,2.315624653053386384e-01,2.433626676015318291e-01
2.520000000000000018e-01,4.433580742099154093e-01,1.406827210164196713e-02,2.414174365292931779e-01
2.530000000000000027e-01,5.663545490072592337e-01,-1.308180155034667780e-01,1.719962460308701313e-01
2.540000000000000036e-01,2.979745439083887337e-01,-2.462733097059486426e-02,2.233976676150718488e-01
2.550000000000000044e-01,2.106942628104414156e-02,1.464775585938498659e-01,3.216473161006278003e-01
2.560000000000000053e-01,-1.049838955252563183e-01,1.561954263903332085e-01,3.602708649139602648e-01
2.570000000000000062e-01,5.971567822835117251e-02,-5.829701678546376706e-03,2.245466037015549088e-01
2.580000000000000071e-01,1.530631074629763833e-01,-4.239540044830521215e-02,3.498097505052331913e-02
2.590000000000000080e-01,6.575675881759909802e-02,1.394987008977050524e-01,3.526982796255851565e-02
2.600000000000000089e-01,-1.144003704181309755e-01,3.137446572160975666e-01,1.028446120492847310e-01
2.610000000000000098e-01,-1.389052018276872025e-01,3.254454917668012648e-01,1.111968759821373859e-01
2.620000000000000107e-01,1.501079942500138098e-01,9.490956698349516107e-02,1.441077931897558929e-02
2.630000000000000115e-01,3.397216595007616635e-01,-1.618646783217164709e-02,-1.167727992308343066e-01
2.640000000000000124e-01,2.719141364760526702e-01,2.756528080611585219e-02,-1.217710926466495508e-01
2.650000000000000133e-01,8.647401150848711693e-02,1.099384994069123045e-01,5.753878826687982423e-02
2.660000000000000142e-01,1.065030019301958482e-03,1.937330689208984630e-02,1.355958608274238919e-01
2.670000000000000151e-01,1.226341223568186006e-01,-2.901734522270617567e-01,7.999293952583155787e-02
2.680000000000000160e-01,2.350404735427810976e-01,-4.375237660062109013e-01,-1.229994570688560003e-02
2.690000000000000169e-01,7.870353865769889878e-02,-3.808189341297177344e-01,-1.779375826444505246e-02
2.700000000000000178e-01,-2.538059438079931507e-01,-2.689062278280811014e-01,8.313082615469691294e-02
2.710000000000000187e-01,-4.339159964338512587e-01,-2.576898570009960032e-01,1.749664394872003370e-01
2.720000000000000195e-01,-3.923990661247585554e-01,-4.070372921859574111e-01,7.769470356050744986e-02
2.730000000000000204e-01,-2.555153080935257948e-01,-4.329250271248728521e-01,-1.274857477870158518e-01
2.740000000000000213e-01,-3.583278828614899214e-01,-2.578220332565709927e-01,-2.186044742629889293e-01
2.750000000000000222e-01,-5.952870116479707097e-01,3.127636633675176525e-02,-1.467929010780944510e-01
2.760000000000000231e-01,-6.210426988865214160e-01,8.673281811351656045e-02,-7.643001538066747369e-02
2.770000000000000240e-01,-4.004321966001855859e-01,-3.874202580365710986e-03,-2.134733521828164338e-01
2.780000000000000249e-01,-5.987195116652957450e-02,-8.045545484650451495e-02,-3.188243053235302882e-01
2.790000000000000258e-01,-3.647664294771815058e-02,2.747837668469638173e-02,-3.918567673826439113e-01
2.800000000000000266e-01,-1.544430689000675649e-01,1.988277785578446977e-01,-2.810615817924530524e-01
2.810000000000000275e-01,-1.094700634722105131e-01,1.586739794129186365e-01,-1.064868364104602644e-01
2.819999999999999729e-01,5.154203607484068167e-02,-3.936209418191716908e-02,-5.114169561663223923e-02
2.829999999999999738e-01,3.074781223620827175e-01,-1.969529404977989340e-01,-1.327724050509983544e-01
2.839999999999999747e-01,2.857285375686902107e-01,-1.031096404645115983e-01,-1.496704516411336006e-01
2.849999999999999756e-01,6.285305270949907708e-02,3.945277755905585854e-02,-3.518569465778803584e-02
2.859999999999999765e-01,-1.051066715068794954e-01,6.393421581286350130e-02,1.890789172603157542e-01
2.869999999999999774e-01,-1.860696327840992426e-02,-8.687110996165525734e-02,2.009243954493775131e-01
2.879999999999999782e-01,1.546740365475987034e-01,-1.620838146436862637e-01,1.134613299508859530e-01
2.889999999999999791e-01,1.134382709699952724e-01,2.621211792285224260e-02,1.253736905698030896e-02
2.899999999999999800e-01,-9.226468171990628853e-02,2.965937427630349621e-01,4.335287114682632309e-02
2.909999999999999809e-01,-2.345318565425971724e-01,3.565921008481250931e-01,1.334591829452417833e-01
2.919999999999999818e-01,-6.372037802670062201e-02,2.935229527458916299e-01,1.165664426741108428e-01
2.929999999999999827e-01,2.110893334932109622e-01,2.062017780248963650e-01,-3.180786553743904926e-02
2.939999999999999836e-01,3.573129325168759585e-01,3.215230137380261088e-01,-1.386558806630073526e-01
2.949999999999999845e-01,2.545043156411079810e-01,4.951478196979126056e-01,-5.633404936249701567e-02
2.959999999999999853e-01,1.660460116901633920e-01,4.507558389563647849e-01,6.194532617673752933e-02
2.969999999999999862e-01,3.320327133984886103e-01,2.002008847914918677e-01,1.572827661939706079e-01
2.979999999999999871e-01,5.774209269783360243e-01,2.069599454113469836e-02,1.209660931692975727e-01
2.989999999999999880e-01,6.424153956023455070e-01,-1.713499806288474453e-02,2.713916425540866331e-02
2.999999999999999889e-01,3.685054189923787638e-01,8.890942823927683314e-02,1.378105424808288848e-01
3.009999999999999898e-01,1.347592989079524073e-01,1.128369824211540931e-02,2.971271319668434829e-01
3.019999999999999907e-01,1.209881630953603127e-01,-2.092329588123524320e-01,3.667980281484515270e-01
3.029999999999999916e-01,2.161578538386879356e-01,-3.455251714131759022e-01,2.663957144734536708e-01
3.039999999999999925e-01,1.091999531606070717e-01,-2.603418432427920814e-01,1.377261870889311401e-01
3.049999999999999933e-01,-1.644249838319565005e-01,-6.033427613442565729e-02,1.038831820858602539e-01
3.059999999999999942e-01,-4.279971743408095275e-01,-3.134443021346994263e-02,1.704384670482099462e-01
3.069999999999999951e-01,-4.089279909335667984e-01,-1.105081204403160627e-01,1.618557886159164849e-01
3.079999999999999960e-01,-2.303223419314318898e-01,-2.167736386178778230e-01,4.946857119966981825e-02
3.089999999999999969e-01,-1.085715786962488522e-01,-7.544980291494192415e-02,-1.605694498193404596e-01
3.099999999999999978e-01,-2.554957417331334968e-01,1.093870408910313369e-01,-2.458617004573656339e-01
3.109999999999999987e-01,-3.555623769385801158e-01,1.299831752145998165e-01,-1.615584502804249534e-01
3.119999999999999996e-01,-2.700366308766222190e-01,-6.971500710652107913e-02,-9.890353057404895065e-02
3.130000000000000004e-01,2.681719637198557923e-02,-2.636275845796526296e-01,-1.354460160758787501e-01
3.140000000000000013e-01,1.637390188361732557e-01,-2.286775782303036020e-01,-2.818144662687624424e-01
3.150000000000000022e-01,1.192082821155318953e-02,-1.030358644346949376e-01,-2.687042339426624626e-01
3.160000000000000031e-01,-2.101116055380548575e-01,-1.264524011172214191e-01,-1.335995595546770331e-01
3.170000000000000040e-01,-2.074109616835680681e-01,-3.197431501825697686e-01,5.769799201967277039e-03
3.180000000000000049e-01,-4.910140666375464868e-02,-4.595400270067206416e-01,2.958345841512535074e-02
3.190000000000000058e-01,-1.791243836955014324e-02,-3.641094892905593627e-01,-8.560114381304294306e-02
3.200000000000000067e-01,-2.093296077472462102e-01,-1.348785994068298633e-01,-1.259737980544711200e-01
3.210000000000000075e-01,-4.640288506396496593e-01,-4.748038865057538360e-02,-1.900380121779067857e-02
3.220000000000000084e-01,-5.222038571198975854e-01,-9.268656521996386510e-02,4.979942038391472342e-02
3.230000000000000093e-01,-2.971702726368988245e-01,-1.022206902760155051e-01,8.067354791314994972e-03
3.240000000000000102e-01,-1.414486402771120976e-01,5.441031853980121680e-02,-1.665672796605826844e-01
3.250000000000000111e-01,-1.471510240044729412e-01,3.512045050802211077e-01,-2.909720286582429538e-01
3.260000000000000120e-01,-2.747693590422994880e-01,3.978064907329366129e-01,-1.943785403111654708e-01
3.270000000000000129e-01,-1.362783638754539450e-01,2.992994134850769927e-01,-7.760662979671384409e-02
3.280000000000000138e-01,1.935769303197503732e-01,1.914323475179264822e-01,-7.688677818122272023e-02
3.290000000000000147e-01,4.472272243914925949e-01,1.779926791943959308e-01,-1.751801627247746018e-01
3.300000000000000155e-01,4.159469710067504877e-01,3.443485154743200494e-01,-1.945009842294299351e-01
3.310000000000000164e-01,2.726054335174691312e-01,2.971167274359322596e-01,-7.485179846351625033e-02
3.320000000000000173e-01,2.763307894012442811e-01,9.871234852836116569e-02,1.308087840930713952e-01
3.330000000000000182e-01,4.510862388163380809e-01,-7.861400144748370566e-02,2.352974636951731535e-01
3.340000000000000191e-01,5.636761354763408782e-01,-5.041925777222684008e-02,1.534308556413805091e-01
3.350000000000000200e-01,3.871872083900506634e-01,1.293155442487607387e-01,1.200868702510090175e-01
3.360000000000000209e-01,8.410206336097723889e-02,1.708454971050999693e-01,1.999964030069556198e-01
3.370000000000000218e-01,-6.907444085105188258e-02,2.604777081599916888e-02,3.737684821125984991e-01
3.380000000000000226e-01,8.339619801682775224e-02,-6.146292685297081310e-02,3.595147336871212795e-01
3.390000000000000235e-01,1.921407716914104447e-01,4.450049206636258470e-02,2.222901949163161583e-01
3.400000000000000244e-01,9.724478724833698906e-02,2.893254044135984415e-01,5.532310975917428819e-02
3.410000000000000253e-01,-1.206170422499372175e-01,3.491787881372975799e-01,6.719842051864408083e-02
3.420000000000000262e-01,-1.835666416899101039e-01,1.938181366055659327e-01,1.178959114670133923e-01
3.430000000000000271e-01,8.094350977637267130e-02,3.958342461988881983e-02,1.351567075665617013e-01
3.439999999999999725e-01,2.964602183056260221e-01,4.933297712852987432e-02,6.788775489070602957e-03
3.449999999999999734e-01,3.089086314938335742e-01,1.424222019328909017e-01,-1.664248343452703338e-01
3.459999999999999742e-01,9.780750093748225016e-02,8.314383587682272481e-02,-1.173257767724258660e-01
3.469999999999999751e-01,7.045776791482177663e-03,-1.438232970107136410e-01,3.285232307114643868e-02
3.479999999999999760e-01,1.507170394146214454e-01,-3.692524801995527572e-01,1.349777951079381144e-01
3.489999999999999769e-01,2.913404223130826587e-01,-3.754747368581159983e-01,6.625376287967738032e-02
3.499999999999999778e-01,1.578922793645287093e-01,-2.486306895133638950e-01,-4.602339710548076362e-02
3.509999999999999787e-01,-1.803279373100767635e-01,-2.752103887454309672e-01,1.550735357007487422e-02
3.519999999999999796e-01,-3.976339303594802477e-01,-3.588549224402886040e-01,1.326410396746980080e-01
3.529999999999999805e-01,-3.246802855248139275e-01,-4.765203394529996528e-01,1.844614903994267197e-01
3.539999999999999813e-01,-2.275860108011606431e-01,-3.852136781897890216e-01,9.991100872928655729e-02
3.549999999999999822e-01,-2.849736528686526715e-01,-8.347342370629200203e-02,-8.016272896332574116e-02
3.559999999999999831e-01,-5.824056768841976428e-01,4.921761029708964647e-02,-1.659512633403981974e-01
3.569999999999999840e-01,-6.845875734936890389e-01,-5.821754236074738742e-02,-8.749309238140465239e-02
3.579999999999999849e-01,-4.821194407488666456e-01,-1.096647199376274279e-01,-7.203172928346884829e-02
3.589999999999999858e-01,-1.665076869529656112e-01,-3.837258469357979901e-02,-2.024508004714098697e-01
3.599999999999999867e-01,-1.061804557517625341e-01,1.736672533056327072e-01,-3.743304151901788446e-01
3.609999999999999876e-01,-1.607349865615880780e-01,2.176714823510313424e-01,-4.119895836092344887e-01
3.619999999999999885e-01,-2.329261616962349513e-01,2.423941623269648682e-02,-3.057774822925934388e-01
3.629999999999999893e-01,1.083828606985892326e-02,-1.650716812152753510e-01,-1.224965965921824412e-01
3.639999999999999902e-01,2.621002965245496363e-01,-1.596302126849263037e-01,-1.198703855519702710e-01
3.649999999999999911e-01,3.101459776551559466e-01,2.729800888168302728e-02,-2.057298225915895618e-01
3.659999999999999920e-01,9.672567532705196591e-02,5.216260209319553004e-02,-1.702597695581317960e-01
3.669999999999999929e-01,-7.573958514450734869e-02,-8.127314002093689871e-02,-1.510588355766134816e-02
3.679999999999999938e-01,-2.103592316786127500e-02,-1.724314813821723469e-01,1.635459190373086957e-01
3.689999999999999947e-01,1.684878196781240400e-01,-7.530999487973076556e-02,1.845762625322227013e-01
3.699999999999999956e-01,1.067325456679587559e-01,1.780049294988125530e-01,8.400583414194089105e-02
3.709999999999999964e-01,-8.530617647312030427e-02,3.364483941485940655e-01,-2.585367772903141015e-02
3.719999999999999973e-01,-2.513593833885558460e-01,2.769035201029257376e-01,7.321179678555246595e-02
3.729999999999999982e-01,-1.372765476836764198e-01,1.726257550847764277e-01,1.480825404014224078e-01
3.739999999999999991e-01,1.773573147716642762e-01,2.426402696895058886e-01,1.154931629438042257e-01
3.750000000000000000e-01,2.684953186774424183e-01,4.620873542476572893e-01,-1.755663774579905093e-02
3.760000000000000009e-01,1.948727277544582692e-01,5.440945777102722536e-01,-9.436331733327030236e-02
3.770000000000000018e-01,1.049285586908849655e-01,3.336013448834350692e-01,-7.027218615032969351e-02
3.780000000000000027e-01,2.990040187513847147e-01,9.323664929627788200e-02,9.951039892518180607e-02
3.790000000000000036e-01,5.801903377140595897e-01,3.769671645948289435e-02,1.180751395391328035e-01
3.800000000000000044e-01,6.527097359627901385e-01,1.218699552321080015e-01,3.173126969167319039e-02
3.810000000000000053e-01,4.526398231411215556e-01,9.994931335453945132e-02,1.554922775008471883e-02
3.820000000000000062e-01,2.243824814372325227e-01,-1.121217585336190675e-01,1.349814519851217365e-01
3.830000000000000071e-01,1.850130531028602865e-01,-3.440420787896917854e-01,2.459988820813514832e-01
3.840000000000000080e-01,2.868110891341999480e-01,-3.044161971950190559e-01,3.529152211599903555e-01
3.850000000000000089e-01,2.362766944274224679e-01,-1.513073373316065340e-01,2.549173079323663327e-01
3.860000000000000098e-01,-6.683476231107982057e-02,-5.518159068498919122e-03,1.429679164104261102e-01
3.870000000000000107e-01,-3.565713902000078317e-01,-8.746367662172227497e-02,1.446722569001345771e-01
3.880000000000000115e-01,-3.823448791384219669e-01,-2.193991110518900001e-01,2.270632808916395462e-01
3.890000000000000124e-01,-2.110941222499538028e-01,-1.327992505648649124e-01,2.144997794510334899e-01
3.900000000000000133e-01,-1.086918882621163568e-01,3.220246086528325002e-02,5.695864991295725155e-02
3.910000000000000142e-01,-2.199800139709999769e-01,1.442758750788572242e-01,-1.689967236602029910e-01
3.920000000000000151e-01,-4.021836947467405943e-01,1.492970272946117505e-02,-1.815432464320440586e-01
3.930000000000000160e-01,-3.115903263876127482e-01,-2.059666607420471141e-01,-1.343842036359706171e-01
3.940000000000000169e-01,-3.869327220296370218e-02,-2.103042356519658207e-01,-1.149984067423261563e-01
3.950000000000000178e-01,1.524991760369526217e-01,-1.117975093377673312e-01,-2.038591437854613553e-01
3.960000000000000187e-01,4.040469426395237179e-02,-7.285845095354814838e-02,-3.048648188835300643e-01
3.970000000000000195e-01,-1.992708552907295483e-01,-2.736548223842798500e-01,-2.529636095840390730e-01
3.980000000000000204e-01,-1.861494454729944736e-01,-4.565589684195088260e-01,-1.058223500022109215e-01
3.990000000000000213e-01,-3.766548606995415854e-02,-4.188016991808064526e-01,1.870134907218247433e-02
4.000000000000000222e-01,2.061887060573935199e-02,-2.445953057279842413e-01,5.389507797555401908e-03
4.010000000000000231e-01,-1.743685891510937391e-01,-6.263130793139108643e-02,-1.147015532413582645e-01
4.020000000000000240e-01,-4.613905316033429238e-01,-1.131129629155507160e-01,-1.179511498261791580e-01
4.030000000000000249e-01,-5.202661588770551848e-01,-1.851206415216736789e-01,-3.946664013461365778e-02
4.040000000000000258e-01,-3.353949094761050631e-01,-6.977345961014123910e-02,1.080505128419216171e-01
4.050000000000000266e-01,-1.474563477048979054e-01,2.045173052249343315e-01,-1.799401081808063747e-03
4.060000000000000275e-01,-1.950118688135009937e-01,3.858889433598550744e-01,-1.790044599016562821e-01
4.069999999999999729e-01,-3.344362540607187517e-01,3.206033826124480290e-01,-2.477163522416936658e-01
4.079999999999999738e-01,-2.707179864900752242e-01,1.701174830745613431e-01,-1.720745106460127294e-01
4.089999999999999747e-01,7.424533594258921065e-02,1.904218544201438101e-01,-7.683806197709780461e-02
4.099999999999999756e-01,3.697457111347035585e-01,3.575818090369428104e-01,-9.241576439687781974e-02
4.109999999999999765e-01,3.707618325642616508e-01,3.859745829997235367e-01,-2.157073910832445762e-01
4.119999999999999774e-01,2.414866313334586567e-01,1.947240981388536352e-01,-2.578537988308940432e-01
4.129999999999999782e-01,2.362502234539212709e-01,-2.870340644870534794e-02,-6.067778920476136345e-02
4.139999999999999791e-01,4.275409090107819554e-01,-5.587303907193715696e-02,7.607816536233513727e-02
4.149999999999999800e-01,5.614804016831137501e-01,7.212715965203903012e-02,1.561000320067383040e-01
4.159999999999999809e-01,4.438228406567893414e-01,1.771150101940057453e-01,1.081543027151563446e-01
4.169999999999999818e-01,1.360624408701126276e-01,5.934595551177236639e-02,5.260068704023565522e-02
4.179999999999999827e-01,-2.365460682770786568e-02,-7.748547045866761851e-02,2.082801331636777165e-01
4.189999999999999836e-01,8.606698649232077947e-02,-4.100219961452126333e-02,3.518073828803808256e-01
4.199999999999999845e-01,2.156075625133807294e-01,2.003497146936482065e-01,3.584156492778775016e-01
4.209999999999999853e-01,1.374264615559711578e-01,3.367020507989161304e-01,2.222098354792531316e-01
4.219999999999999862e-01,-1.156004929011427845e-01,2.398500361135941783e-01,6.601129358395997626e-02
4.229999999999999871e-01,-2.024524088479887074e-01,5.780054762817724012e-02,9.642584678503030027e-02
4.239999999999999880e-01,3.407843159104317898e-02,5.536647199513451689e-02,1.791632203661722988e-01
4.249999999999999889e-01,2.614372152355751155e-01,1.694451912484764844e-01,1.493102128822974550e-01
4.259999999999999898e-01,2.593909581851377988e-01,1.974720829503023023e-01,-1.536145143677518929e-03
4.269999999999999907e-01,1.114450275842396171e-01,9.605964103787462821e-03,-1.173381797003841542e-01
4.279999999999999916e-01,1.312431471724842189e-02,-2.709555663088381583e-01,-9.618665883992126575e-02
4.289999999999999925e-01,1.811897213333095447e-01,-3.594211915478548458e-01,6.423943543094126629e-02
4.299999999999999933e-01,3.269085668573296077e-01,-2.802565682280019344e-01,1.147570093788494033e-01
4.309999999999999942e-01,2.274290000959183489e-01,-2.048603463461480534e-01,1.277828481310183152e-02
4.319999999999999951e-01,-4.868685340180552157e-02,-3.082627307648099224e-01,-4.906083518401092858e-02
4.329999999999999960e-01,-3.097747887432239500e-01,-4.779270644491526721e-01,1.156199649316770779e-02
4.339999999999999969e-01,-2.699210878747911879e-01,-4.296721476882806035e-01,1.588287997194419432e-01
4.349999999999999978e-01,-2.116551932722755824e-01,-1.982985893958041368e-01,2.135088521270629425e-01
4.359999999999999987e-01,-3.010783719709964612e-01,-2.942227201176340554e-02,6.698442534933610193e-02
4.369999999999999996e-01,-5.316573263306463293e-01,-3.609227742442444598e-02,-8.230747891088267820e-02
4.380000000000000004e-01,-6.895736985107346895e-01,-1.101528655194294465e-01,-1.322878108877800496e-01
4.390000000000000013e-01,-5.408542637634341510e-01,-9.852016942223731921e-02,-9.151113682080962153e-02
4.400000000000000022e-01,-2.222817118691394200e-01,1.017709527271324077e-01,-7.351567408807756221e-02
4.410000000000000031e-01,-1.343215788584934400e-01,2.453344925808181032e-01,-1.603198268143074534e-01
4.420000000000000040e-01,-2.322187756091553534e-01,9.499894247230693256e-02,-3.439672426684314277e-01
4.430000000000000049e-01,-2.738403812560509798e-01,-8.715732524059170705e-02,-3.880562792474692158e-01
4.440000000000000058e-01,-5.653689497380292445e-02,-1.717692163806433803e-01,-2.591240210612263950e-01
4.450000000000000067e-01,2.466916237422430436e-01,-2.629390667382201091e-02,-1.218485440404315362e-01
4.460000000000000075e-01,2.907284418052214492e-01,8.108357322655547483e-02,-1.557152827836099651e-01
4.470000000000000084e-01,8.822733442137685456e-02,-4.004356927500871827e-02,-2.404521362418386154e-01
4.480000000000000093e-01,-6.471546444369803697e-02,-2.011856092920540073e-01,-2.167941617258994369e-01
4.490000000000000102e-01,-4.460437907681301384e-02,-1.609444585979477316e-01,-1.644533642102737753e-02
4.500000000000000111e-01,1.771399164936966752e-01,8.221219892099314308e-02,1.741302255237830443e-01
4.510000000000000120e-01,1.394226899657444729e-01,2.862390122744297716e-01,1.550450815743187605e-01
4.520000000000000129e-01,-7.818464287772936006e-02,2.791396106830760782e-01,5.210140831472377665e-02
4.530000000000000138e-01,-2.449922401081043588e-01,1.667689837271716380e-01,-7.088384597216623685e-04
4.540000000000000147e-01,-1.259069659805033825e-01,1.997798295804973090e-01,9.938929343091890134e-02
4.550000000000000155e-01,1.097602794814776378e-01,4.115214317105964636e-01,1.902552379039414432e-01
4.560000000000000164e-01,2.690836528719829923e-01,5.718580250953034794e-01,1.233176920125103049e-01
4.570000000000000173e-01,1.409050512341954997e-01,4.427756496253398288e-01,-2.801005697511601417e-02
4.580000000000000182e-01,1.093122003380089524e-01,2.018546761681166979e-01,-1.321416643781135047e-01
4.590000000000000191e-01,2.257302323188986604e-01,9.905529472631234567e-02,-2.724895662360668838e-02
4.600000000000000200e-01,5.031456090385570956e-01,1.624271659750561869e-01,7.889125284925860293e-02
4.610000000000000209e-01,6.721719430567396625e-01,1.961040591663727739e-01,8.714710466435991731e-02
4.620000000000000218e-01,5.208175843247767611e-01,7.460041277211733324e-03,1.055956717475000327e-02
4.630000000000000226e-01,2.422234814872475661e-01,-2.380144466600258302e-01,-8.743894429172262284e-03
4.640000000000000235e-01,2.102639375976056435e-01,-3.181356297534139732e-01,9.100772467855609837e-02
4.650000000000000244e-01,3.187230548149008746e-01,-1.756986258084422270e-01,2.705134937482135959e-01
4.660000000000000253e-01,3.410806527946011468e-01,-5.365038040433344618e-02,3.251971915480701414e-01
4.670000000000000262e-01,5.157604120872809339e-02,-9.669389362227515106e-02,2.738767489076056605e-01
4.680000000000000271e-01,-2.774715593211482534e-01,-2.489847768024622821e-01,1.564147927963036866e-01
4.689999999999999725e-01,-3.548858688767900782e-01,-2.008943117994889671e-01,1.680898758372494084e-01
4.699999999999999734e-01,-1.967785685801533291e-01,-3.427201018486115969e-02,2.898448828112633602e-01
4.709999999999999742e-01,-1.005339350449830360e-01,1.649151500084270472e-01,2.818670820593975335e-01
4.719999999999999751e-01,-2.523048655827538900e-01,6.420589359593011081e-02,8.961326995224820624e-02
4.729999999999999760e-01,-4.194562849969014073e-01,-1.129271123303584035e-01,-1.089637943049110991e-01
4.739999999999999769e-01,-3.425037239880474593e-01,-2.216313684731257283e-01,-1.567710066426839799e-01
4.749999999999999778e-01,-7.835482752205905066e-02,-9.440170542240589047e-02,-6.944415505734596872e-02
4.759999999999999787e-01,9.679806925355045888e-02,-1.451340855182144986e-02,-5.435399679810586082e-02
4.769999999999999796e-01,2.793392472358297018e-02,-1.712288043342684307e-01,-1.799165967421020862e-01
4.779999999999999805e-01,-1.663814147477232219e-01,-3.931989824874335127e-01,-3.118885405157149626e-01
4.789999999999999813e-01,-2.027314292770646953e-01,-4.646227197538142506e-01,-2.942191740080281614e-01
4.799999999999999822e-01,-5.988286313336468880e-02,-2.980594631966751451e-01,-1.111784475005348494e-01
4.809999999999999831e-01,7.525561106882691642e-02,-1.468645578945713126e-01,1.006617492138564725e-02
4.819999999999999840e-01,-1.293723216546891763e-01,-1.434635098862522551e-01,-2.748632079140394396e-02
4.829999999999999849e-01,-3.993292669206606194e-01,-2.534187391335321338e-01,-1.337506502776956707e-01
4.839999999999999858e-01,-4.903266320564863001e-01,-1.936348766139368294e-01,-1.148887062841124074e-01
4.849999999999999867e-01,-3.719896377296626477e-01,9.476525246015157777e-02,1.935552347847859997e-02
4.859999999999999876e-01,-1.584603595693337419e-01,2.829151409715674470e-01,6.942066568629685908e-02
4.869999999999999885e-01,-1.901363989251634024e-01,3.350879894761255029e-01,-9.496176224876091976e-03
4.879999999999999893e-01,-3.732532752388588171e-01,1.753722091377201420e-01,-1.728241709626643086e-01
4.889999999999999902e-01,-3.229946993353344231e-01,1.504312177216813318e-01,-2.292664242881658487e-01
4.899999999999999911e-01,-4.150904269629079185e-02,2.970082210911867970e-01,-1.367269107404265882e-01
4.909999999999999920e-01,2.761216062788124370e-01,4.221242436677074550e-01,-9.327276928673297607e-02
4.919999999999999929e-01,3.006717028253953483e-01,3.036263857229825613e-01,-1.187375911166578119e-01
4.929999999999999938e-01,1.753666711628097397e-01,4.678003942223666473e-02,-2.798035385550965426e-01
4.939999999999999947e-01,1.927937340160166546e-01,-5.431292533638849840e-02,-2.769217259462892766e-01
4.949999999999999956e-01,3.991876483349278693e-01,6.415887997858200908e-02,-8.946767963780161148e-02
4.959999999999999964e-01,5.790015586964523120e-01,1.599305231732566224e-01,7.986144936259634286e-02
4.969999999999999973e-01,5.056423100179829877e-01,1.036466796309167410e-01,1.353374783779030810e-01
4.979999999999999982e-01,2.034802893021731562e-01,-7.505752061534305686e-02,7.550292141237541221e-02
4.989999999999999991e-01,5.868443239928369803e-02,-5.247287721283280804e-02,7.749002071070423825e-02
5.000000000000000000e-01,1.392272671766368597e-01,1.175312772286979807e-01,2.058100400960111431e-01
5.010000000000000009e-01,2.505244583504221412e-01,2.868193492352218432e-01,3.845286061414890932e-01
5.020000000000000018e-01,1.488612603419379177e-01,2.694025813568465821e-01,3.639436620374427167e-01
5.030000000000000027e-01,-8.342256411534293425e-02,1.216200400106354218e-01,2.170153697938604631e-01
5.040000000000000036e-01,-2.075976069948475833e-01,5.696603347741404505e-02,1.116659815833853098e-01
5.050000000000000044e-01,8.094701998371150661e-03,2.082981329677371651e-01,1.112678257999963061e-01
5.060000000000000053e-01,2.532866521249597658e-01,2.580912870274157389e-01,2.120488902212831206e-01
5.070000000000000062e-01,2.429465668628151553e-01,1.176947826944919617e-01,1.353950860935429490e-01
5.080000000000000071e-01,1.164909909415638156e-01,-1.637035939114557803e-01,1.737927232827183796e-02
5.090000000000000080e-01,2.581136978961982853e-02,-3.005012015699756178e-01,-1.243890858364687935e-01
5.100000000000000089e-01,1.700776313248425486e-01,-2.559609595160938222e-01,-6.498580230131728586e-02
5.110000000000000098e-01,3.578120467184817688e-01,-2.038447397116440463e-01,6.712509423326883107e-02
5.120000000000000107e-01,3.048506177110565929e-01,-2.890594851808957477e-01,1.107829179540192194e-01
5.130000000000000115e-01,-4.169334292915995513e-03,-4.547143644933917539e-01,5.815146958632292501e-02
5.140000000000000124e-01,-2.328055126562429133e-01,-5.163736484730016008e-01,-4.815928375853141541e-02
5.150000000000000133e-01,-2.448768168333458339e-01,-3.305118229855815160e-01,-1.460198525825985626e-03
5.160000000000000142e-01,-1.469990022399709773e-01,-7.430952220298717159e-02,1.624614221921109047e-01
5.170000000000000151e-01,-2.139637656920084507e-01,-5.115721842136512071e-02,1.938290171073670520e-01
5.180000000000000160e-01,-5.318583778399376127e-01,-2.145775359814145467e-01,9.094815026722975759e-02
5.190000000000000169e-01,-6.723706768357092800e-01,-1.632325799193293792e-01,-5.687113055893606300e-02
5.200000000000000178e-01,-5.806962209054304935e-01,1.514566743859448172e-02,-8.002519540319653901e-02
5.210000000000000187e-01,-2.913401765012375577e-01,2.229638496318089858e-01,-4.289293176684069731e-02
5.220000000000000195e-01,-1.909911959474342724e-01,1.617424592620621271e-01,-4.472660393272148011e-02
5.230000000000000204e-01,-2.931375512067231348e-01,-5.223167266315596052e-02,-1.691578390038306901e-01
5.240000000000000213e-01,-3.468800515003410689e-01,-1.220895170670583674e-01,-3.477749755128324849e-01
5.250000000000000222e-01,-1.521575195413612525e-01,-5.967257230803624246e-02,-3.767324748002826018e-01
5.260000000000000231e-01,1.779212753661389979e-01,7.242563838947735366e-02,-2.745984156488947558e-01
5.270000000000000240e-01,2.793156176234067312e-01,2.139601677156596944e-03,-1.681227355254521771e-01
5.280000000000000249e-01,1.204998226923522792e-01,-1.567788872966084657e-01,-1.849853553392968586e-01
5.290000000000000258e-01,-5.472160509024584507e-02,-2.185627723568671077e-01,-2.540921306813514469e-01
5.300000000000000266e-01,-1.684817129605896413e-02,-4.341355296006976089e-02,-2.161236612765934928e-01
5.310000000000000275e-01,1.874068057388795505e-01,1.697535336968000186e-01,-6.381604311500335691e-02
5.320000000000000284e-01,1.718652673163942601e-01,2.346698492150473270e-01,1.106747586850123366e-01
5.330000000000000293e-01,-3.174252226653017511e-02,1.292631948920979212e-01,1.388156939971650627e-01
5.340000000000000302e-01,-2.481516738731008309e-01,1.594114422068426962e-01,-6.644441629295561903e-03
5.350000000000000311e-01,-2.255593235250333561e-01,3.142426704332790255e-01,-1.419995626078530623e-02
5.360000000000000320e-01,6.035418359269498212e-02,5.189739398811900051e-01,1.025922777170251571e-01
5.370000000000000329e-01,1.994539010735183193e-01,4.905483710480814108e-01,2.031116246288787452e-01
5.380000000000000338e-01,1.400394166609666979e-01,2.712467461782695488e-01,1.262100099333407499e-01
5.390000000000000346e-01,4.669890845465207718e-02,1.607578698634164471e-01,-1.635093044270900103e-02
5.400000000000000355e-01,1.402341934352546726e-01,1.775248818271503992e-01,-1.025108117896147142e-01
5.410000000000000364e-01,4.645092171968539518e-01,2.428642670766988643e-01,-3.955410540198694980e-02
5.420000000000000373e-01,6.398876929144931003e-01,1.545353783064032094e-01,8.842539599902471403e-02
5.430000000000000382e-01,5.155734694624981573e-01,-1.500539853549661962e-01,5.722078685666735776e-02
5.440000000000000391e-01,3.028328534381153347e-01,-2.988197426663098955e-01,-2.098375324150655169e-02
5.450000000000000400e-01,2.917783221010017414e-01,-1.823013859558194338e-01,-4.515578282307750047e-02
5.460000000000000409e-01,3.825014886047207185e-01,-2.817537516234635761e-02,8.747807398203284734e-02
5.470000000000000417e-01,4.022788366489643552e-01,-3.889904797519428553e-02,2.691277225529507544e-01
5.480000000000000426e-01,1.468044461197485773e-01,-2.096287416459881592e-01,3.015638561960198305e-01
5.490000000000000435e-01,-2.008556101099932267e-01,-2.524170959016335813e-01,2.173074109780052665e-01
5.500000000000000444e-01,-2.975407911843210296e-01,-9.889701098002656732e-02,1.666870096672523893e-01
5.510000000000000453e-01,-1.742839230815272922e-01,1.139308047107951000e-01,2.130778462209585999e-01
5.520000000000000462e-01,-6.989988343355976741e-02,1.243547952127482398e-01,3.027637293512548955e-01
5.530000000000000471e-01,-2.179004664574671069e-01,-6.484976792287278080e-02,2.747386719212875916e-01
5.540000000000000480e-01,-4.123490351334394011e-01,-1.972918680034197458e-01,8.963809914367108778e-02
5.550000000000000488e-01,-3.673367932700989380e-01,-1.354795764664279145e-01,-7.574349084024736833e-02
5.560000000000000497e-01,-1.175620657222845034e-01,6.423511379372632722e-04,-7.461188431371851282e-02
5.570000000000000506e-01,9.127711835251044181e-02,-7.504859934873431282e-02,-4.063990761726667122e-02
5.580000000000000515e-01,3.777294794409462309e-02,-3.210364933517539932e-01,-6.518523495636747989e-02
5.590000000000000524e-01,-1.723627203279487763e-01,-4.541357696296851043e-01,-1.933184589223195804e-01
5.600000000000000533e-01,-1.974745053423898888e-01,-3.387874898177344329e-01,-2.958958828694191467e-01
5.610000000000000542e-01,6.378417012573280032e-03,-1.884373507641539380e-01,-2.748016151582285960e-01
5.620000000000000551e-01,8.424530107741964868e-02,-1.400215179940772769e-01,-9.885933479625519382e-02
5.629999999999999449e-01,-6.530912216745402010e-02,-2.725935266424128200e-01,-2.943061343931619583e-03
5.639999999999999458e-01,-3.475752083648936952e-01,-2.615714706764292741e-01,-5.553545808334682532e-02
5.649999999999999467e-01,-4.696697763640769741e-01,-9.268821213816798299e-02,-1.391158318832297069e-01
5.659999999999999476e-01,-3.466393686605576119e-01,2.135142399596597629e-01,-7.723347010198201856e-02
5.669999999999999485e-01,-1.732153370327744468e-01,2.672181291452460639e-01,2.125638474734546646e-02
5.679999999999999494e-01,-2.461082769964077765e-01,1.757176597383456884e-01,1.098529804668216953e-01
5.689999999999999503e-01,-4.459653015914413765e-01,1.172351505790566878e-01,4.530269702231248807e-03
5.699999999999999512e-01,-4.282003398709582909e-01,2.521927789785061158e-01,-1.713278532592593106e-01
5.709999999999999520e-01,-1.383043765454953222e-01,4.382728714754381971e-01,-2.115735650025075965e-01
5.719999999999999529e-01,1.816379647789552187e-01,3.598849250414375422e-01,-8.302212285061170982e-02
5.729999999999999538e-01,2.280142454932979623e-01,1.184396255419588734e-01,-3.480001438734955238e-02
5.739999999999999547e-01,1.610546403770009016e-01,-1.015214501885555558e-02,-1.312652819807335891e-01
5.749999999999999556e-01,1.323286729009132690e-01,1.878579111946537556e-03,-2.638495817044634317e-01
5.759999999999999565e-01,3.531805048839538608e-01,1.780882378034823188e-01,-2.698724851202179975e-01
5.769999999999999574e-01,5.926646371976121985e-01,1.289984352607641271e-01,-1.240192142354832744e-01
5.779999999999999583e-01,5.534269901943943415e-01,-3.572967377838404818e-02,5.121254693495733840e-02
5.789999999999999591e-01,2.635710726822915739e-01,-6.688105029084312481e-02,6.175068190210994401e-02
5.799999999999999600e-01,9.516274521753691207e-02,3.778041618973689703e-02,6.409740694574881693e-03
5.809999999999999609e-01,1.730455470338166379e-01,2.799804883188338200e-01,4.517883982529155573e-02
5.819999999999999618e-01,2.671915783369681607e-01,2.968130384554548695e-01,1.784913037608992781e-01
5.829999999999999627e-01,1.801189862454567747e-01,1.756886404104213983e-01,3.498311273294084645e-01
5.839999999999999636e-01,-6.918447382963523185e-02,6.573989203153560168e-02,3.628040020721788883e-01
5.849999999999999645e-01,-2.190491524271959700e-01,1.584387589833210763e-01,2.068161836562325828e-01
5.859999999999999654e-01,-3.614514645954776395e-02,2.972626584180581011e-01,9.436565944573888087e-02
5.869999999999999662e-01,2.149772672716625810e-01,2.444106965194154379e-01,1.715005467361582214e-01
5.879999999999999671e-01,2.502249182187458731e-01,-2.727102409676570097e-02,2.283097985514816464e-01
5.889999999999999680e-01,9.831907096054319506e-02,-1.872772715230945906e-01,1.653605470710871606e-01
5.899999999999999689e-01,3.508598238950276504e-02,-2.381923838576936459e-01,2.192014104198295593e-02
5.909999999999999698e-01,1.544288625748821420e-01,-1.525531478506140792e-01,-1.257995226641176467e-01
5.919999999999999707e-01,3.786941063958662035e-01,-1.980189632006555400e-01,-4.934452317886806050e-02
5.929999999999999716e-01,3.748027813998975888e-01,-4.010698701554397116e-01,8.003142071285770931e-02
5.939999999999999725e-01,8.439778415587867455e-02,-5.406367425066067600e-01,1.059968032147562411e-01
5.949999999999999734e-01,-1.625275132646959442e-01,-4.362737366431962971e-01,-2.761169462779728117e-03
5.959999999999999742e-01,-1.845640149495066940e-01,-1.874111777625466491e-01,-5.477565393007882699e-02
5.969999999999999751e-01,-8.438229058658550108e-02,-8.252552278861020885e-02,3.700468621342276054e-02
5.979999999999999760e-01,-1.391667349129737663e-01,-1.897251691788914285e-01,1.999845908166904829e-01
5.989999999999999769e-01,-4.395960665093811004e-01,-2.280703772636419879e-01,2.184490921737731461e-01
5.999999999999999778e-01,-6.548091548243389903e-01,-7.328658068467282238e-02,1.188810357271761625e-01
6.009999999999999787e-01,-6.132929424839119736e-01,1.573414108863459282e-01,-5.393768647709879654e-02
6.019999999999999796e-01,-3.576167953187904813e-01,1.653893010191738455e-01,-3.918544507032741681e-02
6.029999999999999805e-01,-2.323449209077959043e-01,2.495136563772580932e-02,3.023079310262007796e-02
6.039999999999999813e-01,-3.426980472580961057e-01,-1.029765068692030106e-01,1.273371119675369145e-02
6.049999999999999822e-01,-4.124274635387261134e-01,-1.017041751149752732e-01,-1.518945025955874828e-01
6.059999999999999831e-01,-2.321677263574764283e-01,8.959509643990347383e-02,-3.441560647588676192e-01
6.069999999999999840e-01,1.001044433408132955e-01,3.864723885500220141e-02,-3.525194955773107153e-01
6.079999999999999849e-01,2.440073077626796483e-01,-1.239412336649087371e-01,-2.630288782429448524e-01
6.089999999999999858e-01,9.751560595586646063e-02,-2.599646126121860634e-01,-1.605300159280231287e-01
6.099999999999999867e-01,-6.703862137265016730e-02,-1.442202922921454744e-01,-2.200821119043189777e-01
6.109999999999999876e-01,-2.443144110934820576e-02,9.043713308999003220e-02,-3.104963901903267098e-01
6.119999999999999885e-01,1.884143333040568802e-01,1.866110369954555592e-01,-2.446675258594105118e-01
6.129999999999999893e-01,2.124937594601943036e-01,1.046153096832790341e-01,-5.496151995490896475e-02
6.139999999999999902e-01,7.389473060266685224e-04,9.531996624510738481e-02,6.989292147414156997e-02
6.149999999999999911e-01,-2.296783070125279214e-01,2.119841563351135827e-01,6.780963280642081370e-02
6.159999999999999920e-01,-2.169834878983436244e-01,4.827480195910429650e-01,-3.723129374350918255e-03
6.169999999999999929e-01,2.642976074921260174e-02,5.328067792048009066e-01,1.221717968651404342e-02
6.179999999999999938e-01,1.392531004714352982e-01,3.644247107477813219e-01,7.825778553187093256e-02
6.189999999999999947e-01,8.022971017696624296e-02,1.959633499864485429e-01,2.019835217663836502e-01
6.199999999999999956e-01,-1.754137227837032631e-02,2.159760542798081773e-01,1.269300057544762439e-01
6.209999999999999964e-01,7.859878504061733329e-02,2.955583255902929363e-01,-2.489307502852402404e-02
6.219999999999999973e-01,4.120477115572973026e-01,2.550603019755756651e-01,-8.826875207374899890e-02
6.229999999999999982e-01,5.993935253322122403e-01,-1.976276109587396784e-03,-2.641032052906211805e-02
6.239999999999999991e-01,5.124942046596656642e-01,-2.282498335874808548e-01,1.053325050598733215e-01
6.250000000000000000e-01,3.046924880999022367e-01,-2.299428620013271862e-01,7.510674475930607941e-02
6.260000000000000009e-01,2.782484311241375519e-01,-5.214061456895446173e-02,-5.397346653766327274e-02
6.270000000000000018e-01,4.212273848791412978e-01,-4.535123891470301677e-02,-4.239240369542403991e-02
6.280000000000000027e-01,4.923412177301949022e-01,-1.382792113834459824e-01,6.521812768097573487e-02
6.290000000000000036e-01,2.533928398082381794e-01,-2.546331508404811039e-01,2.571930758185378973e-01
6.300000000000000044e-01,-1.034880727476115703e-01,-1.505272253333055921e-01,2.761118803031644697e-01
6.310000000000000053e-01,-2.352848733130181169e-01,4.736158157954268449e-02,2.026776705025835346e-01
6.320000000000000062e-01,-1.143742588485377326e-01,1.461089955936735463e-01,1.515559220536600027e-01
6.330000000000000071e-01,-2.894893023873029714e-02,1.362365918281267275e-02,2.163799346628668963e-01
6.340000000000000080e-01,-1.903074100376389022e-01,-1.464008804631768135e-01,3.520538393943942745e-01
6.350000000000000089e-01,-4.215280262514941589e-01,-1.061200274569670671e-01,3.124275851407116722e-01
6.360000000000000098e-01,-4.107027975330290182e-01,-2.545825183587964533e-03,1.075977893577089312e-01
6.370000000000000107e-01,-1.571023950955749149e-01,-6.633417665885772696e-03,-2.692295042340568309e-02
6.380000000000000115e-01,5.029435089417727545e-02,-2.262694624852106262e-01,-4.675377623700344848e-02
6.390000000000000124e-01,2.522254300631570842e-02,-4.429329265273010408e-01,1.395792017056778382e-03
6.400000000000000133e-01,-1.578680231380376053e-01,-4.172576369390371132e-01,-1.934307958075459979e-02
6.410000000000000142e-01,-2.275965069115156447e-01,-2.351619974250037937e-01,-1.682593579724960264e-01
6.420000000000000151e-01,-4.098162833231330099e-02,-1.925311496439686687e-01,-3.109465438807720861e-01
6.430000000000000160e-01,1.549374838284024725e-01,-2.743503030946617960e-01,-2.507444458786209918e-01
6.440000000000000169e-01,2.083321762046257131e-02,-3.329533111825460079e-01,-1.174104115505772289e-01
6.450000000000000178e-01,-2.809285703473710649e-01,-2.156597471132435107e-01,-1.363272346764175975e-02
6.460000000000000187e-01,-4.763783481973682954e-01,5.631374012518671618e-02,-1.039607569006330279e-01
6.470000000000000195e-01,-3.257858982513645030e-01,2.449980295386832152e-01,-1.759373550111643092e-01
6.480000000000000204e-01,-1.737107378334994401e-01,1.619560927117441596e-01,-9.346716426164008995e-02
6.490000000000000213e-01,-2.416757948393305766e-01,1.124769809649550506e-01,1.471316748546352797e-02
6.500000000000000222e-01,-4.561961180656537440e-01,1.599570612046276596e-01,1.051406389355346027e-01
6.510000000000000231e-01,-4.866477428853935305e-01,3.970957875672619930e-01,-1.379783289020067132e-02
6.520000000000000240e-01,-2.442609117705399902e-01,4.527411700316221754e-01,-1.598644025918300182e-01
6.530000000000000249e-01,9.312993083786338944e-02,2.444845887647879301e-01,-1.857034402593485956e-01
6.540000000000000258e-01,1.588888321108296586e-01,1.237711454327221176e-02,-1.026884423128589102e-01
6.550000000000000266e-01,6.802397311152512394e-02,4.427527361983440296e-02,-5.918526618597830247e-02
6.560000000000000275e-01,4.086696211632796089e-02,1.801812643805107139e-01,-1.514859629815881459e-01
6.570000000000000284e-01,3.366970203019069574e-01,1.707695727259650187e-01,-2.712437691858397004e-01
6.580000000000000293e-01,5.507641886850048740e-01,2.390874771499230944e-02,-2.978748350294061487e-01
6.590000000000000302e-01,5.544150835521977072e-01,-1.119679587683930500e-01,-1.436309595125296323e-01
6.600000000000000311e-01,3.378677291085455670e-01,-3.884481440343427738e-02,8.696837222037496692e-03
6.610000000000000320e-01,9.778264093773736398e-02,1.906076165504387854e-01,3.791759256195205430e-02
6.620000000000000329e-01,1.868306595265287751e-01,3.120948462290551451e-01,-2.842182357906076692e-02
6.630000000000000338e-01,3.037439697574760289e-01,2.381176029421407103e-01,1.031409001071734513e-02
6.640000000000000346e-01,2.562557460809781196e-01,1.032979677900975196e-01,1.773194355748342887e-01
6.650000000000000355e-01,-3.041026504398435318e-02,1.359949910371010540e-01,3.424515816208618668e-01
6.660000000000000364e-01,-1.882248894698124453e-01,2.999796458782165165e-01,3.481584380601545625e-01
6.670000000000000373e-01,-6.679943403514267131e-02,3.290679428388479377e-01,2.004087393783536009e-01
6.680000000000000382e-01,1.487140643787646654e-01,1.537211092339265672e-01,1.288862957325145886e-01
6.690000000000000391e-01,2.528084094200520049e-01,-1.246053161815632582e-01,1.903581682389235974e-01
6.700000000000000400e-01,1.173076835710932242e-01,-1.922816000886582999e-01,2.828595478570360422e-01
6.710000000000000409e-01,1.447263248179345846e-02,-1.013679665063230151e-01,1.934904949041761912e-01
6.720000000000000417e-01,1.469954278897177002e-01,-1.316032686149721798e-01,1.228004071362715117e-02
6.730000000000000426e-01,3.684682438049674547e-01,-3.158336418273882118e-01,-1.136302089992422132e-01
6.740000000000000435e-01,4.298993659734053896e-01,-5.032065927487023860e-01,-6.122667968017963397e-02
6.750000000000000444e-01,1.560852790744670648e-01,-4.689657907398570580e-01,9.632867203024973735e-02
6.760000000000000453e-01,-8.999855175537524454e-02,-2.598810343569023518e-01,6.385786177410986142e-02
6.770000000000000462e-01,-1.236477416743533564e-01,-1.110168995081481230e-01,-3.052401454862873828e-02
6.780000000000000471e-01,1.297659980749849874e-02,-1.946582359281886498e-01,-7.048113176429651738e-02
6.790000000000000480e-01,-4.034344846399910700e-02,-2.660477632187335795e-01,4.770783362312708276e-02
6.800000000000000488e-01,-3.860158645628222751e-01,-1.782027234004466276e-01,1.703921491664830146e-01
6.810000000000000497e-01,-6.178851648622331050e-01,6.240646741446457396e-02,2.377908097925527375e-01
6.820000000000000506e-01,-5.647013774450919676e-01,1.825319638914900677e-01,9.185545124650189297e-02
6.830000000000000515e-01,-3.731434694556436948e-01,8.653127309839020453e-02,-2.137571706813350472e-02
6.840000000000000524e-01,-2.398792676935690149e-01,-7.704110499943356283e-02,-1.272399424424681610e-02
6.850000000000000533e-01,-3.773940893832788412e-01,-7.990651868993954576e-02,6.817414099938610972e-02
6.860000000000000542e-01,-4.484862051363754376e-01,7.323363992613432516e-02,4.046659820157619963e-02
6.870000000000000551e-01,-2.946178571050407369e-01,8.796167149009333219e-02,-1.244266394231621220e-01
6.879999999999999449e-01,1.657698294879289894e-02,-7.953806627240558869e-02,-3.255988480757754933e-01
6.889999999999999458e-01,1.981646960602385932e-01,-2.584228632482867827e-01,-3.018846586802432230e-01
6.899999999999999467e-01,9.435542517483642977e-02,-2.103463746513669075e-01,-2.146597433857094228e-01
6.909999999999999476e-01,-3.836297744087437817e-02,-1.671168362949400354e-02,-1.794826684987126109e-01
6.919999999999999485e-01,-3.098436866050135671e-02,1.572698054182390115e-01,-2.442646205235069479e-01
6.929999999999999494e-01,1.792004341316575378e-01,1.233144859919845515e-01,-3.298668321845477092e-01
6.939999999999999503e-01,2.229181464564796433e-01,2.983650589733222169e-02,-2.636260550086358401e-01
6.949999999999999512e-01,2.272180276570784710e-02,1.189357420671056514e-01,-7.639382367163961851e-02
6.959999999999999520e-01,-1.963099290628958771e-01,3.625557072902158007e-01,4.901723499943277246e-02
6.969999999999999529e-01,-2.049354779539248606e-01,5.286553470195413107e-01,5.918233400667066713e-02
6.979999999999999538e-01,-2.149559278661188066e-02,4.265139086280943514e-01,-3.516619012722258658e-02
6.989999999999999547e-01,1.329940484456645644e-01,2.438685422223949018e-01,-1.977036277944098364e-02
6.999999999999999556e-01,6.903983035340814645e-02,2.092010356272751004e-01,1.363412799080826465e-01
7.009999999999999565e-01,-8.969956545885421351e-02,3.516422561463167229e-01,2.149354341440594951e-01
7.019999999999999574e-01,-5.194306095728644726e-03,3.130780687965118436e-01,1.086866467431414213e-01
7.029999999999999583e-01,3.197536085554757435e-01,1.694684386595386449e-01,-5.027187016335309816e-02
7.039999999999999591e-01,5.350762592761549863e-01,-1.260020643722215006e-01,-8.284170391774864362e-02
7.049999999999999600e-01,5.075696976937291716e-01,-2.083945098923107586e-01,2.848374261514866491e-03
7.059999999999999609e-01,3.424683200448291331e-01,-7.414872022275705021e-02,9.651123064925946904e-02
7.069999999999999618e-01,2.960385999908020649e-01,-3.244224849569601887e-02,1.934125987977470401e-02
7.079999999999999627e-01,4.574127941091276628e-01,-1.114791824717335511e-01,-6.460201525291810187e-02
7.089999999999999636e-01,5.548130907946074997e-01,-2.724031879392889710e-01,-6.255809117392474583e-02
7.099999999999999645e-01,3.344779066296730829e-01,-2.149492355245320729e-01,5.743147906147531845e-02
7.109999999999999654e-01,-1.255869840248534201e-02,-1.117505467250446034e-02,2.137723459450782959e-01
7.119999999999999662e-01,-1.298251105146434881e-01,1.328834027010884766e-01,2.407660884115635502e-01
7.129999999999999671e-01,-7.504420794678655360e-02,4.250650884091548148e-02,1.915879758310044256e-01
7.139999999999999680e-01,-1.412606067732063465e-02,-1.107290337605503633e-01,1.450215192842648770e-01
7.149999999999999689e-01,-1.337810392711102914e-01,-1.080792554566966102e-01,2.492937420623090594e-01
7.159999999999999698e-01,-3.871946993607565113e-01,-1.101627632110342876e-02,3.697755128590713425e-01
7.169999999999999707e-01,-4.213972780193340206e-01,6.578226117612794022e-02,3.047761162446273042e-01
7.179999999999999716e-01,-2.158795325636638507e-01,-1.305371639450919607e-01,1.374145657453640923e-01
7.189999999999999725e-01,2.348971135933692125e-02,-3.481688029552735819e-01,-1.251453325666018572e-02
7.199999999999999734e-01,-1.259769936504416543e-02,-4.207570674411786338e-01,-6.352401315061186049e-03
7.209999999999999742e-01,-1.252646675375371776e-01,-3.088161228279650006e-01,3.358365977759604493e-02
7.219999999999999751e-01,-2.061892498063811474e-01,-1.824600414456949982e-01,-1.303357568812143173e-02
7.229999999999999760e-01,-2.020120231966166316e-02,-2.734276457376871305e-01,-1.946681737184499106e-01
7.239999999999999769e-01,1.352517056834541542e-01,-4.028379106006241828e-01,-2.759898347767277826e-01
7.249999999999999778e-01,5.063444501451515312e-02,-3.149792780453200547e-01,-2.212160567510956244e-01
7.259999999999999787e-01,-2.171906118883178416e-01,-6.620936684085000634e-02,-1.043393128387731794e-01
7.269999999999999796e-01,-4.407198112833158876e-01,1.575059317989999930e-01,-4.020747743094625626e-02
7.279999999999999805e-01,-3.324244721878859554e-01,1.393951269391563996e-01,-1.031567445005550226e-01
7.289999999999999813e-01,-1.670036919862952218e-01,6.031110316241299063e-02,-1.736077022446978757e-01
7.299999999999999822e-01,-2.571375536848594101e-01,1.078048571392190569e-01,-1.394430547142502808e-01
7.309999999999999831e-01,-4.842480316263501616e-01,3.216267471295624070e-01,2.170861760337935639e-02
7.319999999999999840e-01,-5.418392560261716673e-01,4.621919505493707891e-01,8.930322888358327438e-02
7.329999999999999849e-01,-3.299731401140077458e-01,3.107672747048124684e-01,-4.308062810118176190e-03
7.339999999999999858e-01,5.772058094897915964e-03,1.075621798723123829e-01,-1.275000261929762624e-01
7.349999999999999867e-01,1.051239674064910756e-01,6.051795519707174609e-02,-1.503473027787568805e-01
7.359999999999999876e-01,3.777057784743228629e-04,1.678289239953652534e-01,-6.319220703006034334e-02
7.369999999999999885e-01,-9.182134073104452829e-03,2.108550478484465807e-01,-5.181793856889188588e-02
7.379999999999999893e-01,2.336596055758055623e-01,9.469738233462042520e-02,-1.752267293669713399e-01
7.389999999999999902e-01,5.153554056553799612e-01,-9.591430186582751427e-02,-3.015029643688070804e-01
7.399999999999999911e-01,5.825917778279244841e-01,-1.347073077818720377e-01,-3.035879005024254562e-01
7.409999999999999920e-01,3.600270223594560504e-01,1.119649814545155969e-01,-1.275926727856348530e-01
7.419999999999999929e-01,1.685241926628958109e-01,2.682773203122494343e-01,-4.616880871380367457e-02
7.429999999999999938e-01,2.210322314012720946e-01,2.335389503993878513e-01,-2.156352871344913158e-02
7.439999999999999947e-01,3.599563723312861896e-01,9.021172993854241484e-02,-8.125774797323344345e-02
7.449999999999999956e-01,3.263889348534099177e-01,7.512147558997621377e-02,-1.053768352662389808e-02
7.459999999999999964e-01,2.900072713048656298e-02,2.612956015932847986e-01,1.607883815185724985e-01
7.469999999999999973e-01,-1.782225227412529422e-01,3.731661559631629932e-01,3.186561688863099873e-01
7.479999999999999982e-01,-8.871029422029629019e-02,2.398091414471048288e-01,2.992267518688980776e-01
7.489999999999999991e-01,1.281469382594204454e-01,-1.531077366309522778e-02,1.775815246262757163e-01
7.500000000000000000e-01,2.158411198827063227e-01,-1.273407296676040412e-01,1.512432866865941195e-01
7.510000000000000009e-01,9.173245973751814608e-02,-5.655914897775505407e-02,2.394528503465617464e-01
7.520000000000000018e-01,-2.943036471693044262e-02,-3.082925674985698486e-02,2.950725613144424830e-01
7.530000000000000027e-01,1.046711226611430207e-01,-2.102260385521333985e-01,2.244030263836770955e-01
7.540000000000000036e-01,3.996903821609520957e-01,-4.422090278972292121e-01,1.262604782286122496e-02
7.550000000000000044e-01,4.366806151953653847e-01,-5.204898810643865392e-01,-6.443171583797818736e-02
7.560000000000000053e-01,1.935933514200613714e-01,-3.406346304399439640e-01,-7.473769363697204196e-03
7.570000000000000062e-01,-1.384711803371887085e-03,-1.760665355974693480e-01,8.560143488257686284e-02
7.580000000000000071e-01,-5.468612849161585965e-02,-2.004861992286533778e-01,9.320814828121416762e-02
7.590000000000000080e-01,6.173411992290003120e-02,-2.861691954206015409e-01,-4.884639341851188671e-02
7.600000000000000089e-01,6.051164861279088349e-03,-2.537286000604718206e-01,-7.935515620027049077e-02
7.610000000000000098e-01,-2.580345169413768014e-01,-3.028737358764299614e-02,3.871431207687590220e-02
7.620000000000000107e-01,-5.543942520523034156e-01,1.927742206661763602e-01,1.689405485857874145e-01
7.630000000000000115e-01,-5.757551848679705042e-01,1.179931000296882415e-01,1.994471998133700297e-01
7.640000000000000124e-01,-3.909587039458311541e-01,-8.396723945838080461e-02,8.982012438099323814e-02
7.650000000000000133e-01,-2.683404419020897769e-01,-1.159958780205687240e-01,-2.692141302405729603e-02
7.660000000000000142e-01,-3.987465062564223839e-01,-6.711347988284331427e-03,2.238606965378347330e-02
7.670000000000000151e-01,-5.162229629372966366e-01,7.610140968685062679e-02,1.158128430794084923e-01
7.680000000000000160e-01,-3.674415979518777520e-01,-1.025937332573730564e-02,7.977915677025787522e-02
7.690000000000000169e-01,-7.579174999698774784e-02,-1.923399308465832680e-01,-1.172524333694691251e-01
7.700000000000000178e-01,1.564265548154524510e-01,-2.760310992735278690e-01,-2.817420728380241046e-01
7.710000000000000187e-01,5.932506902349313216e-02,-8.417037436471559719e-02,-2.852048621593680777e-01
7.720000000000000195e-01,-7.064792229458849437e-02,7.098747660757230571e-02,-1.830608147940308572e-01
7.730000000000000204e-01,-5.891030134939227725e-02,6.870072669771835894e-02,-2.005031496585590323e-01
7.740000000000000213e-01,1.499080687223609820e-01,-8.487706523301670469e-03,-2.799012944320954932e-01
7.750000000000000222e-01,2.547468489348110321e-01,1.123841199135256104e-02,-3.609315097511767156e-01
7.760000000000000231e-01,5.636250056459464475e-02,2.476089484313700739e-01,-2.782309518519233138e-01
7.770000000000000240e-01,-1.734684280729664463e-01,4.774275894485749960e-01,-7.637808125968156836e-02
7.780000000000000249e-01,-2.415983792467260860e-01,4.516415006624848738e-01,1.255015757548790141e-03
7.790000000000000258e-01,-4.950718212462917878e-02,2.939363215863071144e-01,-6.885426683768722245e-03
7.800000000000000266e-01,9.154105003913944050e-02,2.315998742438376834e-01,-7.659622938482954502e-02
7.810000000000000275e-01,2.771062384240851467e-02,3.170408437482742370e-01,-1.315771794861149077e-02
7.820000000000000284e-01,-1.145911463109449691e-01,4.003075697989555981e-01,1.622872844381592350e-01
7.830000000000000293e-01,-9.050278519191083670e-02,2.561117819980909815e-01,2.138865273890475649e-01
7.840000000000000302e-01,2.639156643831288007e-01,-2.917064009344393777e-02,1.253084740988496260e-01
7.850000000000000311e-01,5.068710305525779836e-01,-1.313878341706010144e-01,-3.214253367084526913e-02
7.860000000000000320e-01,4.842225533985969887e-01,-6.676729151039188792e-02,-8.408158543557697762e-02
7.870000000000000329e-01,3.041061076447115208e-01,-3.649845895709931225e-03,4.577656687972520705e-02
7.880000000000000338e-01,2.990471756046402807e-01,-6.695726708289849449e-02,9.719483158303511561e-02
7.890000000000000346e-01,4.769965573479936771e-01,-2.398588136143567640e-01,2.606430948994337832e-03
7.900000000000000355e-01,6.147127789645020490e-01,-2.891721766536838878e-01,-8.187513521443690045e-02
7.910000000000000364e-01,4.182322731677837746e-01,-8.600727541022637479e-02,-7.931975287574831446e-02
7.920000000000000373e-01,1.043916747247747856e-01,6.996951182366438482e-02,6.041245202021645888e-02
7.930000000000000382e-01,-9.633455462762001431e-02,7.012142201889701165e-02,2.013468664015826692e-01
7.940000000000000391e-01,-5.280585861051739771e-02,-1.009216498236731596e-01,2.473914933457771748e-01
7.950000000000000400e-01,5.980166989326669152e-02,-1.403709174692548689e-01,1.469286837571282256e-01
7.960000000000000409e-01,-6.614220372865599329e-02,1.679805318526254865e-02,1.570601493988457997e-01
7.970000000000000417e-01,-3.554980829396898745e-01,1.001863141592439499e-01,2.802540700474472901e-01
7.980000000000000426e-01,-4.649507711398878085e-01,-7.508028666733646515e-03,3.723613289589463027e-01
7.990000000000000435e-01,-2.739634810360487838e-01,-2.532834784809270823e-01,3.397203331666783233e-01
8.000000000000000444e-01,-1.396946982922755466e-02,-3.799718366834126670e-01,1.359024689287302856e-01
8.010000000000000453e-01,-3.192292444625917380e-02,-2.894463073631066141e-01,4.717231573817446538e-02
8.020000000000000462e-01,-1.596582785552128625e-01,-1.987680486558049964e-01,4.634330245500808965e-02
8.030000000000000471e-01,-2.083044628747297289e-01,-2.593814277934159973e-01,9.159760465430577536e-02
8.040000000000000480e-01,-2.706425592066119545e-02,-3.941904913116740516e-01,1.627177923804058388e-02
8.050000000000000488e-01,1.532956916396221725e-01,-3.920347421823885403e-01,-1.642009544011282518e-01
8.060000000000000497e-01,8.262982752761621752e-02,-2.020672698822165991e-01,-2.809573265058911140e-01
8.070000000000000506e-01,-1.756471087045893831e-01,5.148354492608531174e-02,-2.374395203439347291e-01
8.080000000000000515e-01,-3.261709103221152040e-01,1.225937310211162312e-01,-1.043457171750872409e-01
8.090000000000000524e-01,-3.077380831669616623e-01,4.175988442160873809e-02,-7.281168852284509996e-02
8.100000000000000533e-01,-1.499237107129600677e-01,3.650472437668721148e-02,-1.423660447551423625e-01
8.110000000000000542e-01,-2.581192559035574430e-01,2.305605186900732684e-01,-2.055292511976104242e-01
8.120000000000000551e-01,-4.489698472390851181e-01,3.820363316246114804e-01,-6.464461684446211331e-02
8.129999999999999449e-01,-5.903094939418784826e-01,3.584815222102974985e-01,7.739354578913389127e-02
8.139999999999999458e-01,-3.760203161826596308e-01,1.640363944632197701e-01,8.313387124581991805e-02
8.149999999999999467e-01,-1.070457280197694983e-01,5.326331449859568468e-02,-3.826426170951521821e-02
8.159999999999999476e-01,1.626108731587076403e-02,1.678930442992280225e-01,-1.502964955032682348e-01
8.169999999999999485e-01,-9.428866388893020201e-02,2.392957005428632544e-01,-1.113020759394523496e-01
8.179999999999999494e-01,-8.031126392342081977e-02,1.184071272941638886e-01,-6.902583517588610496e-02
8.189999999999999503e-01,1.583391461925951760e-01,-7.746288602525082390e-02,-3.497940857176429219e-02
8.199999999999999512e-01,4.571588787310594260e-01,-1.219431351438911848e-01,-1.458455309497447006e-01
8.209999999999999520e-01,5.416555702862907440e-01,3.488354885954209061e-02,-3.309940683591216515e-01
8.219999999999999529e-01,3.721569464667042193e-01,2.015842193238492619e-01,-2.930994900453168794e-01
8.229999999999999538e-01,2.098442852117199386e-01,2.152834268882584390e-01,-1.549490733773370987e-01
8.239999999999999547e-01,2.275813658165467823e-01,1.014492137123170629e-01,-4.984526465793229222e-02
8.249999999999999556e-01,3.716226877910602799e-01,6.837983603062139371e-02,-6.241500483463793825e-02
8.259999999999999565e-01,3.656426777489086843e-01,2.202627452727606017e-01,-1.141939412085726663e-01
8.269999999999999574e-01,8.507017105869954521e-02,3.602204381984488446e-01,-4.818634166365274446e-02
8.279999999999999583e-01,-1.310806784708485606e-01,3.248885920555090734e-01,1.370338889325286302e-01
8.289999999999999591e-01,-9.779229730268121368e-02,1.015992831055526902e-01,2.949577319265747066e-01
8.299999999999999600e-01,1.391967358295962409e-01,-5.024255811919496606e-02,2.766614223788322335e-01
8.309999999999999609e-01,2.168186041032037770e-01,-3.243165557632505386e-02,1.926548329000512538e-01
8.319999999999999618e-01,7.438685720480729680e-02,-1.624585498640363597e-03,1.598822608490799158e-01
8.329999999999999627e-01,-6.838592707399036852e-02,-1.223708191127157452e-01,2.516897630631389493e-01
8.339999999999999636e-01,9.156655266339611132e-02,-3.459080636297586220e-01,3.384546859030704291e-01
8.349999999999999645e-01,3.386351143640718986e-01,-4.748761736494984120e-01,2.141457985345348036e-01
8.359999999999999654e-01,4.627097027740336155e-01,-3.927508523231559301e-01,4.503448261248928913e-02
8.369999999999999662e-01,2.526474418166182456e-01,-2.229284097285407773e-01,-6.523824682770570926e-02
8.379999999999999671e-01,4.826500662606526826e-02,-1.944023100024365736e-01,-1.482295780635491588e-03
8.389999999999999680e-01,4.333914752899713924e-02,-3.085702872769960359e-01,1.097005245407808027e-01
8.399999999999999689e-01,1.274667164387716101e-01,-3.875942626580081152e-01,6.076900552994334709e-02
8.409999999999999698e-01,9.610617276758039174e-02,-1.383096903683092294e-01,-5.300691845710853167e-02
8.419999999999999707e-01,-1.826788451675049607e-01,9.700885258599757643e-02,-8.549299341627802917e-02
8.429999999999999716e-01,-5.101437323350829223e-01,1.231533520190823822e-01,3.928372510155046793e-02
8.439999999999999725e-01,-5.392986755058116755e-01,-1.529618807591361269e-02,1.805310072515085018e-01
8.449999999999999734e-01,-3.781113545116168706e-01,-1.281771979215422796e-01,1.924230529962885905e-01
8.459999999999999742e-01,-2.768956862014710363e-01,-2.242754223072515596e-02,9.602940468386438055e-02
8.469999999999999751e-01,-4.100494945258139623e-01,1.042471989511477154e-01,1.650933560641060921e-02
8.479999999999999760e-01,-5.503520263240950783e-01,6.049892025597779222e-02,6.234534427581140542e-02
8.489999999999999769e-01,-4.864138099817030825e-01,-1.773128851977087694e-01,1.515409742317269659e-01
8.499999999999999778e-01,-1.545253380321069681e-01,-2.646093419735638941e-01,8.899220862119792963e-02
8.509999999999999787e-01,8.982595452836766858e-02,-1.600078091658684865e-01,-9.454205133322853005e-02
8.519999999999999796e-01,4.700115586536740553e-02,3.011470316947460757e-02,-2.448693227908906589e-01
8.529999999999999805e-01,-1.128311852618148342e-01,6.630680673890566867e-02,-2.720492240652310767e-01
8.539999999999999813e-01,-5.075241988946873478e-02,-5.728364807553060906e-02,-1.584201683013167772e-01
8.549999999999999822e-01,1.269949591011221568e-01,-5.768469251492375910e-02,-1.786311936417828983e-01
8.559999999999999831e-01,2.558035615512675998e-01,1.698302155652151313e-01,-3.099766786320636847e-01
8.569999999999999840e-01,1.367684435076698679e-01,4.078030160276965854e-01,-3.866703741599105681e-01
8.579999999999999849e-01,-1.837177835913529345e-01,4.490653728441780790e-01,-3.276292625157625205e-01
8.589999999999999858e-01,-2.221011050679299881e-01,3.233178543955707029e-01,-1.475527174898749738e-01
8.599999999999999867e-01,-6.522212456694750915e-02,2.350518446686497565e-01,-1.765603875123110053e-02
8.609999999999999876e-01,1.063413004024187369e-01,3.340265079145416371e-01,-5.413186311147730884e-02
8.619999999999999885e-01,2.498225289242395411e-02,4.282673399341798137e-01,-9.270912755070501166e-02
8.629999999999999893e-01,-1.765045070325712562e-01,3.543284530844876268e-01,-4.123890225568472429e-02
8.639999999999999902e-01,-1.191023871683377089e-01,8.337621908601103304e-02,9.833500730392878697e-02
8.649999999999999911e-01,1.664034997148103878e-01,-7.607889446808402401e-02,1.992498574487678864e-01
8.659999999999999920e-01,4.208051635898424903e-01,-6.631422181443247243e-02,1.037986391824008425e-01
8.669999999999999929e-01,4.179722338353469846e-01,4.611907697338479134e-02,-5.266734149124358000e-02
8.679999999999999938e-01,3.008363757497312108e-01,9.564189218679620703e-04,-5.622571408133299198e-02
8.689999999999999947e-01,2.839829589958532963e-01,-2.110573990118538024e-01,5.091691133550992066e-02
8.699999999999999956e-01,4.831136337157952432e-01,-2.944159932655062706e-01,8.332099369985287995e-02
8.709999999999999964e-01,6.591085564333608593e-01,-1.726675520450982326e-01,-4.637114672217120632e-04
8.719999999999999973e-01,4.831762754753342604e-01,3.627598402677274791e-02,-1.404439298841408945e-01
8.729999999999999982e-01,1.959231219269683411e-01,9.709852534926589895e-02,-1.223299064490841886e-01
8.739999999999999991e-01,-3.208660721550909978e-02,-5.747362507296618905e-02,2.932637142044739256e-02
8.750000000000000000e-01,2.388634185661333773e-02,-1.260280736463691431e-01,1.890061156701200173e-01
8.760000000000000009e-01,1.226661014676815320e-01,-5.393140042600588074e-02,1.730687559930972341e-01
8.770000000000000018e-01,-1.497473078465281875e-02,1.301202984730233103e-01,1.217699691644003185e-01
8.780000000000000027e-01,-3.000126493657789273e-01,5.723842409770723422e-02,1.279114423481794716e-01
8.790000000000000036e-01,-4.321738364108476116e-01,-1.238080198624731537e-01,2.894543012338479104e-01
8.800000000000000044e-01,-2.417116710083720421e-01,-3.527150547920616663e-01,3.960424831633389542e-01
8.810000000000000053e-01,-3.406998655430441836e-02,-3.029933185705243615e-01,3.156680907474722075e-01
8.820000000000000062e-01,-2.547739424050850243e-02,-2.131889974278115552e-01,1.545560694692382775e-01
8.830000000000000071e-01,-1.838369621694841971e-01,-1.910544038449758231e-01,7.071645256474357044e-02
8.840000000000000080e-01,-2.639819952715531381e-01,-3.716302145414970837e-01,9.859840411614423372e-02
8.850000000000000089e-01,-8.429454118498960757e-02,-4.617368856245095410e-01,1.267206963801342234e-01
8.860000000000000098e-01,1.654944975821499575e-01,-3.027215741192665344e-01,4.279397463188900491e-02
8.870000000000000107e-01,1.313074670478175665e-01,-5.768716458642736411e-02,-1.466450129082033649e-01
8.880000000000000115e-01,-1.283038760248729204e-01,5.941158116921726323e-02,-2.778883762893139542e-01
8.890000000000000124e-01,-3.189156806817521894e-01,-1.990328447359867789e-02,-1.918034708772180241e-01
8.900000000000000133e-01,-2.520978716178908230e-01,-2.568170197873655483e-02,-8.151375820441676689e-02
8.910000000000000142e-01,-1.384966766205682487e-01,1.097844677045333728e-01,-7.855851657941863297e-02
8.920000000000000151e-01,-1.911821929321692592e-01,4.007301032843786359e-01,-1.733637807642189610e-01
8.930000000000000160e-01,-4.259219746058979794e-01,4.053683948554916427e-01,-2.256567247872638127e-01
8.940000000000000169e-01,-6.333392727734472594e-01,2.651415731515883722e-01,-1.240578527963347444e-01
8.950000000000000178e-01,-4.563885161443870242e-01,8.709191801717725001e-02,4.431833684000578005e-02
8.960000000000000187e-01,-1.656176236693445436e-01,1.001051774914581832e-01,9.477481051375510890e-02
8.970000000000000195e-01,-1.882875661251043331e-02,2.563810236365811623e-01,-3.216842453473722774e-02
8.980000000000000204e-01,-1.311657019826524551e-01,2.134218866015830385e-01,-1.361967149209409866e-01
8.990000000000000213e-01,-1.409177349266110268e-01,3.435543332990426829e-02,-1.292991247169617830e-01
9.000000000000000222e-01,5.638606762873701883e-02,-1.177603129119759312e-01,-7.816740155308183821e-03
9.010000000000000231e-01,3.972681769527814377e-01,-4.272996550847088515e-02,-2.252760446439363087e-02
9.020000000000000240e-01,5.161110536380533187e-01,1.543190087204708016e-01,-1.685070590209383767e-01
9.030000000000000249e-01,3.906815644577555924e-01,2.066405243012611748e-01,-3.075079343160214695e-01
9.040000000000000258e-01,1.859295784502842941e-01,9.127615956396087360e-02,-3.017656546466493395e-01
9.050000000000000266e-01,2.298750050241999687e-01,4.870476627263332220e-02,-1.465424637784395467e-01
9.060000000000000275e-01,4.207073900238574860e-01,1.503899639680241207e-01,-6.323467180392920717e-02
9.070000000000000284e-01,4.127131448901952826e-01,3.540891453942299205e-01,-1.154826421399348518e-01
9.080000000000000293e-01,1.695927791473232915e-01,4.122882854774591044e-01,-1.577232542483092970e-01
9.090000000000000302e-01,-8.623479956910636013e-02,1.957264288607074298e-01,-8.077174688622687504e-02
9.100000000000000311e-01,-6.847146313134783169e-02,5.176255506972624043e-02,1.273498685563511368e-01
9.110000000000000320e-01,1.052902855098886009e-01,2.944096890172988312e-02,2.784666554789126947e-01
9.120000000000000329e-01,2.139140389770836370e-01,8.790939144437634467e-02,2.263812973004507845e-01
9.130000000000000338e-01,5.911703790393194741e-02,2.032856729538317503e-02,1.557862909937055285e-01
9.140000000000000346e-01,-3.494460570667372312e-02,-2.429263596943416759e-01,1.705800341484806359e-01
9.150000000000000355e-01,3.250587762535616515e-02,-4.475254013795551544e-01,2.835834294363825392e-01
9.160000000000000364e-01,2.971148369206806361e-01,-4.300623177341398318e-01,3.313023599310818690e-01
9.170000000000000373e-01,4.488747942148255121e-01,-2.317424653607373097e-01,2.525497816364277726e-01
9.180000000000000382e-01,3.004279190698838087e-01,-2.016105482956942752e-01,4.015151707882917698e-02
9.190000000000000391e-01,9.567810725728254084e-02,-3.089259042690161716e-01,5.841356882299407818e-03
9.200000000000000400e-01,5.282493975009564663e-02,-3.984608602900533425e-01,6.952939767577392960e-02
9.210000000000000409e-01,1.911177507525156638e-01,-2.429512503538704404e-01,1.248755424121232582e-01
9.220000000000000417e-01,1.983618236615087849e-01,1.312078733308654280e-02,5.945868955954494023e-02
9.230000000000000426e-01,-1.107190145328056652e-01,1.369795985133623051e-01,-8.150985208454854247e-02
9.240000000000000435e-01,-4.100071902812496005e-01,-1.715400730334402588e-02,-9.626790926049438868e-02
9.250000000000000444e-01,-4.991866619068100475e-01,-1.162487337245180496e-01,3.980699033313021135e-02
9.260000000000000453e-01,-3.803440749734630089e-01,-4.211135541042624469e-02,1.796456964391686673e-01
9.270000000000000462e-01,-3.173695616891143989e-01,7.653205109023798747e-02,1.993322779403176870e-01
9.280000000000000471e-01,-4.274156008012779395e-01,1.101166804480162437e-01,5.842449596675382273e-02
9.290000000000000480e-01,-5.828463238811918412e-01,-8.094695401114908317e-02,1.273002435286086330e-03
9.300000000000000488e-01,-5.253178515422339823e-01,-2.499068892184621027e-01,7.906945247492044859e-02
9.310000000000000497e-01,-2.480318520833734997e-01,-2.146442147000686140e-01,1.850882985972017170e-01
9.320000000000000506e-01,1.311866689475567208e-03,-1.438844424070885933e-02,9.653116093540954623e-02
9.330000000000000515e-01,-2.741638118563335166e-03,3.650928051554287734e-02,-8.525095350012051876e-02
9.340000000000000524e-01,-1.403754897408493463e-01,-7.462042377807097393e-02,-2.265691350885597477e-01
9.350000000000000533e-01,-1.173643731321304395e-01,-1.176188706170217951e-01,-2.142353425779416065e-01
9.360000000000000542e-01,9.710578965474002400e-02,1.238343750346215973e-02,-1.333525901114329670e-01
9.370000000000000551e-01,2.572119281523110312e-01,3.175862394549021084e-01,-1.749444654993304316e-01
9.379999999999999449e-01,1.498684701863579882e-01,4.311039787470862250e-01,-3.115432299673981387e-01
9.389999999999999458e-01,-1.456022467841959211e-01,3.451456932008997724e-01,-4.362520658840650656e-01
9.399999999999999467e-01,-2.214827674493491105e-01,2.361307873381182088e-01,-3.158698679998120928e-01
9.409999999999999476e-01,-8.122350177814796623e-02,2.848687927604034997e-01,-1.205576530767864668e-01
9.419999999999999485e-01,6.505202630349715687e-02,4.428410044728727790e-01,-6.446989197763250412e-02
9.429999999999999494e-01,-1.464100038874361839e-02,4.391334667949486348e-01,-8.199949323462678297e-02
9.439999999999999503e-01,-1.881370525702621144e-01,2.493222744852665040e-01,-1.371804975005995186e-01
9.449999999999999512e-01,-2.190561937724699038e-01,-1.007694344137223530e-02,-4.698812559987589066e-02
9.459999999999999520e-01,7.024671297265354386e-02,-3.676720613146326061e-02,1.384228582086443338e-01
9.469999999999999529e-01,3.594102195735231486e-01,4.223402557067836710e-02,1.956509439611058554e-01
9.479999999999999538e-01,4.092394520305810413e-01,7.301406371386906513e-02,5.495396086213259063e-02
9.489999999999999547e-01,2.735396049390442230e-01,-1.280083397867308459e-01,-2.384251006202222148e-02
9.499999999999999556e-01,2.508906130227085973e-01,-2.900215139027063072e-01,-5.593715377921618104e-02
9.509999999999999565e-01,4.567994345554213242e-01,-2.264097560969616230e-01,4.717860755026571928e-02
9.519999999999999574e-01,6.451018515892513738e-01,-3.860939176644606619e-02,7.600143967485234464e-02
9.529999999999999583e-01,5.715605065656238493e-01,9.653854920876925316e-02,-6.536624952350220813e-03
9.539999999999999591e-01,3.003928283332489291e-01,-9.377022149631328643e-03,-1.577206578363997413e-01
9.549999999999999600e-01,7.534272004329529981e-02,-1.300790106684136527e-01,-1.175002688807249007e-01
9.559999999999999609e-01,1.211589323526844064e-01,-7.147555708382569151e-02,5.440657351595994118e-02
9.569999999999999618e-01,1.728092060376980876e-01,9.321829343961503256e-02,1.628100134015439127e-01
9.579999999999999627e-01,7.465558757230764120e-02,1.192543835863048435e-01,1.621067129700630993e-01
9.589999999999999636e-01,-2.698480034828568686e-01,-7.366167236363521664e-02,6.476833769730665213e-02
9.599999999999999645e-01,-4.100596911817673274e-01,-2.787211257684553689e-01,1.141705939855473390e-01
9.609999999999999654e-01,-3.006048593814664716e-01,-3.260730722031296436e-01,3.217434046260178593e-01
9.619999999999999662e-01,-3.963384477592328536e-02,-1.948026973962552477e-01,3.919317887385529997e-01
9.629999999999999671e-01,-3.246300583981347188e-02,-1.858499532557808254e-01,3.304573659256699325e-01
9.639999999999999680e-01,-2.029363830431816784e-01,-3.412651188726404938e-01,1.867764802539637059e-01
9.649999999999999689e-01,-2.466267713240013759e-01,-4.960815655206619601e-01,1.023514437961189766e-01
9.659999999999999698e-01,-8.134094176504784446e-02,-4.391904009452855528e-01,1.578702519432779450e-01
9.669999999999999707e-01,1.677545724835341756e-01,-1.585454305510523021e-01,1.639097240552612467e-01
9.679999999999999716e-01,1.498558898235013981e-01,-4.578708998210297837e-02,8.447080696196740401e-02
9.689999999999999725e-01,-8.101525944201319607e-02,-3.598522632042881753e-02,-1.212585096968204212e-01
9.699999999999999734e-01,-2.670022078789774378e-01,-8.898269771556956143e-02,-2.221371781189085126e-01
9.709999999999999742e-01,-2.215082610201396796e-01,3.959069200262076843e-02,-1.757417699227109276e-01
9.719999999999999751e-01,-1.197083456431932147e-01,2.650744881427911648e-01,-7.965803127953269280e-02
9.729999999999999760e-01,-1.665461155415118299e-01,3.957223617774887070e-01,-8.411183780999707815e-02
9.739999999999999769e-01,-3.764210153493176558e-01,2.819419914014730244e-01,-2.408430963862134011e-01
9.749999999999999778e-01,-5.919965935124175127e-01,1.099007403898143859e-01,-2.280339398196638279e-01
9.759999999999999787e-01,-5.176963638754076280e-01,1.358326253286558927e-01,-1.065169058631281612e-01
9.769999999999999796e-01,-2.188547663801580223e-01,2.372068794788341484e-01,5.624445613282268858e-02
9.779999999999999805e-01,-1.239729239944685896e-01,2.641812479830938365e-01,6.407847469900412873e-02
9.789999999999999813e-01,-1.920743697145783635e-01,1.089383596114202185e-01,-7.442476860129704219e-02
9.799999999999999822e-01,-2.383572692769350687e-01,-1.219752911162926695e-01,-1.381646268381118980e-01
9.809999999999999831e-01,-3.215762889466176194e-02,-8.818882098435110173e-02,-6.535085229911509475e-02
9.819999999999999840e-01,2.903129836216577497e-01,6.531057891451433339e-02,-4.652165577596462619e-03
9.829999999999999849e-01,4.508738318037864290e-01,2.120316973712436381e-01,-1.136118762299657796e-02
9.839999999999999858e-01,3.823891966735785686e-01,1.131663199821905386e-01,-1.830582405532401868e-01
9.849999999999999867e-01,2.079119454611637330e-01,3.578876416661093407e-02,-3.144513541365024367e-01
9.859999999999999876e-01,2.540545472450895237e-01,7.895699383056746512e-02,-2.727867192504482285e-01
9.869999999999999885e-01,4.142804047265947753e-01,3.151704144951750219e-01,-1.402719832215059692e-01
9.879999999999999893e-01,4.435666266394934776e-01,4.008161319649752863e-01,-7.524408043371103028e-02
9.889999999999999902e-01,2.238913375893304691e-01,2.923153717338802804e-01,-1.680384635476286914e-01
9.899999999999999911e-01,-6.605149489128361862e-02,7.385027058040363745e-02,-2.317620520851510768e-01
9.909999999999999920e-01,-8.635682432187263835e-02,2.823111445169210545e-02,-9.175628195158500033e-02
9.919999999999999929e-01,1.169404267756071758e-01,1.259164451023325193e-01,9.280525952756865649e-02
9.929999999999999938e-01,2.145508783705537825e-01,1.197460514990095620e-01,2.402875061492383002e-01
9.939999999999999947e-01,6.509847912289425109e-02,-1.084144320679226586e-01,1.750130877912171312e-01
9.949999999999999956e-01,-8.795597117929922215e-02,-3.475258511595821775e-01,9.362072892312110761e-02
9.959999999999999964e-01,5.794619948783818857e-03,-4.027378339119871975e-01,1.437302984506811099e-01
9.969999999999999973e-01,2.462494288842343171e-01,-2.742112542290897625e-01,2.915574577864428196e-01
9.979999999999999982e-01,4.228780575644114914e-01,-1.781782104866800887e-01,3.302980365113225569e-01
9.989999999999999991e-01,3.305764501671276112e-01,-2.703125363436155726e-01,2.219522212745672629e-01
1.000000000000000000e+00,1.035716077812782743e-01,-4.161770970924850710e-01,5.684427266624558078e-02
1.000999999999999890e+00,8.566921082076738025e-02,-3.387935814962170777e-01,1.592072721587595857e-02
1.002000000000000002e+00,2.091056187840914515e-01,-1.058698361859200937e-01,8.886668152933460685e-02
1.002999999999999892e+00,2.725568400997827045e-01,6.625588070752795600e-02,1.477912122605716805e-01
1.004000000000000004e+00,2.242998318305274366e-02,3.561709102538876404e-02,5.956365144879369883e-02
1.004999999999999893e+00,-3.114725826381921081e-01,-1.189223913573547869e-01,-8.702008097122175545e-02
1.006000000000000005e+00,-4.227702474913216935e-01,-9.176387938792487931e-02,-1.117809258454336013e-01
1.006999999999999895e+00,-3.075333793849047703e-01,6.393086053708553484e-02,4.002550735568191631e-02
1.008000000000000007e+00,-2.552215539567619929e-01,1.452848646039275049e-01,1.849500343792475077e-01
1.008999999999999897e+00,-4.030650224361948530e-01,5.592038060719129074e-03,1.716672570050841173e-01
1.010000000000000009e+00,-5.947672460909094738e-01,-2.204284810723468602e-01,4.069913700963541381e-02
1.010999999999999899e+00,-5.769581233362056638e-01,-2.369162436777151048e-01,2.016197485074818288e-02
1.012000000000000011e+00,-3.012736246372204052e-01,-8.283697738060782911e-02,1.239205608181717794e-01
1.012999999999999901e+00,-3.505914905282465216e-02,3.194289784082479655e-02,2.248337152793714322e-01
1.014000000000000012e+00,-4.393483734707819000e-02,-2.461460465599644293e-02,1.586793353902182235e-01
1.014999999999999902e+00,-1.941592141335390931e-01,-1.713829663285104665e-01,-5.653595066228182114e-02
1.016000000000000014e+00,-1.344325247836985759e-01,-1.089240854784628426e-01,-1.961186064895467929e-01
1.016999999999999904e+00,5.263534783980919340e-02,1.588407443009737796e-01,-1.931830559168096484e-01
1.018000000000000016e+00,2.490749802067918628e-01,3.581317433848095755e-01,-9.290116007803637943e-02
1.018999999999999906e+00,1.809508396102071370e-01,2.897209660621687943e-01,-1.693023610718432104e-01
1.020000000000000018e+00,-7.289898764551965005e-02,2.631754791877258248e-01,-3.393069885764444238e-01
1.020999999999999908e+00,-2.166407562404845666e-01,2.354140424403471654e-01,-4.103910019989793767e-01
1.022000000000000020e+00,-9.488607068317307658e-02,4.352145239113943131e-01,-3.356989758384546496e-01
1.022999999999999909e+00,6.875788911756919308e-02,5.232097560987627460e-01,-1.328749073453986684e-01
1.024000000000000021e+00,-3.794459876762195424e-03,3.525444461435473520e-01,-8.377528939224684890e-02
1.024999999999999911e+00,-2.173566135709956715e-01,9.599417557666747869e-02,-1.393860617476495867e-01
1.026000000000000023e+00,-2.434322192338618240e-01,1.243805729626521958e-02,-1.895154021735199756e-01
1.026999999999999913e+00,3.069323662684672431e-03,8.936811879453461505e-02,-5.341843411672003022e-02
1.028000000000000025e+00,2.770867151757900326e-01,1.192115092011918759e-01,1.643459898317499168e-01
1.028999999999999915e+00,3.240291116952567774e-01,-3.367637477595413625e-02,1.950773987512261776e-01
1.030000000000000027e+00,2.393808307965665516e-01,-2.117494916223880697e-01,5.680577138288318145e-02
1.030999999999999917e+00,2.217273760532285087e-01,-2.696198618747613351e-01,-5.094577658121025171e-02
1.032000000000000028e+00,4.377594553857995785e-01,-7.102288917175271499e-02,-1.126608265609414274e-02
1.032999999999999918e+00,6.579687933136251221e-01,6.361512975930283531e-02,8.524208701597907334e-02
1.034000000000000030e+00,6.133845578474835802e-01,2.318864693466860319e-02,8.221708933269902819e-02
1.034999999999999920e+00,3.267105173828089293e-01,-1.197701325272448047e-01,1.168688180194551660e-02
1.036000000000000032e+00,1.277614009157402586e-01,-9.846247618309143801e-02,-1.561427718683867927e-01
1.036999999999999922e+00,1.450212309619101636e-01,5.408793436084859130e-02,-1.107856999604715509e-01
1.038000000000000034e+00,2.449106255856171310e-01,1.865472648919211385e-01,3.151708590416255062e-02
1.038999999999999924e+00,1.167724320987347519e-01,1.010284633884521097e-02,1.406483771074956701e-01
1.040000000000000036e+00,-1.553146472603996742e-01,-2.050887112364400688e-01,1.166276208873501391e-01
1.040999999999999925e+00,-3.803202277594014968e-01,-3.167710878966755739e-01,4.833593185457194658e-02
1.042000000000000037e+00,-2.891244463103294082e-01,-1.986282995563318499e-01,8.192304079934976946e-02
1.042999999999999927e+00,-7.635220647392694515e-02,-1.453436134395477419e-01,2.749320827361972364e-01
1.044000000000000039e+00,-1.701774076891208673e-02,-2.317283850797854927e-01,3.961167071811276807e-01
1.044999999999999929e+00,-1.941352838836967742e-01,-4.550853111353065916e-01,3.381405028857716322e-01
1.046000000000000041e+00,-2.707226962774302859e-01,-4.979350222798519798e-01,1.744739922974873902e-01
1.046999999999999931e+00,-1.328962855902334761e-01,-3.205264505589323076e-01,1.028337103651845857e-01
1.048000000000000043e+00,1.207854423234988595e-01,-8.117331950182707367e-02,1.822588651935053705e-01
1.048999999999999932e+00,1.697002864103042963e-01,-7.315665625356429502e-02,2.460165584420950513e-01
1.050000000000000044e+00,-2.191444458828993927e-02,-1.500051610344153297e-01,1.095772503505353657e-01
1.050999999999999934e+00,-2.529790130248874003e-01,-8.225178353933480790e-02,-1.157922819308755125e-01
1.052000000000000046e+00,-2.147155974789199673e-01,1.781803714966123942e-01,-2.021923929354734750e-01
1.052999999999999936e+00,-5.425836281073134065e-02,3.576565560046416348e-01,-1.460201129073764592e-01
1.054000000000000048e+00,-9.122473949024854922e-02,3.419798755743835850e-01,-4.967634805796904834e-02
1.054999999999999938e+00,-3.395792182269981030e-01,1.722043574302233315e-01,-8.712514897152108528e-02
1.056000000000000050e+00,-5.715577120581989412e-01,1.001279611477090548e-01,-2.202978708435199551e-01
1.056999999999999940e+00,-5.286282794242367356e-01,2.126394059440931961e-01,-2.340694824291721099e-01
1.058000000000000052e+00,-2.968004297658947688e-01,2.988790887456799772e-01,-9.101442824905663087e-02
1.058999999999999941e+00,-1.696020961134365734e-01,2.005541674088426318e-01,6.136536245105710108e-02
1.060000000000000053e+00,-2.558397749980426683e-01,-5.002340860927135396e-02,6.787723400977203891e-02
1.060999999999999943e+00,-3.531728899094306318e-01,-1.240664603591995069e-01,-5.970294567905483352e-02
1.062000000000000055e+00,-1.181692141520154227e-01,6.022628475386210961e-02,-1.194253811691790290e-01
1.062999999999999945e+00,2.241353047454294201e-01,1.930791102088957878e-01,-6.492657642973334586e-02
1.064000000000000057e+00,4.186354230191553505e-01,1.518931581764833838e-01,5.282178208924857149e-02
1.064999999999999947e+00,3.380724141957078821e-01,2.811736544994753242e-02,-3.567746357632844457e-03
1.066000000000000059e+00,2.158274820338045852e-01,2.582718596537106337e-02,-1.582297333092692326e-01
1.066999999999999948e+00,2.231511348535684391e-01,2.310546368960733898e-01,-3.093001160229712498e-01
1.068000000000000060e+00,4.113986066273319087e-01,4.008632977486088489e-01,-2.720304668743637744e-01
1.068999999999999950e+00,4.952766756076191768e-01,3.685994590964451478e-01,-1.472331627822594247e-01
1.070000000000000062e+00,2.629660268993810335e-01,1.843153550688191589e-01,-1.344699703293838200e-01
1.070999999999999952e+00,-2.264840813378586962e-02,8.226163690881042878e-02,-1.909851854215774414e-01
1.072000000000000064e+00,-6.094902521015801294e-02,1.404770843469153874e-01,-2.375139941475594429e-01
1.072999999999999954e+00,1.127113685531744292e-01,2.274549414418297055e-01,-1.357031216765078041e-01
1.074000000000000066e+00,2.029463543141697413e-01,4.178996914540795277e-02,8.162088860806590573e-02
1.074999999999999956e+00,6.728672286419530579e-02,-2.601590472644017549e-01,1.668848631111449488e-01
1.076000000000000068e+00,-1.058420650627916321e-01,-3.918325676108135869e-01,1.591421309607102264e-01
1.076999999999999957e+00,-6.447794156538246002e-02,-3.048267359074305904e-01,1.030947909954311181e-01
1.078000000000000069e+00,2.194897739930045388e-01,-1.936646844029864811e-01,1.620208963860904627e-01
1.078999999999999959e+00,4.092759979476922050e-01,-2.710141998959674225e-01,3.381562404064565874e-01
1.080000000000000071e+00,3.420582994177884806e-01,-4.289817990418166582e-01,3.442186695256183038e-01
1.080999999999999961e+00,1.489299361803290978e-01,-4.484273410436513396e-01,2.179915844006540815e-01
1.082000000000000073e+00,1.051882104749374131e-01,-1.972519559292001678e-01,6.560287978130484310e-02
1.082999999999999963e+00,2.759340697837149303e-01,2.656382589875871947e-02,3.103744997280031073e-02
1.084000000000000075e+00,3.358091490309241256e-01,2.514956466943777877e-02,1.069632033497707607e-01
1.084999999999999964e+00,1.397431520577050446e-01,-1.039372534512215396e-01,1.678951488288328020e-01
1.086000000000000076e+00,-1.914189197026451017e-01,-1.303129499875534669e-01,4.374824007569064199e-02
1.086999999999999966e+00,-3.975633163153793892e-01,2.195620517691039900e-02,-9.344911596554249245e-02
1.088000000000000078e+00,-2.924486422111051143e-01,1.612330162258889532e-01,-8.862136556165936541e-02
1.088999999999999968e+00,-2.072277243509534350e-01,7.501911688972434655e-02,5.305713965457647951e-02
1.090000000000000080e+00,-3.786104644585508994e-01,-1.480910195003997398e-01,1.304439555546649254e-01
1.090999999999999970e+00,-6.002792640270050439e-01,-2.718138807349799180e-01,1.560692141424200596e-01
1.092000000000000082e+00,-6.303920505937358199e-01,-1.270678528342941149e-01,4.277584584957263431e-02
1.092999999999999972e+00,-3.668673973290786927e-01,2.518851291826442688e-04,2.345322811906434476e-02
1.094000000000000083e+00,-1.409022274999863766e-01,-5.947510766302439161e-02,1.386592824060714491e-01
1.094999999999999973e+00,-1.037490908320743144e-01,-1.870699890588476966e-01,2.294400204852506397e-01
1.096000000000000085e+00,-2.149344734761001741e-01,-2.246158619738026219e-01,1.530082945481441581e-01
1.096999999999999975e+00,-2.070166370162243585e-01,4.728382030668121239e-02,-3.325024181180341598e-02
1.098000000000000087e+00,-8.350156738132372136e-03,2.687404390396309073e-01,-1.817059862431600337e-01
1.098999999999999977e+00,2.663413180011628412e-01,3.006946907044407702e-01,-1.253824438814724329e-01
1.100000000000000089e+00,2.018356238968471716e-01,2.135192587939629960e-01,-8.926435275000295377e-02
1.100999999999999979e+00,-7.202613635568158590e-02,1.998852269815428462e-01,-1.509738746874947080e-01
1.102000000000000091e+00,-2.105720778834673790e-01,3.622757780130608785e-01,-3.328516770761510979e-01
1.102999999999999980e+00,-7.933099779836430554e-02,5.353669724487265524e-01,-4.129176143308910252e-01
1.104000000000000092e+00,1.048655005265216184e-01,4.615007072940587873e-01,-2.990628832471531329e-01
1.104999999999999982e+00,9.907609022068237375e-03,2.111416065084374960e-01,-1.499360326688801148e-01
1.106000000000000094e+00,-2.227755795851645848e-01,6.832210684195126615e-02,-9.138370778301482811e-02
1.106999999999999984e+00,-3.289894533054366632e-01,1.100411386391951241e-01,-2.104199650896377838e-01
1.108000000000000096e+00,-7.836044861599684996e-02,1.905684537364767672e-01,-2.167505605756849529e-01
1.108999999999999986e+00,1.965227508858313765e-01,3.776568310395056471e-02,-6.580347186089362255e-02
1.110000000000000098e+00,2.665914639031417011e-01,-1.681029219301617972e-01,1.148931790134622988e-01
1.110999999999999988e+00,2.012274702813682536e-01,-3.081916850476273950e-01,1.557648874578170528e-01
1.112000000000000099e+00,1.511776701297666003e-01,-1.328201408085094293e-01,5.192299282922910320e-02
1.112999999999999989e+00,3.688591424306694733e-01,2.486450348312560163e-02,-5.444461846092821938e-02
1.114000000000000101e+00,6.528638440185109415e-01,4.083970367711319688e-02,5.553134035511727608e-03
1.114999999999999991e+00,6.259556051630271734e-01,-8.931672192423113776e-02,1.040270872768409155e-01
1.116000000000000103e+00,4.020539662007045489e-01,-1.579532178021258171e-01,6.750673443999505308e-02
1.116999999999999993e+00,2.207724415302537990e-01,-3.784810871620796369e-03,-4.793660316626788959e-02
1.118000000000000105e+00,2.104186522314806518e-01,1.802496564302376036e-01,-1.538593554682003151e-01
1.118999999999999995e+00,3.449897145866412385e-01,1.184371170719466237e-01,-1.248267913593181372e-01
1.120000000000000107e+00,2.175415542464381458e-01,-1.154477275418070992e-01,6.231896934799033283e-02
1.120999999999999996e+00,-9.751040015000234096e-02,-2.199453511198462274e-01,8.931343078834015625e-02
1.122000000000000108e+00,-3.338790478504361503e-01,-1.762576594480467773e-01,4.938630419336024341e-02
1.122999999999999998e+00,-2.568713071819759275e-01,-9.727598339819594486e-02,-9.936275627154940449e-03
1.124000000000000110e+00,-1.099882598060705902e-01,-1.954551367070781198e-01,9.194072713106417327e-02
1.125000000000000000e+00,-5.404747926952967185e-02,-4.204983887958700928e-01,2.526011607878794196e-01
1.125999999999999890e+00,-1.895978100382303411e-01,-4.980821924955035618e-01,3.698885055911843578e-01
1.127000000000000002e+00,-3.030205147028710577e-01,-3.695554498212700323e-01,2.989017376065200016e-01
1.127999999999999892e+00,-1.911999255147354138e-01,-1.674872159767457624e-01,1.828588335786127672e-01
1.129000000000000004e+00,9.502910903574236789e-02,-1.153601781233147550e-01,1.452986409759305653e-01
1.129999999999999893e+00,1.893316508943271581e-01,-2.155539805784074114e-01,2.444439947505042676e-01
1.131000000000000005e+00,4.812644584088063976e-03,-2.001330677353702903e-01,2.462437913717783478e-01
1.131999999999999895e+00,-2.034024158323778364e-01,4.450473833712838972e-02,1.226078964006900585e-01
1.133000000000000007e+00,-1.809137431953736219e-01,2.813382660249678646e-01,-7.236278994267174303e-02
1.133999999999999897e+00,-2.641784139490870736e-02,3.624794533253326567e-01,-1.816993410744567605e-01
1.135000000000000009e+00,-4.172526763720717062e-03,1.799504092654977960e-01,-1.113485406335441713e-01
1.135999999999999899e+00,-3.072488465214629483e-01,1.097235960357873241e-01,-4.070844088374259151e-02
1.137000000000000011e+00,-5.487344274943832811e-01,1.962550598545343694e-01,-1.361455837135535640e-01
1.137999999999999901e+00,-5.276193070593756529e-01,3.423407608849801664e-01,-2.366893310953728791e-01
1.139000000000000012e+00,-3.230274308455554078e-01,2.492524206150370236e-01,-2.233066034252094434e-01
1.139999999999999902e+00,-2.171670252672276702e-01,4.292257539948340916e-02,-1.106267376060909163e-01
1.141000000000000014e+00,-3.023305030902622703e-01,-9.428111280616710554e-02,6.183884907811296877e-02
1.141999999999999904e+00,-3.873400836482143172e-01,-3.435583216629452957e-02,7.364000961617186980e-02
1.143000000000000016e+00,-2.480444452588983495e-01,1.374191069176081970e-01,-7.368542070265714228e-02
1.143999999999999906e+00,9.206110305653451842e-02,1.462281873927550324e-01,-1.116051693194605593e-01
1.145000000000000018e+00,3.780678218417563574e-01,1.913632533296153598e-02,-3.777630159144429456e-02
1.145999999999999908e+00,3.128139505023413980e-01,-4.463618149640089655e-02,5.612469660936258986e-02
1.147000000000000020e+00,1.518478759808261913e-01,1.412479593938087141e-01,1.688369629815137871e-02
1.147999999999999909e+00,2.096759893435480582e-01,3.587953017745425521e-01,-1.877760043498878928e-01
1.149000000000000021e+00,4.144472416706573292e-01,3.947046222703766150e-01,-2.948710800153575007e-01
1.149999999999999911e+00,5.163430970861003777e-01,1.930486897473540353e-01,-2.528311455931094298e-01
1.151000000000000023e+00,3.238754154868160873e-01,7.586562749964019525e-02,-1.517797190918778738e-01
1.151999999999999913e+00,7.284531327663922029e-02,1.583157813721377538e-01,-1.657019128988769796e-01
1.153000000000000025e+00,3.515378238482972945e-03,2.760972275641287443e-01,-2.089739190406428582e-01
1.153999999999999915e+00,1.248217329925360719e-01,1.605709899847403976e-01,-2.979478331259858281e-01
1.155000000000000027e+00,2.140921315791231017e-01,-9.519573393433121422e-02,-1.652499827996180559e-01
1.155999999999999917e+00,8.096265473757957576e-02,-3.297748886837570392e-01,6.183687892294430916e-02
1.157000000000000028e+00,-1.030293011821249577e-01,-2.874184448627762345e-01,1.484348107516888227e-01
1.157999999999999918e+00,-7.033078349701880894e-02,-1.926448930435044338e-01,1.053882183438642206e-01
1.159000000000000030e+00,1.742077793080328840e-01,-2.307227507430150149e-01,4.499649514662632660e-02
1.159999999999999920e+00,3.710345483483842854e-01,-4.033320766200655383e-01,1.528711397452320875e-01
1.161000000000000032e+00,3.360801321104401884e-01,-4.567878393268804960e-01,3.171875769346832463e-01
1.161999999999999922e+00,1.329942828805846522e-01,-3.231403506829390593e-01,3.512465174201783169e-01
1.163000000000000034e+00,1.357913912060433603e-01,-6.796824384465380287e-02,2.505272271237442006e-01
1.163999999999999924e+00,3.247772372005143793e-01,2.341005387136901265e-03,1.100858746393023890e-01
1.165000000000000036e+00,3.994955994719834313e-01,-1.137739921384562231e-01,8.191609107169803283e-02
1.165999999999999925e+00,2.102786245531058362e-01,-1.705736737833987160e-01,1.864853195890109616e-01
1.167000000000000037e+00,-1.132673996755113599e-01,-2.376716775444605648e-02,1.878655358809081244e-01
1.167999999999999927e+00,-2.909838361504790694e-01,1.517580101639699752e-01,1.497588531773722670e-02
1.169000000000000039e+00,-2.802429011535871317e-01,1.220466020371117760e-01,-8.614922893822872518e-02
1.169999999999999929e+00,-1.493756997228304073e-01,-7.481022200228354402e-02,-8.572917670920698896e-02
1.171000000000000041e+00,-3.240196435305489064e-01,-2.336729775839249124e-01,5.502368860620446972e-02
1.171999999999999931e+00,-5.571514513609446828e-01,-1.943921197399886003e-01,1.740799021434051574e-01
1.173000000000000043e+00,-6.443128664884075762e-01,-5.177861563141374079e-02,1.096068814876493686e-01
1.173999999999999932e+00,-4.299079801176778903e-01,-1.198554965160959253e-02,3.501853317128564985e-02
1.175000000000000044e+00,-1.662282496491472306e-01,-1.660801080080353820e-01,6.924729445969406150e-02
1.175999999999999934e+00,-1.360622358120153474e-01,-2.638774681385195886e-01,1.601083204071145905e-01
1.177000000000000046e+00,-2.619613892564392477e-01,-1.154189503271190187e-01,2.424132611391400793e-01
1.177999999999999936e+00,-2.945860487357941926e-01,1.872270583646198083e-01,1.884213786778125010e-01
1.179000000000000048e+00,-4.714448731642929130e-02,2.999628454064153238e-01,-8.750099348356393109e-03
1.179999999999999938e+00,2.249978841985936784e-01,1.948027138455118434e-01,-1.272771254215793735e-01
1.181000000000000050e+00,1.874877880235651106e-01,1.716428215094704668e-01,-6.977048550268845351e-02
