time,acc_x,acc_y,acc_z
0.000000000000000000e+00,-1.179994922722226169e-01,-9.326486022960417399e-02,-5.757589929260877037e-02
1.000000000000000021e-03,-1.990842347305412097e-01,-1.023574553922816377e-01,-1.413364636269882069e-01
2.000000000000000042e-03,-2.108977093290364813e-01,-7.836154963615135638e-02,-1.859143202135875306e-01
3.000000000000000062e-03,-1.461763156424922827e-01,-3.008650003115805743e-02,-2.171740298579045159e-01
4.000000000000000083e-03,-4.709572481282202870e-03,6.323439318453975833e-02,-6.808097349884380256e-02
5.000000000000000104e-03,1.313354430996427902e-01,1.317268989161842763e-01,2.177572625711683002e-02
6.000000000000000125e-03,2.557180390788995616e-01,1.538930950678822629e-01,1.349530880742584593e-01
7.000000000000000146e-03,2.806393473552737938e-01,1.345038933628378841e-01,1.982579830590550096e-01
8.000000000000000167e-03,2.020131712460900009e-01,6.166469034369589236e-02,1.957928719243673121e-01
8.999999999999999320e-03,3.740114849282068915e-02,-5.430984125655383826e-02,1.433422239955342570e-01
1.000000000000000021e-02,-1.463226756662524830e-01,-1.427316875076928004e-01,2.611119686996641719e-03
1.099999999999999936e-02,-2.915442245663092957e-01,-2.004849216335210793e-01,-1.523677446207079289e-01
1.200000000000000025e-02,-3.300737482573632975e-01,-1.604683913433184450e-01,-2.489463235672940977e-01
1.299999999999999940e-02,-2.538857833750334247e-01,-5.107592506534924803e-02,-2.477704604853113723e-01
1.400000000000000029e-02,-7.934983932205189050e-02,5.928992128969999553e-02,-1.378946940052687975e-01
1.499999999999999944e-02,1.431816594769027562e-01,1.590517207384198883e-01,-1.554930971241170502e-02
1.600000000000000033e-02,3.054042529687854279e-01,2.164685346085351569e-01,1.387809761602636360e-01
1.700000000000000122e-02,3.859914642874432977e-01,2.085953273081847248e-01,2.490513505024452567e-01
1.799999999999999864e-02,3.136695943205773385e-01,8.120061871052808300e-02,2.821849245504431947e-01
1.899999999999999953e-02,1.148532092088017237e-01,-6.426010705718569749e-02,1.918618877725553895e-01
2.000000000000000042e-02,-1.272619760580779025e-01,-1.826912104592038899e-01,7.244741081992239762e-02
2.100000000000000130e-02,-3.382984445172432797e-01,-2.699243305190767717e-01,-1.396611496164668065e-01
2.199999999999999872e-02,-4.181441168341496484e-01,-2.422188854771371858e-01,-2.491257951179427776e-01
2.299999999999999961e-02,-3.463419128755261811e-01,-1.110573661607448664e-01,-3.194896207098511520e-01
2.400000000000000050e-02,-1.771838321874553424e-01,4.693901821161108184e-02,-2.474996171612110496e-01
2.500000000000000139e-02,1.226563711743629548e-01,2.105014789127391817e-01,-7.600701514224089683e-02
2.599999999999999881e-02,3.348897091203732468e-01,3.105822561400785609e-01,9.060325933817238442e-02
2.699999999999999969e-02,4.641272916561900996e-01,2.851473956972038204e-01,2.592908932834259716e-01
2.800000000000000058e-02,4.164420926506168796e-01,1.439027557621866682e-01,3.336304849600414957e-01
2.900000000000000147e-02,2.159109748472257395e-01,-4.382129375346669603e-02,2.682102837916933713e-01
2.999999999999999889e-02,-9.422147006688344484e-02,-2.205948734252560772e-01,1.038844853746033192e-01
3.099999999999999978e-02,-3.183571992085523772e-01,-3.380700172576084350e-01,-8.309812638386145089e-02
3.200000000000000067e-02,-5.084833410431059963e-01,-3.069286580199568903e-01,-2.636471781512471635e-01
3.300000000000000155e-02,-4.741060662119420122e-01,-1.811612517731439886e-01,-3.254174098644588842e-01
3.400000000000000244e-02,-2.398500405540436031e-01,3.824512787500815303e-02,-2.945238874590276335e-01
3.500000000000000333e-02,5.711942995988630867e-02,2.481645714876570541e-01,-1.772341951881948596e-01
3.599999999999999728e-02,3.477935789238370545e-01,3.524503464360837501e-01,4.781238741576921553e-02
3.699999999999999817e-02,5.138188395823772847e-01,3.571472101669451726e-01,2.474225365902233686e-01
3.799999999999999906e-02,5.039803748780086190e-01,2.143161151086963867e-01,3.867643237363009301e-01
3.899999999999999994e-02,3.043382866931190200e-01,-5.606032730605915552e-03,3.528162087234126831e-01
4.000000000000000083e-02,-3.480842323859067305e-02,-2.419257452475762349e-01,1.808561528839258692e-01
4.100000000000000172e-02,-3.417796808902445749e-01,-4.049151115778898968e-01,-2.563050846052080875e-02
4.200000000000000261e-02,-5.520930416060841894e-01,-3.775572973024889367e-01,-2.318261939107471026e-01
4.299999999999999656e-02,-5.429727718463529529e-01,-2.504053372371050634e-01,-3.879020821840379885e-01
4.399999999999999745e-02,-3.367208406750689664e-01,-2.551100143533618740e-03,-3.876478478649477699e-01
4.499999999999999833e-02,-2.913201275876086543e-02,2.628314375078945608e-01,-2.420533440371993583e-01
4.599999999999999922e-02,3.422169166709475574e-01,4.154106680410465935e-01,-3.552423030718963870e-02
4.700000000000000011e-02,5.769697196481335943e-01,4.177436258125665214e-01,2.061089572558519323e-01
4.800000000000000100e-02,5.954892175711596902e-01,2.780005787650272064e-01,3.536943591189873337e-01
4.900000000000000189e-02,3.851878684436551570e-01,1.789726846775254940e-02,3.946315908144176210e-01
5.000000000000000278e-02,5.621152863778474534e-02,-2.302888203583135507e-01,2.839801170022317467e-01
5.099999999999999672e-02,-3.206584882567026784e-01,-4.180846180965467340e-01,6.283545000708891382e-02
5.199999999999999761e-02,-5.830349493752434720e-01,-4.470976564990191693e-01,-1.934902623652131892e-01
5.299999999999999850e-02,-6.367895144148737474e-01,-2.877080178688982137e-01,-3.606238143330298129e-01
5.399999999999999939e-02,-4.509662521039635164e-01,-1.704170488189012816e-02,-4.049112158466409150e-01
5.500000000000000028e-02,-1.140373254328163749e-01,2.670058882565141678e-01,-3.363920798151360247e-01
5.600000000000000117e-02,2.833123023265264329e-01,4.672686826841039309e-01,-1.115203457854088698e-01
5.700000000000000205e-02,5.842374088738243598e-01,4.831285432319258888e-01,1.224668162440735730e-01
5.800000000000000294e-02,6.899170449356996082e-01,3.321377395027845791e-01,3.262671478390051782e-01
5.899999999999999689e-02,5.127346433202518705e-01,5.380500402518229724e-02,4.362670395607847751e-01
5.999999999999999778e-02,1.519996262368331352e-01,-2.618511231765554004e-01,3.790273247670274404e-01
6.099999999999999867e-02,-2.559952040143984031e-01,-4.648332900097473241e-01,1.742762324728792112e-01
6.199999999999999956e-02,-5.586702067697155716e-01,-5.160332439452398612e-01,-1.065506003728116796e-01
6.300000000000000044e-02,-6.879365633831048266e-01,-3.743755047439719652e-01,-3.223449324576210806e-01
6.400000000000000133e-02,-5.594382413740276450e-01,-7.967719944390247444e-02,-4.590056036830556518e-01
6.500000000000000222e-02,-2.007398461895073816e-01,2.340970525523480839e-01,-3.716572212355392368e-01
6.600000000000000311e-02,2.285079997202573154e-01,4.646285157260060528e-01,-2.017317240833035041e-01
6.700000000000000400e-02,5.609112911002541724e-01,5.538011258002345505e-01,6.143218477270959155e-02
6.800000000000000488e-02,7.097582016910630731e-01,3.762987667217097543e-01,3.069497192273838992e-01
6.900000000000000577e-02,5.834667963224650089e-01,9.786032359599698693e-02,4.349383762059556013e-01
7.000000000000000666e-02,2.605198780856199381e-01,-2.361766776244517974e-01,4.083306833221750365e-01
7.099999999999999367e-02,-1.905446940317455373e-01,-4.825040762887887746e-01,2.240979405880016151e-01
7.199999999999999456e-02,-5.452122906449444750e-01,-5.511289511472806657e-01,-5.435841582400402494e-03
7.299999999999999545e-02,-7.358049014239202990e-01,-4.226817203812010537e-01,-2.849867401472360728e-01
7.399999999999999634e-02,-6.350113443620233333e-01,-1.174050791446711595e-01,-4.115364489772116441e-01
7.499999999999999722e-02,-2.984784003842538835e-01,2.330472902026642368e-01,-4.298786164066007998e-01
7.599999999999999811e-02,1.140565471260665403e-01,4.830388332515669347e-01,-2.757052683351517430e-01
7.699999999999999900e-02,5.234881819734179542e-01,5.970605250384197760e-01,-2.067925390707053140e-02
7.799999999999999989e-02,7.445863153413498914e-01,4.171194902054740083e-01,2.475116659161107069e-01
7.900000000000000078e-02,6.578067210618151472e-01,1.465878411109803325e-01,4.295176310215079729e-01
8.000000000000000167e-02,3.543134593630539730e-01,-2.019931749284831490e-01,4.493350372470513721e-01
8.100000000000000255e-02,-7.054981433534758539e-02,-4.889586482675224999e-01,3.077891819087145153e-01
8.200000000000000344e-02,-5.119080752799247680e-01,-5.869176952561824256e-01,6.648924804734693272e-02
8.300000000000000433e-02,-7.329202028807152436e-01,-4.592769476005902907e-01,-2.118336132298136998e-01
8.400000000000000522e-02,-6.993852971405264407e-01,-1.690403203698584711e-01,-4.242932974109777100e-01
8.500000000000000611e-02,-3.858095767374407070e-01,2.065219837956734084e-01,-4.383205180539161971e-01
8.599999999999999312e-02,5.792769090591787240e-02,4.752174290676893231e-01,-3.692559456967990372e-01
8.699999999999999400e-02,4.601877362483454137e-01,5.988412397783829944e-01,-1.011531557941744153e-01
8.799999999999999489e-02,6.933222638796223691e-01,4.823543598292270307e-01,1.727236950102748470e-01
8.899999999999999578e-02,6.932666687075267342e-01,1.846458598483621261e-01,3.693122087997641190e-01
8.999999999999999667e-02,4.357834266977714810e-01,-1.673815470274979123e-01,4.517412361782436880e-01
9.099999999999999756e-02,1.147643198576101670e-02,-4.716358915086908965e-01,3.655908884271095727e-01
9.199999999999999845e-02,-4.207366457818695338e-01,-5.935801576813133362e-01,1.559889419471550132e-01
9.299999999999999933e-02,-6.964240188815070676e-01,-5.136707420330545171e-01,-1.010625852424936605e-01
9.400000000000000022e-02,-7.385065434561246533e-01,-2.169391704690525613e-01,-3.361950525749859420e-01
9.500000000000000111e-02,-4.912594293974933968e-01,1.528365830760530508e-01,-4.383442262296088909e-01
9.600000000000000200e-02,-6.286535686036949511e-02,4.779672978960650687e-01,-3.792496396442464057e-01
9.700000000000000289e-02,3.846258526075843620e-01,6.170018925083505801e-01,-1.595989389893937849e-01
9.800000000000000377e-02,6.814463781293814693e-01,5.198334982997188103e-01,6.104966815780676209e-02
9.900000000000000466e-02,7.175657961736620072e-01,2.437079331564816487e-01,3.164102600798288645e-01
1.000000000000000056e-01,4.942916164827041436e-01,-1.144188385429991961e-01,4.495924251987225562e-01
1.010000000000000064e-01,9.211430818740243276e-02,-4.548280951910451120e-01,4.039803007337865459e-01
1.019999999999999934e-01,-3.481649901512527956e-01,-5.820866148260045447e-01,2.190919726608961393e-01
1.029999999999999943e-01,-6.672488710949368018e-01,-5.276436362170181527e-01,-4.407501280613540517e-02
1.039999999999999952e-01,-7.324824199092638821e-01,-2.426062624736729234e-01,-2.899513188835465272e-01
1.049999999999999961e-01,-5.400235137419415743e-01,1.143279324206817604e-01,-4.243976633196242521e-01
1.059999999999999970e-01,-1.637019218927428243e-01,4.283761368440162642e-01,-3.707789813914938448e-01
1.069999999999999979e-01,3.016458913929055408e-01,6.019472622461397027e-01,-2.529996708652849646e-01
1.079999999999999988e-01,6.432744085802082346e-01,5.230376910300525983e-01,-2.648998311722779164e-02
1.089999999999999997e-01,7.592771637871994495e-01,2.715534571156706378e-01,2.297413667699483297e-01
1.100000000000000006e-01,5.864322276541702461e-01,-9.607109067704514005e-02,3.815606961953460496e-01
1.110000000000000014e-01,1.822803223157971608e-01,-4.150469953932673928e-01,3.859721668613563805e-01
1.120000000000000023e-01,-2.235018327123912407e-01,-5.774073842263768297e-01,2.783827271686691862e-01
1.130000000000000032e-01,-5.875871853669323297e-01,-5.330839224040710977e-01,6.227633972897465148e-02
1.140000000000000041e-01,-7.263139890846406210e-01,-2.813894245959393525e-01,-1.809992899165989433e-01
1.150000000000000050e-01,-6.000063637285527607e-01,6.039719829231385284e-02,-3.621333732544311235e-01
1.160000000000000059e-01,-2.248770745127481041e-01,4.114942953436435125e-01,-4.147437444173559529e-01
1.170000000000000068e-01,1.841445543152517572e-01,5.780485920466418293e-01,-3.002528176468952648e-01
1.179999999999999938e-01,5.453946281215950043e-01,5.445359965566168858e-01,-8.838374872421794759e-02
1.189999999999999947e-01,7.015893963385296805e-01,2.873783774404098934e-01,1.384947301796646546e-01
1.199999999999999956e-01,5.635559433092310888e-01,-5.974764928170104433e-02,3.472603605522281978e-01
1.209999999999999964e-01,2.842184369794536480e-01,-3.675410628909541177e-01,3.857535763335960821e-01
1.219999999999999973e-01,-1.247870154436376555e-01,-5.667959592149497405e-01,2.946298140711880453e-01
1.229999999999999982e-01,-5.140720538464786937e-01,-5.369972654745182039e-01,1.291333214602689849e-01
1.239999999999999991e-01,-6.771736255925570047e-01,-3.092620909464880996e-01,-1.059626917448965172e-01
1.250000000000000000e-01,-6.040165935531324193e-01,5.528077075612727875e-02,-3.045252658161309856e-01
1.260000000000000009e-01,-2.957772923462951842e-01,3.400255413768169532e-01,-3.755586499828099112e-01
1.270000000000000018e-01,9.438738450516565015e-02,5.442987821523808112e-01,-3.418132674854121866e-01
1.280000000000000027e-01,4.497236930702209756e-01,5.046037843898603104e-01,-1.551666059822500721e-01
1.290000000000000036e-01,6.275976283700723801e-01,3.228677074273573200e-01,8.844340615583597132e-02
1.300000000000000044e-01,5.919669052116279806e-01,5.020705488410485973e-03,2.447870044858203309e-01
1.310000000000000053e-01,3.226961079664904530e-01,-3.272766637062785589e-01,3.552897281375989036e-01
1.320000000000000062e-01,-5.916325364076160248e-02,-5.190621654155568310e-01,3.108525531051761770e-01
1.330000000000000071e-01,-4.030757296058177785e-01,-5.069900614420714824e-01,1.537149487289980743e-01
1.340000000000000080e-01,-6.090413864410785250e-01,-3.308181129095806305e-01,-2.440503616928117042e-02
1.350000000000000089e-01,-5.938661634931757805e-01,-2.308146649962637340e-02,-2.276026019981848281e-01
1.360000000000000098e-01,-3.758361392906151011e-01,2.893599404145013043e-01,-3.385213659400399533e-01
1.370000000000000107e-01,-6.210750826764038432e-03,5.032301837980485137e-01,-3.153861867540150854e-01
1.380000000000000115e-01,3.399866876065114063e-01,5.009628890774014964e-01,-1.936420069361180496e-01
1.390000000000000124e-01,5.707554764798666858e-01,3.159075807379522760e-01,9.619788974960925138e-03
1.400000000000000133e-01,5.697301461799205713e-01,4.369196756917292229e-02,1.804325970220922448e-01
1.409999999999999865e-01,3.616160175733924564e-01,-2.654206286638503554e-01,2.871195798684500478e-01
1.419999999999999873e-01,5.355893824224087357e-02,-4.727418595173553117e-01,2.889958313682254309e-01
1.429999999999999882e-01,-2.926865937419648733e-01,-4.723371861830873430e-01,1.793488713775273358e-01
1.439999999999999891e-01,-5.073914077052910088e-01,-3.305006865754303025e-01,3.616116739985385936e-02
1.449999999999999900e-01,-5.193590992162655517e-01,-4.978198122009772075e-02,-1.645127330640979713e-01
1.459999999999999909e-01,-3.578872491552428925e-01,2.422579347332272093e-01,-2.524868242623351522e-01
1.469999999999999918e-01,-6.345474536335635185e-02,4.186355631848709402e-01,-2.873177056854336886e-01
1.479999999999999927e-01,2.462269001621620046e-01,4.429395433042145891e-01,-1.847475850067197833e-01
1.489999999999999936e-01,4.893744144835192045e-01,3.023756987136988483e-01,-5.488967094228415500e-02
1.499999999999999944e-01,4.900952323732150062e-01,5.778905109142305763e-02,9.759794912459685001e-02
1.509999999999999953e-01,3.692804376013514300e-01,-2.104824417063518027e-01,2.484771778568726497e-01
1.519999999999999962e-01,9.271527559941693253e-02,-3.895612029879017002e-01,2.679162339610539623e-01
1.529999999999999971e-01,-1.841138472787751112e-01,-4.227295149492683035e-01,2.425666298572027868e-01
1.539999999999999980e-01,-4.042027842054500830e-01,-3.139932902898039946e-01,8.928232451630885302e-02
1.549999999999999989e-01,-4.507545030956640053e-01,-7.188469118835326410e-02,-6.310446634340945160e-02
1.559999999999999998e-01,-3.655408890650603815e-01,1.793099050018684970e-01,-1.926365448987794882e-01
1.570000000000000007e-01,-1.192030370109165988e-01,3.681687750942041482e-01,-2.068722912439875383e-01
1.580000000000000016e-01,1.234969321992355762e-01,3.999917720632408247e-01,-1.903887157064782232e-01
1.590000000000000024e-01,3.536898275898280875e-01,2.708342118436329882e-01,-8.528130372142178617e-02
1.600000000000000033e-01,4.347148835765561881e-01,1.106519806441637194e-01,3.802790255619749316e-02
1.610000000000000042e-01,3.337044660577286881e-01,-1.599153991646314055e-01,1.607457018700947371e-01
1.620000000000000051e-01,1.294368618514482039e-01,-3.385452560923014609e-01,1.987565315487503370e-01
1.630000000000000060e-01,-1.011571736084237172e-01,-3.757648756494481046e-01,1.760906980628219876e-01
1.640000000000000069e-01,-3.026433798832502964e-01,-2.972586343762891326e-01,1.171397494221674135e-01
1.650000000000000078e-01,-3.861521598961069057e-01,-9.401561006207494187e-02,-2.031684169443681576e-02
1.660000000000000087e-01,-3.325736326064042681e-01,1.247551657479559067e-01,-1.213049676791175674e-01
1.670000000000000095e-01,-1.568288791412785765e-01,2.819914920323488561e-01,-1.891718552371226547e-01
1.680000000000000104e-01,7.670585397189554067e-02,3.255180183450815390e-01,-1.859899928616155773e-01
1.690000000000000113e-01,2.488622721015573136e-01,2.659612946241271536e-01,-8.703988952808786039e-02
1.700000000000000122e-01,3.283293261501575300e-01,8.193915970782222891e-02,2.162095268220584274e-02
1.710000000000000131e-01,3.113859801264429183e-01,-9.546020566944023178e-02,8.351603261745077500e-02
1.719999999999999862e-01,1.713642804893799609e-01,-2.550877512826977833e-01,1.356810970073810407e-01
1.729999999999999871e-01,-2.957142685375712884e-02,-2.920891353767030574e-01,1.325204836559717436e-01
1.739999999999999880e-01,-2.079945359959819717e-01,-2.265358388243095822e-01,1.177883024400110806e-01
1.749999999999999889e-01,-2.819148226141832136e-01,-9.235589518684646226e-02,6.543874569798095731e-03
1.759999999999999898e-01,-2.811221041911133312e-01,6.271453056624917699e-02,-6.517291217308926465e-02
1.769999999999999907e-01,-1.557030118102712135e-01,2.044066756267190199e-01,-9.099939150126905296e-02
1.779999999999999916e-01,2.320632280943036099e-02,2.536542221907026051e-01,-1.318231073389022345e-01
1.789999999999999925e-01,1.644328811133361490e-01,2.159829827257547241e-01,-8.610609001194992340e-02
1.799999999999999933e-01,2.612128422901872082e-01,7.576440453582027057e-02,-1.665126418959217425e-02
1.809999999999999942e-01,2.392577363677622082e-01,-6.463439927393870021e-02,4.285119961228516655e-02
1.819999999999999951e-01,1.457081598328215655e-01,-1.756693453192962606e-01,7.226705373882720551e-02
1.829999999999999960e-01,5.223272842271342239e-03,-2.344330013182562844e-01,6.016458275334399253e-02
1.839999999999999969e-01,-9.807903921467607533e-02,-1.835226174005660793e-01,7.641599607536041228e-02
1.849999999999999978e-01,-1.773536692733067854e-01,-8.664160644149902779e-02,3.300077718779874381e-02
1.859999999999999987e-01,-1.703478138092049121e-01,3.378215623363901854e-02,-1.628175130310429569e-02
1.869999999999999996e-01,-9.965948680890733546e-02,1.538501372127173972e-01,-4.188997543052406375e-02
1.880000000000000004e-01,-1.880274037363115561e-02,1.729205419935237464e-01,-5.743451375491550465e-02
1.890000000000000013e-01,7.073756494200954259e-02,1.619223929774610826e-01,-3.516649897773119898e-02
1.900000000000000022e-01,1.408050249103444951e-01,7.170592578454448862e-02,-2.334947979450936739e-02
1.910000000000000031e-01,1.240507099261560081e-01,-1.049287292842250238e-02,-1.452360813191656786e-03
1.920000000000000040e-01,9.030040098213690247e-02,-1.228834053352342859e-01,2.999650394737789737e-03
1.930000000000000049e-01,1.969262831311071119e-02,-1.319237671258361444e-01,1.052995445752763666e-02
1.940000000000000058e-01,-4.004542179958380660e-02,-1.552928970653038032e-01,1.323279398568492568e-02
1.950000000000000067e-01,-1.007087299803521435e-01,-7.648803255210509522e-02,-8.415439889104594780e-05
1.960000000000000075e-01,-1.004687416109193571e-01,2.229375025297166898e-02,1.579167285924486241e-02
1.970000000000000084e-01,-5.466995902066470320e-02,8.165184678308792798e-02,2.178379972990595118e-02
1.980000000000000093e-01,-3.385617684103303660e-02,1.070995933654521892e-01,1.979916567128790772e-02
1.990000000000000102e-01,-8.296834579117003811e-03,1.087433527961379764e-01,2.123451933174032302e-02
2.000000000000000111e-01,4.576362023056057549e-03,5.901865716663173833e-02,-2.311643257724135814e-02
2.010000000000000120e-01,2.322520307824793226e-02,-1.267149077017409517e-02,7.399435357720507943e-03
2.020000000000000129e-01,4.913965913731649371e-02,-4.808847443825677720e-02,-3.155625868153365959e-02
2.030000000000000138e-01,1.088528966837340115e-02,-6.349168715315864353e-02,-5.310261470971239239e-02
2.039999999999999869e-01,2.002278353391723567e-02,-4.916630786683458265e-02,-4.014915390036358223e-02
2.049999999999999878e-01,2.361646693757661966e-02,-4.851860743106208018e-02,-1.227754590828413796e-02
2.059999999999999887e-01,5.343022143859845613e-02,-1.553635082194464688e-02,2.797104329495831918e-02
2.069999999999999896e-01,1.395997973534087236e-02,4.628908188246706572e-03,4.542472561546278403e-02
2.079999999999999905e-01,-1.966436865819494451e-02,2.194860984091201103e-02,8.459114205934163688e-02
2.089999999999999913e-01,-3.674514165247024650e-02,2.377843783756714013e-02,8.944930519200686159e-02
2.099999999999999922e-01,-9.360125121825037253e-02,3.611399458318022976e-02,4.996517286785073092e-02
2.109999999999999931e-01,-7.773656664332247168e-02,2.246627537460511165e-03,-2.468511486474219210e-02
2.119999999999999940e-01,-6.342693693131450094e-02,9.877913924620193228e-03,-5.901323132596385246e-02
2.129999999999999949e-01,5.765549820785934899e-03,3.771488994108906229e-02,-8.807311373898196738e-02
2.139999999999999958e-01,7.816930107569597386e-02,1.569163425567982051e-02,-1.190406740305223893e-01
2.149999999999999967e-01,9.192234306387872533e-02,3.016442237059187986e-02,-5.986491006079533439e-02
2.159999999999999976e-01,1.295017750173806381e-01,-6.878266762034393120e-03,-1.354325708873957770e-02
2.169999999999999984e-01,1.112690246602806715e-01,-5.284028175318841031e-02,5.946432710325896126e-02
2.179999999999999993e-01,3.989055156585499112e-02,-6.336110108057531332e-02,1.290493181572989756e-01
2.190000000000000002e-01,-5.190147522572758493e-02,-4.368705759564293911e-02,1.466119046321628372e-01
2.200000000000000011e-01,-1.376923930043340571e-01,-3.620761979182759299e-02,8.553168423902879347e-02
2.210000000000000020e-01,-1.845491146841300167e-01,2.493330435541387183e-02,3.703756803247289925e-02
2.220000000000000029e-01,-1.498915037015568497e-01,8.288518786480193745e-02,-4.728599926451362151e-02
2.230000000000000038e-01,-9.472136100797931557e-02,9.989159792920569714e-02,-1.450258162031778097e-01
2.240000000000000047e-01,5.279569964070506688e-02,1.098141849209849086e-01,-1.824102834914987092e-01
2.250000000000000056e-01,1.731509265221647109e-01,5.909056390811182058e-02,-1.315086142241565503e-01
2.260000000000000064e-01,2.113077908067724775e-01,-2.776333067662313525e-02,-2.716587589540084280e-02
2.270000000000000073e-01,2.234876906923402018e-01,-1.010262374667989932e-01,5.605162124073356095e-02
2.280000000000000082e-01,9.550825307575976086e-02,-1.515333701963230972e-01,1.556243904626255503e-01
2.290000000000000091e-01,-5.454582604107686278e-02,-1.411684950629116253e-01,1.886132718050997081e-01
2.300000000000000100e-01,-1.994752597225357971e-01,-8.421481289397683700e-02,1.638061040982710659e-01
2.310000000000000109e-01,-2.855888003431314437e-01,2.989796659167402032e-02,8.771358215361985122e-02
2.320000000000000118e-01,-2.750470742251039380e-01,9.707828817945554634e-02,-4.347475454570422920e-02
2.330000000000000127e-01,-1.471806628872903699e-01,1.694044574181109430e-01,-1.495386213596428815e-01
2.340000000000000135e-01,1.812365963803226968e-02,1.712962119406272188e-01,-2.198485046862607151e-01
2.349999999999999867e-01,2.173846742683090139e-01,1.107008632663592784e-01,-1.987878312235015210e-01
2.359999999999999876e-01,3.176999364266007153e-01,-3.360611005786487936e-03,-1.343689475265001099e-01
2.369999999999999885e-01,3.249985769718823914e-01,-1.086766173563033511e-01,1.132707884858429569e-02
2.379999999999999893e-01,2.059813641733260203e-01,-2.318668812039570704e-01,1.572474737228092001e-01
2.389999999999999902e-01,-4.473540745765563695e-03,-2.294173672692622623e-01,2.551937684389027350e-01
2.399999999999999911e-01,-2.337346260686283261e-01,-1.500822092917231954e-01,2.388646158731691782e-01
2.409999999999999920e-01,-3.586741662576852230e-01,-3.934472223107622277e-03,1.600307308129932660e-01
2.419999999999999929e-01,-3.815874080136658630e-01,1.554040263405781774e-01,9.426264927189826823e-03
2.429999999999999938e-01,-2.427870605783234992e-01,2.498786272792198615e-01,-1.553887670021877332e-01
2.439999999999999947e-01,-1.982983756363829869e-02,2.522557681956250630e-01,-2.522890429126065648e-01
2.449999999999999956e-01,2.317552031572534810e-01,1.692535321273407056e-01,-2.693228865724414667e-01
2.459999999999999964e-01,3.927259887739008026e-01,1.061688170597374289e-02,-2.075138730948236365e-01
2.469999999999999973e-01,4.350763164931735205e-01,-1.691313726526713357e-01,-1.979832738769589373e-02
2.479999999999999982e-01,2.915279011625459549e-01,-2.867564686820985309e-01,1.342377251744182876e-01
2.489999999999999991e-01,4.177767486526073881e-02,-2.935222402199485492e-01,2.918660911399600932e-01
2.500000000000000000e-01,-1.996621609553327903e-01,-1.986881739748152520e-01,2.805286576477852845e-01
2.510000000000000009e-01,-3.900410516227381108e-01,-3.215271984313034653e-02,2.156931168614485139e-01
2.520000000000000018e-01,-4.656691045748322377e-01,1.504021578453087482e-01,6.053969183018134692e-02
2.530000000000000027e-01,-3.439140705048484015e-01,3.164177859002772486e-01,-1.264478918325576962e-01
2.540000000000000036e-01,-6.824027939872143178e-02,3.355825352754701618e-01,-2.725305845036595231e-01
2.550000000000000044e-01,1.989494295397360446e-01,2.464383207950880950e-01,-3.253779687975101864e-01
2.560000000000000053e-01,4.393984926578742289e-01,6.000801299770812391e-02,-2.758340092342956296e-01
2.570000000000000062e-01,5.032967588903746181e-01,-1.489076733670888775e-01,-1.080865657675885577e-01
2.580000000000000071e-01,3.934758728505481362e-01,-3.257050484953883940e-01,9.069900731788005377e-02
2.590000000000000080e-01,1.292467793626982941e-01,-4.056107956212315901e-01,2.741691945428286203e-01
2.600000000000000089e-01,-1.759709071016899717e-01,-2.812856505765600756e-01,3.510889379169754299e-01
2.610000000000000098e-01,-4.506368304533904245e-01,-5.858227654639643067e-02,3.017748403349620467e-01
2.620000000000000107e-01,-5.521193870587778330e-01,1.599283672280331359e-01,1.385043076902519876e-01
2.630000000000000115e-01,-4.711108164997909742e-01,3.609084692994914967e-01,-8.993561412694014989e-02
2.640000000000000124e-01,-2.052990445551313714e-01,3.966950227818528130e-01,-2.832326333154183695e-01
2.650000000000000133e-01,1.476004089103739036e-01,3.153668980893005735e-01,-3.787692199937580106e-01
2.660000000000000142e-01,4.503201569133378768e-01,8.804435653072931189e-02,-3.424645254086769453e-01
2.670000000000000151e-01,5.648125541622379675e-01,-1.732698602326877835e-01,-1.805557751178341885e-01
2.680000000000000160e-01,5.094496193707960252e-01,-3.603428713881483558e-01,3.008963970845295391e-02
2.690000000000000169e-01,2.147243677015009677e-01,-4.563824634582593354e-01,2.613404946969832277e-01
2.700000000000000178e-01,-1.179644765408559837e-01,-3.440301068207754498e-01,3.893182999678095335e-01
2.710000000000000187e-01,-4.486088431601850668e-01,-1.205531832684099414e-01,3.837017819900709892e-01
2.720000000000000195e-01,-6.258104895571108273e-01,1.350518414463127148e-01,2.169693289657246837e-01
2.730000000000000204e-01,-5.355687882386437337e-01,3.738956743439103558e-01,-4.257460924439883387e-03
2.740000000000000213e-01,-2.899998332358055264e-01,4.577980272603368039e-01,-2.262007043817374219e-01
2.750000000000000222e-01,1.054194766907616959e-01,4.019034650992470703e-01,-3.768247882606498012e-01
2.760000000000000231e-01,4.328542155545089809e-01,1.547374483000195922e-01,-3.806567438498522638e-01
2.770000000000000240e-01,6.306972884667558787e-01,-1.417771588349962808e-01,-2.457068721922148202e-01
2.780000000000000249e-01,5.952868124837134012e-01,-3.796559739676870215e-01,-1.736365808021032853e-02
2.790000000000000258e-01,3.132378899768615832e-01,-5.014677573423116375e-01,2.145579495834450678e-01
2.800000000000000266e-01,-5.309147588960574926e-02,-4.284590251469163613e-01,3.633163726299776242e-01
2.810000000000000275e-01,-4.238929041806432374e-01,-1.693912175978086188e-01,4.116964690292116424e-01
2.819999999999999729e-01,-6.419375094430604944e-01,1.246791168948794132e-01,2.972493942991647486e-01
2.829999999999999738e-01,-6.459436191942433680e-01,4.009114085035228592e-01,8.922283878706989413e-02
2.839999999999999747e-01,-3.776845810124674352e-01,5.226383562479411937e-01,-1.503093577925398994e-01
2.849999999999999756e-01,3.090619866396000694e-03,4.624652071574480439e-01,-3.846168386056217914e-01
2.859999999999999765e-01,4.026775106069172550e-01,1.885170204877499589e-01,-4.295154150389693393e-01
2.869999999999999774e-01,6.505867444945655498e-01,-1.250100485573274744e-01,-3.170125753770371979e-01
2.879999999999999782e-01,6.683568705565519075e-01,-4.145459144354572412e-01,-1.262271824476650095e-01
2.889999999999999791e-01,4.567651942635099216e-01,-5.265979849306651195e-01,1.309871541289373553e-01
2.899999999999999800e-01,4.970813730115269252e-02,-4.581082132464300849e-01,3.527381392381364611e-01
2.909999999999999809e-01,-3.905770596578233000e-01,-2.268592566727102577e-01,4.302236187233833276e-01
2.919999999999999818e-01,-6.593319912959400009e-01,1.182277208477996444e-01,3.484743918628590564e-01
2.929999999999999827e-01,-7.015250261904977247e-01,4.072194078362897929e-01,1.513674146572062396e-01
2.939999999999999836e-01,-4.897392961470427020e-01,5.994576855004796201e-01,-1.060393877787680350e-01
2.949999999999999845e-01,-6.547030377383759869e-02,4.968950492685475506e-01,-3.230475573534473677e-01
2.959999999999999853e-01,3.513974519931270524e-01,2.603901639545485036e-01,-4.409651401777082702e-01
2.969999999999999862e-01,6.489637634114333586e-01,-9.270094405255928371e-02,-4.006676249707118997e-01
2.979999999999999871e-01,7.188104884138157846e-01,-3.912327029897769148e-01,-2.020358565866693934e-01
2.989999999999999880e-01,5.254041472299967319e-01,-5.600330301750241491e-01,6.260607081648901506e-02
2.999999999999999889e-01,1.351920121088482085e-01,-5.319448650317812888e-01,2.840970166653078444e-01
3.009999999999999898e-01,-3.095177507007215167e-01,-2.825142674054326730e-01,4.315975700620987010e-01
3.019999999999999907e-01,-6.172459464082142855e-01,7.440706046541975538e-02,4.258437605619521116e-01
3.029999999999999916e-01,-7.513948673780278531e-01,3.916744963823480807e-01,2.401365424703513496e-01
3.039999999999999925e-01,-5.772173613361634148e-01,5.723802621924442002e-01,-3.156569778871416709e-03
3.049999999999999933e-01,-1.913484695180631412e-01,5.417228185640177163e-01,-2.801116073036368781e-01
3.059999999999999942e-01,2.443867887790148186e-01,2.995820630006815755e-01,-4.130232028199899985e-01
3.069999999999999951e-01,6.315061467996294642e-01,-4.119937780568436181e-02,-4.323443685569313133e-01
3.079999999999999960e-01,7.523047737799986034e-01,-3.786871762455198409e-01,-2.876030534476307632e-01
3.089999999999999969e-01,6.002480003052832469e-01,-5.823322641768653440e-01,-4.699890127637160880e-02
3.099999999999999978e-01,2.268234613859464732e-01,-5.425322252933468814e-01,2.321759156568548310e-01
3.109999999999999987e-01,-2.092416390651092861e-01,-3.136188874735346688e-01,4.142201819962303966e-01
3.119999999999999996e-01,-5.793504953941144286e-01,2.925304652511655917e-02,4.505728540043296704e-01
3.130000000000000004e-01,-7.434107162469489882e-01,3.707492461328720235e-01,3.363691313398366467e-01
3.140000000000000013e-01,-6.621663005267209856e-01,5.617460928542253873e-01,8.104770631984183071e-02
3.150000000000000022e-01,-2.840245588085929529e-01,5.555655748373067304e-01,-2.088674703830150359e-01
3.160000000000000031e-01,1.814627852926490870e-01,3.288119517378880752e-01,-3.834047337433559299e-01
3.170000000000000040e-01,5.513791077719093492e-01,-3.263134805941486638e-02,-4.479232973958635622e-01
3.180000000000000049e-01,7.431963487966668502e-01,-3.778886906080086705e-01,-3.278362916102616764e-01
3.190000000000000058e-01,6.635908820698231958e-01,-5.727141656438502482e-01,-1.341561164225468783e-01
3.200000000000000067e-01,3.215415634222227870e-01,-5.713391684220160416e-01,1.543039417679969161e-01
3.210000000000000075e-01,-1.228636114733966944e-01,-3.575191095035158972e-01,3.640585701995831536e-01
3.220000000000000084e-01,-5.351582228901721194e-01,-4.013006073120538308e-02,4.438333034205845240e-01
3.230000000000000093e-01,-7.184999530981465155e-01,3.442937302346990580e-01,3.435692455912358056e-01
3.240000000000000102e-01,-6.784512104718667391e-01,5.722797222286201135e-01,1.709860743177756826e-01
3.250000000000000111e-01,-3.890876934323746483e-01,5.634674035425484284e-01,-9.427120656958160039e-02
3.260000000000000120e-01,6.129503339478260121e-02,3.744782508929060949e-01,-3.329872650332996731e-01
3.270000000000000129e-01,4.792326174093290980e-01,3.336685051371176408e-02,-4.440904711087625412e-01
3.280000000000000138e-01,7.266299611636813927e-01,-3.264873103653902486e-01,-3.737195924799354141e-01
3.290000000000000147e-01,7.048632325557098177e-01,-5.511266338199324322e-01,-2.075408588334872739e-01
3.300000000000000155e-01,4.102340655082193366e-01,-5.843568065470422512e-01,5.100244900213293797e-02
3.310000000000000164e-01,-1.124728759252508793e-02,-3.785570017595014658e-01,3.134628338330102681e-01
3.320000000000000173e-01,-4.551114636743823771e-01,-6.309165475837119619e-02,4.091070229541363679e-01
3.330000000000000182e-01,-6.822472539106388956e-01,2.926978420764755340e-01,3.914795279998400934e-01
3.340000000000000191e-01,-6.943628803072969813e-01,5.326636056486395709e-01,2.452262129416947212e-01
3.350000000000000200e-01,-4.380859524218673751e-01,5.990362800850131952e-01,-2.690504681797343048e-02
3.360000000000000209e-01,-1.432231646373869315e-02,3.842333324699122588e-01,-2.857189306756210412e-01
3.370000000000000218e-01,3.708422442077289327e-01,8.971506627174595516e-02,-3.859311388475106241e-01
3.380000000000000226e-01,6.741059572205341244e-01,-2.877478932362459996e-01,-3.785178430566695229e-01
3.390000000000000235e-01,6.973666057959893028e-01,-5.155153479096502567e-01,-2.591235511860389695e-01
3.400000000000000244e-01,4.717065680500772684e-01,-5.405727847900018146e-01,-1.347857544234343403e-02
3.410000000000000253e-01,8.749316462261307048e-02,-4.290977477393825845e-01,1.900329575933227544e-01
3.420000000000000262e-01,-3.436809280031540292e-01,-9.310988433552294663e-02,3.617994647083335180e-01
3.430000000000000271e-01,-6.280592586291577906e-01,2.405236616784635073e-01,3.962878039928613982e-01
3.439999999999999725e-01,-6.731150077593631709e-01,5.038218329440217191e-01,2.665342514228948856e-01
3.449999999999999734e-01,-4.775560350136860421e-01,5.601798065726345532e-01,7.364011630391056884e-02
3.459999999999999742e-01,-1.200991693101565033e-01,4.099595592326791826e-01,-1.636884333482201692e-01
3.469999999999999751e-01,2.941042875052327088e-01,1.096316859806992922e-01,-3.423675735752572113e-01
3.479999999999999760e-01,5.740592563872238818e-01,-2.344957505090013716e-01,-3.939949484600896445e-01
3.489999999999999769e-01,6.679847173650288461e-01,-4.701926351805034709e-01,-2.975541311183727555e-01
3.499999999999999778e-01,5.275815571053935615e-01,-5.582865130223017003e-01,-8.592001672850281546e-02
3.509999999999999787e-01,1.753162790203385557e-01,-4.116235798371336574e-01,1.452472591637497257e-01
3.519999999999999796e-01,-2.242745611699833441e-01,-1.292037093868452780e-01,3.280560461131761807e-01
3.529999999999999805e-01,-5.279125897250792621e-01,2.037700177939358315e-01,3.968139769484564927e-01
3.539999999999999813e-01,-6.594108982881560221e-01,4.532087920335776676e-01,2.858308986980066524e-01
3.549999999999999822e-01,-5.201338512116366886e-01,5.136450309083417931e-01,1.310959007108584151e-01
3.559999999999999831e-01,-1.852174294143857647e-01,4.199111894816817681e-01,-1.032275658874144131e-01
3.569999999999999840e-01,1.783993086014398766e-01,1.464110580675982709e-01,-2.772380653732298694e-01
3.579999999999999849e-01,4.988858420550205675e-01,-1.853688698579249172e-01,-3.529588035194073381e-01
3.589999999999999858e-01,6.054237410517070428e-01,-4.238732409823379177e-01,-2.926712111921936921e-01
3.599999999999999867e-01,5.223971682430085250e-01,-5.142167890336878378e-01,-1.606331062304372226e-01
3.609999999999999876e-01,2.407066707939223837e-01,-3.981161392873563409e-01,5.757658286322905189e-02
3.619999999999999885e-01,-1.532760532186876468e-01,-1.577090228308321851e-01,2.527153434894293671e-01
3.629999999999999893e-01,-4.474855594928460745e-01,1.545904302253572338e-01,3.424022267365357530e-01
3.639999999999999902e-01,-5.915901420028272240e-01,3.994859949652163622e-01,2.889157211141057391e-01
3.649999999999999911e-01,-5.013664071352916807e-01,4.867978362134705583e-01,1.671796020034682362e-01
3.659999999999999920e-01,-2.408560567732755953e-01,3.922248726951617082e-01,-4.996221062630366860e-02
3.669999999999999929e-01,9.168228090022297050e-02,1.595513143597951378e-01,-1.868340313240308692e-01
3.679999999999999938e-01,3.924550242690333923e-01,-1.386407843431020914e-01,-3.018352686596513790e-01
3.689999999999999947e-01,5.388592525991968696e-01,-3.665385736907769143e-01,-2.856951106538635488e-01
3.699999999999999956e-01,4.902886359068483468e-01,-4.690880936729887041e-01,-1.964660544702291067e-01
3.709999999999999964e-01,2.522788766924458637e-01,-3.846150272870619280e-01,-4.251000926732394387e-03
3.719999999999999973e-01,-3.761920914779550568e-02,-1.696563847308717732e-01,1.535034623344303517e-01
3.729999999999999982e-01,-3.312081651128150894e-01,1.046386351127921721e-01,2.601083555830791538e-01
3.739999999999999991e-01,-4.962463307302658611e-01,3.251959619000591162e-01,2.785486436557734757e-01
3.750000000000000000e-01,-4.640919640987875017e-01,4.356170015786031691e-01,1.804642564030114471e-01
3.760000000000000009e-01,-2.638377418237191629e-01,3.581779266221907232e-01,3.471719711840343114e-02
3.770000000000000018e-01,-6.269095000103359731e-03,1.784781953713284741e-01,-1.308178806783971693e-01
3.780000000000000027e-01,2.997827493668722143e-01,-7.594042202391471097e-02,-2.262701458052341630e-01
3.790000000000000036e-01,4.542868929671268208e-01,-2.790414156610393492e-01,-2.600895423793286310e-01
3.800000000000000044e-01,4.688180126947804061e-01,-4.061755850046272487e-01,-1.812929031638520205e-01
3.810000000000000053e-01,2.733822765531102594e-01,-3.424435654389762496e-01,-2.737935279411130018e-02
3.820000000000000062e-01,2.105406387839446961e-02,-1.678474901717583456e-01,9.343158516364276356e-02
3.830000000000000071e-01,-2.416688486294286953e-01,5.550766848357566174e-02,1.888147124557834067e-01
3.840000000000000080e-01,-4.160937031466458436e-01,2.447774279094506733e-01,2.117092501510658975e-01
3.850000000000000089e-01,-4.070990054511256506e-01,3.763760047549464804e-01,1.832152441101967955e-01
3.860000000000000098e-01,-2.695348551309124652e-01,3.430054939017413984e-01,7.018411034176114116e-02
3.870000000000000107e-01,-5.249820305917589358e-02,1.808013833456643404e-01,-6.389093814708722563e-02
3.880000000000000115e-01,1.784510875068139324e-01,-3.860879862357038950e-02,-1.571437278952535488e-01
3.890000000000000124e-01,3.484161828638421277e-01,-2.593748845762299804e-01,-2.097874135780879723e-01
3.900000000000000133e-01,3.568411863541691154e-01,-3.478137550805227574e-01,-1.609846428691795728e-01
3.910000000000000142e-01,2.611601534913566280e-01,-3.128411915918918318e-01,-8.518346939657943373e-02
3.920000000000000151e-01,6.963063367993739539e-02,-1.740854513204713738e-01,4.609763230485686841e-02
3.930000000000000160e-01,-1.355983239053709100e-01,3.503285138630359702e-02,1.292244255043247247e-01
3.940000000000000169e-01,-3.154058118076916162e-01,1.964937175275580650e-01,1.707918966181800891e-01
3.950000000000000178e-01,-3.091442546615222331e-01,3.080840856038078446e-01,1.639417760059326823e-01
3.960000000000000187e-01,-2.632115658652056656e-01,2.841612152660952240e-01,6.179739570548379440e-02
3.970000000000000195e-01,-5.528139293061973963e-02,1.525284771610654344e-01,-1.327873877996263441e-02
3.980000000000000204e-01,9.388436237307411225e-02,-9.345845608177400995e-03,-7.339195104722255614e-02
3.990000000000000213e-01,2.483910758307088240e-01,-1.885995926183906546e-01,-1.364193300695059341e-01
4.000000000000000222e-01,2.836716074942343124e-01,-2.507767801640622407e-01,-1.457346575563372437e-01
4.010000000000000231e-01,2.235830113853782830e-01,-2.655336213667303658e-01,-8.167258062216954662e-02
4.020000000000000240e-01,8.856114374891396746e-02,-1.470720881967740867e-01,-4.630051400615562036e-03
4.030000000000000249e-01,-8.141299749789207563e-02,1.448119743396999656e-02,6.230782266283683979e-02
4.040000000000000258e-01,-1.794872371317621507e-01,1.476420533628546583e-01,1.274116843026006918e-01
4.050000000000000266e-01,-2.314165593720506342e-01,2.465515006003519138e-01,9.967374222934857753e-02
4.060000000000000275e-01,-1.930347669911222641e-01,2.321024186322849792e-01,7.176642567973628983e-02
4.069999999999999729e-01,-8.157455946886067732e-02,1.424278153613759978e-01,2.162362644514093796e-02
4.079999999999999738e-01,5.101090535572515294e-02,1.708243577343948605e-02,-4.566232492108217300e-02
4.089999999999999747e-01,1.651459866563405321e-01,-1.018245984595320536e-01,-6.040616557883078663e-02
4.099999999999999756e-01,1.855129433392442295e-01,-1.719803204567583177e-01,-8.030501949472211576e-02
4.109999999999999765e-01,1.362804552093442867e-01,-1.483651386368702030e-01,-6.510607249257353846e-02
4.119999999999999774e-01,7.247325961959900920e-02,-1.216109957423024551e-01,-2.850725621862340922e-02
4.129999999999999782e-01,-2.686744051114058063e-02,3.595069089109707242e-03,-1.119942671547568755e-02
4.139999999999999791e-01,-9.355968420885256431e-02,4.952148683038122556e-02,4.198080034608620004e-02
4.149999999999999800e-01,-1.406511047594689867e-01,1.378114921406638216e-01,6.028455030985414159e-02
4.159999999999999809e-01,-1.305995634128452876e-01,1.473123226573471722e-01,5.153781772594488025e-02
4.169999999999999818e-01,-6.102852563778626838e-02,8.658584517950557169e-02,1.654345083018568183e-02
4.179999999999999827e-01,-1.015465651415032970e-02,2.285819376153883781e-02,-5.108728240125651882e-03
4.189999999999999836e-01,5.709211919805439600e-02,-5.867233869041196814e-02,-1.159049892558941530e-02
4.199999999999999845e-01,8.381664282394216126e-02,-8.276696593616386655e-02,-1.737270718398532116e-02
4.209999999999999853e-01,6.763231519558068894e-02,-9.897465011955526581e-02,-2.582915301640557881e-02
4.219999999999999862e-01,4.829778351484793203e-02,-5.007042461324937022e-02,5.159094799915395560e-03
4.229999999999999871e-01,3.208855478867535249e-02,-8.898254856263053056e-03,9.873546979131626877e-03
4.239999999999999880e-01,7.534602622647206850e-03,4.277943608864966107e-02,-2.423713442627291326e-02
4.249999999999999889e-01,-1.852817479589316529e-02,5.464323108778338517e-02,-2.704900510585452056e-02
4.259999999999999898e-01,-3.344242663874844035e-02,5.767077512642455189e-02,-1.369129555396322515e-02
4.269999999999999907e-01,-5.406702076925889999e-02,7.223650241013510054e-02,7.454743774762525622e-03
4.279999999999999916e-01,-2.573995460419391257e-02,1.675794318962461893e-02,2.434870998934610814e-02
4.289999999999999925e-01,-1.174866928809187132e-02,2.229535567055963147e-02,3.825369203445325161e-02
4.299999999999999933e-01,-3.936059216386954968e-02,-2.614490805716559660e-02,3.387548813479480253e-02
4.309999999999999942e-01,-4.124112242897691460e-02,-1.532608945826228510e-02,6.435558178827215092e-02
4.319999999999999951e-01,-7.809213252309735349e-03,-1.474715114949225019e-02,1.208757006604661323e-02
4.329999999999999960e-01,1.662663618626462197e-02,-1.339930747231239151e-02,-1.662251035818496439e-02
4.339999999999999969e-01,6.961648987076646256e-02,-1.481539608436641120e-02,-5.990875499252006076e-02
4.349999999999999978e-01,6.648542450231113843e-02,-1.455082943621226416e-03,-8.057366945531492519e-02
4.359999999999999987e-01,7.351159252164990443e-02,-2.098694161604863426e-02,-8.296749210294009080e-02
4.369999999999999996e-01,6.409739565335204059e-02,-1.668680010309531864e-02,-5.363333000132304573e-02
4.380000000000000004e-01,-1.277259940644753268e-02,1.499498660891680074e-02,1.450221961470517587e-02
4.390000000000000013e-01,-7.871886207134277946e-02,1.228457151860368884e-02,7.216465950477933544e-02
4.400000000000000022e-01,-1.343766963631914668e-01,4.969972028890477095e-02,9.746369953804301378e-02
4.410000000000000031e-01,-1.394258479543390994e-01,6.853960238710596342e-02,1.299807322177744251e-01
4.420000000000000040e-01,-8.381222956908286614e-02,2.289703094828340890e-02,6.972315234706939757e-02
4.430000000000000049e-01,-1.880901935018865906e-02,1.826022535710689759e-02,-1.549269827313393307e-02
4.440000000000000058e-01,7.680655098650347734e-02,-4.833758992132377447e-02,-8.454872084044631753e-02
4.450000000000000067e-01,1.644392321763014919e-01,-1.203705820307776342e-01,-1.287713241086740068e-01
4.460000000000000075e-01,1.852961889002444351e-01,-1.297981065533530542e-01,-1.632064535089249868e-01
4.470000000000000084e-01,1.599352636481761736e-01,-7.426036801225051331e-02,-1.072323419452310689e-01
4.480000000000000093e-01,3.536708626780084991e-02,-9.914686345121373132e-03,-4.469234090040273555e-02
4.490000000000000102e-01,-9.527036813580852526e-02,5.698225557283158327e-02,7.900062344436781236e-02
4.500000000000000111e-01,-2.081964242360189454e-01,1.599617232683599732e-01,1.729487821069418951e-01
4.510000000000000120e-01,-2.253299967953375782e-01,1.547615755257454317e-01,1.706314849535709444e-01
4.520000000000000129e-01,-1.879426067210963891e-01,1.117657195055306030e-01,1.459790229580424925e-01
4.530000000000000138e-01,-6.747735478910421580e-02,-2.209337835198138533e-03,3.727903756180556832e-02
4.540000000000000147e-01,9.266152488592727110e-02,-7.412606260595888674e-02,-6.911361936948143270e-02
4.550000000000000155e-01,2.221988864316306045e-01,-1.727217454271420538e-01,-1.593319051065676395e-01
4.560000000000000164e-01,2.588968281170249131e-01,-2.067924142087862460e-01,-1.975824996647920773e-01
4.570000000000000173e-01,2.149614777340171645e-01,-1.675586840255448851e-01,-1.926840258720681209e-01
4.580000000000000182e-01,9.904985917575756527e-02,-3.429123060874988971e-02,-8.855642318373642408e-02
4.590000000000000191e-01,-1.286283442948474853e-01,8.367465077932199902e-02,4.249118027465715458e-02
4.600000000000000200e-01,-2.694669423891463134e-01,1.931167844238134701e-01,1.848303881230874690e-01
4.610000000000000209e-01,-3.545370309832543976e-01,2.631302928932796603e-01,2.513303356973429215e-01
4.620000000000000218e-01,-2.995842802434948715e-01,1.984902571894886503e-01,2.069635795050129845e-01
4.630000000000000226e-01,-1.238092587761991520e-01,3.897747303745677933e-02,9.426714178273144784e-02
4.640000000000000235e-01,7.820919973814784154e-02,-1.032259560671288101e-01,-4.728750912170652521e-02
4.650000000000000244e-01,2.935990676853793002e-01,-2.188029239729537279e-01,-1.743911649398653119e-01
4.660000000000000253e-01,3.620785433679418186e-01,-2.920950417674316735e-01,-2.367564708484826141e-01
4.670000000000000262e-01,3.436795366996154288e-01,-2.311732511739608420e-01,-2.309445396043519061e-01
4.680000000000000271e-01,1.759565668940163696e-01,-9.244365967032065756e-02,-1.477386880822766091e-01
4.689999999999999725e-01,-6.675671518016000616e-02,1.012002851618521437e-01,3.116202776178909895e-02
4.699999999999999734e-01,-3.287832247900734917e-01,2.055025489209157674e-01,1.692363565774991918e-01
4.709999999999999742e-01,-4.309366560388532275e-01,3.212718232860738432e-01,2.576119980547892374e-01
4.719999999999999751e-01,-3.841705882338954381e-01,2.670436890409972341e-01,2.813427940583673181e-01
4.729999999999999760e-01,-2.173696162390153508e-01,1.074340770541004492e-01,1.914890597698123698e-01
4.739999999999999769e-01,4.033916978837995965e-02,-7.965422462744646548e-02,8.139235123610796818e-03
4.749999999999999778e-01,2.939620690792827951e-01,-2.595154737189660499e-01,-1.510551883877554180e-01
4.759999999999999787e-01,4.617794249244496219e-01,-3.376048737346630246e-01,-2.748836574730227911e-01
4.769999999999999796e-01,4.334917111166668446e-01,-3.177059329327723836e-01,-2.942311260200293765e-01
4.779999999999999805e-01,2.868287749298989997e-01,-1.466622635216412451e-01,-2.212711833150070584e-01
4.789999999999999813e-01,-4.728623924531569211e-02,8.513271445921846703e-02,-6.563960439273326675e-02
4.799999999999999822e-01,-2.888498322165926058e-01,2.902775926437523579e-01,1.415174241046735781e-01
4.809999999999999831e-01,-4.757659092642823051e-01,3.742565739743651254e-01,2.784291299664301556e-01
4.819999999999999840e-01,-5.172832526821519172e-01,3.210456164285241387e-01,3.236208816453043369e-01
4.829999999999999849e-01,-3.124361675182721343e-01,1.734055079504182029e-01,2.451767029008758980e-01
4.839999999999999858e-01,-3.096678269475320808e-02,-9.879505139767563726e-02,7.551614767119591010e-02
4.849999999999999867e-01,3.081699224726262565e-01,-2.834311125798100739e-01,-1.257528946299523720e-01
4.859999999999999876e-01,5.022278912857359723e-01,-4.019287937431830771e-01,-2.802487256048559194e-01
4.869999999999999885e-01,5.417879188760259535e-01,-3.753477023514042998e-01,-3.615715506417853664e-01
4.879999999999999893e-01,3.802399625295333485e-01,-1.907052472684689637e-01,-2.986947950965428422e-01
4.889999999999999902e-01,7.228884842905647368e-02,7.750917666320318589e-02,-1.135912941301125967e-01
4.899999999999999911e-01,-2.751250695750263042e-01,3.142637666745721758e-01,1.005269471575987866e-01
4.909999999999999920e-01,-5.313359344602238687e-01,4.326420996931548135e-01,2.837443878844070899e-01
4.919999999999999929e-01,-5.771405221017815723e-01,4.251576454568612995e-01,3.580862381295311092e-01
4.929999999999999938e-01,-4.072209726334535262e-01,2.355038296582978863e-01,3.077818437522130690e-01
4.939999999999999947e-01,-9.659149623209341284e-02,-4.068569707315931872e-02,1.639707053503360323e-01
4.949999999999999956e-01,2.570251843628700295e-01,-3.256198825412984221e-01,-6.864133181644704873e-02
4.959999999999999964e-01,5.245408009045094966e-01,-4.663036546140528760e-01,-2.775730461795162807e-01
4.969999999999999973e-01,5.924107335390593754e-01,-4.290843024273859330e-01,-3.628064612876136796e-01
4.979999999999999982e-01,4.656966822633594183e-01,-2.508824319955545445e-01,-3.488559479596421986e-01
4.989999999999999991e-01,1.572610322407276273e-01,4.336124659593616065e-02,-1.937338070684203328e-01
5.000000000000000000e-01,-2.314930490114471551e-01,3.321460086390913280e-01,3.684920962253145083e-02
5.010000000000000009e-01,-5.446351708670578162e-01,4.851975502861575751e-01,2.354886263385003176e-01
5.020000000000000018e-01,-6.405983957332269663e-01,4.807935543752822616e-01,3.813694667858124054e-01
5.030000000000000027e-01,-5.098748444067935370e-01,2.912909952297187410e-01,3.690096353812177266e-01
5.040000000000000036e-01,-2.022520802162398323e-01,-1.317159724756425572e-02,2.468513363645485625e-01
5.050000000000000044e-01,1.929738196662290350e-01,-3.080050472526754679e-01,1.588914080386173711e-02
5.060000000000000053e-01,5.362023315200050710e-01,-4.884729154367056236e-01,-2.234478561859042089e-01
5.070000000000000062e-01,6.818181528267344138e-01,-4.912775457959798753e-01,-3.816683495678475646e-01
5.080000000000000071e-01,5.736499689865890428e-01,-3.093876660120312150e-01,-4.044062347771297250e-01
5.090000000000000080e-01,2.718457571731764943e-01,7.730632025428578599e-04,-2.731432827426173993e-01
5.100000000000000089e-01,-1.655787982300983840e-01,3.012659602740433429e-01,-6.058411196307353364e-02
5.110000000000000098e-01,-5.357711200741870350e-01,4.724153981412939629e-01,1.952409426233223666e-01
5.120000000000000107e-01,-6.683989841137071286e-01,5.177018336816406885e-01,3.672503150425051044e-01
5.130000000000000115e-01,-6.060449572481614311e-01,3.433951262849062047e-01,4.090892469349102223e-01
5.140000000000000124e-01,-2.953038411049119794e-01,2.094478853476047786e-02,3.399268646544643113e-01
5.150000000000000133e-01,1.296203355542150659e-01,-2.787138547932207500e-01,8.186869449245305630e-02
5.160000000000000142e-01,5.076090274539720726e-01,-4.966584130579686507e-01,-1.437383496165398900e-01
5.170000000000000151e-01,6.944870406261030027e-01,-5.466602662944521906e-01,-3.865102060673031859e-01
5.180000000000000160e-01,6.525758235386168726e-01,-3.852161673910725059e-01,-4.390787581631303005e-01
5.190000000000000169e-01,3.574509627829515757e-01,-5.126350989886022808e-02,-3.685980414995506660e-01
5.200000000000000178e-01,-8.340906558725338926e-02,2.683775447347939158e-01,-1.372464423675929246e-01
5.210000000000000187e-01,-4.719947318635435707e-01,5.388721953149625543e-01,1.184920092118991602e-01
5.220000000000000195e-01,-7.015280955122924489e-01,5.516017733723084238e-01,3.445140033310911676e-01
5.230000000000000204e-01,-6.656898880805226515e-01,4.033208790140240807e-01,4.351656088573425674e-01
5.240000000000000213e-01,-3.985060622430187105e-01,7.050098574558080755e-02,3.837856761784362858e-01
5.250000000000000222e-01,2.379433061807687683e-02,-2.639912976833939662e-01,1.779574835491004592e-01
5.260000000000000231e-01,4.443280304452834617e-01,-5.207547836416505094e-01,-7.611832764215542557e-02
5.270000000000000240e-01,7.030848754486940244e-01,-5.856020001364381500e-01,-3.309442211228865727e-01
5.280000000000000249e-01,7.033923965326809302e-01,-4.030735305511622957e-01,-4.387308897486939530e-01
5.290000000000000258e-01,4.384349299717236192e-01,-8.744877676183014648e-02,-3.982817988084572103e-01
5.300000000000000266e-01,1.261095260418970514e-02,2.716107105100536434e-01,-2.137520527358645062e-01
5.310000000000000275e-01,-3.970031699449013129e-01,5.280597102804355236e-01,6.160559686257981171e-02
5.320000000000000284e-01,-6.727092513747533475e-01,5.765825222637507297e-01,2.914051645894444320e-01
5.330000000000000293e-01,-7.068112759929950917e-01,4.536324231277001906e-01,4.404942606405793382e-01
5.340000000000000302e-01,-4.873838712495703884e-01,1.127865880326194697e-01,4.254433064829259981e-01
5.350000000000000311e-01,-6.519176462472937861e-02,-2.543605817482013642e-01,2.528118050032310271e-01
5.360000000000000320e-01,3.969098781449873492e-01,-5.188660280933179436e-01,9.507489977579448859e-03
5.370000000000000329e-01,6.718491831255115621e-01,-6.015379642962914719e-01,-2.650987798725729649e-01
5.380000000000000338e-01,7.464108389071157923e-01,-4.480017230074244128e-01,-4.043608571837924992e-01
5.390000000000000346e-01,5.158896826306793582e-01,-1.470471099649879321e-01,-4.162034719511385483e-01
5.400000000000000355e-01,1.348835890828271045e-01,2.421128380898056320e-01,-2.819488959748133738e-01
5.410000000000000364e-01,-3.242997438920328102e-01,5.151897067418993448e-01,-2.028456543684906827e-02
5.420000000000000373e-01,-6.575671652009670298e-01,5.630567964799911840e-01,2.028585640990182015e-01
5.430000000000000382e-01,-7.705929861471964015e-01,4.579282007805203225e-01,3.888497700352934183e-01
5.440000000000000391e-01,-5.524133877504092682e-01,1.686545538106128117e-01,4.486095856908048352e-01
5.450000000000000400e-01,-1.527789373038145604e-01,-2.170935774880859703e-01,3.260784444625327017e-01
5.460000000000000409e-01,2.941714658379613323e-01,-4.854069334236452704e-01,9.775745618279875482e-02
5.470000000000000417e-01,6.327287903552126780e-01,-5.985987386680314826e-01,-1.646745326476536375e-01
5.480000000000000426e-01,7.576120320848436229e-01,-4.713414076937004205e-01,-3.865582089618260220e-01
5.490000000000000435e-01,5.859090736756241702e-01,-1.688336621679914218e-01,-4.244645514994941360e-01
5.500000000000000444e-01,2.276880390607021465e-01,2.038292710626867232e-01,-3.462241455656916433e-01
5.510000000000000453e-01,-2.172257491529944184e-01,4.679554063403099651e-01,-1.409914193834903295e-01
5.520000000000000462e-01,-6.111711495488785229e-01,6.060415687007580932e-01,1.247761836985779027e-01
5.530000000000000471e-01,-7.357783511631322826e-01,4.860264073747434521e-01,3.335308844122891192e-01
5.540000000000000480e-01,-6.272422042936588449e-01,2.148186026661671744e-01,4.299036080162060847e-01
5.550000000000000488e-01,-2.423689842713507292e-01,-1.557643507054830012e-01,3.819765616734294711e-01
5.560000000000000497e-01,1.973301803673545296e-01,-4.789447002834293921e-01,1.645325201235496582e-01
5.570000000000000506e-01,5.686040530537195270e-01,-5.848374882820330800e-01,-9.903361735849035286e-02
5.580000000000000515e-01,7.195771883809929381e-01,-5.099072085629027251e-01,-2.918089245547492161e-01
5.590000000000000524e-01,6.165549577692760463e-01,-2.018414979776005092e-01,-4.011215167116250480e-01
5.600000000000000533e-01,2.871325141708277462e-01,1.509625269997274533e-01,-3.805844324089718289e-01
5.610000000000000542e-01,-1.347884356360667946e-01,4.466010973597439038e-01,-2.039206020435650191e-01
5.620000000000000551e-01,-5.277095838079499668e-01,5.805552152274434663e-01,6.347752647189330855e-02
5.629999999999999449e-01,-6.888817206300921203e-01,4.948438852310868552e-01,2.889013891683430701e-01
5.639999999999999458e-01,-6.409046676596218406e-01,2.395325864707761598e-01,4.091123457723261359e-01
5.649999999999999467e-01,-3.482504062001343659e-01,-1.332644069180990154e-01,3.868587321196977902e-01
5.659999999999999476e-01,9.726070010171403157e-02,-4.033478946106912599e-01,2.376770986970589694e-01
5.669999999999999485e-01,4.681763867427519710e-01,-5.463770913316184918e-01,-2.011556391535515576e-02
5.679999999999999494e-01,6.811731558181660651e-01,-4.935443648825436624e-01,-2.575309095151254168e-01
5.689999999999999503e-01,6.417565380781299345e-01,-2.419249626441964951e-01,-3.976371635800188820e-01
5.699999999999999512e-01,3.787380482792189196e-01,1.155196546418806869e-01,-3.731946717572290351e-01
5.709999999999999520e-01,-3.492384779776128850e-02,4.247713871255531792e-01,-2.320931738966603985e-01
5.719999999999999529e-01,-4.294793600034652048e-01,5.563362625316881083e-01,-1.563295610757149331e-02
5.729999999999999538e-01,-6.447603805693532530e-01,4.997119999275561608e-01,2.078795140810049680e-01
5.739999999999999547e-01,-6.324549148646597674e-01,2.462107517620585051e-01,3.530565690451372696e-01
5.749999999999999556e-01,-3.682769500860366141e-01,-7.735987917006242887e-02,3.910989097914122081e-01
5.759999999999999565e-01,4.207587575296153209e-03,-3.810968641765178355e-01,2.810181151275742417e-01
5.769999999999999574e-01,3.828301805308433337e-01,-5.287949546522566768e-01,5.338860898919364079e-02
5.779999999999999583e-01,6.130331016461805227e-01,-5.088760593484322747e-01,-1.673542522805099297e-01
5.789999999999999591e-01,6.079993597990790422e-01,-2.603959039462019898e-01,-3.313953295582281466e-01
5.799999999999999600e-01,4.154276992799219026e-01,4.640594706168996858e-02,-3.718191700219306006e-01
5.809999999999999609e-01,2.921731585630533978e-02,3.396600579035544687e-01,-2.640362620453043374e-01
5.819999999999999618e-01,-3.257623629886546301e-01,4.906637168999654630e-01,-8.535925941243212300e-02
5.829999999999999627e-01,-5.559727335551256644e-01,4.466828140406777781e-01,1.240823184135420032e-01
5.839999999999999636e-01,-5.871860670550572703e-01,2.690197769744098744e-01,2.973350145402254840e-01
5.849999999999999645e-01,-4.045261187153904037e-01,-2.657937991360655866e-02,3.523481942327955641e-01
5.859999999999999654e-01,-9.754812292944536889e-02,-3.353560862781610474e-01,2.957148981214084982e-01
5.869999999999999662e-01,2.689298403942858573e-01,-4.692284647152283883e-01,1.289394186539263298e-01
5.879999999999999671e-01,5.161730442223098070e-01,-4.524966233870003074e-01,-6.771275325158072900e-02
5.889999999999999680e-01,5.751864274893300211e-01,-2.786560113100093328e-01,-2.648079839395970358e-01
5.899999999999999689e-01,4.175932541190185421e-01,1.392899052041726531e-02,-3.332475410850603281e-01
5.909999999999999698e-01,1.084492038231059663e-01,2.862263431129185021e-01,-2.762225768274857995e-01
5.919999999999999707e-01,-2.123630857047646980e-01,4.517058791350717639e-01,-1.514879231729948372e-01
5.929999999999999716e-01,-4.567279172755418504e-01,4.457916681823144711e-01,4.272018090500229182e-02
5.939999999999999725e-01,-5.449900849829802940e-01,2.602248649617311949e-01,2.039410036770659407e-01
5.949999999999999734e-01,-4.197719754240447076e-01,-1.633011415862003005e-02,3.091225543988898039e-01
5.959999999999999742e-01,-1.580467207602816448e-01,-2.442512019159142067e-01,2.801607802820038629e-01
5.969999999999999751e-01,1.663969899596805802e-01,-3.985029097908502349e-01,1.760293207346039779e-01
5.979999999999999760e-01,4.267483758609716959e-01,-4.080910744233619547e-01,-2.453483582097852264e-02
5.989999999999999769e-01,4.962067030926781697e-01,-2.637071360549411159e-01,-1.791592361980201831e-01
5.999999999999999778e-01,3.883628279983037390e-01,-2.387294297396531581e-02,-2.692234178947167100e-01
6.009999999999999787e-01,1.630026905342025212e-01,2.429371382882904440e-01,-2.690675115196702327e-01
6.019999999999999796e-01,-1.333708738936502380e-01,3.609093542754902573e-01,-1.662499623038774799e-01
6.029999999999999805e-01,-3.649674672089627814e-01,3.795313741194246693e-01,-7.198729634818296086e-03
6.039999999999999813e-01,-4.771204164768979017e-01,2.571157391357575817e-01,1.464571838010533811e-01
6.049999999999999822e-01,-3.846801926031515606e-01,3.053125531356048680e-02,2.326594880939235055e-01
6.059999999999999831e-01,-1.783020176370651577e-01,-1.964777609927680357e-01,2.590491179064871585e-01
6.069999999999999840e-01,9.362649611905160540e-02,-3.500129375440763635e-01,1.817781631847929791e-01
6.079999999999999849e-01,3.214898314721048034e-01,-3.483785516716670916e-01,7.466594226308040372e-02
6.089999999999999858e-01,4.002570835227099999e-01,-2.421641346635068637e-01,-9.254888203839982397e-02
6.099999999999999867e-01,3.772553685733107121e-01,-2.392709173012368476e-02,-2.013153858877995417e-01
6.109999999999999876e-01,1.970719693307495524e-01,1.759323554935612322e-01,-2.434970223238165921e-01
6.119999999999999885e-01,-3.834548652812248132e-02,3.172119628571165029e-01,-1.632668463548255233e-01
6.129999999999999893e-01,-2.682716782685841128e-01,3.309768896807458449e-01,-4.557255557694385451e-02
6.139999999999999902e-01,-3.724529892621081806e-01,2.186722703133129608e-01,7.244628495614335861e-02
6.149999999999999911e-01,-3.388335219106800023e-01,6.083966059237583962e-02,1.862399832121426624e-01
6.159999999999999920e-01,-1.823394138551473476e-01,-1.184837711705014340e-01,2.054004347860658164e-01
6.169999999999999929e-01,1.735466307679454923e-02,-2.460696817235611678e-01,1.766155281439752145e-01
6.179999999999999938e-01,2.134930212187073906e-01,-2.970089127141911645e-01,7.519003157637975387e-02
6.189999999999999947e-01,3.151833104490177617e-01,-2.184280911059273689e-01,-4.862437012884600340e-02
6.199999999999999956e-01,2.969423025136969652e-01,-4.618314155220196171e-02,-1.428724372624002870e-01
6.209999999999999964e-01,1.988786271544292494e-01,1.082132698448208530e-01,-1.630393153017427321e-01
6.219999999999999973e-01,2.476323175221134196e-02,2.339719891034870713e-01,-1.486006165318063399e-01
6.229999999999999982e-01,-1.549041055979336612e-01,2.657562060360580403e-01,-7.116558077843974928e-02
6.239999999999999991e-01,-2.583619348152297324e-01,1.921516351210642015e-01,1.202631103613167537e-03
6.250000000000000000e-01,-2.955856847103280338e-01,7.967866264517563246e-02,9.706446867038440174e-02
6.260000000000000009e-01,-1.607420259275662289e-01,-1.022072363286723046e-01,1.529698540172403642e-01
6.270000000000000018e-01,-4.089394088167785241e-02,-1.866809122978719537e-01,1.372727721327257344e-01
6.280000000000000027e-01,1.119474107442799682e-01,-2.242571345800721261e-01,7.385688342140142582e-02
6.290000000000000036e-01,2.359948494027010735e-01,-1.582051949442287997e-01,-1.483378828049375028e-02
6.300000000000000044e-01,2.002431151972198509e-01,-6.405567184132136827e-02,-4.876190339258656969e-02
6.310000000000000053e-01,1.551927949247125516e-01,5.041434317108039326e-02,-1.082694691588452218e-01
6.320000000000000062e-01,3.110480442741608495e-02,1.676355903518648993e-01,-8.851979699195691720e-02
6.330000000000000071e-01,-7.967605295357317596e-02,1.939784510885826374e-01,-5.649930110487964841e-02
6.340000000000000080e-01,-1.717696934949400622e-01,1.383328524684514504e-01,-4.395091229076462068e-03
6.350000000000000089e-01,-1.952122981072711427e-01,5.748865084118290336e-02,3.348583904175719828e-02
6.360000000000000098e-01,-1.263615630414543223e-01,-2.818937935773758660e-02,6.932859062564389330e-02
6.370000000000000107e-01,-5.689088168418730829e-02,-1.184328147506432533e-01,8.228318503398214523e-02
6.380000000000000115e-01,6.497179172906884792e-02,-1.383090940684969239e-01,6.554699091585242110e-02
6.390000000000000124e-01,1.279903224520807792e-01,-1.234268456084917365e-01,3.013544890095683562e-02
6.400000000000000133e-01,1.233658840352236663e-01,-3.854291033205826944e-02,-2.126872448755611628e-02
6.410000000000000142e-01,7.921109469191239816e-02,1.977012372828202205e-02,-3.402364647988942448e-02
6.420000000000000151e-01,2.677869703705477306e-02,8.765705460837026897e-02,-3.325715279701028232e-02
6.430000000000000160e-01,-1.824592695439762602e-02,9.137978853028101700e-02,-3.172421421244069062e-02
6.440000000000000169e-01,-5.318872644720279430e-02,6.890211837001508632e-02,-1.543198677773113467e-02
6.450000000000000178e-01,-6.109817354571978054e-02,4.712290078151946254e-02,-2.329823532878300910e-03
6.460000000000000187e-01,-5.385690558375887116e-02,1.959295291196533340e-02,1.032970362835613706e-02
6.470000000000000195e-01,-3.296007743048470079e-02,-5.619326636595522312e-02,1.570848236743713905e-02
6.480000000000000204e-01,1.313818254752635063e-02,-4.038998387753361258e-02,1.273100880180651553e-02
6.490000000000000213e-01,2.081202221624896612e-02,-4.820718681263764377e-02,1.909134619642154779e-02
6.500000000000000222e-01,3.544731018715563398e-02,-1.396831843165308694e-02,3.590656419526381312e-03
6.510000000000000231e-01,1.348637349305263980e-02,-1.342127492769283961e-02,1.434428372862629579e-02
6.520000000000000240e-01,1.235931429926163949e-02,2.706166127409176739e-02,2.586108004016833203e-02
6.530000000000000249e-01,1.582263785568509620e-02,1.736022925370146741e-02,1.763794710593983087e-02
6.540000000000000258e-01,-5.558336655563567066e-04,2.269606879054528875e-02,-7.239294915273798876e-04
6.550000000000000266e-01,2.920042554084744876e-02,4.305596280039940965e-02,-2.250167242674257564e-02
6.560000000000000275e-01,3.914061086202269557e-02,2.699079663433668827e-02,-4.700029345944194831e-02
6.570000000000000284e-01,-1.275454805812107489e-02,2.523525258972634036e-02,-3.049816250296759346e-02
6.580000000000000293e-01,-2.304711514303909442e-02,2.805030192444695272e-02,-5.964499177700725158e-02
6.590000000000000302e-01,-7.872287503486256888e-02,1.322012945044726169e-02,-2.122783403800627619e-02
6.600000000000000311e-01,-8.186554528969706979e-02,-9.175361987595010912e-03,1.640512817747529287e-02
6.610000000000000320e-01,-9.499616407126880435e-02,-2.677605662989391427e-02,6.515625172081467020e-02
6.620000000000000329e-01,-4.736851137011567625e-02,-6.232275650516527765e-02,1.023595002059706216e-01
6.630000000000000338e-01,3.846646114730260108e-02,-7.549353764090983854e-02,5.395651947259798298e-02
6.640000000000000346e-01,1.229519475483546037e-01,-6.614158231434481838e-02,4.303124410417329126e-02
6.650000000000000355e-01,1.432660485905921655e-01,-2.003843755302426796e-02,-2.755876088970557816e-02
6.660000000000000364e-01,1.293634080324485292e-01,3.096520344814358491e-02,-4.583936856134245008e-02
6.670000000000000373e-01,7.700001741670878252e-02,8.946440579471483245e-02,-1.060309652121846635e-01
6.680000000000000382e-01,-3.243078912543247150e-02,1.323602126985269911e-01,-1.038385498934349255e-01
6.690000000000000391e-01,-1.296976206993764313e-01,1.014685368467275195e-01,-7.498316703843173336e-02
6.700000000000000400e-01,-1.990258685346432688e-01,3.543934327411202290e-02,6.072861958786663489e-03
6.710000000000000409e-01,-1.809196245337726938e-01,-3.495442372683413984e-02,1.007514344910935278e-01
6.720000000000000417e-01,-9.917230037182024616e-02,-1.193471880314659200e-01,1.579247464231982034e-01
6.730000000000000426e-01,2.229163721731129005e-02,-1.736243118644447414e-01,1.224517756663582035e-01
6.740000000000000435e-01,1.353773692115680105e-01,-1.450335344221388711e-01,9.169063857882599200e-02
6.750000000000000444e-01,2.448140147818038403e-01,-5.730971100477006558e-02,1.154218325720696332e-02
6.760000000000000453e-01,2.315147178171640674e-01,5.019620414598268549e-02,-7.519523017920401453e-02
6.770000000000000462e-01,1.350329400846619343e-01,1.288383255887161627e-01,-1.474129662169385568e-01
6.780000000000000471e-01,-2.824251085086049509e-02,2.140237885412481222e-01,-1.720778645504743021e-01
6.790000000000000480e-01,-1.586554791659109120e-01,1.973803686095888521e-01,-1.037994984607778365e-01
6.800000000000000488e-01,-2.733686741462604264e-01,7.833038914174261791e-02,-3.852188747746862485e-02
6.810000000000000497e-01,-2.804238571353713239e-01,-1.365098342050153485e-02,9.580689150762349005e-02
6.820000000000000506e-01,-1.997049170702988319e-01,-1.523233670321196831e-01,1.596289491461398979e-01
6.830000000000000515e-01,-2.079838832763545101e-02,-2.405877200859287690e-01,2.250760084798781591e-01
6.840000000000000524e-01,1.527770423195287663e-01,-2.163807845736244739e-01,1.691053566410574138e-01
6.850000000000000533e-01,3.274191222423073477e-01,-1.290418848042732824e-01,6.082538721747297872e-02
6.860000000000000542e-01,3.461911992200175647e-01,2.213519271347298700e-02,-8.852685141204516550e-02
6.870000000000000551e-01,2.724959330406357960e-01,1.846825528818032691e-01,-1.769651669011430839e-01
6.879999999999999449e-01,7.164499621215304759e-02,2.787700604571552998e-01,-2.178762606945375824e-01
6.889999999999999458e-01,-1.585565054948619157e-01,2.610307265338273619e-01,-1.874337119911409222e-01
6.899999999999999467e-01,-3.396811875409126436e-01,1.797862012745536087e-01,-1.029870268608201883e-01
6.909999999999999476e-01,-4.119141559707447109e-01,-1.875073198498372271e-02,4.329222929894638305e-02
6.919999999999999485e-01,-2.956806308223494661e-01,-1.822766958873298648e-01,1.951605481642162410e-01
6.929999999999999494e-01,-9.378417240834842350e-02,-2.874271688631043209e-01,2.706502987650147851e-01
6.939999999999999503e-01,1.808115335389678946e-01,-2.880046857540242145e-01,2.286280003806589745e-01
6.949999999999999512e-01,3.674801323711990864e-01,-1.730699282847772136e-01,1.374451991737268286e-01
6.959999999999999520e-01,4.252275598799644674e-01,1.027413143533937798e-02,-5.134674091852433481e-02
6.969999999999999529e-01,3.346602118918458602e-01,2.159129844745050486e-01,-1.745986814600372916e-01
6.979999999999999538e-01,1.300581905648288406e-01,3.497228037168825798e-01,-2.617591687530582689e-01
6.989999999999999547e-01,-1.434686390574516079e-01,3.292550346034647801e-01,-2.772213554698191307e-01
6.999999999999999556e-01,-3.788006872946233505e-01,2.112617996656089570e-01,-1.556693179906109004e-01
7.009999999999999565e-01,-4.747782115531550828e-01,9.548006304939937391e-03,6.854369946897033786e-03
7.019999999999999574e-01,-4.014001921671214723e-01,-2.251864032423462891e-01,1.844699598473434898e-01
7.029999999999999583e-01,-1.613308504199465199e-01,-3.411751274538179501e-01,2.699638075030847961e-01
7.039999999999999591e-01,1.512687024891064824e-01,-3.768391018084941146e-01,3.047522320567632170e-01
7.049999999999999600e-01,3.915632515814511105e-01,-2.442463098859927739e-01,1.837335360972646991e-01
7.059999999999999609e-01,5.236951427054588049e-01,-3.913792232435554103e-02,2.124634003140902366e-02
7.069999999999999618e-01,4.362984239480260928e-01,1.977864444158388968e-01,-1.679331253701276949e-01
7.079999999999999627e-01,2.185185383053250829e-01,3.935845485521965448e-01,-2.864598815988242397e-01
7.089999999999999636e-01,-1.129189697439250961e-01,4.260843676704130223e-01,-3.064778497538548918e-01
7.099999999999999645e-01,-3.841883312368352676e-01,2.735473552617615489e-01,-2.253079547403505911e-01
7.109999999999999654e-01,-5.472171329549813112e-01,3.230220163129699645e-02,-6.657205385445662260e-02
7.119999999999999662e-01,-5.079093573673462148e-01,-2.358137994487273792e-01,1.602147716004459488e-01
7.129999999999999671e-01,-2.455251006637017841e-01,-4.163876205833620947e-01,3.066754625562881920e-01
7.139999999999999680e-01,5.952712711248916294e-02,-4.229192198110932055e-01,3.334343555041792140e-01
7.149999999999999689e-01,3.955301931741721511e-01,-3.361426489894265845e-01,2.826502875346302845e-01
7.159999999999999698e-01,5.625754971598122545e-01,-6.231818151333181482e-02,9.035229484642907927e-02
7.169999999999999707e-01,5.460602196134636266e-01,2.162278526271980694e-01,-1.365843582581304783e-01
7.179999999999999716e-01,2.956903282987236592e-01,4.048339257761337517e-01,-2.997487690352571010e-01
7.189999999999999725e-01,-3.559640374165183585e-02,4.732561629293982608e-01,-3.737084074056750138e-01
7.199999999999999734e-01,-3.619466823720330906e-01,3.381235463305782840e-01,-3.291809243524790873e-01
7.209999999999999742e-01,-6.084388948869383640e-01,7.047469850622679888e-02,-1.294280051902297890e-01
7.219999999999999751e-01,-5.948688432421912475e-01,-1.954246663038406995e-01,9.112829188030319161e-02
7.229999999999999760e-01,-3.719412189819196191e-01,-4.200341594603360651e-01,2.816305285625689825e-01
7.239999999999999769e-01,-5.245957822279559424e-03,-5.082592425080121323e-01,3.715159828010613507e-01
7.249999999999999778e-01,3.801961708866424261e-01,-3.758748691769532302e-01,3.328488585225018448e-01
7.259999999999999787e-01,6.177556069017721141e-01,-1.124329688321599324e-01,1.880077797531185813e-01
7.269999999999999796e-01,6.426927991592638056e-01,2.105806158595787958e-01,-6.536086066145946338e-02
7.279999999999999805e-01,4.025726717805498400e-01,4.327642619406906754e-01,-2.670329689377573534e-01
7.289999999999999813e-01,4.279566596542105222e-02,5.007297220475963595e-01,-3.906248619632469721e-01
7.299999999999999822e-01,-3.627896827241281485e-01,3.922655192331054308e-01,-3.750353660996386673e-01
7.309999999999999831e-01,-6.089581937909207543e-01,1.406268047975630098e-01,-2.151746809453783105e-01
7.319999999999999840e-01,-6.528149802338547580e-01,-1.922010657358632912e-01,4.566256084138058113e-02
7.329999999999999849e-01,-4.759454940583250360e-01,-4.511605640454439126e-01,2.456231969355411049e-01
7.339999999999999858e-01,-1.061740206436989492e-01,-5.516473042987153352e-01,3.790225877393914033e-01
7.349999999999999867e-01,3.099630864868658797e-01,-4.437970969254289577e-01,3.992470088931791561e-01
7.359999999999999876e-01,6.126434469948501826e-01,-1.596674426625164789e-01,2.582747223616334020e-01
7.369999999999999885e-01,6.873493619711511515e-01,1.713564529577506212e-01,1.541526903427218806e-02
7.379999999999999893e-01,5.009225963790170377e-01,4.525547484554225952e-01,-2.381157740439254766e-01
7.389999999999999902e-01,1.415334818177209075e-01,5.588955554995431729e-01,-4.163709144236402149e-01
7.399999999999999911e-01,-2.720101130864147621e-01,4.565631525362064957e-01,-4.154280261571783872e-01
7.409999999999999920e-01,-6.109219469907517519e-01,1.813049818054057460e-01,-2.961767669894621591e-01
7.419999999999999929e-01,-7.290754040942326597e-01,-1.647994811602013776e-01,-7.430434732265951692e-02
7.429999999999999938e-01,-5.483720813135656291e-01,-4.445820538417773471e-01,1.990587945489665223e-01
7.439999999999999947e-01,-2.056185236635667823e-01,-5.568136331075098644e-01,3.755366692665519368e-01
7.449999999999999956e-01,2.454540926067261819e-01,-4.979647670725899089e-01,4.276001792241110877e-01
7.459999999999999964e-01,6.012746856782331673e-01,-2.009829339984740559e-01,3.208561298195383715e-01
7.469999999999999973e-01,7.226359802981092706e-01,1.560337587651454139e-01,1.076463493318376291e-01
7.479999999999999982e-01,5.881418072321158430e-01,4.649751436500778601e-01,-1.604534204286493793e-01
7.489999999999999991e-01,2.610158250449211570e-01,5.838166813948785228e-01,-3.498461577158981095e-01
7.500000000000000000e-01,-1.838572871607114800e-01,4.963838872553990034e-01,-4.353148120417841827e-01
7.510000000000000009e-01,-5.852115277605410837e-01,2.384782988008719573e-01,-3.668893781108019114e-01
7.520000000000000018e-01,-7.453487677118955101e-01,-1.081915343765089826e-01,-1.455375882139657018e-01
7.530000000000000027e-01,-6.389277157043512512e-01,-4.392860052965325002e-01,1.239627538422180264e-01
7.540000000000000036e-01,-2.809748774395648407e-01,-5.915104344551829207e-01,3.280210876187751867e-01
7.550000000000000044e-01,1.642100968594467358e-01,-4.911519239749062016e-01,4.280039757887675322e-01
7.560000000000000053e-01,5.420891909438672052e-01,-2.597009349017179169e-01,4.098012428750999470e-01
7.570000000000000062e-01,7.509100586179426884e-01,1.240640810541435574e-01,1.784073436745941266e-01
7.580000000000000071e-01,6.730327590701469243e-01,4.438753348211499361e-01,-8.364949162841693597e-02
7.590000000000000080e-01,3.559546373713315948e-01,5.835975239004147497e-01,-3.236577324980152714e-01
7.600000000000000089e-01,-1.237491472910909468e-01,5.358114482695057745e-01,-4.348139985326939794e-01
7.610000000000000098e-01,-5.035216816334407985e-01,2.711189105582387793e-01,-4.173171067844627102e-01
7.620000000000000107e-01,-7.497922247468571388e-01,-9.152367309628145486e-02,-2.340629675459609538e-01
7.630000000000000115e-01,-6.773790729243946984e-01,-4.086007137301718717e-01,3.640346014837284039e-02
7.640000000000000124e-01,-3.733682118572260178e-01,-5.915946317718652203e-01,2.867747514747450155e-01
7.650000000000000133e-01,2.932983967610643811e-02,-5.184975472676427444e-01,4.379298744374959251e-01
7.660000000000000142e-01,4.708254747948408814e-01,-2.979996942762422885e-01,4.195149944386710739e-01
7.670000000000000151e-01,7.352869523553275943e-01,7.868950933884139021e-02,2.733582974433641510e-01
7.680000000000000160e-01,7.044712910254375959e-01,4.021267429289024364e-01,2.843389749620255438e-02
7.690000000000000169e-01,4.271650145725600090e-01,5.750315105677313854e-01,-2.450931966691207720e-01
7.700000000000000178e-01,-1.907843308248514599e-02,5.634897348325942357e-01,-4.283032362096099721e-01
7.710000000000000187e-01,-4.511973781991059917e-01,3.246192314325193062e-01,-4.318023648143047843e-01
7.720000000000000195e-01,-7.123303869914147102e-01,-3.975842761508452394e-02,-2.880787550808788788e-01
7.730000000000000204e-01,-7.020532547736234585e-01,-3.980924458148638045e-01,-5.054043893530390380e-02
7.740000000000000213e-01,-4.593922782617435585e-01,-5.729808360963875025e-01,2.103524638849106621e-01
7.750000000000000222e-01,-2.638025717357653233e-02,-5.701306591589783146e-01,3.991999589683503102e-01
7.760000000000000231e-01,3.658621443042780474e-01,-3.425437797382245853e-01,4.636652145115752743e-01
7.770000000000000240e-01,6.923817564529755053e-01,4.191225062588063016e-02,3.153746705182901566e-01
7.780000000000000249e-01,6.990400793727790107e-01,3.643559540591185808e-01,1.121950398758419232e-01
7.790000000000000258e-01,4.729599489008644020e-01,5.546368863433591700e-01,-1.744592898321898344e-01
7.800000000000000266e-01,7.947772042337233889e-02,5.858997373863129576e-01,-3.468871786513256228e-01
7.810000000000000275e-01,-3.460591123804090952e-01,3.436903117042068301e-01,-4.343745354409503934e-01
7.820000000000000284e-01,-6.498267107684436716e-01,-1.787367857350822056e-02,-3.581877652589453009e-01
7.830000000000000293e-01,-7.222635033969769802e-01,-3.347510776246924724e-01,-1.523199942730314727e-01
7.840000000000000302e-01,-5.123393163667934180e-01,-5.456099289023710330e-01,1.261988714610298989e-01
7.850000000000000311e-01,-1.223576590339611331e-01,-5.502225334278958435e-01,3.243752535286542060e-01
7.860000000000000320e-01,2.955443897778186058e-01,-3.500373473115157008e-01,4.356173929574000958e-01
7.870000000000000329e-01,6.076090300282918077e-01,-1.786594147130653870e-02,3.556500857620687461e-01
7.880000000000000338e-01,6.990774867597628894e-01,3.173770973010315299e-01,1.848010588332409943e-01
7.890000000000000346e-01,5.371169292772398629e-01,5.293159352514784644e-01,-6.094009610115947578e-02
7.900000000000000355e-01,1.603299650255518294e-01,5.395749475422880748e-01,-3.180553980795311486e-01
7.910000000000000364e-01,-2.480957306011510877e-01,3.514031430477349005e-01,-3.710745644180986069e-01
7.920000000000000373e-01,-5.933844032641837352e-01,5.262113888562745811e-02,-3.506327523061481544e-01
7.930000000000000382e-01,-6.798182034437623145e-01,-3.153170583344758748e-01,-2.061780158952664921e-01
7.940000000000000391e-01,-5.708409119226270922e-01,-5.250985410009483267e-01,3.888816261029365978e-02
7.950000000000000400e-01,-2.082357006461675597e-01,-5.503537592715056492e-01,2.803633975713172299e-01
7.960000000000000409e-01,1.853113173855697460e-01,-3.569963808261549243e-01,3.950677631187745620e-01
7.970000000000000417e-01,5.447727772364097110e-01,-5.919632911825364885e-02,3.732935516807912024e-01
7.980000000000000426e-01,6.583896874271655264e-01,2.683894591952573627e-01,2.416779036275315262e-01
7.990000000000000435e-01,5.343163344266850245e-01,5.005543083517348668e-01,-8.434446717772468155e-03
8.000000000000000444e-01,2.806429716217672121e-01,5.262472300871526842e-01,-1.964998881494442462e-01
8.010000000000000453e-01,-1.403073875259825132e-01,3.667234368524737720e-01,-3.581159043589375313e-01
8.020000000000000462e-01,-4.771874940564748147e-01,8.323461218693765928e-02,-3.640794520900998421e-01
8.030000000000000471e-01,-6.451195622928065365e-01,-2.341114042861522915e-01,-2.464418270738135686e-01
8.040000000000000480e-01,-5.667438384751526392e-01,-4.659165779670422225e-01,-4.282866560241495313e-02
8.050000000000000488e-01,-3.008919439827901221e-01,-4.958509169687745910e-01,1.663478322582479241e-01
8.060000000000000497e-01,9.223992189307275713e-02,-3.643027023875599069e-01,3.244375204228274745e-01
8.070000000000000506e-01,4.436053680339561711e-01,-8.953721070551151628e-02,3.637925380698187050e-01
8.080000000000000515e-01,5.944813702402448330e-01,1.976323059992750319e-01,2.474806972017307427e-01
8.090000000000000524e-01,5.623067756606137113e-01,4.381776500912553107e-01,7.470671045792538767e-02
8.100000000000000533e-01,2.911634176295551657e-01,4.626283209570607458e-01,-1.130330534004644477e-01
8.110000000000000542e-01,-5.998131475810070112e-02,3.476326524948102903e-01,-3.038388958186254429e-01
8.120000000000000551e-01,-3.941634724465850059e-01,9.318617866163081409e-02,-3.399962014997767734e-01
8.129999999999999449e-01,-5.426126807477330560e-01,-1.946135704204170203e-01,-2.844445690038026608e-01
8.139999999999999458e-01,-5.291827722556408098e-01,-4.003925746118316975e-01,-1.002351148408603260e-01
8.149999999999999467e-01,-3.258406834613730707e-01,-4.755948661766362107e-01,1.120413851272093059e-01
8.159999999999999476e-01,2.232373362353645002e-02,-3.343482587254105742e-01,2.627036774567391708e-01
8.169999999999999485e-01,3.219192676688771293e-01,-1.071507730224789956e-01,3.426500645027464875e-01
8.179999999999999494e-01,5.088874289793916539e-01,1.555974324821813581e-01,2.716966555515721859e-01
8.189999999999999503e-01,5.062040012928020749e-01,3.777850385320817850e-01,1.105177240675660755e-01
8.199999999999999512e-01,3.255010462366510482e-01,4.229936222328528062e-01,-6.810720462818538323e-02
8.209999999999999520e-01,1.544607113226628345e-02,3.574546691366743967e-01,-2.205681616034567694e-01
8.219999999999999529e-01,-2.690800364622366603e-01,1.112824761320376776e-01,-3.101536631021293844e-01
8.229999999999999538e-01,-4.797150271339408745e-01,-1.268640472483375803e-01,-2.771031231428154329e-01
8.239999999999999547e-01,-5.018428826219802907e-01,-3.071767984691087250e-01,-1.331781259312092291e-01
8.249999999999999556e-01,-3.530915883925301868e-01,-3.962436819897536822e-01,4.136998935676542560e-02
8.259999999999999565e-01,-6.819187544031596326e-02,-3.224764573534085188e-01,1.858909759201863576e-01
8.269999999999999574e-01,2.164622539183056193e-01,-1.147535472373737986e-01,2.688870537134641636e-01
8.279999999999999583e-01,4.355429972847020825e-01,1.005163851349652193e-01,2.733506497769967458e-01
8.289999999999999591e-01,4.371275621925342358e-01,2.918691730931480821e-01,1.496765885978733057e-01
8.299999999999999600e-01,3.263680760897231248e-01,3.709119214403318598e-01,-8.825025678119420222e-03
8.309999999999999609e-01,9.553307899947081905e-02,3.112320889216895203e-01,-1.718943570485887418e-01
8.319999999999999618e-01,-1.784207704632623515e-01,1.393362051653947720e-01,-2.249670656000286040e-01
8.329999999999999627e-01,-3.841803980961159271e-01,-8.978931482249336016e-02,-2.603554229644522988e-01
8.339999999999999636e-01,-3.951472263105648142e-01,-2.620839545050317465e-01,-1.726347609172777797e-01
8.349999999999999645e-01,-3.145263171524140255e-01,-3.456739342038612217e-01,-3.116943496997872515e-02
8.359999999999999654e-01,-1.137945872827559879e-01,-2.810461514155495610e-01,1.072967054159669753e-01
8.369999999999999662e-01,1.484335513177439669e-01,-1.260362554689796744e-01,2.268907821260607027e-01
8.379999999999999671e-01,3.128238105905334354e-01,4.375918319823034891e-02,2.112853799645230402e-01
8.389999999999999680e-01,3.711658874504298322e-01,2.304113063003370709e-01,1.536840573981211322e-01
8.399999999999999689e-01,2.739336498218314930e-01,3.163335077710296983e-01,5.642598759282808213e-02
8.409999999999999698e-01,1.137869807576553927e-01,2.582400623717051036e-01,-8.488390369463866270e-02
8.419999999999999707e-01,-8.582228816350423450e-02,1.276367149327231332e-01,-1.608570240915382921e-01
8.429999999999999716e-01,-2.691367845129408187e-01,-3.939706139720932504e-02,-2.093285427624684836e-01
8.439999999999999725e-01,-3.219421605259712438e-01,-2.088300039968569721e-01,-1.722310484172346889e-01
8.449999999999999734e-01,-2.731298361479412851e-01,-2.586266209691077678e-01,-4.271492445964724521e-02
8.459999999999999742e-01,-1.116447941016223411e-01,-2.154688501412544144e-01,4.923259760873090196e-02
8.469999999999999751e-01,6.626957313347454914e-02,-1.001393935013070724e-01,1.489599751540617578e-01
8.479999999999999760e-01,2.169259274212197441e-01,2.101976801745495879e-02,1.730475948619409066e-01
8.489999999999999769e-01,2.592411186927712219e-01,1.496131133903448318e-01,1.553575758666632389e-01
8.499999999999999778e-01,2.581504430213176771e-01,2.140211074202628960e-01,7.069678665319970023e-02
8.509999999999999787e-01,1.192669000979722227e-01,1.938957493344885818e-01,-4.148807286612410383e-02
8.519999999999999796e-01,-2.405570970345527818e-02,1.132983774345981132e-01,-9.580748659695516312e-02
8.529999999999999805e-01,-1.683080546263372446e-01,-3.515401891877601749e-03,-1.463888952718435110e-01
8.539999999999999813e-01,-2.292808060325045860e-01,-1.413216739425251223e-01,-1.015720178177599714e-01
8.549999999999999822e-01,-2.150760099061847508e-01,-1.737605242958175922e-01,-6.781937015580861983e-02
8.559999999999999831e-01,-1.092947202590954098e-01,-1.867418507344118239e-01,1.175635396428603360e-02
8.569999999999999840e-01,7.966109376659352009e-03,-9.786484516325354155e-02,7.401132737985156862e-02
8.579999999999999849e-01,1.017755631605047340e-01,2.016526165006407231e-02,1.060669822273660190e-01
8.589999999999999858e-01,1.673582766741507077e-01,9.519233676176851178e-02,1.045510753034733231e-01
8.599999999999999867e-01,1.621505912832562346e-01,1.252036694720605470e-01,5.880905614568278372e-02
8.609999999999999876e-01,9.540138513346151095e-02,1.211804869798759066e-01,1.315402320001063038e-02
8.619999999999999885e-01,1.007041674809538469e-02,6.527264149702881324e-02,-5.005237426756332236e-02
8.629999999999999893e-01,-7.944314970776242268e-02,2.293770244213275133e-02,-6.842722303924909932e-02
8.639999999999999902e-01,-1.228899053156136817e-01,-7.197090387688372115e-02,-5.078268655184576402e-02
8.649999999999999911e-01,-1.018702432356748955e-01,-9.603964959225685938e-02,-3.734122984246356775e-02
8.659999999999999920e-01,-6.679961187506379405e-02,-9.630550901167092559e-02,-1.500708606248673388e-02
8.669999999999999929e-01,-1.464913367912019752e-02,-6.808416761495815483e-02,2.617153766507123586e-02
8.679999999999999938e-01,3.689164315074097006e-02,-2.360468683661397227e-02,5.340639112436958158e-02
8.689999999999999947e-01,7.016056623321993702e-02,2.282143662420544131e-02,5.889671987162574396e-02
8.699999999999999956e-01,6.406533395222856198e-02,5.617785348447600080e-02,3.986803696344354275e-02
8.709999999999999964e-01,3.896518980879879607e-02,5.877156814775921778e-02,1.425290771372361188e-02
8.719999999999999973e-01,1.115903753002564676e-02,3.477779122218978280e-02,7.193660230402584323e-03
8.729999999999999982e-01,3.626156440011275156e-02,2.593580616725661009e-02,-1.285356596286880461e-02
8.739999999999999991e-01,-1.912955390304365774e-02,7.303677821505710852e-04,-1.392847546957213557e-02
8.750000000000000000e-01,-3.746387379988309202e-02,-1.536867547165243243e-02,2.511674577605760728e-03
8.760000000000000009e-01,-1.916186594704556018e-02,-2.164404112109200723e-02,7.407624378067040154e-03
8.770000000000000018e-01,-2.761707708461312236e-02,8.646830331955930940e-03,-3.009261518975716101e-02
8.780000000000000027e-01,-2.683434558222780320e-02,-2.249112203719065908e-02,-2.399997814532923296e-02
8.790000000000000036e-01,-4.255983755511258404e-02,-5.924280392329483308e-02,-3.288578467071532480e-02
8.800000000000000044e-01,-1.487149138876102394e-02,-3.505527819360588354e-02,-7.258263110410913960e-03
8.810000000000000053e-01,-1.523443420958753292e-02,-3.419634002164284592e-02,6.225508681276708048e-03
8.820000000000000062e-01,2.098338833061569667e-02,-3.648691490058735259e-03,1.820734714263664428e-02
8.830000000000000071e-01,3.973336316167463272e-02,1.593420039620668457e-02,5.016977323629481095e-02
8.840000000000000080e-01,7.497424403924417280e-02,5.009633713001833411e-02,6.980872321237231726e-02
8.850000000000000089e-01,9.875789893146286191e-02,8.121716249933674803e-02,5.959295955064495415e-02
8.860000000000000098e-01,5.131120007084354062e-02,1.021219100766619925e-01,3.010849373909057006e-02
8.870000000000000107e-01,7.675271203339813740e-03,4.072585293062739448e-02,-3.664319529312911466e-02
8.880000000000000115e-01,-7.072642123000547065e-02,-1.469739667300255272e-02,-6.424412426875028559e-02
8.890000000000000124e-01,-1.190951555318220390e-01,-7.170122581221409497e-02,-7.575987543715645423e-02
8.900000000000000133e-01,-1.280694945200766544e-01,-1.133314889386739938e-01,-8.424429354975848661e-02
8.910000000000000142e-01,-9.404375388492804133e-02,-9.993306347621346009e-02,-3.935864912561353596e-02
8.920000000000000151e-01,-2.417520167657763799e-02,-7.027439749240549371e-02,3.778909768531156510e-02
8.930000000000000160e-01,7.001972435195491506e-02,4.064488177203675126e-03,9.610051054459568809e-02
8.940000000000000169e-01,1.446988162887573592e-01,8.739262322442527264e-02,1.169232611972080560e-01
8.950000000000000178e-01,1.986182619642501979e-01,1.430895205758575262e-01,1.084675991658997363e-01
8.960000000000000187e-01,1.447095243933446129e-01,1.682525420293413121e-01,6.281070936316855702e-02
8.970000000000000195e-01,6.384681863880044272e-02,9.805473109781419339e-02,-1.910983235948332526e-02
8.980000000000000204e-01,-7.406842821941095334e-02,3.321641441683995111e-02,-7.771057209006938804e-02
8.990000000000000213e-01,-1.865610798989504049e-01,-1.130771167983493086e-01,-1.387956036130029713e-01
9.000000000000000222e-01,-2.486653567005447651e-01,-1.846809978382640549e-01,-1.257929882029696911e-01
9.010000000000000231e-01,-2.133406790894966376e-01,-1.793089489423663474e-01,-9.629479632233037267e-02
9.020000000000000240e-01,-9.614142873892542185e-02,-1.308339601290591514e-01,1.243161437575965268e-03
9.030000000000000249e-01,6.476365534776967747e-02,-3.715781800195191997e-02,1.015136259511053990e-01
9.040000000000000258e-01,2.162040290971249668e-01,1.053471671810165683e-01,1.637762472038039319e-01
9.050000000000000266e-01,2.913085496500124050e-01,2.221505684342371945e-01,1.769104639488644770e-01
9.060000000000000275e-01,2.694692158965865669e-01,2.366125821450286715e-01,1.134714539184921989e-01
9.070000000000000284e-01,1.264059657703249517e-01,1.784719980810564877e-01,1.354663654480233771e-02
9.080000000000000293e-01,-6.408737177853500444e-02,3.706894845085891010e-02,-9.483762532091803699e-02
9.090000000000000302e-01,-2.324499352501916694e-01,-1.188603389635331520e-01,-1.610575295085313052e-01
9.100000000000000311e-01,-3.310673306536263683e-01,-2.482439349618907887e-01,-1.922071653781742828e-01
9.110000000000000320e-01,-3.110954309689029640e-01,-2.923395173087176557e-01,-1.589240269541688233e-01
9.120000000000000329e-01,-1.738337363546165193e-01,-2.133567280112983466e-01,-3.741119374001025677e-02
9.130000000000000338e-01,1.290614329495847618e-02,-7.604772388274678996e-02,8.026658575519653172e-02
9.140000000000000346e-01,2.657480077140911279e-01,1.329428046060341373e-01,1.930582540002734326e-01
9.150000000000000355e-01,4.007647625542553049e-01,2.732766131343380978e-01,2.169351666007317825e-01
9.160000000000000364e-01,3.816216853836983391e-01,3.221786309882711530e-01,1.717890735262568025e-01
9.170000000000000373e-01,2.078296914397003703e-01,2.516084127156108519e-01,6.849030841666627067e-02
9.180000000000000382e-01,-1.914106946901785594e-02,7.358820709468377741e-02,-8.272667901347333097e-02
9.190000000000000391e-01,-2.470436496154702899e-01,-1.164509538534426042e-01,-1.912833457315172569e-01
9.200000000000000400e-01,-4.247956834442441210e-01,-2.828039333320311877e-01,-2.673823041885241558e-01
9.210000000000000409e-01,-4.145797497735962400e-01,-3.409357266972208311e-01,-2.354472107793270097e-01
9.220000000000000417e-01,-2.880354849914129045e-01,-2.744803216710712257e-01,-1.236710303685345930e-01
9.230000000000000426e-01,-1.439577777292603070e-02,-9.131903361715787426e-02,5.485706885805959054e-02
9.240000000000000435e-01,2.580906658993757929e-01,1.220152516269662896e-01,2.001917896101729211e-01
9.250000000000000444e-01,4.383672574533561406e-01,3.250896538771147481e-01,2.754055750384103440e-01
9.260000000000000453e-01,4.744267829155083271e-01,4.105906802376294573e-01,2.580456368725885241e-01
9.270000000000000462e-01,3.253249724625090211e-01,3.044508768540509780e-01,1.629280704556817505e-01
9.280000000000000471e-01,6.061665963372367405e-02,1.172704745754135774e-01,-3.277682697830924113e-02
9.290000000000000480e-01,-2.513503653183811748e-01,-1.286291509159769586e-01,-1.937739677223207224e-01
9.300000000000000488e-01,-4.702631698244406633e-01,-3.330205457077218822e-01,-2.889974291419443175e-01
9.310000000000000497e-01,-5.229006012094918887e-01,-4.137719702091440244e-01,-2.828825287449768244e-01
9.320000000000000506e-01,-3.751466995985195951e-01,-3.356728089010211358e-01,-1.648291737068868501e-01
9.330000000000000515e-01,-8.920972310626265611e-02,-1.537817179701628512e-01,-2.809528009992052003e-02
9.340000000000000524e-01,2.227602227369353260e-01,1.032966778647910894e-01,1.707746478871745577e-01
9.350000000000000533e-01,4.945902638408113394e-01,3.495090869229077746e-01,2.993083889190154556e-01
9.360000000000000542e-01,5.516450807925185051e-01,4.414927797957693412e-01,3.154713042958106617e-01
9.370000000000000551e-01,4.213268534318979630e-01,3.875398532979676958e-01,2.164482136802692303e-01
9.379999999999999449e-01,1.429209902055971482e-01,1.867250941273196629e-01,3.824389676167624236e-02
9.389999999999999458e-01,-2.165024542926568540e-01,-1.144184650095199929e-01,-1.837115336388231157e-01
9.399999999999999467e-01,-4.868303455834281923e-01,-3.382829191692224846e-01,-3.128477692318307191e-01
9.409999999999999476e-01,-5.924447200087772369e-01,-4.749775391493015753e-01,-3.482421108627920536e-01
9.419999999999999485e-01,-4.798509394559273833e-01,-4.055279007777994882e-01,-2.767418878655680814e-01
9.429999999999999494e-01,-1.958413392803986242e-01,-2.141546494234595477e-01,-6.571784395080297603e-02
9.439999999999999503e-01,2.044604327791470222e-01,1.017169635928869414e-01,1.600011257552272914e-01
9.449999999999999512e-01,5.000234728830947883e-01,3.768200152034213990e-01,3.229088755891861284e-01
9.459999999999999520e-01,6.165110146780211631e-01,4.738148303954000662e-01,3.813407244935350660e-01
9.469999999999999529e-01,5.187346100072161015e-01,4.487544089813657044e-01,2.828442613543795670e-01
9.479999999999999538e-01,2.155064619132409098e-01,2.211164036164499080e-01,9.996197470803321050e-02
9.489999999999999547e-01,-1.460261414000001146e-01,-7.340053331528068048e-02,-1.227970561489620804e-01
9.499999999999999556e-01,-4.895987776046719642e-01,-3.600613018329207882e-01,-3.282817423892004927e-01
9.509999999999999565e-01,-6.430420941950515390e-01,-5.254837710544433271e-01,-3.570458054975811923e-01
9.519999999999999574e-01,-5.740236350053271597e-01,-4.753593538558666398e-01,-3.469947752858884016e-01
9.529999999999999583e-01,-2.816966673840183288e-01,-2.609950183829466419e-01,-1.480638304292909713e-01
9.539999999999999591e-01,1.145669644684223221e-01,5.711339397801773465e-02,9.061364422648035544e-02
9.549999999999999600e-01,4.595953404790473762e-01,3.540691156058612399e-01,2.820955604425574581e-01
9.559999999999999609e-01,6.606909452204168254e-01,5.342019788833779481e-01,4.024198847894591702e-01
9.569999999999999618e-01,6.442051123994195772e-01,4.972763832495493141e-01,3.910837656686711461e-01
9.579999999999999627e-01,3.229377589622491884e-01,2.809791149365122309e-01,2.008466316805104235e-01
9.589999999999999636e-01,-6.357132329351347644e-02,-4.934964649193428893e-02,-4.211984789753264041e-02
9.599999999999999645e-01,-4.568675629692955376e-01,-3.584332378951665676e-01,-2.738239827774116009e-01
9.609999999999999654e-01,-6.799832207683808027e-01,-5.369483215259834852e-01,-3.890281242735591505e-01
9.619999999999999662e-01,-6.577303841647402782e-01,-5.249124562928589866e-01,-3.790548559524730687e-01
9.629999999999999671e-01,-3.865969805219625632e-01,-3.046320601657768190e-01,-2.374379638240360912e-01
9.639999999999999680e-01,3.227255637654920239e-02,4.886577536278893796e-02,1.893970764090353170e-02
9.649999999999999689e-01,4.376969359886786481e-01,3.528638452416240079e-01,2.608414043346573563e-01
9.659999999999999698e-01,6.689135384816249363e-01,5.527040186640015396e-01,4.000821822223518121e-01
9.669999999999999707e-01,6.973957897697297126e-01,5.516907258951425641e-01,4.232789884504687961e-01
9.679999999999999716e-01,4.495233219158289439e-01,3.120523349669003244e-01,2.866634570712339181e-01
9.689999999999999725e-01,4.602935158346878851e-03,-5.478580711086209268e-03,2.380377971710888330e-02
9.699999999999999734e-01,-3.974996291013458416e-01,-3.555026366049911513e-01,-2.286117446352129434e-01
9.709999999999999742e-01,-7.023141476616405754e-01,-5.593489763063420606e-01,-3.995413949827023581e-01
9.719999999999999751e-01,-7.041166453616766185e-01,-5.591543827955163248e-01,-4.320554487804119659e-01
9.729999999999999760e-01,-4.855351894857217188e-01,-3.556016723575217697e-01,-3.241149991298357125e-01
9.739999999999999769e-01,-6.337217771500938679e-02,-9.516269613814649225e-03,-9.173559518977011940e-02
9.749999999999999778e-01,3.690108607502641802e-01,3.436030633136180623e-01,1.822532869429959457e-01
9.759999999999999787e-01,6.728230873321201511e-01,5.274653529075253866e-01,3.688240370371322907e-01
9.769999999999999796e-01,7.224927435939981768e-01,5.784276794797105214e-01,4.330982470908575910e-01
9.779999999999999805e-01,5.357076606231963023e-01,3.883276489543845966e-01,3.438817536442949074e-01
9.789999999999999813e-01,1.138567201265944240e-01,2.584686707474929609e-02,1.083622322569695595e-01
9.799999999999999822e-01,-3.277677485006202374e-01,-3.210344844028409916e-01,-1.224376233750566478e-01
9.809999999999999831e-01,-6.660950243250162162e-01,-5.690391454667551585e-01,-3.596401265933732994e-01
9.819999999999999840e-01,-7.339660038053417157e-01,-5.876036413689796900e-01,-4.411953964802332595e-01
9.829999999999999849e-01,-5.918680165839412810e-01,-3.765544235680173268e-01,-3.812274043305725613e-01
9.839999999999999858e-01,-1.947181676654922422e-01,-6.230532527648090929e-02,-1.822642562970009372e-01
9.849999999999999867e-01,2.767250638186785627e-01,3.150011820375623883e-01,1.110531273855326490e-01
9.859999999999999876e-01,6.285108554612500731e-01,5.610865800679932791e-01,3.263559220801070526e-01
9.869999999999999885e-01,7.418500711765581013e-01,5.826112916371719574e-01,4.213373922469143551e-01
9.879999999999999893e-01,5.941903946474248466e-01,4.160751240936452211e-01,3.971088755539828319e-01
9.889999999999999902e-01,2.154168190059838894e-01,7.680768886049781086e-02,2.134811726813342914e-01
9.899999999999999911e-01,-2.369840705042006446e-01,-2.811479130163420659e-01,-8.012744001636484814e-02
9.909999999999999920e-01,-5.844916456455671039e-01,-5.518582513232782594e-01,-3.046015218046937978e-01
9.919999999999999929e-01,-7.381382968503570341e-01,-5.889545629116028636e-01,-4.446862722603228679e-01
9.929999999999999938e-01,-6.379378072049272097e-01,-4.311068206096712596e-01,-4.402998036293121475e-01
9.939999999999999947e-01,-2.689524887489186389e-01,-9.696997368701230913e-02,-2.361724710266256133e-01
9.949999999999999956e-01,1.761946737447312727e-01,2.836408403068255146e-01,2.448075865822699204e-02
9.959999999999999964e-01,5.578281358790877498e-01,5.387429490810803356e-01,2.619974274696443839e-01
9.969999999999999973e-01,7.403686611536695050e-01,5.785476174221434453e-01,4.088149778635627452e-01
9.979999999999999982e-01,6.260192517491214304e-01,4.280759666032996624e-01,4.509604752365850011e-01
9.989999999999999991e-01,3.095288270554963361e-01,1.268591521764125263e-01,2.931816472099354476e-01
1.000000000000000000e+00,-1.184373108776902023e-01,-2.405861721438461720e-01,4.274680130104353826e-02
1.000999999999999890e+00,-5.405121665305196998e-01,-4.728261404149676217e-01,-2.525208591530551105e-01
1.002000000000000002e+00,-7.323817719363678869e-01,-5.830740306981456733e-01,-4.036075333860159597e-01
1.002999999999999892e+00,-6.678490194068538166e-01,-4.520111640221148863e-01,-4.361410126701482093e-01
1.004000000000000004e+00,-3.393014306634596911e-01,-1.349890008800113117e-01,-2.923244228921737520e-01
1.004999999999999893e+00,8.134696236252389467e-02,2.256731830979722686e-01,-7.730296006392858854e-02
1.006000000000000005e+00,4.746826730644692072e-01,4.997137678317030707e-01,1.958622628325605020e-01
1.006999999999999895e+00,7.094846343126627319e-01,5.881478280922849411e-01,3.755679347380504463e-01
1.008000000000000007e+00,6.532842853122539095e-01,4.683024781669859471e-01,4.517288007504929315e-01
1.008999999999999897e+00,3.871732470432192041e-01,1.451108742044037447e-01,3.458816584440009279e-01
1.010000000000000009e+00,-3.782848709525268860e-02,-1.958572286022878806e-01,1.202653960444104164e-01
1.010999999999999899e+00,-4.453744828307130699e-01,-4.690053403053714987e-01,-1.305253956227438727e-01
1.012000000000000011e+00,-6.807961176848817964e-01,-5.657810473868584156e-01,-3.470522448229579893e-01
1.012999999999999901e+00,-6.788074747989554236e-01,-4.425087565829417535e-01,-4.484357348592213355e-01
1.014000000000000012e+00,-4.205916752779463308e-01,-1.608921066625041141e-01,-3.479797204348431539e-01
1.014999999999999902e+00,1.427548334148180100e-03,1.651949800926424128e-01,-1.368017671602121954e-01
1.016000000000000014e+00,3.945564844821010109e-01,4.517517436445914192e-01,1.100259225862526419e-01
1.016999999999999904e+00,6.604984201149782796e-01,5.658534526169681778e-01,3.299054119880807656e-01
1.018000000000000016e+00,6.732255074234103631e-01,4.385853917878251851e-01,4.215224063134496713e-01
1.018999999999999906e+00,4.312239431569198644e-01,1.751981393453017344e-01,3.368432440803553196e-01
1.020000000000000018e+00,7.141289129130914959e-02,-1.492480191513208820e-01,1.865155190758562287e-01
1.020999999999999908e+00,-3.428203428249611551e-01,-4.236603737648168000e-01,-5.450437271311595056e-02
1.022000000000000020e+00,-6.117817418449493783e-01,-5.352247116028880924e-01,-2.780178670480397130e-01
1.022999999999999909e+00,-6.520078102994938396e-01,-4.584470562025838580e-01,-4.019733446358008666e-01
1.024000000000000021e+00,-4.627715992674604206e-01,-1.974546563332679194e-01,-3.567395422542066763e-01
1.024999999999999911e+00,-8.202994953815591350e-02,1.144488749296573016e-01,-1.885140441863948357e-01
1.026000000000000023e+00,2.937558600153847288e-01,3.947862234393072489e-01,3.278121060088266120e-02
1.026999999999999913e+00,5.602119737886330775e-01,5.116434557301805519e-01,2.458158864035889790e-01
1.028000000000000025e+00,6.278805357223161687e-01,4.341882805758170982e-01,3.539920822064075989e-01
1.028999999999999915e+00,4.733472749928091527e-01,2.096118505540904564e-01,3.724952004524514915e-01
1.030000000000000027e+00,1.292654927123234876e-01,-1.015126382308230574e-01,2.442488966805994310e-01
1.030999999999999917e+00,-2.281133667273924914e-01,-3.405864750146729847e-01,-2.110529522112069764e-04
1.032000000000000028e+00,-5.265257243820388178e-01,-4.942509467922734379e-01,-1.902910392561686925e-01
1.032999999999999918e+00,-6.189633387086964644e-01,-4.435939328902281376e-01,-3.379310424773814270e-01
1.034000000000000030e+00,-4.813291035238585480e-01,-2.186548423068556679e-01,-3.605574065915346793e-01
1.034999999999999920e+00,-1.787312036623678047e-01,7.502882688541442913e-02,-2.377711998412082028e-01
1.036000000000000032e+00,2.070793521752116451e-01,3.341624995962502731e-01,-4.822473491080603303e-02
1.036999999999999922e+00,4.817855589590094856e-01,4.657402343117022503e-01,1.567571958660692044e-01
1.038000000000000034e+00,5.759345963308621918e-01,4.090318417475394819e-01,3.267278166084141566e-01
1.038999999999999924e+00,4.743871989753628560e-01,1.899606333231303734e-01,3.581408190449784645e-01
1.040000000000000036e+00,1.859239195870252825e-01,-5.385702614337663230e-02,2.575894568236201110e-01
1.040999999999999925e+00,-1.301259339797065373e-01,-2.839310482826179483e-01,7.458562063747405102e-02
1.042000000000000037e+00,-4.149186542961509905e-01,-4.256484584986152675e-01,-1.118412123248218037e-01
1.042999999999999927e+00,-5.395884235419292629e-01,-3.882625750466766612e-01,-2.745666985340195487e-01
1.044000000000000039e+00,-4.639982221665609474e-01,-2.101320964603834718e-01,-3.142507351256456638e-01
1.044999999999999929e+00,-2.025907747460448383e-01,2.994252119527119824e-02,-2.604721114666623261e-01
1.046000000000000041e+00,9.257655609772058591e-02,2.402937743159860584e-01,-1.092533460897422148e-01
1.046999999999999931e+00,3.675142898825845550e-01,3.784046157675330369e-01,7.078181677494722879e-02
1.048000000000000043e+00,5.009948900297767072e-01,3.634196135566613028e-01,2.493171747293587703e-01
1.048999999999999932e+00,4.430091251176347389e-01,1.945901235479270130e-01,2.901532392125980575e-01
1.050000000000000044e+00,2.340662336803136234e-01,-2.406913641335733933e-02,2.422550370788712493e-01
1.050999999999999934e+00,-5.739251550434657650e-02,-2.450436422048302143e-01,1.320850848480441819e-01
1.052000000000000046e+00,-3.158331341109276158e-01,-3.627649463890033621e-01,-3.068169582517703969e-02
1.052999999999999936e+00,-4.485561933602442708e-01,-3.470392229019922392e-01,-2.209604860757106715e-01
1.054000000000000048e+00,-4.175182701956342557e-01,-1.990939139077262943e-01,-2.788917726536135344e-01
1.054999999999999938e+00,-2.580521032071662613e-01,2.506172987068452582e-02,-2.367743720738103019e-01
1.056000000000000050e+00,2.458989999466807200e-02,1.986807877092816865e-01,-1.396701152865981455e-01
1.056999999999999940e+00,2.570620249892413001e-01,3.217569349792872568e-01,3.055963276562490005e-02
1.058000000000000052e+00,4.081989188002696500e-01,2.731814851280378598e-01,1.618067346492995939e-01
1.058999999999999941e+00,3.866628077919755935e-01,2.045337156810349000e-01,2.461797095786303624e-01
1.060000000000000053e+00,2.602441550176780583e-01,4.628769471517557230e-03,2.253391163274579834e-01
1.060999999999999943e+00,3.404214598446910975e-03,-1.385470238924927933e-01,1.639457188892763095e-01
1.062000000000000055e+00,-2.267254722283008339e-01,-2.746652116553133238e-01,-1.009474044955019009e-02
1.062999999999999945e+00,-3.566947809712205930e-01,-2.828941724861520624e-01,-1.325290388827044807e-01
1.064000000000000057e+00,-3.541003705144004643e-01,-1.764580388648684384e-01,-2.045657805177025501e-01
1.064999999999999947e+00,-2.268968777741804665e-01,5.296071571627123688e-05,-2.144438498765384449e-01
1.066000000000000059e+00,-3.171145550284856784e-02,1.272494396222528246e-01,-1.465005747659230972e-01
1.066999999999999948e+00,1.631368156620442156e-01,2.291962866831461776e-01,-4.193759793445373668e-02
1.068000000000000060e+00,2.879761784045926643e-01,2.340577065430048675e-01,7.871672559748174591e-02
1.068999999999999950e+00,2.982389222742418688e-01,1.647919540096635382e-01,1.687352655518793154e-01
1.070000000000000062e+00,2.130887650504986464e-01,5.086314248090077067e-02,1.952083688173296971e-01
1.070999999999999952e+00,7.908730978898884101e-02,-8.325268250306787354e-02,1.333349516600828844e-01
1.072000000000000064e+00,-1.074117888308940560e-01,-1.903951243649462943e-01,5.161988026138199931e-02
1.072999999999999954e+00,-2.245916917532289059e-01,-2.103867893457568028e-01,-4.842715730602902696e-02
1.074000000000000066e+00,-2.647690460915319566e-01,-1.419370554058093370e-01,-1.519210300564806937e-01
1.074999999999999956e+00,-1.956467767681509540e-01,-2.692707434726761620e-02,-1.800780555646509518e-01
1.076000000000000068e+00,-5.948177600719430774e-02,9.034162014064014978e-02,-1.449960013611585607e-01
1.076999999999999957e+00,7.811476624368408894e-02,1.661653180247963379e-01,-5.854349351357466397e-02
1.078000000000000069e+00,1.799885313788885666e-01,1.740020931183030028e-01,3.240429588490680718e-02
1.078999999999999959e+00,2.113041898346350311e-01,1.093490823299728409e-01,1.140986531574709889e-01
1.080000000000000071e+00,1.830252721796720439e-01,4.187539906082048818e-02,1.285483616137348406e-01
1.080999999999999961e+00,4.290117934920500975e-02,-7.232262095111910427e-02,1.214999696319749023e-01
1.082000000000000073e+00,-8.665985459584295281e-02,-1.071837186233000200e-01,5.816742815162462277e-02
1.082999999999999963e+00,-1.412330372592332517e-01,-1.439193202217688705e-01,-7.366140513570334451e-04
1.084000000000000075e+00,-1.693589975061776387e-01,-8.444151949756467657e-02,-9.206939072559784665e-02
1.084999999999999964e+00,-1.360972562504207395e-01,-5.497059900887956568e-02,-1.037502445649369082e-01
1.086000000000000076e+00,-4.924301705939539142e-02,2.883628553131210859e-02,-1.056806814008640627e-01
1.086999999999999966e+00,1.658304036131771214e-02,8.526486120851774209e-02,-5.858181866144288735e-02
1.088000000000000078e+00,1.071421036137946425e-01,9.041145561711960710e-02,2.828978323958146988e-03
1.088999999999999968e+00,9.097897944917533730e-02,6.533663466067925196e-02,3.142285288321224751e-02
1.090000000000000080e+00,9.543057561167171687e-02,3.211129438583570223e-02,6.552707590526560266e-02
1.090999999999999970e+00,5.754706261672918460e-02,-4.888829701112053965e-04,6.007411444225984470e-02
1.092000000000000082e+00,-1.032220245907329234e-02,-2.396536704479184515e-02,2.242582610327899934e-02
1.092999999999999972e+00,-4.770136919436999273e-02,-3.965304941425183693e-02,-1.470651672952897476e-02
1.094000000000000083e+00,-7.076918935343250172e-02,-3.795669189579142094e-02,-1.425458444488820683e-02
1.094999999999999973e+00,-6.115393307178977611e-02,-2.306719087533824070e-02,-3.669947703505622993e-02
1.096000000000000085e+00,-4.336877502568235732e-02,-2.152341976658055100e-02,-5.276338902866250374e-02
1.096999999999999975e+00,7.932296296384767562e-03,-4.553898552649069537e-03,-4.960831947315810092e-02
1.098000000000000087e+00,1.219684159049829689e-03,-4.131441735477310584e-03,6.288949372903475735e-03
1.098999999999999977e+00,1.120976024563358556e-02,2.297807344864036261e-02,1.743462578345432792e-02
1.100000000000000089e+00,4.322659877397781042e-02,2.256772174910096074e-02,-1.078405297278889341e-02
1.100999999999999979e+00,2.637321231278438871e-02,1.391069058627122414e-02,1.735498258138454611e-02
1.102000000000000091e+00,4.461439723764720755e-02,3.658293074839573389e-02,1.021693075368600677e-02
1.102999999999999980e+00,1.757126665921085809e-02,2.420933386822765598e-02,1.373896605485478740e-02
1.104000000000000092e+00,4.099348363807004542e-02,1.526305390183216315e-02,5.071384914430279505e-04
1.104999999999999982e+00,3.634121719723470978e-02,7.259015738515106446e-03,6.195861615158727333e-03
1.106000000000000094e+00,1.651569085193773517e-02,-2.985676229458927508e-02,3.105528563485348420e-02
1.106999999999999984e+00,-3.688525882687675173e-02,-7.928166927088518834e-02,2.436212009826840483e-02
1.108000000000000096e+00,-5.871995160661395985e-02,-6.800861057252237385e-02,-3.991548947173623532e-03
1.108999999999999986e+00,-8.578233148370113803e-02,-4.945262985487289265e-02,-3.531504756663120248e-02
1.110000000000000098e+00,-8.632414295328637299e-02,-2.205773123365596319e-02,-4.210682625482262825e-02
1.110999999999999988e+00,-4.798140590800762523e-02,5.914392431862842275e-02,-5.922166721525445876e-02
1.112000000000000099e+00,1.034338578001902688e-02,1.110696299980736129e-01,-3.235626876976663985e-02
1.112999999999999989e+00,1.091846756280971803e-01,1.160786884428626625e-01,5.716199042248150224e-03
1.114000000000000101e+00,1.392400704313417892e-01,1.105927325241858883e-01,1.607465576937439425e-02
1.114999999999999991e+00,1.334744400347979976e-01,2.889247596139666793e-02,7.144507001593068674e-02
1.116000000000000103e+00,1.008534052261439995e-01,-5.081277620806780998e-02,9.853360301948276001e-02
1.116999999999999993e+00,-8.925515378798615923e-03,-1.327051434868351809e-01,7.718716677667974979e-02
1.118000000000000105e+00,-1.166038553510504588e-01,-1.842513103350491011e-01,2.934515810221580492e-02
1.118999999999999995e+00,-1.907650024713028192e-01,-1.330646995051671944e-01,-2.932864819772863785e-02
1.120000000000000107e+00,-2.203079617374559540e-01,-5.341160372291865743e-02,-9.954764285291813064e-02
1.120999999999999996e+00,-1.446609215961526529e-01,4.049558408431443851e-02,-1.197490378932834498e-01
1.122000000000000108e+00,-1.768335539990216129e-02,1.692361279320681311e-01,-9.761024598045690837e-02
1.122999999999999998e+00,1.259486791516099824e-01,2.077839122626755075e-01,-6.223674173087258982e-02
1.124000000000000110e+00,2.556801197804386416e-01,1.892064183187297521e-01,1.954976528340914704e-02
1.125000000000000000e+00,2.554718751009973365e-01,7.822594993038303746e-02,8.047392608335787734e-02
1.125999999999999890e+00,1.768592982256957102e-01,-5.199908786139008365e-02,1.553609404305951180e-01
1.127000000000000002e+00,5.136003430830606009e-02,-1.976336336697886165e-01,1.387815065614687038e-01
1.127999999999999892e+00,-1.264065198545773205e-01,-2.232205280241565948e-01,7.521852133605529123e-02
1.129000000000000004e+00,-2.592020363867854615e-01,-2.208900272642719820e-01,-6.974036466027219716e-03
1.129999999999999893e+00,-3.263050492711819239e-01,-9.596178567263073667e-02,-1.095763112886671137e-01
1.131000000000000005e+00,-2.357755134645156680e-01,6.194823693503683643e-02,-1.400190787812248816e-01
1.131999999999999895e+00,-7.597646663431532887e-02,1.937173293800788509e-01,-1.722742011825325048e-01
1.133000000000000007e+00,1.331189048027392186e-01,2.841837627236564745e-01,-1.000552453338429126e-01
1.133999999999999897e+00,3.134270306254641758e-01,2.631350658344950855e-01,-3.282068296008403951e-03
1.135000000000000009e+00,3.543430908840897731e-01,1.307424986597459093e-01,1.228821878310516064e-01
1.135999999999999899e+00,2.744289891673315496e-01,-5.896578026031172592e-02,1.806665819792253880e-01
1.137000000000000011e+00,9.073252371413410844e-02,-2.222203886183295451e-01,2.083815810766820042e-01
1.137999999999999901e+00,-1.225021826079857740e-01,-3.318932262283579293e-01,1.382547589074029637e-01
1.139000000000000012e+00,-3.203299321898602225e-01,-2.865465614096169844e-01,2.797764355357846427e-02
1.139999999999999902e+00,-4.048861856292518824e-01,-1.629573424947255711e-01,-1.072021705597394348e-01
1.141000000000000014e+00,-3.372325332792028840e-01,4.544805689219804518e-02,-2.032962114084917449e-01
1.141999999999999904e+00,-1.431956678006753858e-01,2.353781218674519671e-01,-2.354958064101896620e-01
1.143000000000000016e+00,9.560636727321539241e-02,3.556753800305870739e-01,-1.816397045229056484e-01
1.143999999999999906e+00,3.297119693696697884e-01,3.219369574462856431e-01,-6.981585665304192168e-02
1.145000000000000018e+00,4.459614954915725460e-01,1.911904970746505783e-01,1.026559236766287908e-01
1.145999999999999908e+00,3.913056073989154560e-01,-2.858162504835001089e-02,1.954516153258666344e-01
1.147000000000000020e+00,1.935098745494132355e-01,-2.615050885177476747e-01,2.526461955463519260e-01
1.147999999999999909e+00,-8.548567100508269734e-02,-3.640047220525758354e-01,2.128802800154396546e-01
1.149000000000000021e+00,-3.365665446784764647e-01,-3.588763847834557930e-01,7.258986942154978250e-02
1.149999999999999911e+00,-4.740224633067565696e-01,-2.072356730854298112e-01,-6.038531139136328607e-02
1.151000000000000023e+00,-4.530116747620442363e-01,1.652868249471793269e-02,-2.289137338469559302e-01
1.151999999999999913e+00,-2.107454594558449690e-01,2.472395771341887039e-01,-2.826617943689239132e-01
1.153000000000000025e+00,4.793485277669878863e-02,4.177607565695179437e-01,-2.571083768353136789e-01
1.153999999999999915e+00,3.369619582722108153e-01,4.264099348887556706e-01,-1.425362072107669298e-01
1.155000000000000027e+00,5.046369945699411552e-01,2.370956306701667571e-01,7.547850773238362621e-02
1.155999999999999917e+00,4.974909855363047195e-01,-2.798210248180486512e-02,1.952447934421287778e-01
1.157000000000000028e+00,2.704750647567387700e-01,-2.676463635633450910e-01,2.913858098114464057e-01
1.157999999999999918e+00,-1.840340377975301089e-02,-4.259196444438159146e-01,2.857881249416727720e-01
1.159000000000000030e+00,-3.489125661352943664e-01,-4.404372527714320307e-01,1.751384894126680469e-01
1.159999999999999920e+00,-5.405183856404903731e-01,-2.736185988552387038e-01,-1.971308469055514656e-02
1.161000000000000032e+00,-5.497285235056220687e-01,-1.858387970402150882e-02,-2.034444910503753756e-01
1.161999999999999922e+00,-3.271056060165441481e-01,2.801597956686302515e-01,-3.154501164747792186e-01
1.163000000000000034e+00,-1.186383998428341448e-02,4.452396462339489602e-01,-3.167595052085271368e-01
1.163999999999999924e+00,3.408298183378635771e-01,4.803176990592965545e-01,-2.087522101284524922e-01
1.165000000000000036e+00,5.618022969541326406e-01,2.962900770674338213e-01,2.929628419753592655e-03
1.165999999999999925e+00,5.885877148298341854e-01,1.056216465278690154e-02,1.775483875414374246e-01
1.167000000000000037e+00,3.926849267624548112e-01,-2.786994480462539059e-01,3.070348831627737196e-01
1.167999999999999927e+00,8.907108289823977010e-02,-4.621218550661315150e-01,3.497897616675205157e-01
1.169000000000000039e+00,-3.236161875560842338e-01,-4.770113679690443087e-01,2.418549630727029887e-01
1.169999999999999929e+00,-5.568635699604084222e-01,-3.364068770816545650e-01,4.118266061351417984e-02
1.171000000000000041e+00,-6.181438357536167549e-01,-5.731073634475753603e-02,-1.532804477973384316e-01
1.171999999999999931e+00,-4.379829964674957221e-01,2.650154081479414447e-01,-3.318497022768233107e-01
1.173000000000000043e+00,-9.608154993197735860e-02,4.856500150384056580e-01,-3.618173991568344183e-01
1.173999999999999932e+00,2.960865200977296219e-01,5.252276257168193574e-01,-2.721193692832764577e-01
1.175000000000000044e+00,5.976868911262601669e-01,3.396883730831967152e-01,-1.009564245018892553e-01
1.175999999999999934e+00,6.789803766916411298e-01,6.250602603085460285e-02,1.484805216151510177e-01
1.177000000000000046e+00,4.579901993781058667e-01,-2.775141669065573358e-01,3.223525253361753107e-01
1.177999999999999936e+00,1.492799867477781761e-01,-4.922485098832570238e-01,3.986295802352688433e-01
1.179000000000000048e+00,-2.593723233172253173e-01,-5.298873691362078198e-01,3.405231359304344285e-01
1.179999999999999938e+00,-5.608425271307337923e-01,-3.813929923190377269e-01,1.272114008818356901e-01
1.181000000000000050e+00,-6.919856665571733068e-01,-6.685706182025227817e-02,-1.106605945931532220e-01
