time,acc_x,acc_y,acc_z
0.000000000000000000e+00,-3.032203047528481826e-03,-3.831125673661339021e-02,3.153751618760496176e-03
1.000000000000000021e-03,-3.794054515251991944e-02,-1.305513752132727093e-02,-2.318497929144671885e-02
2.000000000000000042e-03,-4.664502582763910971e-02,-3.210522247636292403e-02,1.577685092349265239e-02
3.000000000000000062e-03,-4.992704269732787387e-02,-5.440145005683439533e-02,-3.074566502797307019e-02
4.000000000000000083e-03,-6.018482251987072873e-02,-4.320587110973633793e-02,-4.011454116672380499e-02
5.000000000000000104e-03,-4.937710464686129175e-02,-3.497441980247358723e-02,-5.336482337294580491e-02
6.000000000000000125e-03,-6.349335695639921062e-02,-2.710361925312629316e-02,-3.877723720764039705e-02
7.000000000000000146e-03,-3.325700206891838567e-02,-2.120859604032018786e-02,-3.943025607132479710e-02
8.000000000000000167e-03,-2.866809457600559899e-02,-2.641468681200775590e-02,-1.316769197921425008e-02
8.999999999999999320e-03,-2.589369932514800406e-03,-2.255428288742725336e-03,5.756865241472271764e-03
1.000000000000000021e-02,1.347491523337446956e-02,2.681739767330585875e-02,-1.895638603113918713e-02
1.099999999999999936e-02,3.213692899971205136e-02,4.233775420473362416e-02,9.641603431812667546e-04
1.200000000000000025e-02,4.652202581014932420e-02,4.068517214791503300e-02,1.825112218610428633e-02
1.299999999999999940e-02,4.355997739716348238e-02,5.427497487110127805e-02,3.524781193884049535e-02
1.400000000000000029e-02,5.562278351290327744e-02,4.165903044519626841e-02,4.334981301940620674e-02
1.499999999999999944e-02,3.581171271446328963e-02,3.910314225040113084e-02,4.725157329879445950e-02
1.600000000000000033e-02,4.181199463651556064e-02,1.339721266864604514e-02,4.628255754856107351e-02
1.700000000000000122e-02,1.267375430961396529e-02,1.951618032039522744e-03,2.925789062921837699e-02
1.799999999999999864e-02,1.381992066795494079e-02,8.153675953630472751e-04,3.339654865391129823e-02
1.899999999999999953e-02,2.487948089600322196e-02,-8.212884282079113696e-03,1.990250211843204442e-02
2.000000000000000042e-02,-2.062275638746924322e-02,-3.049572731807818904e-02,2.062679865014731967e-02
2.100000000000000130e-02,-3.007980141954061035e-02,-4.323565152213538348e-02,-1.585689014065473764e-04
2.199999999999999872e-02,-3.252799848309151365e-02,-7.455516167767335667e-02,6.276756853305794602e-03
2.299999999999999961e-02,-4.686327204379446554e-02,-5.335762198205448031e-02,-2.644183922921233137e-02
2.400000000000000050e-02,-3.914902647367152211e-02,-5.645899635035830227e-02,-4.966853881869135595e-02
2.500000000000000139e-02,-5.784211225046459459e-02,-4.639251618820742357e-02,-3.658317771660236223e-02
2.599999999999999881e-02,-6.099223844325486754e-02,-3.262101433477967299e-02,-4.764567438427056573e-02
2.699999999999999969e-02,-5.840884246079539044e-02,-2.911846703502246961e-03,-4.559223587993752741e-02
2.800000000000000058e-02,-2.968452827838270400e-02,-6.243625320542879392e-04,-3.019735876224027490e-02
2.900000000000000147e-02,-7.485037428817531771e-03,1.799139304470302736e-02,-1.893268463610844540e-02
2.999999999999999889e-02,6.953783658315279732e-03,2.360992114456864771e-02,-1.878575549163971972e-02
3.099999999999999978e-02,3.785677292328184368e-02,3.672573886870917487e-02,-3.052276245385529205e-03
3.200000000000000067e-02,5.450339826353255840e-02,4.352252065307068984e-02,-3.108082820814186010e-03
3.300000000000000155e-02,4.056599840004510016e-02,3.024703380139824940e-02,2.260053656667580790e-02
3.400000000000000244e-02,3.732322349125237471e-02,2.175373148226576389e-02,3.235774574927841735e-02
3.500000000000000333e-02,5.795098836694380362e-02,3.677377185100123153e-02,3.906581695691634798e-02
3.599999999999999728e-02,5.907436297609212211e-02,2.451077233230378530e-02,4.312763692827424611e-02
3.699999999999999817e-02,2.352009174688052956e-02,6.352155109351093889e-04,1.934026015826174200e-02
3.799999999999999906e-02,2.802179470371635173e-02,-7.737755246048168625e-03,7.378651608476981434e-03
3.899999999999999994e-02,2.013913594000284538e-02,-1.118419176591731873e-02,1.226859725000589534e-02
4.000000000000000083e-02,-1.247956786115070327e-02,-1.430776914031337346e-02,1.792469736940409397e-02
4.100000000000000172e-02,-2.688704456308419269e-02,-3.816868996949098619e-02,2.999545696337924117e-03
4.200000000000000261e-02,-3.450221119361112504e-02,-9.234172792975480978e-03,-7.229395923241373548e-03
4.299999999999999656e-02,-4.633061010709103866e-02,-5.153673445499021982e-02,-1.272498666250111883e-02
4.399999999999999745e-02,-3.719519961845575706e-02,-3.478541407039995731e-02,-1.982810631447015637e-02
4.499999999999999833e-02,-3.812536353650409354e-02,-1.829797315592141677e-02,-1.707538311812310111e-02
4.599999999999999922e-02,-4.582364554171595300e-02,-2.623178487703998335e-02,-4.906234458710970192e-02
4.700000000000000011e-02,-5.010617812924909875e-02,-9.200837903256707181e-03,-5.098870212786569406e-02
4.800000000000000100e-02,-2.796728436139418392e-02,-6.336974631736232329e-03,-2.432243541787684066e-02
4.900000000000000189e-02,4.955165586561829580e-03,-2.631873586012639307e-03,-8.346480682132177004e-03
5.000000000000000278e-02,1.258895077644214648e-02,2.266406751139032200e-02,1.384109481934207506e-03
5.099999999999999672e-02,2.266007606267263219e-02,1.887223581403665515e-02,-2.135392566345287787e-03
5.199999999999999761e-02,3.830483369871327815e-02,2.311737744521004390e-02,1.089079864366754129e-03
5.299999999999999850e-02,4.768419119147791069e-02,3.168872767245712457e-02,3.009877421180424603e-02
5.399999999999999939e-02,5.644642407716918275e-02,3.468906777334566927e-02,1.893184450562544058e-02
5.500000000000000028e-02,5.573658144171940443e-02,5.276188639839855116e-02,4.620035798629602841e-02
5.600000000000000117e-02,5.526003582705252271e-02,1.720422079332150841e-02,3.965658477272061833e-02
5.700000000000000205e-02,4.214993327958362762e-02,2.871423405411516975e-03,2.402284296949039333e-02
5.800000000000000294e-02,2.188194983994199219e-02,2.644942976424188852e-03,2.608563223889541483e-02
5.899999999999999689e-02,1.426343209758103477e-02,-4.662414434106734208e-03,1.462247667555150593e-02
5.999999999999999778e-02,-4.336940107291384176e-03,-2.299914225465550868e-02,3.712989064036718162e-02
6.099999999999999867e-02,-2.051817089550494327e-02,-4.030261378530740346e-02,8.845705324808892170e-03
6.199999999999999956e-02,-3.507495133756021594e-02,-2.692944695675556985e-02,5.378509510624156741e-03
6.300000000000000044e-02,-6.246961500814763452e-02,-3.277483361286422092e-02,-1.621958574068745398e-03
6.400000000000000133e-02,-5.688228010524955941e-02,-4.200399499876499021e-02,-1.990055744334678564e-02
6.500000000000000222e-02,-4.717539303679420953e-02,-9.373717374569743438e-03,-2.946325412728319909e-02
6.600000000000000311e-02,-4.977940298081091897e-02,-1.707303807176757671e-02,-3.134133436286015706e-02
6.700000000000000400e-02,-2.351177480413928211e-02,1.230407517301469441e-03,-4.906175209677219456e-02
6.800000000000000488e-02,-2.036787591384577045e-02,-6.414445054118439286e-03,-2.208713422888181413e-02
6.900000000000000577e-02,-1.802353044173245558e-02,8.213843020791327179e-03,-1.450262489072671676e-02
7.000000000000000666e-02,1.520743728108201430e-02,2.426152762354452999e-02,-1.446372976773136615e-02
7.099999999999999367e-02,2.511355642075231015e-02,3.001823682579663616e-02,-2.788205175384806528e-02
7.199999999999999456e-02,3.581505925996759238e-02,3.197024536961615149e-02,1.117418757435922590e-03
7.299999999999999545e-02,3.605391688144395090e-02,1.797642791486564126e-02,2.533585765903072565e-02
7.399999999999999634e-02,5.631313489246835696e-02,2.767765407159517022e-02,3.092243754954722163e-03
7.499999999999999722e-02,6.615212589053688641e-02,3.518312914095658023e-02,2.680144504028221519e-02
7.599999999999999811e-02,5.310065574264934835e-02,2.749299173175121652e-02,2.181928518777156295e-02
7.699999999999999900e-02,4.928244495398019509e-02,1.258124987368242076e-02,2.175358809169536736e-02
7.799999999999999989e-02,4.745638525316947520e-02,4.418699376007310248e-03,1.338105084916183310e-02
7.900000000000000078e-02,3.147976470003100487e-03,-1.646559297793977888e-02,1.923652252089584624e-02
8.000000000000000167e-02,7.661102852861087671e-03,-4.734450754099665815e-03,2.186985010891072043e-02
8.100000000000000255e-02,-1.048512496415003950e-02,-2.760311922486999303e-02,1.600792081281128543e-02
8.200000000000000344e-02,-3.467399861546874296e-02,-3.891877497825058096e-02,2.395730334778797127e-03
8.300000000000000433e-02,-2.218331628785519261e-02,-4.104273206975592170e-02,9.259717854352895496e-04
8.400000000000000522e-02,-4.805577678543516279e-02,-6.097706257974189192e-02,-3.964924079789933220e-02
8.500000000000000611e-02,-4.074610561228469985e-02,-3.665757230897186830e-02,-2.560390938584108586e-02
8.599999999999999312e-02,-4.573863154675435194e-02,-2.529038790663548295e-02,-2.225517655826712501e-02
8.699999999999999400e-02,-4.423141322609266957e-02,-2.044153992932027514e-02,-2.203406487500662869e-02
8.799999999999999489e-02,-1.889791408847789345e-02,-1.483595661465182333e-02,-2.825536348302468484e-02
8.899999999999999578e-02,-1.862726252357875187e-02,-1.293756519521856597e-03,-1.505556810280406048e-02
8.999999999999999667e-02,1.191327945258744032e-02,8.813761232283195968e-03,-1.838797350305368741e-02
9.099999999999999756e-02,2.868845757887861919e-02,4.109049303698863315e-02,-1.527917190294014217e-03
9.199999999999999845e-02,1.902523979393061851e-02,4.052880924264732482e-02,5.060869414817127654e-03
9.299999999999999933e-02,3.347646344200179425e-02,4.771495981618973509e-02,2.000965589600364053e-02
9.400000000000000022e-02,5.431732986919335371e-02,4.200991611411390714e-02,3.589159718686790040e-02
9.500000000000000111e-02,3.637293177070224925e-02,3.072281194757851830e-02,1.954800999815310344e-02
9.600000000000000200e-02,4.879389059894299191e-02,2.604951035003587670e-02,2.025120434199410499e-02
9.700000000000000289e-02,3.181241010693183768e-02,2.319192912488631658e-02,3.594511012090807062e-02
9.800000000000000377e-02,4.020779441181800140e-02,1.874671792894106598e-02,2.468656169272490791e-02
9.900000000000000466e-02,-3.352372372817620256e-03,-1.713557435962938594e-02,3.251096536647850310e-02
1.000000000000000056e-01,-1.087521655708452613e-02,-4.730824105523646211e-02,2.683705316983869132e-02
1.010000000000000064e-01,-1.763814964629729573e-02,-2.443101510954606703e-02,-5.485744995511424461e-04
1.019999999999999934e-01,-2.994562562613146614e-02,-2.962225694292501196e-02,-9.360921929760453869e-03
1.029999999999999943e-01,-5.319283293305743232e-02,-2.779437225605472031e-02,8.588602368414757771e-03
1.039999999999999952e-01,-4.844630000549002974e-02,-3.626439747698047278e-02,-1.663787788862712905e-02
1.049999999999999961e-01,-2.110475757409226508e-02,-2.089989283763605404e-02,-3.409170393304121471e-02
1.059999999999999970e-01,-5.626900813737892998e-02,-2.187046198586917525e-02,-4.897174691811716912e-02
1.069999999999999979e-01,-4.032060956719388939e-02,-1.999336705473964831e-02,-1.781819610524529654e-02
1.079999999999999988e-01,-3.253730153447432355e-02,-5.910781139448455755e-03,-2.999437515498928550e-02
1.089999999999999997e-01,-3.480340712499843669e-02,2.182850841891743193e-02,-8.320722429564096981e-03
1.100000000000000006e-01,1.701227942712178320e-03,5.498414991784625339e-02,-2.697671028801550824e-02
1.110000000000000014e-01,1.865256091296316199e-02,3.488964695441058167e-02,-2.907933935260635649e-02
1.120000000000000023e-01,2.953068451479821249e-02,5.041057634359058515e-02,-1.125822552232477042e-02
1.130000000000000032e-01,6.161614282889536082e-02,2.959037943487092051e-02,1.534853018498371323e-02
1.140000000000000041e-01,6.930695351013821393e-02,2.905023683229955231e-02,1.261215464504298125e-02
1.150000000000000050e-01,4.887131048676403994e-02,3.531598494029669633e-02,2.482571846873959931e-02
1.160000000000000059e-01,5.608988814756050295e-02,3.566807309208876869e-02,2.186353322036232311e-02
1.170000000000000068e-01,3.988804989334136797e-02,1.675435058543309208e-02,2.096547485332340630e-02
1.179999999999999938e-01,3.634399738600675722e-02,-1.472987603811860315e-02,3.038883645036483463e-02
1.189999999999999947e-01,2.534401575625259626e-03,-1.253366131125757850e-02,3.062772553309181175e-02
1.199999999999999956e-01,-1.362275926851266123e-03,-4.479712016643502132e-02,1.302479771643109442e-02
1.209999999999999964e-01,-1.078396875499678699e-02,-4.323162327533996291e-02,2.113250738367565204e-02
1.219999999999999973e-01,-1.717271454498454919e-02,-2.915118839599240355e-02,9.630853858233517223e-03
1.229999999999999982e-01,-4.940252836034138284e-02,-3.262330959507069028e-02,-1.076492827698270933e-02
1.239999999999999991e-01,-3.952272120335875716e-02,-4.630556092845194982e-02,-5.200729574675470694e-03
1.250000000000000000e-01,-4.989419328944631749e-02,-2.257539844821752906e-02,-1.917388803870812702e-02
1.260000000000000009e-01,-6.725460440420569230e-02,-1.803275182540017840e-02,-3.063562945426731229e-02
1.270000000000000018e-01,-4.167405060915779086e-02,-2.030397537709328556e-02,-2.263902866582487294e-02
1.280000000000000027e-01,-1.943332177245806272e-02,-1.538653871325468790e-02,-1.832039640397977592e-02
1.290000000000000036e-01,-2.781028463168925061e-02,7.433871270738250710e-04,-3.381130361187241473e-02
1.300000000000000044e-01,1.702878883734044307e-02,1.494295542619116651e-02,-1.141417763996454074e-02
1.310000000000000053e-01,4.264923609532159446e-03,2.643592802991635154e-02,-1.183796765635749745e-02
1.320000000000000062e-01,2.489948854654042143e-02,4.925880987266501032e-02,-8.339794903628953981e-03
1.330000000000000071e-01,5.228746224819353500e-02,5.954816796255849726e-02,-1.171059541654674054e-02
1.340000000000000080e-01,6.317271193208402746e-02,3.873327864507523921e-02,-2.757789128307547820e-03
1.350000000000000089e-01,4.386915527995494113e-02,4.725351358693455350e-02,1.729943729429759408e-02
1.360000000000000098e-01,6.885410142749043283e-02,3.662178059238978267e-02,3.870681186156169767e-02
1.370000000000000107e-01,3.402353634347338868e-02,4.345702136090295181e-02,2.668888394690534238e-02
1.380000000000000115e-01,3.293572483084892394e-02,-3.224001796922269791e-02,4.423347817354021660e-02
1.390000000000000124e-01,2.660389465121526867e-02,8.484848858718899937e-04,3.652418851293169622e-02
1.400000000000000133e-01,1.772478217156834082e-02,-3.598164270117427954e-02,2.402136786373329849e-02
1.409999999999999865e-01,-2.444487401959034856e-02,-5.101555537545015423e-02,2.721619481632635285e-02
1.419999999999999873e-01,1.630936697467112425e-03,-5.972486447564131357e-02,1.162659979160517165e-02
1.429999999999999882e-01,-4.500861096344066503e-02,-6.103807224864487430e-02,-1.379165653779419612e-03
1.439999999999999891e-01,-5.282666001385113996e-02,-6.257117409936643893e-02,1.038876955371497227e-02
1.449999999999999900e-01,-5.810138794646250993e-02,-4.686496410159274317e-02,-1.354587566336636940e-02
1.459999999999999909e-01,-3.810914002253151106e-02,-2.498699626643128419e-02,-1.788236635463963387e-02
1.469999999999999918e-01,-3.678275236425786188e-02,-3.407925399802618632e-02,-3.388206523232881878e-02
1.479999999999999927e-01,-4.142141428827453287e-02,-1.911570969503709541e-02,-2.905602522977457358e-02
1.489999999999999936e-01,-2.723734297103794569e-02,2.577416383379710699e-02,-3.232716842722973410e-02
1.499999999999999944e-01,-3.063964751220442373e-02,4.120012522471970529e-02,-3.662046030069388003e-02
1.509999999999999953e-01,1.758346190375931900e-02,4.088269447178925070e-02,-1.259105655658070665e-02
1.519999999999999962e-01,2.485421983246655087e-02,2.432028378741176583e-02,-1.328849716461715305e-02
1.529999999999999971e-01,5.252032656937172250e-02,2.688366908560009191e-02,2.157642685748211234e-02
1.539999999999999980e-01,6.245239509816334633e-02,5.027830006098278626e-02,7.664351217600748854e-03
1.549999999999999989e-01,8.034946964637028344e-02,1.969537672466459624e-02,1.314109947526758554e-02
1.559999999999999998e-01,5.967608910195322525e-02,1.963150304435480262e-02,2.893611672795300821e-02
1.570000000000000007e-01,6.058787052309386884e-02,2.626670641345748864e-03,4.570242809121191629e-02
1.580000000000000016e-01,3.727568324582605092e-02,9.645469293231156635e-03,3.139703971619790812e-02
1.590000000000000024e-01,2.622409775078346494e-02,-2.518877596196619773e-02,3.352739050786683606e-02
1.600000000000000033e-01,8.737524076882467391e-03,-3.929742382864415129e-02,4.036862781280489698e-02
1.610000000000000042e-01,-1.981809748726446468e-02,-3.099008983218113147e-02,1.777305350764929459e-02
1.620000000000000051e-01,-1.674896764023679069e-02,-5.128051089618310826e-02,1.400849932004479166e-02
1.630000000000000060e-01,-3.370514089866216006e-02,-5.223190305959796859e-02,7.346260257682143274e-03
1.640000000000000069e-01,-4.574171434667399089e-02,-3.526722384591651771e-02,-2.402854488913435185e-02
1.650000000000000078e-01,-6.098441663457092321e-02,-3.290755006048632497e-02,2.783039741004798059e-03
1.660000000000000087e-01,-5.764357875881227083e-02,-9.824898265428280361e-03,-1.871948755949362150e-02
1.670000000000000095e-01,-4.355851062325692691e-02,-1.029498753580689908e-02,-2.100505856481690165e-02
1.680000000000000104e-01,-5.173459196222743306e-02,1.051702766285621087e-02,-5.108293835160257479e-02
1.690000000000000113e-01,-1.330059867674059787e-02,1.200555881237201904e-04,-6.825249168661397248e-02
1.700000000000000122e-01,-5.491653543293582851e-03,3.772002055467497950e-02,-2.787072079337539476e-02
1.710000000000000131e-01,2.530485934824471591e-03,2.144756613976284837e-02,-9.171007506203641621e-03
1.719999999999999862e-01,1.480537648984944776e-02,4.026484908944678170e-02,-1.011786735961265823e-02
1.729999999999999871e-01,3.111169954788825867e-02,4.632608265060274982e-02,1.425938759029094643e-02
1.739999999999999880e-01,4.999743945095490305e-02,4.810571084775225326e-02,7.564219582573123921e-03
1.749999999999999889e-01,7.851613805429931425e-02,6.500666704277915930e-02,-9.817359580629721281e-04
1.759999999999999898e-01,5.042369253040291516e-02,1.384885132254833583e-02,4.196783435074243063e-02
1.769999999999999907e-01,6.569198107195632630e-02,4.028711050536010890e-02,2.457789850053743869e-02
1.779999999999999916e-01,3.064806782636372504e-02,-8.416581068249228336e-04,2.437077504995911054e-02
1.789999999999999925e-01,1.705085872213079820e-02,-3.124978079923844410e-02,4.654762462093443853e-02
1.799999999999999933e-01,2.301356523607259522e-02,-2.366441373219532740e-02,2.486784262024168551e-02
1.809999999999999942e-01,1.102817432519425170e-02,-1.482821480198146490e-02,4.797433844476874792e-02
1.819999999999999951e-01,-1.744629877186855069e-02,-3.719369799062502424e-02,2.603286121031980673e-03
1.829999999999999960e-01,-4.826704184709593171e-02,-4.738784060049015812e-02,3.147126475532635581e-02
1.839999999999999969e-01,-5.535705242687983391e-02,-3.882529326633002431e-02,-1.153312791985584840e-02
1.849999999999999978e-01,-4.316552910519526332e-02,-3.153882261882298699e-02,-8.386493339749088310e-03
1.859999999999999987e-01,-4.262828599050270256e-02,-2.732901922308458506e-02,-8.868874311299972460e-03
1.869999999999999996e-01,-4.554364765620377148e-02,-1.300448202829951241e-03,-2.149011529797035386e-02
1.880000000000000004e-01,-3.565775905114405842e-02,9.251420289411668024e-03,-4.426021236087919475e-02
1.890000000000000013e-01,-2.627354893801640834e-02,4.971827723042296018e-03,-2.066717981354726161e-02
1.900000000000000022e-01,8.867074605857106634e-04,1.599410890707124444e-02,-1.464960083161019784e-02
1.910000000000000031e-01,4.195883204724261059e-03,4.166388661352809358e-02,-1.392288908281687221e-02
1.920000000000000040e-01,3.432244011953839574e-02,3.359791528962106227e-02,-8.911349819225306348e-03
1.930000000000000049e-01,2.874040472613969763e-02,3.513202326919113994e-02,-1.007065726891506058e-02
1.940000000000000058e-01,5.815711098720630079e-02,2.864513866002630846e-02,6.825832264587978690e-03
1.950000000000000067e-01,4.972976168798232816e-02,3.359464830096822036e-02,1.110944483286941363e-02
1.960000000000000075e-01,5.633976390562551312e-02,1.960928649474576527e-02,3.241959541512239029e-02
1.970000000000000084e-01,5.628029510028954852e-02,1.061703967830735645e-02,3.429131402763927611e-02
1.980000000000000093e-01,2.841109556483504758e-02,1.132617712075001436e-03,3.836276687649665257e-02
1.990000000000000102e-01,2.087972305288701702e-02,-1.563642144307307233e-02,3.093092731708634371e-02
2.000000000000000111e-01,6.966827794676685656e-03,-4.997190473519087794e-02,1.549656626900303320e-02
2.010000000000000120e-01,-2.098707151098028537e-02,-2.476322627199083887e-02,3.862222090966765942e-02
2.020000000000000129e-01,-1.729920369076556885e-02,-3.932153152726787504e-02,9.512366693248999402e-03
2.030000000000000138e-01,-4.042733759491715789e-02,-6.040117983419519831e-02,1.938713368327597830e-02
2.039999999999999869e-01,-6.285907557038623861e-02,-4.724777759055639320e-02,9.542592414054829508e-05
2.049999999999999878e-01,-6.010660330554979530e-02,-4.218058626566902058e-02,-1.396834668905751111e-03
2.059999999999999887e-01,-4.621030347178640973e-02,-3.952867212401081631e-02,-2.662755508287169021e-03
2.069999999999999896e-01,-5.461531021465246966e-02,5.245605588400521421e-03,-2.694143491813537350e-02
2.079999999999999905e-01,-4.133568130131130836e-02,1.340017163473345568e-02,-1.662234911782366209e-02
2.089999999999999913e-01,-3.359323251982566927e-02,2.792521904342369285e-02,-3.382949233470263634e-02
2.099999999999999922e-01,-1.303067157643880355e-02,4.431817333257277031e-02,-3.879692327285808734e-02
2.109999999999999931e-01,2.686573995823110170e-02,2.114465264517285600e-02,-1.985123658377479020e-02
2.119999999999999940e-01,-3.593490812798509019e-03,4.170579347927277913e-02,-2.145833362412964337e-02
2.129999999999999949e-01,1.083022171425136737e-02,3.738285040809131293e-02,-1.507697774342310788e-02
2.139999999999999958e-01,3.921510994090054297e-02,4.887402936350490612e-02,2.347123967242896892e-03
2.149999999999999967e-01,6.285901529089890638e-02,6.094143252401616057e-02,1.179810384949538061e-03
2.159999999999999976e-01,3.314027282030788946e-02,1.765375643352050036e-02,-1.846338667535220995e-03
2.169999999999999984e-01,3.815717867783794542e-02,-9.316115063668271856e-03,1.255354625622549618e-02
2.179999999999999993e-01,5.551695784565294223e-02,-7.585411699116496919e-04,2.196587764611575289e-02
2.190000000000000002e-01,3.736439421581722042e-02,-3.455277944219974778e-02,3.245696529617282666e-02
2.200000000000000011e-01,-2.617958931154317805e-03,-3.347012610273719657e-02,1.946947023674589633e-02
2.210000000000000020e-01,-1.272727087774304898e-02,-6.010675138483166646e-02,4.343697633477788811e-02
2.220000000000000029e-01,-1.333825299004115332e-02,-3.293468046445392067e-02,2.379359358926935730e-02
2.230000000000000038e-01,-3.554869355829065602e-02,-2.994784977472941118e-02,-9.542595229695765083e-03
2.240000000000000047e-01,-5.009884781511281249e-02,-3.554069064059246774e-02,8.436309425108836496e-03
2.250000000000000056e-01,-6.661713805376040520e-02,-3.833574014464142393e-02,-1.544829344381860869e-02
2.260000000000000064e-01,-4.273406622113887915e-02,-1.882325804044898687e-02,-2.874893692517565061e-02
2.270000000000000073e-01,-7.790279503529241867e-02,-4.806311808835003925e-03,-8.559732580611028457e-03
2.280000000000000082e-01,-3.529496128447220937e-02,-1.992976934525878159e-03,-3.014314222104295601e-02
2.290000000000000091e-01,-2.800861980577217664e-02,1.591792614287092580e-02,-4.196759780303438436e-02
2.300000000000000100e-01,-3.232811428305512602e-02,2.323619499805521307e-02,-4.470855903316144769e-02
2.310000000000000109e-01,5.266194315909882538e-03,2.936071399786068653e-02,-2.676565477706376386e-02
2.320000000000000118e-01,7.592493392041281021e-03,4.468226406811541540e-02,-2.634993016438142571e-02
2.330000000000000127e-01,3.556225772026080229e-02,4.409232157358648069e-02,-1.279791052765237060e-02
2.340000000000000135e-01,3.619010657126486841e-02,3.095116050496933904e-02,-3.452153934763260625e-03
2.349999999999999867e-01,5.023047997773295165e-02,2.584087807539508369e-02,7.024904379943745086e-03
2.359999999999999876e-01,4.578293730650110499e-02,2.020339899630228808e-02,1.613615492966732207e-02
2.369999999999999885e-01,5.558310753087161021e-02,2.541679176795801423e-02,1.241825500887290198e-02
2.379999999999999893e-01,5.664832750148206253e-02,-2.959247957543103408e-02,2.080934698929002083e-02
2.389999999999999902e-01,3.359955234587760214e-02,-9.138230353556001107e-03,1.754457614560707077e-02
2.399999999999999911e-01,1.756109048081736304e-02,-2.660132044805005314e-02,1.121684767054816068e-02
2.409999999999999920e-01,1.104031861191812416e-02,-4.400272763483625144e-02,2.141968154147205414e-02
2.419999999999999929e-01,-1.070815009136888603e-02,-3.969281568882864625e-02,1.481394899328943027e-02
2.429999999999999938e-01,-1.296183890927279057e-02,-4.063855816589809211e-02,4.598819203035475756e-02
2.439999999999999947e-01,-3.994636416570557236e-02,-5.020767056869640532e-02,5.675975057748906989e-03
2.449999999999999956e-01,-5.417614879831834235e-02,-4.005638025176707501e-02,1.068691608671733543e-03
2.459999999999999964e-01,-6.075405562311342322e-02,-1.073696263067520050e-02,3.171966979946407462e-03
2.469999999999999973e-01,-4.731833858251437847e-02,-3.264881705932535377e-02,-1.971969591122392160e-02
2.479999999999999982e-01,-3.723048463735244978e-02,1.040382716872074141e-02,-5.360299520801373868e-02
2.489999999999999991e-01,-2.609632889950986440e-02,1.743318734990171454e-02,-2.789266760542256918e-02
2.500000000000000000e-01,-3.238703246033891592e-02,2.142191286608158274e-02,-3.578603319710167013e-02
2.510000000000000009e-01,5.609986450445299949e-03,1.714356021619292680e-02,-4.134459330985627845e-02
2.520000000000000018e-01,1.480819266015642385e-02,6.793074104679730496e-02,-3.008448612240366415e-02
2.530000000000000027e-01,1.535440248555718090e-02,3.652973472926671766e-02,-1.016890624017626745e-03
2.540000000000000036e-01,3.245237603051508157e-02,1.024394654289863087e-02,-1.227626738403572726e-02
2.550000000000000044e-01,3.845148731180950130e-02,4.561362170959982337e-02,1.418782635367681804e-03
2.560000000000000053e-01,4.561521006528352490e-02,2.521045870137849504e-02,2.691457034573247961e-02
2.570000000000000062e-01,4.602827438578903363e-02,8.347649046341660065e-03,-2.425280477690278970e-03
2.580000000000000071e-01,3.651439033420644797e-02,-1.025286237180216171e-02,3.819243694429017705e-02
2.590000000000000080e-01,2.549212217321862248e-02,-3.769474911039500525e-02,4.296977936602930370e-02
2.600000000000000089e-01,3.851258523578575399e-02,-3.892575583986390697e-02,3.744917036018980544e-02
2.610000000000000098e-01,8.970607086228658128e-03,-4.238695036272389222e-02,1.626303346993953139e-02
2.620000000000000107e-01,-2.594964047475901200e-03,-4.605419029933178338e-02,3.759030745839913451e-02
2.630000000000000115e-01,-2.074486538159226248e-02,-4.600363754266102723e-02,1.673365895424667321e-02
2.640000000000000124e-01,-2.241174480016400183e-02,-2.822194908073033179e-02,1.123808398275078120e-02
2.650000000000000133e-01,-3.107206892454289146e-02,-2.844101690592614612e-02,8.212619247670730274e-03
2.660000000000000142e-01,-3.955686825216520042e-02,-3.010200875570505710e-02,-6.599855227344187704e-03
2.670000000000000151e-01,-6.007653841654987670e-02,-1.958660576196333616e-02,-2.205925818937515964e-02
2.680000000000000160e-01,-4.861445050754800018e-02,3.350799810103171836e-03,-3.660467432564167706e-02
2.690000000000000169e-01,-1.235707899401533236e-02,7.705071790540458151e-04,-4.349924202737927986e-02
2.700000000000000178e-01,-4.490900016888826202e-03,3.271561694856257863e-02,-3.882122884217541897e-02
2.710000000000000187e-01,7.388305737398260901e-03,2.992140855112016690e-02,-3.202830921764321381e-02
2.720000000000000195e-01,8.891554874858302203e-04,4.747324137363068824e-02,-1.792979813837921113e-02
2.730000000000000204e-01,3.046488058678664679e-02,2.248063130991804007e-02,-4.320298583633387472e-03
2.740000000000000213e-01,3.422634046081807213e-02,5.737602909601137446e-02,-3.936767046837828625e-03
2.750000000000000222e-01,3.120751734635233976e-02,3.476721968535819579e-02,-2.465551087760681562e-02
2.760000000000000231e-01,5.436693093982918057e-02,2.439606127747763475e-02,3.866395159205183226e-03
2.770000000000000240e-01,4.171161961039207555e-02,3.722476114800235460e-03,1.402951334423153430e-02
2.780000000000000249e-01,3.199927284829334057e-02,-8.084230609317904701e-03,5.092353318042847771e-02
2.790000000000000258e-01,4.720379775988291227e-02,-1.852469090627913151e-02,2.115481874271864585e-02
2.800000000000000266e-01,1.342954624667446091e-02,-3.838445484672559083e-02,2.570613245170835434e-02
2.810000000000000275e-01,1.260572398839268984e-02,-4.020945254778499067e-02,4.881182627436228549e-02
2.819999999999999729e-01,4.731652000681018429e-04,-5.371908594594699410e-02,4.205238055230445943e-02
2.829999999999999738e-01,-2.327316481708758752e-02,-4.138104448475530411e-02,2.000651830943915577e-02
2.839999999999999747e-01,-3.475044898089370282e-02,-2.539376456414664182e-02,6.713876185913545541e-03
2.849999999999999756e-01,-4.610878403888336169e-02,-3.377551236621542663e-02,-1.821144547814943643e-02
2.859999999999999765e-01,-5.282509433577430719e-02,-2.318533916505569753e-02,-9.573909409693048822e-03
2.869999999999999774e-01,-3.988291293791745851e-02,-1.804718573448804708e-02,-1.815301397134709213e-02
2.879999999999999782e-01,-4.479135076307010077e-02,1.561851160375503714e-02,-2.821997184512617038e-02
2.889999999999999791e-01,-6.574410590413609645e-02,6.086824619693691554e-03,-4.846771457817478090e-02
2.899999999999999800e-01,-2.493100841510283508e-02,3.336050999746632828e-02,-7.266516386120978714e-03
2.909999999999999809e-01,3.520112791849722231e-03,3.348645081311887178e-02,-2.865398096007764142e-02
2.919999999999999818e-01,1.626314612957678336e-03,3.394253656770220007e-02,-3.051791250069610384e-02
2.929999999999999827e-01,3.605862130807518939e-02,3.461179395058146951e-02,-3.613709334931142908e-02
2.939999999999999836e-01,3.915204835386253135e-02,4.159522142140906903e-02,-1.547089894863962374e-02
2.949999999999999845e-01,4.924091733386484759e-02,3.818572022962972434e-02,-1.658466641838179240e-02
2.959999999999999853e-01,3.959637054062545986e-02,3.538937415417484078e-02,-5.780931429248674369e-03
2.969999999999999862e-01,5.054741746224748061e-02,1.543658660244472992e-02,3.610110932698014363e-02
2.979999999999999871e-01,5.104103189360871540e-02,-1.015588623003851540e-02,2.208427246295320903e-02
2.989999999999999880e-01,3.562118060893050553e-02,-2.383419345177751735e-03,4.148453375576289376e-02
2.999999999999999889e-01,9.378607855246580763e-03,-2.576081882193950387e-02,5.252574317484595690e-02
3.009999999999999898e-01,-3.305974361337807484e-03,-4.649076512429370367e-02,1.549876130731464401e-02
3.019999999999999907e-01,-3.202022431211648534e-02,-2.300787141884109294e-02,-5.138770215723085415e-04
3.029999999999999916e-01,-4.742066904573613573e-02,-5.280043928838949741e-02,2.992642092190479081e-02
3.039999999999999925e-01,-1.524959184280236073e-02,-4.254804657886235991e-02,2.092172348469097456e-02
3.049999999999999933e-01,-6.081572459262649111e-02,-4.212338173890864401e-02,6.755582316545258315e-03
3.059999999999999942e-01,-7.311271337305919049e-02,-2.732505766998056737e-02,-1.087735032369121883e-02
3.069999999999999951e-01,-5.783505384048340248e-02,-1.384813213426696298e-02,-2.927590430809106845e-02
3.079999999999999960e-01,-4.785006804553659093e-02,1.028383508637445215e-03,-2.017097017862646766e-02
3.089999999999999969e-01,-2.322626712398174684e-02,2.664711153202047739e-02,-2.551520240599772574e-02
3.099999999999999978e-01,-1.803923889691123536e-02,2.965275294867427205e-02,-4.044305568640477883e-02
3.109999999999999987e-01,-5.088405490277327255e-03,4.922373791853301706e-02,-2.317811639322986741e-02
3.119999999999999996e-01,2.996370189244166801e-02,3.020722085387078301e-02,-2.052646737451404094e-02
3.130000000000000004e-01,2.815571043005924215e-02,4.340556448132632666e-02,-3.859858569801381117e-02
3.140000000000000013e-01,3.279537042852803674e-02,4.894309559711268465e-02,-1.333454448068534422e-02
3.150000000000000022e-01,6.154283908870473302e-02,3.898037397965618128e-02,-9.596145349652902487e-03
3.160000000000000031e-01,6.445694200099284787e-02,1.720212147539752420e-02,2.042383041526926041e-03
3.170000000000000040e-01,4.724020969894283245e-02,2.955016229185071855e-02,1.622404877899084538e-02
3.180000000000000049e-01,5.676864086687381100e-02,-1.647890744237841612e-02,1.907990117459631638e-02
3.190000000000000058e-01,5.426019245275658098e-02,-2.588198929720909522e-02,1.393539342855080326e-02
3.200000000000000067e-01,3.179922192736689412e-02,-2.303264192608749095e-02,4.243063976619282363e-02
3.210000000000000075e-01,1.100129517623040301e-02,-4.059373262705064794e-02,3.479637106424433857e-02
3.220000000000000084e-01,-2.817979311518099481e-02,-3.928275781844480646e-02,1.809522993070495495e-02
3.230000000000000093e-01,-1.137836045641189321e-02,-5.125970371348574639e-02,1.704867128455223382e-02
3.240000000000000102e-01,-3.148861439926584765e-02,-3.670903267727752828e-02,2.454845250578558888e-02
3.250000000000000111e-01,-4.889701644825608651e-02,-3.539443020359601955e-02,-6.449472121802211910e-03
3.260000000000000120e-01,-6.555936922997612770e-02,-2.497833645159792948e-02,5.775955278274396733e-03
3.270000000000000129e-01,-6.051751116974353473e-02,-2.329072075803672454e-02,9.173966901971214710e-04
3.280000000000000138e-01,-5.283517117202326391e-02,-6.879207584469699014e-04,-2.957288590569618833e-02
3.290000000000000147e-01,-3.940056273821226224e-02,1.328900587632822657e-02,-2.754895029492553798e-02
3.300000000000000155e-01,-3.347211612862057567e-02,2.761270195052060311e-02,-4.282259406428309823e-02
3.310000000000000164e-01,-1.469770728790863526e-02,3.673468703349049014e-02,-2.685955073019640274e-02
3.320000000000000173e-01,2.089762501608622217e-02,4.469084170839386638e-02,-5.412228401042842169e-02
3.330000000000000182e-01,1.340165883016486599e-02,5.546223707995222990e-02,-1.452508250210027448e-02
3.340000000000000191e-01,2.551060385271465905e-02,3.782540152744435363e-02,-1.458473983143753448e-02
3.350000000000000200e-01,3.405170776053996484e-02,4.694040202834399295e-02,-5.863753142005728551e-03
3.360000000000000209e-01,5.840076953991003850e-02,1.659904894005652040e-02,1.875135340075997220e-02
3.370000000000000218e-01,5.662641662048596009e-02,8.510584614343220250e-03,-1.123474440386050890e-02
3.380000000000000226e-01,5.262217481021568000e-02,1.035932267879359492e-02,1.747961309843266281e-02
3.390000000000000235e-01,3.929759586041115665e-02,-1.646797475580867934e-02,1.033259414791754330e-02
3.400000000000000244e-01,7.963574548254987590e-03,-3.787707939504628141e-02,3.845749043802326045e-02
3.410000000000000253e-01,7.779939198131424066e-03,-4.030483765723100187e-02,2.378321587274479995e-02
3.420000000000000262e-01,3.512968530357739923e-03,-5.693466196330136675e-02,2.381629476237897766e-02
3.430000000000000271e-01,-3.360568364288626583e-03,-3.373363918923775323e-02,1.681374304211100817e-02
3.439999999999999725e-01,-3.868359261191828269e-02,-2.419582089720087939e-02,1.512793037165848821e-02
3.449999999999999734e-01,-4.389228572355235308e-02,-3.284118545716849247e-02,3.103018312222279376e-02
3.459999999999999742e-01,-5.444126439913024584e-02,-7.960570216461931858e-03,1.689145328644416078e-02
3.469999999999999751e-01,-2.674413016367904045e-02,-1.309652478855771914e-02,-1.276356751965451904e-02
3.479999999999999760e-01,-5.077668238837308723e-02,2.000775442094686329e-02,3.410191127248429158e-03
3.489999999999999769e-01,-2.306208501445247694e-02,1.931776757470712175e-02,-1.207429664269848123e-02
3.499999999999999778e-01,-9.673374443455819149e-03,2.887258990805842418e-02,-4.573820164967831031e-02
3.509999999999999787e-01,-3.347775748337065982e-02,1.222735993602895067e-02,-3.284174873208968448e-02
3.519999999999999796e-01,-6.177213758535347356e-03,4.247798361135311784e-02,-2.889277177466447605e-02
3.529999999999999805e-01,1.414912367016604722e-02,3.773360420933243031e-02,-3.710342032294389192e-02
3.539999999999999813e-01,2.512369677569048498e-02,5.749081750543376390e-02,-1.349354014624229089e-02
3.549999999999999822e-01,2.869161025965878686e-02,3.739368806351484054e-02,-3.211018678101951879e-02
3.559999999999999831e-01,3.850709963695313903e-02,1.737938766966776877e-02,-1.267214590166411414e-02
3.569999999999999840e-01,6.783199360540914657e-02,1.305656892293662052e-02,1.964929506612256641e-02
3.579999999999999849e-01,4.835336027899299338e-02,-3.114379307338520017e-02,4.972186213061505038e-03
3.589999999999999858e-01,3.411972288887429872e-02,5.187888906539353875e-03,2.980044939597085649e-02
3.599999999999999867e-01,3.824392542473365603e-02,-4.824579099014449785e-02,3.354966601635759466e-02
3.609999999999999876e-01,1.723655546590869767e-02,-1.960244614061192742e-02,3.954385352251161417e-02
3.619999999999999885e-01,7.802574092302419452e-04,-4.362434741471873934e-02,4.469587721552398946e-02
3.629999999999999893e-01,-3.081405931653040386e-02,-4.840187192846719111e-02,2.772572459475579690e-02
3.639999999999999902e-01,-4.746007852439493302e-02,-3.524402009831611310e-02,3.377595465746108250e-02
3.649999999999999911e-01,-2.217685725441758543e-02,-1.923509571466585841e-02,4.491651425436856034e-03
3.659999999999999920e-01,-4.694770516707994640e-02,-2.352222406596232024e-02,1.247671198363940054e-02
3.669999999999999929e-01,-7.958778558659303226e-02,-1.648310665181936061e-03,7.473048371320703716e-03
3.679999999999999938e-01,-5.907595298753540863e-02,1.958042194806045976e-03,-1.449285192364231298e-02
3.689999999999999947e-01,-6.142138297498588029e-02,2.697075835069380999e-03,-2.781439945334652358e-02
3.699999999999999956e-01,-1.759562637623362027e-02,2.344857129364935275e-02,-3.021473643799656855e-02
3.709999999999999964e-01,-9.218588398636002462e-03,3.973565267561995212e-02,-3.609173955128704148e-02
3.719999999999999973e-01,1.685948420628929217e-02,2.692885463060899418e-02,-3.556815717957306777e-02
3.729999999999999982e-01,2.771252701530688839e-02,4.100531056382407391e-02,-4.230141394057262277e-02
3.739999999999999991e-01,1.613679858310162335e-02,4.999871919328445491e-02,-3.995400427805722438e-02
3.750000000000000000e-01,2.671325683316242219e-02,3.270058224244022649e-02,-5.165747716221052305e-02
3.760000000000000009e-01,3.713436372857822215e-02,2.714627757240379094e-02,-8.583111378794175753e-03
3.770000000000000018e-01,3.148442324225653177e-02,1.926047364259484210e-02,2.926374607711168096e-03
3.780000000000000027e-01,4.487808910502127241e-02,-1.677620813170252814e-02,-4.214818460123623614e-03
3.790000000000000036e-01,4.669058148588628443e-02,-1.632700029450707274e-02,2.528242635257544474e-02
3.800000000000000044e-01,2.811580816944275057e-02,-2.383180189790979134e-02,3.358071574926947689e-02
3.810000000000000053e-01,1.653201804065111691e-02,-3.136166105051053227e-02,2.438452580784431292e-02
3.820000000000000062e-01,-1.327532843999107990e-03,-3.220238459675037884e-02,4.286499263926396575e-02
3.830000000000000071e-01,-2.389821788924685608e-02,-3.084774219547328084e-02,3.295668842027028173e-02
3.840000000000000080e-01,-4.367809133623969109e-02,-3.299190553561343747e-02,1.195214436703514668e-02
3.850000000000000089e-01,-3.549404600842267360e-02,-2.866755347626315231e-02,2.963641804862324203e-02
3.860000000000000098e-01,-3.371661331870243195e-02,8.435540553980689932e-04,1.520890866879642984e-02
3.870000000000000107e-01,-4.916324901321020291e-02,1.365261581416026514e-02,-1.257168047532366932e-02
3.880000000000000115e-01,-6.342994961641872098e-02,1.125183223091720183e-02,-3.001319376661423441e-02
3.890000000000000124e-01,-3.952780772220085975e-02,4.271067450082980527e-02,-7.363073413322320307e-03
3.900000000000000133e-01,-3.910019002670934996e-02,2.381316336086137381e-02,-2.764414864596359891e-02
3.910000000000000142e-01,-2.132046204911668130e-02,4.414593448931208863e-02,-3.925560556309216215e-02
3.920000000000000151e-01,1.879311941570567111e-04,3.166304150723434074e-02,-4.776531618607208346e-02
3.930000000000000160e-01,-3.777207500306039960e-03,5.633378908025515192e-02,-4.690164608859957729e-02
3.940000000000000169e-01,1.366477653848211134e-02,3.967174231625390790e-02,-1.787034810970562423e-02
3.950000000000000178e-01,7.687228910382691571e-02,3.797092924679933840e-02,-3.972011489662632261e-02
3.960000000000000187e-01,6.045985363053522216e-02,8.720533430881664480e-03,-4.019988325491496116e-03
3.970000000000000195e-01,6.190558896004900308e-02,1.730226036139431711e-02,-9.741582974820885837e-03
3.980000000000000204e-01,4.869805102656171031e-02,-1.321009239299636775e-02,4.200242520107893250e-03
3.990000000000000213e-01,3.646342162203567577e-02,-2.007182251084351290e-02,2.619227777448883410e-02
4.000000000000000222e-01,2.818463891845388730e-02,-4.905472128797588871e-02,3.426855493846346634e-02
4.010000000000000231e-01,2.667424295962705222e-02,-4.880516181798863484e-02,3.311185630307101474e-02
4.020000000000000240e-01,-1.527063000028613081e-02,-4.327483435352538765e-02,3.402810453739547880e-02
4.030000000000000249e-01,-1.787379981676059937e-02,-5.288333422580057674e-02,4.467407157695230807e-02
4.040000000000000258e-01,-1.948051333691849796e-02,-3.189548551641852719e-02,3.287801680000497495e-02
4.050000000000000266e-01,-2.497346128053113193e-02,-2.315178503750737332e-02,4.006249135045122575e-03
4.060000000000000275e-01,-4.169311454321300570e-02,-2.200706028810855627e-02,2.557807622724935989e-02
4.069999999999999729e-01,-2.927802310349900475e-02,-1.025387785375249730e-02,5.015726975135965764e-03
4.079999999999999738e-01,-5.397353875565595593e-02,2.768512111978547671e-02,4.505234150059967378e-03
4.089999999999999747e-01,-3.911391006885198141e-02,3.037608252314702093e-02,-2.515889616539683168e-02
4.099999999999999756e-01,-3.366325106040331944e-02,3.981547333903673325e-02,-2.345230677777394510e-02
4.109999999999999765e-01,-8.216842979086567272e-03,3.580612318789082316e-02,-2.421171152666418830e-02
4.119999999999999774e-01,-2.135280482696473928e-02,6.415312779318364800e-02,-4.871528399491131117e-02
4.129999999999999782e-01,2.087842407754394308e-02,5.602795137352133137e-02,-4.282643671728149359e-02
4.139999999999999791e-01,7.697562164079838933e-03,4.677906286381104672e-02,-1.726295315387672141e-02
4.149999999999999800e-01,4.741079898859822811e-02,3.288837651703565429e-02,-1.660300683941209540e-02
4.159999999999999809e-01,3.648155118114903422e-02,3.438218715379093293e-02,-2.974434014797010251e-02
4.169999999999999818e-01,5.441771972384613215e-02,1.750630619972708135e-03,-1.815589460350690645e-02
4.179999999999999827e-01,4.440550301068672823e-02,4.727572327361163223e-04,1.640535438033506252e-02
4.189999999999999836e-01,6.149690079934523601e-02,-2.555217607912193406e-02,2.023184250744850584e-03
4.199999999999999845e-01,3.358824507779352431e-02,-4.402454762088901796e-02,2.670955538333569940e-02
4.209999999999999853e-01,1.109538744352954118e-02,-3.237514301093555313e-02,1.949209672448149605e-02
4.219999999999999862e-01,7.055006341775896597e-03,-4.319707722711816494e-02,3.353236727389675986e-02
4.229999999999999871e-01,-2.502256188039628931e-02,-3.264657852701749463e-02,1.696164717618712722e-02
4.239999999999999880e-01,-1.777322294291055690e-02,-5.603341746284717928e-02,2.942574166585458506e-02
4.249999999999999889e-01,-3.344236770290436034e-02,-2.683299900403733618e-02,3.041889753578107605e-02
4.259999999999999898e-01,-3.537337394927409645e-02,-2.036351279233496875e-02,2.374350946326099845e-02
4.269999999999999907e-01,-7.103072366813038829e-02,1.415567063592734591e-02,5.886892969387410961e-03
4.279999999999999916e-01,-6.096043757657602230e-02,-1.231197568533296243e-03,7.765659785417404135e-03
4.289999999999999925e-01,-3.895036267313622957e-02,2.039765092789912193e-02,-2.227900695919364515e-02
4.299999999999999933e-01,-5.532605348958563596e-02,4.457496289956747182e-02,-4.138964052678540534e-02
4.309999999999999942e-01,-3.271127982191183309e-02,2.520033959570815857e-02,-1.244029929834079319e-02
4.319999999999999951e-01,-5.094844943071389493e-03,5.542818354900819200e-02,-2.346204569628146386e-02
4.329999999999999960e-01,5.704708607494802033e-03,4.358306029473828919e-02,-1.712339047305597856e-02
4.339999999999999969e-01,2.140403587642969105e-02,3.249105810613051731e-02,-1.341577860038339898e-02
4.349999999999999978e-01,3.783860451869010960e-02,2.986631925968065079e-02,-7.945630837034374505e-03
4.359999999999999987e-01,6.242879289946773325e-02,-2.391128381412221807e-04,-1.587872701520617186e-02
4.369999999999999996e-01,5.475703116334658394e-02,-6.782261137601890751e-04,-7.245983042903188925e-03
4.380000000000000004e-01,4.891364236587322084e-02,-2.290368521888871620e-02,1.368850644930556804e-02
4.390000000000000013e-01,5.926339623343750834e-02,-9.963674346703671469e-04,3.961688801304407044e-03
4.400000000000000022e-01,5.606296384249190995e-02,-4.767777053248609814e-02,2.778028139752564130e-02
4.410000000000000031e-01,3.960030035188392278e-02,-4.072799442910526174e-02,2.644241749254922988e-02
4.420000000000000040e-01,2.990736350403405686e-02,-4.938238617439822536e-02,3.405167588812708229e-02
4.430000000000000049e-01,-1.374470520660262679e-02,-4.874247624030648984e-02,2.973693455703478247e-02
4.440000000000000058e-01,-2.658825044947449659e-02,-5.478691647164087714e-02,2.180996484223340220e-02
4.450000000000000067e-01,-2.856500981903307979e-02,-3.626514662113519694e-02,5.860983240650709594e-03
4.460000000000000075e-01,-4.177260086407139777e-02,-1.542542759467343573e-02,-1.613887021603784000e-02
4.470000000000000084e-01,-6.853761538532050779e-02,-1.824457861933701094e-03,1.609341199394434541e-02
4.480000000000000093e-01,-5.259640089100364735e-02,8.056529013883314411e-03,-8.010943535496322168e-03
4.490000000000000102e-01,-5.536720728082229759e-02,3.419318840875042870e-02,-1.243834630854620538e-02
4.500000000000000111e-01,-1.458160041578427865e-02,3.269031550994103141e-02,-4.208768876328954772e-02
4.510000000000000120e-01,-4.721758746123742856e-02,5.348006499108183542e-02,-3.335486510951327088e-02
4.520000000000000129e-01,-1.137849007843710729e-02,4.841157026096719329e-02,-2.357738772257644139e-02
4.530000000000000138e-01,1.634889395006914594e-03,5.450062913667289705e-02,-3.735364105974178783e-02
4.540000000000000147e-01,2.821783631601530382e-02,4.843074163472454313e-02,-4.282734239147163724e-02
4.550000000000000155e-01,3.730506499841634849e-02,1.887842143817089480e-02,-2.232091457275136095e-02
4.560000000000000164e-01,6.391569473609159946e-02,1.622531788056607097e-02,-2.492424911075031072e-02
4.570000000000000173e-01,4.556788142585862372e-02,-4.776852062029191513e-03,-5.671759199526746863e-03
4.580000000000000182e-01,5.120028606198306909e-02,-6.885916425319692398e-03,-2.161450399490889157e-02
4.590000000000000191e-01,3.892604693484275069e-02,-2.164960692021999228e-02,-3.721382617857135755e-03
4.600000000000000200e-01,4.190734586437882409e-02,-4.318054406214218849e-02,1.685818608987812994e-02
4.610000000000000209e-01,2.721159468887910174e-02,-2.614724193101728225e-02,3.230349331858926171e-02
4.620000000000000218e-01,3.677497593957603780e-05,-4.716695400416436729e-02,5.493228114791812514e-03
4.630000000000000226e-01,-2.052537302893792104e-02,-3.346573077131725221e-02,4.604764556845816065e-02
4.640000000000000235e-01,-2.682770851198098411e-02,-3.698300758737992772e-02,2.509753418747844543e-03
4.650000000000000244e-01,-5.975251754679650196e-02,-1.211930553521393603e-03,2.648588815012546671e-02
4.660000000000000253e-01,-5.279682103335657517e-02,-1.976427332157604591e-02,3.303942752846095871e-02
4.670000000000000262e-01,-5.475639603729144655e-02,-1.590484824794745691e-02,2.034267373543272375e-02
4.680000000000000271e-01,-5.068380891079653228e-02,1.208999059336357887e-02,7.008771081781885529e-03
4.689999999999999725e-01,-4.982526991248607817e-02,2.230669455058936074e-02,-4.833598810289321465e-03
4.699999999999999734e-01,-4.535809259721960973e-02,2.368312085413658633e-02,-2.563716506730522732e-02
4.709999999999999742e-01,-3.101537023486908989e-02,4.266305519842793909e-02,-1.087982061990660360e-02
4.719999999999999751e-01,-9.011070297689501019e-03,5.657961842355923449e-02,-2.471778355812450853e-02
4.729999999999999760e-01,1.317681837907659637e-02,4.271879652987829040e-02,-2.898184723373536595e-02
4.739999999999999769e-01,1.418876516377332898e-02,3.657940873814855692e-02,-3.103948156196784103e-02
4.749999999999999778e-01,3.231058488239251653e-02,2.197587734455766495e-02,-4.954063858599776909e-02
4.759999999999999787e-01,5.522751532108822331e-02,2.807472832191374584e-02,-2.566604763072909828e-02
4.769999999999999796e-01,5.626240076619951069e-02,-6.746082204080584496e-03,-3.915135896645845215e-02
4.779999999999999805e-01,2.721834009790700948e-02,-1.676604141611811455e-02,-6.051704059850853204e-03
4.789999999999999813e-01,4.663752360786936613e-02,-1.572461682980811487e-02,2.269385843077062481e-02
4.799999999999999822e-01,4.474736580826204485e-02,-1.561397257556345307e-02,3.176078711508656394e-02
4.809999999999999831e-01,3.176101122666208365e-02,-2.799955749737696384e-02,2.586554666164968264e-02
4.819999999999999840e-01,8.990677161013408206e-03,-5.251104883433301007e-02,2.744685129722806982e-02
4.829999999999999849e-01,-1.778974399070150023e-02,-4.113728539256544803e-02,4.198179248370039612e-02
4.839999999999999858e-01,-1.567476431434186926e-02,-3.090363531632625907e-02,4.302606372132546098e-02
4.849999999999999867e-01,-2.329986540354966537e-02,-3.249708456306951709e-02,3.196707507989124397e-02
4.859999999999999876e-01,-5.105270484537450387e-02,-9.509019149732348547e-03,2.609877170469080201e-02
4.869999999999999885e-01,-6.088406034983234738e-02,5.321285230303009119e-04,2.684415253036345761e-02
4.879999999999999893e-01,-6.112701663499681831e-02,1.592273089335401529e-02,-1.467902108056776816e-02
4.889999999999999902e-01,-8.272005285518178874e-02,2.614420674083567722e-02,-6.093154767731779990e-03
4.899999999999999911e-01,-4.016601265760579020e-02,4.339244784524492332e-02,-2.006110005692296645e-03
4.909999999999999920e-01,-1.700347275763422136e-02,2.907318789942990936e-02,-6.129108618650971896e-03
4.919999999999999929e-01,-8.737936292837360230e-03,2.590634080316262314e-02,-2.382507950572338232e-02
4.929999999999999938e-01,-9.828667451687572026e-03,5.268062283911669613e-02,-4.852726294798277024e-02
4.939999999999999947e-01,3.164212128459252538e-02,4.978373452790124665e-02,-4.936163148202633161e-02
4.949999999999999956e-01,4.182202943221531577e-02,3.568191904563813854e-02,-3.522811061048942288e-02
4.959999999999999964e-01,3.473408275626945624e-02,7.673948730346731757e-03,-2.974129201677720019e-02
4.969999999999999973e-01,4.598412449604834945e-02,3.354654276354204160e-03,-8.567186852150562859e-03
4.979999999999999982e-01,4.916170911227539519e-02,8.345459569390976592e-03,-1.847731574370399879e-02
4.989999999999999991e-01,5.572722869448636790e-02,-1.240229086608173222e-02,3.021773171808994282e-03
5.000000000000000000e-01,4.034773494416608874e-02,-4.956764658427192938e-02,-5.774745711983777889e-03
5.010000000000000009e-01,3.340389098009037550e-02,-3.790132697049550942e-02,1.954561886182702712e-02
5.020000000000000018e-01,1.073884398065398996e-02,-6.019620118398936320e-02,3.193365317413987547e-02
5.030000000000000027e-01,-3.427392888254240585e-03,-5.099361122323903261e-02,2.128118254844300547e-02
5.040000000000000036e-01,-2.473369943915145266e-02,-4.330098035126713624e-02,1.924346117980873030e-02
5.050000000000000044e-01,-3.069276289021132323e-02,-1.730165846444788394e-02,1.793812976654497390e-02
5.060000000000000053e-01,-3.780922526652952947e-02,-2.083544760748085034e-02,4.634635009544740836e-02
5.070000000000000062e-01,-5.844246687972359799e-02,-1.413018769595682927e-02,2.468629887636156206e-02
5.080000000000000071e-01,-6.384090530189648338e-02,1.676002249711208356e-02,-1.179217163750808685e-02
5.090000000000000080e-01,-6.680906540067954591e-02,2.507197894026591198e-02,1.082406866164394195e-02
5.100000000000000089e-01,-4.286876537011740512e-02,2.335102122820360143e-02,-3.801416742591741393e-02
5.110000000000000098e-01,-1.909155505200524350e-02,4.179125000643169052e-02,-2.027352092173085804e-02
5.120000000000000107e-01,-1.935988297118739626e-02,1.904296995334908704e-02,-1.792646586837396208e-02
5.130000000000000115e-01,-1.657278073961274828e-02,4.265550719153923115e-02,-4.836479903658610913e-02
5.140000000000000124e-01,1.636245416325218111e-02,3.188974236877158142e-02,-3.543721379250563269e-02
5.150000000000000133e-01,3.965998874034026150e-02,2.242637053204860759e-02,-3.538380488949506575e-02
5.160000000000000142e-01,1.766049218432589121e-02,1.882922147963623366e-02,-4.133064448659919121e-02
5.170000000000000151e-01,4.591081995441996522e-02,4.249850663462634986e-03,-2.878392786229543032e-02
5.180000000000000160e-01,6.414635764975858134e-02,-2.603327694668905457e-02,-3.578325396559872869e-03
5.190000000000000169e-01,5.970431257733233021e-02,-1.317715414940994444e-02,-6.235796118957703978e-03
5.200000000000000178e-01,5.044243259216391051e-02,-4.109485261109798587e-02,1.386180536998250605e-02
5.210000000000000187e-01,3.568202452405733194e-02,-3.112857160296145578e-02,8.737009692600402819e-03
5.220000000000000195e-01,6.491531334849490187e-03,-4.912138945003027835e-02,1.766099625734997292e-02
5.230000000000000204e-01,9.165208913357354367e-03,-3.930236765825346340e-02,1.636453623925602022e-02
5.240000000000000213e-01,3.731620400052519920e-03,-5.036499893324038885e-02,3.589882756132745101e-02
5.250000000000000222e-01,-2.344307729951991895e-02,-1.280471228978528539e-02,2.128880125885610278e-02
5.260000000000000231e-01,-2.168748238592499086e-02,-2.039286421771166480e-02,2.186664370471370564e-02
5.270000000000000240e-01,-6.131499039442987742e-02,1.466209410975698527e-02,2.545773395978622247e-02
5.280000000000000249e-01,-5.869726116366319468e-02,6.880967770102316104e-03,2.066098370141963500e-02
5.290000000000000258e-01,-7.365933365585621007e-02,3.581250954468365860e-02,7.633564436719913505e-03
5.300000000000000266e-01,-2.997812913152577557e-02,8.705730795831017471e-03,-7.682227889650414775e-03
5.310000000000000275e-01,-2.999908802445080264e-02,4.484564873914326927e-02,8.966653247380865568e-03
5.320000000000000284e-01,-2.043575417714108000e-02,5.187741776322399995e-02,-9.689546934548707788e-03
5.330000000000000293e-01,-1.039364556443299163e-02,2.988415261206813292e-02,-2.553048613117347293e-02
5.340000000000000302e-01,-1.575676776800138956e-02,3.867895312771908040e-02,-5.177578119369972975e-02
5.350000000000000311e-01,2.945201873427688924e-02,1.718468419747293946e-02,-3.717778600904411701e-02
5.360000000000000320e-01,3.167862555656518475e-02,2.752453253643727393e-02,-1.585374106717146736e-02
5.370000000000000329e-01,4.961431680285870865e-02,-3.327452448051367549e-03,-3.396865920661201049e-02
5.380000000000000338e-01,5.370824102423730345e-02,-1.076593523659645328e-02,-9.090077988129019806e-03
5.390000000000000346e-01,6.335398031582158140e-02,-1.476920098925217813e-02,-1.183511829346017667e-02
5.400000000000000355e-01,5.917168100102751516e-02,-3.823988035718755424e-02,6.260717433900163040e-03
5.410000000000000364e-01,4.393950442889731078e-02,-4.207659607399034940e-02,1.563250888188135856e-03
5.420000000000000373e-01,2.359551239265456762e-02,-4.298979878802031140e-02,1.262540093845442545e-02
5.430000000000000382e-01,8.753189854375670667e-03,-3.725904930110968127e-02,4.563876118189975906e-02
5.440000000000000391e-01,-1.428971183695345974e-02,-3.533504441343506691e-02,2.968167005574265382e-02
5.450000000000000400e-01,-2.454377729743675157e-02,-2.298266055264398811e-02,2.162681652006365543e-02
5.460000000000000409e-01,-3.429097592436305270e-02,-2.506286747463893835e-02,3.906051730655185628e-02
5.470000000000000417e-01,-5.459229088864422236e-02,1.605671009120973255e-02,2.430962600058744760e-02
5.480000000000000426e-01,-6.805040351744240379e-02,1.332739877801170786e-02,2.711913650583213861e-02
5.490000000000000435e-01,-5.537767369447771371e-02,1.087056959555276862e-02,2.004710924653765880e-02
5.500000000000000444e-01,-5.178665996994609444e-02,2.745116480291179273e-02,-6.397591926465996150e-03
5.510000000000000453e-01,-4.519782267365820422e-02,3.976469904655979132e-02,-4.558956130571474065e-03
5.520000000000000462e-01,-2.968118196871848830e-02,5.419501078147394985e-02,-8.663106743983434166e-03
5.530000000000000471e-01,-5.558912595085385537e-03,3.195784752566126902e-02,-1.202015534353128093e-02
5.540000000000000480e-01,1.584502934602412955e-02,2.999666425521658325e-02,-5.308084335754816030e-02
5.550000000000000488e-01,2.777923144262871985e-02,8.594223472936432864e-03,-3.743735716664270408e-02
5.560000000000000497e-01,4.948791519543153244e-02,1.780596096557189936e-02,-3.170274832530975417e-02
5.570000000000000506e-01,6.477826442913049709e-02,-5.047236088923170126e-03,-3.119185872846127680e-02
5.580000000000000515e-01,6.918864913708100417e-02,-1.472732662329178169e-02,-6.612896853842772579e-03
5.590000000000000524e-01,7.265026306133533229e-02,-4.380303192669531692e-03,-1.060939235656310330e-03
5.600000000000000533e-01,4.507317326422784209e-02,-2.496530886727989923e-02,-1.243772213202646790e-02
5.610000000000000542e-01,4.728769664703086351e-02,-2.867847478127715302e-02,-4.338946465031520011e-03
5.620000000000000551e-01,2.679623930903125145e-02,-4.869827997326121177e-02,3.679173849032742888e-02
5.629999999999999449e-01,2.965749946523714778e-02,-4.833621600779536287e-02,2.762399886966327919e-02
5.639999999999999458e-01,-1.890999229883512031e-02,-4.059792534412988430e-02,3.149381176095878559e-02
5.649999999999999467e-01,-3.338331777703522352e-02,-2.566073405713891614e-02,3.725481990799937165e-02
5.659999999999999476e-01,-3.576792693845411153e-02,-9.757080925012826325e-03,2.506526020786036327e-02
5.669999999999999485e-01,-5.196642825624768480e-02,-1.753962832466119878e-02,1.845546279324142974e-02
5.679999999999999494e-01,-5.752487917203659429e-02,2.515304898944444728e-02,4.318773075096127290e-02
5.689999999999999503e-01,-4.481628353114681940e-02,1.212446737049759256e-02,1.750516354108279035e-02
5.699999999999999512e-01,-6.097181216815191623e-02,3.364271175194630953e-02,-1.154308479835458416e-02
5.709999999999999520e-01,-3.409937828872856846e-02,2.278495586842073373e-02,3.838895292504886786e-03
5.719999999999999529e-01,-3.622255870924575433e-02,4.160961643681988786e-02,-2.230012492929715068e-02
5.729999999999999538e-01,-1.219539207956978934e-02,2.235942657577109569e-02,-2.100904759174107572e-02
5.739999999999999547e-01,1.445737703598348051e-02,3.422818891748054260e-02,-4.110916418721930615e-02
5.749999999999999556e-01,2.575911310893810521e-02,2.193124705312478329e-02,-2.802751980221467737e-02
5.759999999999999565e-01,4.908003628314094868e-02,2.008428064306496535e-02,-3.241698768838408712e-02
5.769999999999999574e-01,6.077221161322062665e-02,1.624372635625865539e-03,-2.509257588966579133e-02
5.779999999999999583e-01,3.166940716045441029e-02,-2.788623981645786329e-02,-2.408118659873311959e-02
5.789999999999999591e-01,5.862233728071886141e-02,-2.867566922117688669e-02,8.819649206414965567e-03
5.799999999999999600e-01,3.986155233979613716e-02,-3.098287462817844382e-02,-1.795182710076851859e-02
5.809999999999999609e-01,2.288845422261857887e-02,-4.898978214766633310e-02,-1.128539526010544948e-02
5.819999999999999618e-01,3.572713517130326338e-02,-5.898741569023149139e-02,2.725235708893204711e-02
5.829999999999999627e-01,3.003745345346143722e-02,-4.178987657254005367e-02,1.540189046420421988e-02
5.839999999999999636e-01,-1.117602464930747552e-02,-2.157703234498884945e-02,3.033523584326331540e-02
5.849999999999999645e-01,-2.110368924466416579e-02,-2.760369413889105297e-02,4.816537358647131339e-02
5.859999999999999654e-01,-6.372280251872283752e-02,-2.420045702032215355e-03,3.177061832235697492e-02
5.869999999999999662e-01,-5.094701814946663021e-02,1.992537552557885848e-04,2.923002260747040518e-02
5.879999999999999671e-01,-4.950619571661955820e-02,3.040569739103626823e-02,3.775265169012453903e-02
5.889999999999999680e-01,-4.195345468265591904e-02,3.707624811170992518e-02,3.213554616149290333e-02
5.899999999999999689e-01,-5.544662877176630145e-02,5.974463319754820881e-03,5.061469613018979193e-03
5.909999999999999698e-01,-3.998678203645325557e-02,4.835437650447248215e-02,-7.311171635990451265e-03
5.919999999999999707e-01,-2.141589662659600102e-02,4.321129948171759799e-02,-2.406969343125182209e-02
5.929999999999999716e-01,2.970663198274752859e-04,5.914000153870819371e-02,-7.461446741907104378e-03
5.939999999999999725e-01,6.111421994346857151e-03,5.187592238813372447e-02,-1.591986764863456694e-02
5.949999999999999734e-01,1.783467509397490894e-02,-4.324748879161836325e-04,-4.133251826761642073e-02
5.959999999999999742e-01,1.999163333628161537e-02,1.125897922499610911e-02,-3.421801580547166599e-02
5.969999999999999751e-01,6.899719068517658205e-02,1.805445560922424100e-02,-2.042881223602203630e-02
5.979999999999999760e-01,8.748897169687221143e-02,-2.501779750760772109e-02,-1.883792138194609680e-02
5.989999999999999769e-01,4.381398667948501607e-02,-3.419568796509236258e-02,-5.818528444322044330e-03
5.999999999999999778e-01,6.141717732784211792e-02,-4.525446583372612352e-02,-4.334854059532714660e-03
6.009999999999999787e-01,2.301644953855766854e-02,-5.089448240288728387e-02,9.903993735923568437e-03
6.019999999999999796e-01,3.656379057310959330e-02,-7.584779710701426703e-02,8.203816460528812193e-03
6.029999999999999805e-01,1.058201126022143869e-02,-4.481450298893501633e-02,3.864139333761183043e-02
6.039999999999999813e-01,-8.180488304577088893e-03,-4.529664058549874583e-02,2.511634876210597569e-02
6.049999999999999822e-01,-1.766302781601964550e-02,-1.187827262178023022e-02,2.597170636038542008e-02
6.059999999999999831e-01,-3.871028223140472041e-02,-6.647343634105123446e-03,3.848725876205957852e-02
6.069999999999999840e-01,-3.577089609009891091e-02,-1.208371628716147818e-02,6.141951325061759288e-03
6.079999999999999849e-01,-4.448895811934790168e-02,2.647424626721836538e-02,4.603816052176891438e-02
6.089999999999999858e-01,-4.344943997815113590e-02,3.260173214053642410e-02,4.314184569776143008e-02
6.099999999999999867e-01,-7.239189674866425284e-02,3.136949459610734875e-02,2.912662360916362658e-02
6.109999999999999876e-01,-5.212844338132842370e-02,4.926845611853773732e-02,-1.265938978126512210e-02
6.119999999999999885e-01,-2.919996393991099864e-02,3.653348165471041742e-02,-1.906987833716307715e-02
6.129999999999999893e-01,6.667956966041362467e-05,5.629362415823182392e-02,-1.116291318409292146e-02
6.139999999999999902e-01,1.266496010230581948e-02,3.110284168937295715e-02,-1.714064503184272587e-02
6.149999999999999911e-01,1.822528822819112146e-02,2.046431473565707426e-02,-4.340296702582728539e-02
6.159999999999999920e-01,2.347569538738033396e-02,1.899129815994201817e-02,-4.859379657821782245e-02
6.169999999999999929e-01,3.611263965459177855e-02,5.507338940439540122e-03,-3.373350441520663739e-02
6.179999999999999938e-01,3.947580837263886533e-02,1.038856898405144443e-03,-2.697763327134855560e-02
6.189999999999999947e-01,4.709840992213620153e-02,-1.760129763370885808e-02,-2.718397345355117942e-02
6.199999999999999956e-01,3.981016711174141520e-02,-5.151931272786465510e-02,-1.772220706993716394e-02
6.209999999999999964e-01,3.292016145710723041e-02,-2.969282785972407121e-02,-1.303586803071089643e-02
6.219999999999999973e-01,2.352201890699486680e-02,-4.269774766312698505e-02,6.831283213890325216e-03
6.229999999999999982e-01,3.838704452414623547e-02,-3.547724989773128057e-02,3.714686967636360304e-02
6.239999999999999991e-01,1.689838030209179272e-03,-4.769356243524408567e-02,3.009298017636179851e-02
6.250000000000000000e-01,-1.206778220585220940e-02,-2.798085764976928139e-02,2.933484985824326777e-02
6.260000000000000009e-01,-5.560179720151117028e-02,-1.471797754325783209e-03,3.975397963956294606e-02
6.270000000000000018e-01,-4.953636373144392618e-02,8.626061956938910896e-03,3.146731761086806606e-02
6.280000000000000027e-01,-2.156026219681096007e-02,2.537174948422993986e-02,2.818042194327106259e-02
6.290000000000000036e-01,-4.962723098941261568e-02,2.670374457138078791e-02,3.177336991573827957e-02
6.300000000000000044e-01,-6.268886641720257391e-02,3.478589592692321597e-02,3.834355977141545423e-03
6.310000000000000053e-01,-3.294315974566582733e-02,2.330330403759861904e-02,6.499043205645236437e-03
6.320000000000000062e-01,-3.724674869000924038e-02,4.524453804888767250e-02,2.014851952428041090e-02
6.330000000000000071e-01,-8.640420077311391014e-03,4.034525952687204042e-02,6.709819709706479245e-04
6.340000000000000080e-01,6.629894551710040392e-03,2.720189518659735239e-02,-2.098398867977720531e-02
6.350000000000000089e-01,2.783926170624821065e-03,1.968497266905832113e-02,-1.915570435092823695e-02
6.360000000000000098e-01,3.182019140658988443e-02,1.187993007234191233e-02,-4.227643694797827284e-02
6.370000000000000107e-01,2.497909071491951488e-02,-9.533737407198259947e-03,-3.098497616839931273e-02
6.380000000000000115e-01,5.346369049790661993e-02,-1.332174470937837196e-02,-3.477413049710744580e-02
6.390000000000000124e-01,4.786003166873745857e-02,-2.173671713117353993e-02,-1.387340238528637568e-02
6.400000000000000133e-01,3.258983931127679146e-02,-3.134930204936067083e-02,-3.897498667731369437e-02
6.410000000000000142e-01,5.379702977762403776e-02,-6.432410845621142070e-02,-6.011706248917832000e-03
6.420000000000000151e-01,5.232554348945398642e-02,-3.963741868976919380e-02,-8.860141419302421106e-03
6.430000000000000160e-01,3.017301975620002158e-02,-3.432970279539681452e-02,7.888781944949071340e-03
6.440000000000000169e-01,-1.706767976941200122e-03,-3.844284204490371754e-02,1.893077865666687593e-02
6.450000000000000178e-01,-7.412365336002534576e-03,-2.373728178230836289e-02,3.997258464987466647e-02
6.460000000000000187e-01,-2.456997296402015432e-02,3.413506759046062728e-03,4.653208591566907609e-02
6.470000000000000195e-01,-3.949134894923104350e-02,1.749105937132699280e-03,2.320755053744602558e-02
6.480000000000000204e-01,-5.931400756534303820e-02,1.927149689646279543e-02,1.345527133444114967e-02
6.490000000000000213e-01,-2.071523557425828180e-02,3.182040435983676807e-02,3.206557118961560204e-02
6.500000000000000222e-01,-3.758642875271201583e-02,2.080088990058175449e-02,4.453671179988750659e-03
6.510000000000000231e-01,-3.358949625744344497e-02,5.374400400872837713e-02,6.152073550415863151e-03
6.520000000000000240e-01,-1.312633078066056946e-02,1.742686898683342561e-02,-1.401064118430439195e-02
6.530000000000000249e-01,-8.581272447626736924e-03,4.828400370141951170e-02,-1.672787000095178264e-02
6.540000000000000258e-01,5.066249063738695844e-03,3.151782318055759702e-02,-2.835159024903356750e-02
6.550000000000000266e-01,-7.678868021370520956e-03,2.204845622231930632e-02,-3.949409129040906685e-02
6.560000000000000275e-01,4.442228219207827039e-02,-7.298872921102777904e-03,-2.002851836804571059e-02
6.570000000000000284e-01,4.167705444981948532e-02,1.403367169286823778e-02,-1.757288592622093665e-02
6.580000000000000293e-01,4.274471482527452543e-02,-1.853359695371108173e-02,-3.098548852622633534e-02
6.590000000000000302e-01,8.575721898470045623e-02,-3.281137736305984876e-02,-1.014314940237453881e-02
6.600000000000000311e-01,5.972977340504673216e-02,-3.260482033931882268e-02,-3.678236142448509938e-02
6.610000000000000320e-01,3.475595583515057180e-02,-3.374623077642136676e-02,-5.223162669211521211e-03
6.620000000000000329e-01,3.587397740116808620e-02,-5.129788574054570255e-02,1.011638866084541141e-03
6.630000000000000338e-01,2.342183759638072002e-02,-3.047988061392068945e-02,-4.845516878848673756e-03
6.640000000000000346e-01,-3.168962691088481748e-02,-2.629104597883435632e-02,2.355932769652865563e-02
6.650000000000000355e-01,4.314093593240385383e-03,-2.483852898385975269e-02,2.507781170477312721e-02
6.660000000000000364e-01,-4.718663156595240271e-02,-4.239989284177232524e-03,2.417737203044803898e-02
6.670000000000000373e-01,-4.216792725728210622e-02,7.837879311655991665e-03,3.012995091722014962e-02
6.680000000000000382e-01,-5.996368293880300487e-02,2.378984664258652904e-02,4.034761253444400786e-02
6.690000000000000391e-01,-4.717393622440456402e-02,3.027913002353102567e-02,3.176807233297953420e-02
6.700000000000000400e-01,-4.155271801894574318e-02,5.948974228313629042e-02,5.801017453894662633e-03
6.710000000000000409e-01,-4.179441893360448523e-02,2.664355683544888248e-02,1.012010184151707938e-02
6.720000000000000417e-01,-2.732893343040185621e-02,5.532788539814811890e-02,3.148663939809184104e-02
6.730000000000000426e-01,-2.816042007543361272e-02,3.244943594256752273e-02,-2.484751462360059240e-02
6.740000000000000435e-01,-1.583947702941694916e-02,3.360580092030125698e-02,-2.000384187826202351e-02
6.750000000000000444e-01,2.343942974292588174e-02,3.646339319567621501e-02,-2.378477860593555815e-02
6.760000000000000453e-01,2.276610666553929505e-02,-7.469115464078792017e-03,-3.902323390013354154e-02
6.770000000000000462e-01,5.638974360083979370e-02,-2.770271494527962522e-02,-4.308737857414378369e-02
6.780000000000000471e-01,5.974827359851268838e-02,-2.772619323582392603e-02,-3.498530927679361496e-02
6.790000000000000480e-01,5.697670443343507557e-02,-2.938089037206456644e-02,-3.409612444394836961e-02
6.800000000000000488e-01,6.324863328370700088e-02,-4.816788942885872477e-02,-2.736129181844217453e-02
6.810000000000000497e-01,3.810117657242375472e-02,-5.116394403909189925e-02,-2.502712644498332473e-02
6.820000000000000506e-01,4.081230788875490900e-02,-2.850422842233115914e-02,1.683422365380313201e-02
6.830000000000000515e-01,2.615691066755734817e-02,-3.271348892733579733e-02,3.237496638634601576e-02
6.840000000000000524e-01,1.212444777951422401e-02,-3.543582252794930804e-02,2.297806060476322368e-02
6.850000000000000533e-01,1.417212497541328609e-03,-1.847155377225034173e-02,2.627060994671195915e-02
6.860000000000000542e-01,-2.389006783549496582e-02,-8.715091632000744604e-03,2.750265014884658438e-02
6.870000000000000551e-01,-5.870581577398151230e-02,-3.047246607560571280e-03,1.389347462092105530e-02
6.879999999999999449e-01,-3.493248626043012062e-02,1.087322297103653600e-02,4.201548600905557346e-02
6.889999999999999458e-01,-7.251386181512504969e-02,4.192112444655392289e-02,3.340898822220501191e-02
6.899999999999999467e-01,-5.286768413175771397e-02,5.001884800584985996e-02,1.486064699466211822e-02
6.909999999999999476e-01,-6.211269768923369933e-02,5.937952394742743167e-02,9.213589440334249425e-03
6.919999999999999485e-01,-5.239602926488762247e-02,5.848652211888019647e-02,1.764432834160223340e-02
6.929999999999999494e-01,-1.603215906171845395e-02,1.958081729253924666e-02,-2.611618287764593677e-02
6.939999999999999503e-01,1.368714746843931705e-02,3.448745374858448037e-02,6.319068086931598806e-03
6.949999999999999512e-01,1.281684193340355306e-02,2.676823882406756741e-02,-2.629318014022337738e-02
6.959999999999999520e-01,2.351022345632940505e-02,9.639528352837685790e-03,-4.521578233438866556e-02
6.969999999999999529e-01,2.842320885570517527e-02,6.074346259325109562e-03,-5.008815676123456323e-02
6.979999999999999538e-01,4.882646014488489089e-02,-8.709243681944221771e-03,-2.207523641645792525e-02
6.989999999999999547e-01,6.170160655385092258e-02,-1.762075811779720627e-02,-4.878296188718757309e-02
6.999999999999999556e-01,6.297440990243510783e-02,-4.085102760877883793e-02,-4.165245955151286594e-02
7.009999999999999565e-01,4.638274655974441996e-02,-6.223514871997826159e-02,-4.632454934003618630e-03
7.019999999999999574e-01,2.168972305182291851e-02,-5.396699609495458211e-02,9.677100437253704276e-04
7.029999999999999583e-01,3.404227699807952506e-02,-5.648016834278431209e-02,1.104986401919585103e-02
7.039999999999999591e-01,1.843284381587963205e-02,-3.428068736115297971e-02,1.621734758478371452e-02
7.049999999999999600e-01,-9.961029503346695638e-03,-1.344506670971247486e-02,2.665084486148677073e-02
7.059999999999999609e-01,-1.378491855472098980e-02,-5.974783181375239484e-03,2.571873750969814326e-02
7.069999999999999618e-01,-2.027378853679791607e-02,3.082299399411414509e-02,3.318339668632420275e-02
7.079999999999999627e-01,-3.268100430288436997e-02,-1.150054051915830149e-02,1.457707284034394889e-02
7.089999999999999636e-01,-6.248850700481391879e-02,4.993814654783947093e-02,3.213812305889940379e-02
7.099999999999999645e-01,-5.287297322436161628e-02,3.878310590258249313e-02,2.971680460388029243e-02
7.109999999999999654e-01,-2.861785450350166904e-02,3.917124350693934609e-02,3.841642891639670664e-04
7.119999999999999662e-01,-3.956558038901616253e-02,4.712410492071170826e-02,2.222503521668559023e-02
7.129999999999999671e-01,-3.839229204364529718e-02,2.808041594794037990e-02,6.587088504482606355e-03
7.139999999999999680e-01,-2.001054469186629159e-02,2.494599154150207998e-02,4.207409028363031820e-04
7.149999999999999689e-01,-3.408899601172721370e-03,2.579886593476455464e-02,-3.779245219997710153e-02
7.159999999999999698e-01,3.111650346916517915e-02,1.722255962266169491e-02,-2.856164462558623274e-02
7.169999999999999707e-01,3.929070956559514022e-02,-3.380415453031639442e-03,-1.964584147786865159e-02
7.179999999999999716e-01,6.487697266076442038e-02,-3.044298248260066467e-02,-4.007412863033731759e-02
7.189999999999999725e-01,5.119340896423056619e-02,-3.417806324007251206e-02,-3.070719029724117144e-02
7.199999999999999734e-01,4.273330679368859963e-02,-3.906728459397054709e-02,-1.508355252155593740e-02
7.209999999999999742e-01,6.516437681751041655e-02,-3.218506342781644880e-02,-9.872061774545252272e-03
7.219999999999999751e-01,2.545553764012810707e-02,-4.504802224327546928e-02,-3.616134681439678571e-03
7.229999999999999760e-01,2.922614983897198898e-02,-2.650098711058965911e-02,-7.599709542672795654e-04
7.239999999999999769e-01,-1.576488134891354835e-03,-3.532921380486551272e-02,2.453086857896473200e-03
7.249999999999999778e-01,-4.579376198963323701e-03,-1.072054396021921568e-02,1.634974085513824296e-02
7.259999999999999787e-01,-1.937872044924859524e-02,7.758567810304817236e-03,1.495363735128900882e-02
7.269999999999999796e-01,-2.702082147675348087e-02,-6.982061361631313780e-03,1.838855767716229134e-02
7.279999999999999805e-01,-3.275419073871849857e-02,-6.860002851815646258e-03,2.834688731996100677e-02
7.289999999999999813e-01,-4.894102105146188458e-02,4.052882341952133982e-02,4.007450581764097214e-02
7.299999999999999822e-01,-6.238961771802398887e-02,3.939216065985007981e-02,2.922238393078662594e-02
7.309999999999999831e-01,-5.988469260580570747e-02,5.590245400401147591e-02,2.057509110402036892e-02
7.319999999999999840e-01,-4.951769723573162113e-02,5.996434228818529194e-02,1.709953746546497358e-02
7.329999999999999849e-01,-9.786973207202799216e-03,5.022254464957346537e-02,1.351207893312435238e-02
7.339999999999999858e-01,-2.979258722767809744e-02,5.567287202006318547e-02,1.208295481623711254e-02
7.349999999999999867e-01,3.316844933646883979e-03,1.083034799789797317e-02,-2.500817793121103833e-02
7.359999999999999876e-01,1.922321990600821956e-02,2.007815112066869707e-03,-5.359086016772320049e-02
7.369999999999999885e-01,4.588016945599629470e-02,4.138810702411723115e-03,-2.889933461341850918e-02
7.379999999999999893e-01,4.461544620370727632e-02,-2.960409760845707228e-02,-3.834598794092267809e-02
7.389999999999999902e-01,4.889858949820569123e-02,-3.027486071222449185e-02,-3.871506514508726154e-02
7.399999999999999911e-01,6.839369842521497711e-02,-4.816852010226338465e-02,-2.146662243176980511e-02
7.409999999999999920e-01,5.350055297939354526e-02,-3.333847985290615962e-02,-9.519486178021148784e-03
7.419999999999999929e-01,3.200119427019246926e-02,-3.268861643369917053e-02,-2.336863396173304019e-02
7.429999999999999938e-01,2.723637712123366111e-02,-5.382401950099109655e-02,3.194551852967726299e-03
7.439999999999999947e-01,1.107231618203279727e-02,-1.909267337275587922e-02,2.182916821336547408e-02
7.449999999999999956e-01,1.412597176792960291e-02,-2.944951881792828505e-02,4.775080724135868579e-03
7.459999999999999964e-01,-3.521895638002992684e-02,-1.156509613304344125e-02,1.121697820329485389e-02
7.469999999999999973e-01,-3.432001471163495521e-02,-4.198507832134271514e-04,3.167335997063275288e-02
7.479999999999999982e-01,-6.181430448103009123e-02,2.729794511628019435e-02,2.396003085954808223e-02
7.489999999999999991e-01,-5.649472434553377831e-02,5.401951569557655874e-02,2.555572383636688441e-02
7.500000000000000000e-01,-4.829461431843734553e-02,4.903601362151491228e-02,4.174386088979503695e-02
7.510000000000000009e-01,-5.184701891640527277e-02,2.204776892041233893e-02,1.342394465112872748e-02
7.520000000000000018e-01,-3.958757589407428668e-02,4.099563068722951453e-02,2.396729589848806824e-02
7.530000000000000027e-01,-4.490931714336881403e-02,2.786055775826004610e-02,4.039401191376640853e-03
7.540000000000000036e-01,-3.783599788205333370e-03,3.053600646362229776e-02,6.590720086590657820e-03
7.550000000000000044e-01,1.282613774691555505e-02,4.557554534640457372e-02,-5.859892653776396093e-03
7.560000000000000053e-01,7.781757392442476343e-03,2.495112337483030435e-02,-6.126477615898833634e-03
7.570000000000000062e-01,4.633669284518530940e-02,9.725389582881877396e-03,-3.340605840467453930e-02
7.580000000000000071e-01,4.849049695086272982e-02,-1.974963585026837110e-02,-3.303159046538039351e-02
7.590000000000000080e-01,4.325336743015509994e-02,-3.708940230530726606e-02,-2.402080135217712561e-02
7.600000000000000089e-01,5.865932974951569567e-02,-1.907175338646903764e-02,-2.970362171158512019e-02
7.610000000000000098e-01,3.295599705185552758e-02,-4.893739956416199438e-02,-1.567895313109658045e-02
7.620000000000000107e-01,5.416124036487415805e-02,-5.843426430917175035e-02,-1.438441717885210330e-02
7.630000000000000115e-01,3.559659794286341300e-02,-6.162307953985644848e-02,-1.551124827697813319e-02
7.640000000000000124e-01,4.282072082928273932e-02,-1.973078839040081495e-02,2.359697282812705382e-02
7.650000000000000133e-01,1.874592664306233558e-02,-1.027594736973747036e-02,2.452568371227653934e-02
7.660000000000000142e-01,-4.553018713046128041e-03,2.876360131496004629e-04,1.592668120986538705e-02
7.670000000000000151e-01,-4.548576949201817154e-02,1.137151240740674231e-02,4.086128357803302247e-02
7.680000000000000160e-01,-4.093675030112783192e-02,1.871998252477908437e-02,2.492847615520283819e-02
7.690000000000000169e-01,-5.237017517916875420e-02,3.351995646504825344e-02,4.794881910107193917e-02
7.700000000000000178e-01,-5.118971836276657583e-02,4.091282684014999060e-02,1.662315482157485785e-02
7.710000000000000187e-01,-3.798879742213951555e-02,5.696215235812795638e-03,1.023258121115709456e-02
7.720000000000000195e-01,-4.205076451953251165e-02,4.764281002234176804e-02,3.024323433948054515e-02
7.730000000000000204e-01,-3.987254489572163857e-02,3.565331922108382762e-02,1.506022769534563072e-02
7.740000000000000213e-01,-3.997626725950814697e-02,7.017063373192379376e-03,1.039817719965396283e-03
7.750000000000000222e-01,-1.044824001209729986e-02,1.204304239067053618e-02,-2.490437120712823971e-02
7.760000000000000231e-01,-2.685012720684590640e-03,9.676119569162854386e-03,-3.363233864187031158e-02
7.770000000000000240e-01,2.609442902797284511e-02,-2.200271044787573127e-02,-2.576715627169278572e-02
7.780000000000000249e-01,4.004087984146285917e-02,-2.027757991133723875e-02,-1.411376584171033025e-02
7.790000000000000258e-01,4.193589312156094373e-02,-3.076225282427079086e-02,-1.200490829695112505e-02
7.800000000000000266e-01,4.587975274456728564e-02,-3.739884152047358301e-02,-2.890174643636767710e-02
7.810000000000000275e-01,4.453420392786957421e-02,-3.840908418472105401e-02,-3.007098641862672450e-02
7.820000000000000284e-01,5.176781649125223456e-02,-1.507997649598191540e-02,-3.505299674346448041e-02
7.830000000000000293e-01,2.997086657949243893e-02,-1.893518527904288276e-02,-2.295441824749923712e-02
7.840000000000000302e-01,2.721707159510891594e-02,-1.621156548803170602e-02,-1.675962238515983985e-02
7.850000000000000311e-01,1.204628967326802635e-02,-2.553765818040766578e-02,-2.813489361803237507e-04
7.860000000000000320e-01,-2.389501378914012791e-02,-1.049815933289634066e-02,1.675943707650456860e-02
7.870000000000000329e-01,-3.481475820076852107e-02,-4.712236087443343220e-03,4.484965672927977015e-02
7.880000000000000338e-01,-5.581472163493986921e-02,1.393495287820824616e-02,2.860741809266912489e-02
7.890000000000000346e-01,-3.818582892450885641e-02,2.581597248484946913e-02,2.985279515636218156e-02
7.900000000000000355e-01,-5.812527638485354836e-02,4.188775472272007749e-02,3.762913280996521559e-02
7.910000000000000364e-01,-4.989723442160407668e-02,5.838136102374853059e-02,2.984849467565090300e-02
7.920000000000000373e-01,-5.354110989785099833e-02,4.172206989338213962e-02,4.649229027087373872e-02
7.930000000000000382e-01,-4.641988336148679395e-02,3.566427282745349148e-02,5.835716226640293679e-03
7.940000000000000391e-01,-2.288483163658271494e-02,2.943869456188837747e-02,2.770373398624671919e-03
7.950000000000000400e-01,-8.140788184363997523e-03,1.209940486412108655e-02,-1.290753028353664594e-02
7.960000000000000409e-01,3.707479149792586304e-02,1.275568047614694667e-02,-2.643448566692076576e-02
7.970000000000000417e-01,4.419454430437973896e-02,7.448290675884002184e-03,-2.061010974375498267e-02
7.980000000000000426e-01,5.914050680012904876e-02,-5.689383178440594012e-03,-2.853828258931620163e-02
7.990000000000000435e-01,5.857488161412936767e-02,-3.277513440706446984e-02,-1.409842464432769192e-02
8.000000000000000444e-01,5.129966054427533700e-02,-4.243479140172697756e-02,-2.466100191004203662e-02
8.010000000000000453e-01,5.605897625341559748e-02,-4.636076586224576607e-02,-1.922353845650567536e-02
8.020000000000000462e-01,5.929804841102197938e-02,-4.781341929170523225e-02,-1.795699251187416606e-02
8.030000000000000471e-01,4.879335261944331946e-03,-3.140897107797089444e-02,1.761869652499631345e-02
8.040000000000000480e-01,4.242828199036251940e-02,-3.914048401322105936e-02,9.011531839820691864e-03
8.050000000000000488e-01,1.587044913549741712e-02,1.345947762388551494e-03,1.056266749636446470e-02
8.060000000000000497e-01,-2.290212018132601127e-02,-1.114701805645112488e-02,2.659015011455585775e-02
8.070000000000000506e-01,-1.622005460132334639e-02,8.945914044823431548e-04,2.008429963743415744e-02
8.080000000000000515e-01,-3.576540163212797718e-02,2.577475994534618800e-02,4.349271666740537473e-02
8.090000000000000524e-01,-4.722093368203232611e-02,4.491310600031436784e-02,2.871627012934585207e-02
8.100000000000000533e-01,-4.501550098319317267e-02,2.534272165007928762e-02,3.828326886331877288e-02
8.110000000000000542e-01,-4.099245207684259346e-02,4.575420827008439689e-02,1.738795109713466361e-02
8.120000000000000551e-01,-6.480459695223683703e-02,2.862456835358084123e-02,9.879204398094259751e-03
8.129999999999999449e-01,-4.920881437205271852e-02,3.540266867033614595e-02,1.905079578139513841e-02
8.139999999999999458e-01,-3.689032706742429585e-02,2.664874999974175401e-02,1.302732991137567874e-03
8.149999999999999467e-01,-5.806214979296436124e-03,1.256357572951480490e-02,1.592067139407778512e-02
8.159999999999999476e-01,1.269531801292431671e-02,7.448713684385528319e-03,-6.701006913467690181e-03
8.169999999999999485e-01,2.790776152021211612e-02,-1.215300220752838639e-02,-2.678297157646994386e-02
8.179999999999999494e-01,4.354222317848292084e-02,-2.199475638452672022e-03,-3.001852838015009461e-02
8.189999999999999503e-01,5.937251344066288294e-02,-2.471164464934515886e-02,-2.937976661529440037e-02
8.199999999999999512e-01,5.823292023933943767e-02,-4.210394742705632354e-02,-2.913480946063635307e-02
8.209999999999999520e-01,5.056013065145053414e-02,-3.573386629988532098e-02,-3.356164457794957173e-02
8.219999999999999529e-01,5.414224875443947316e-02,-5.449097878048171639e-02,-1.484211926353060096e-02
8.229999999999999538e-01,1.545451837153967098e-02,-3.819073205202089261e-02,-2.917805113845548318e-02
8.239999999999999547e-01,2.469104737901633984e-02,-2.030164211349209935e-02,-1.003102082903573923e-02
8.249999999999999556e-01,9.523440599579898955e-03,-1.487339288599520172e-02,3.573413468876889681e-03
8.259999999999999565e-01,1.225541831060715341e-02,-4.752535028361231338e-04,-5.807116293982434070e-03
8.269999999999999574e-01,-1.768520545881689318e-02,-9.116447651888496054e-03,3.440078759370399086e-02
8.279999999999999583e-01,-4.104570989040686596e-02,3.548233433534284109e-02,2.915787540697184488e-02
8.289999999999999591e-01,-4.805153564918022979e-02,2.652728779494503003e-02,3.624473012994930410e-02
8.299999999999999600e-01,-5.079969605276008632e-02,4.166150274936001457e-02,3.352945429147939638e-02
8.309999999999999609e-01,-5.266382705703055722e-02,4.680246325003849933e-02,4.204141054494933694e-02
8.319999999999999618e-01,-6.135967386276379443e-02,5.207084878949439638e-02,4.107433570922362776e-02
8.329999999999999627e-01,-2.322930024284557832e-02,1.993758576685653386e-02,2.383185557484565273e-02
8.339999999999999636e-01,-3.409604808989264574e-02,4.321823005711459414e-02,2.135794733531361407e-03
8.349999999999999645e-01,-1.797016772138303534e-02,2.115528240443809507e-02,1.250751518745602279e-03
8.359999999999999654e-01,1.456384962144250360e-02,8.433698542022199582e-03,-9.675569624037283836e-03
8.369999999999999662e-01,3.034020599879499666e-02,-1.521058969105485575e-02,-2.725652193562749098e-02
8.379999999999999671e-01,2.962967373301975821e-02,-4.165804015537631633e-02,-6.056845800384274420e-03
8.389999999999999680e-01,2.870002684914212468e-02,-3.329939713250444633e-02,-5.096239669092004348e-02
8.399999999999999689e-01,5.102667206155418050e-02,-4.462168010743582797e-02,-3.293146914966568056e-02
8.409999999999999698e-01,6.688050245996415843e-02,-2.796290720407027669e-02,-4.166671950480040770e-02
8.419999999999999707e-01,5.408599579390652862e-02,-3.596289938736145497e-02,-2.611212601258191407e-02
8.429999999999999716e-01,4.746465727794834527e-02,-5.045653156778606707e-02,-1.428517144912472281e-02
8.439999999999999725e-01,2.610350843292383316e-02,-3.045430771935962039e-02,-2.269321784448087229e-02
8.449999999999999734e-01,1.461220789890562560e-02,-3.634716717306012146e-02,2.330046881199442955e-03
8.459999999999999742e-01,-2.001868821458547762e-02,-1.499757429337885903e-02,2.253547385942489614e-02
8.469999999999999751e-01,-2.456958992562634225e-02,3.018056946707659352e-02,2.722054942421198165e-03
8.479999999999999760e-01,-3.238527297143935224e-02,2.419383671310169556e-02,4.151656823817487241e-02
8.489999999999999769e-01,-2.920774587075307058e-02,4.845341056505025196e-02,1.788669007656729787e-02
8.499999999999999778e-01,-4.557009087825871635e-02,5.436535700955121703e-02,3.110398116139110117e-02
8.509999999999999787e-01,-4.301051389189025631e-02,4.067488727860903847e-02,2.349963378361422453e-02
8.519999999999999796e-01,-4.510226076122446359e-02,5.664588967432912514e-02,4.561051628136122971e-02
8.529999999999999805e-01,-3.834956043103328327e-02,2.540088532087795420e-02,1.247483000987590317e-02
8.539999999999999813e-01,-2.043504593308425460e-02,4.292482211250001067e-02,2.915926061750300294e-02
8.549999999999999822e-01,-2.059606487918601292e-02,2.491888481156272553e-02,-2.913316275476613738e-03
8.559999999999999831e-01,-1.739632410099714675e-03,-2.053825008049745774e-04,-3.474149255852319960e-03
8.569999999999999840e-01,5.383031805284758942e-03,7.447678086441416852e-04,-2.009068283829897397e-02
8.579999999999999849e-01,3.541303200783246091e-02,-1.388562770946486467e-02,-2.462932118447859475e-02
8.589999999999999858e-01,6.297065125870700275e-02,-3.592962547652990557e-02,-2.860518350053290609e-02
8.599999999999999867e-01,5.285955665301030754e-02,-2.407233727949635582e-02,-3.500799481684239989e-02
8.609999999999999876e-01,6.004475657413213541e-02,-4.150577933798414026e-02,-4.381650038448154511e-02
8.619999999999999885e-01,5.211685411673872698e-02,-2.621387453114491090e-02,-1.928525526553261787e-02
8.629999999999999893e-01,3.262380341628037111e-02,-3.146936128433116403e-02,-1.788807175683545039e-02
8.639999999999999902e-01,3.323409586057276405e-02,-3.388640222694851156e-02,-1.627301587837427441e-02
8.649999999999999911e-01,1.905996645688687319e-02,-3.645834293012649874e-03,-4.415558135830503945e-03
8.659999999999999920e-01,-5.726575348449776219e-03,-3.066926078371275469e-02,-7.112756392831777116e-03
8.669999999999999929e-01,-3.365358341324315578e-02,3.556446251120842089e-02,2.193088192719171853e-02
8.679999999999999938e-01,-2.437327878892436850e-02,2.703015356925005802e-02,3.024403383179144131e-02
8.689999999999999947e-01,-4.773840305035099291e-02,4.532619135232786312e-02,3.703019752229524952e-02
8.699999999999999956e-01,-5.634032110396955395e-02,2.160605515507094468e-02,3.021970597719090060e-02
8.709999999999999964e-01,-5.101998103214716584e-02,4.783195820349039201e-02,2.226684692593698667e-02
8.719999999999999973e-01,-5.535210671753376666e-02,5.318133256405568887e-02,2.578787536994246385e-02
8.729999999999999982e-01,-3.925625997705959463e-02,3.060828724518636218e-02,2.891077079816141079e-02
8.739999999999999991e-01,-1.758564981040670883e-02,4.070797466047883922e-02,2.356662748804114887e-02
8.750000000000000000e-01,-1.254036902245019708e-02,1.145043422999569675e-02,4.148987592537157175e-03
8.760000000000000009e-01,1.297714971383881477e-02,1.714855583597892606e-04,-6.600616555991112213e-04
8.770000000000000018e-01,1.616722363785362548e-02,-1.689869671311144267e-02,-6.198340940746010705e-03
8.780000000000000027e-01,2.542419852366572391e-02,-2.161358578433135447e-02,-1.433640142251021120e-02
8.790000000000000036e-01,4.005780550248579791e-02,-2.347560303951772356e-02,-1.143361430286092897e-02
8.800000000000000044e-01,7.364696463334553800e-02,-3.525899350479434063e-02,-2.035777576767656277e-02
8.810000000000000053e-01,6.470387605360271299e-02,-5.687328788539755542e-02,-3.716938831647989550e-02
8.820000000000000062e-01,6.013712158536455021e-02,-2.562089619260578613e-02,-4.020488252330504941e-02
8.830000000000000071e-01,5.824424789948473569e-02,-4.454310629635433588e-02,-2.995969960752065814e-02
8.840000000000000080e-01,5.081709882609060369e-02,-2.065927792836914911e-02,-2.690746907096273552e-02
8.850000000000000089e-01,-1.057038515676622875e-03,4.263970098911661370e-04,-1.034630604981032209e-02
8.860000000000000098e-01,-1.592306397978201365e-02,1.394382703111589003e-02,3.459193857016170433e-03
8.870000000000000107e-01,-1.043754921241788099e-02,-2.946789113298244707e-04,2.145677089364240661e-02
8.880000000000000115e-01,-4.289013328720247403e-02,4.536944766955577912e-02,1.527627151381051769e-02
8.890000000000000124e-01,-3.959103739363998425e-02,2.971025901729050511e-02,1.099387074965008960e-02
8.900000000000000133e-01,-4.922492563983189851e-02,4.179214745752777432e-02,3.211764031252449525e-02
8.910000000000000142e-01,-4.511285304380172750e-02,3.438890853800786324e-02,1.596707590212335937e-02
8.920000000000000151e-01,-3.862261862158201942e-02,3.046035155726987270e-02,3.128867761225542082e-02
8.930000000000000160e-01,-4.527728522197841526e-02,4.650764816454235756e-02,6.934186339940393712e-03
8.940000000000000169e-01,-2.701597317205509108e-02,2.601944763325806861e-02,1.761277229470194911e-02
8.950000000000000178e-01,-2.291704848981030579e-02,3.935528730580308693e-03,-4.965797526515209129e-03
8.960000000000000187e-01,-5.572177225483725647e-03,-1.126943227437920969e-02,-3.197881999919268553e-03
8.970000000000000195e-01,1.172977018535240751e-02,-2.489558604716850254e-02,-7.049392600297557133e-03
8.980000000000000204e-01,2.199909533852848625e-02,-2.720980012808989906e-02,-3.604415185507448688e-02
8.990000000000000213e-01,5.051501832847701129e-02,-4.941820598616158966e-02,-1.589332953916035296e-02
9.000000000000000222e-01,5.125757068665513783e-02,-3.848384818496886073e-02,-1.538578666867591697e-02
9.010000000000000231e-01,5.623867614237746532e-02,-3.868955560866074728e-02,-3.186645653222192065e-02
9.020000000000000240e-01,6.660933309093869381e-02,-3.552178459261989829e-02,-4.342084970162618518e-02
9.030000000000000249e-01,5.693891449077738420e-02,-3.261743892549767709e-02,-4.647983587085380286e-02
9.040000000000000258e-01,2.798271286816511258e-02,-2.058043297518964004e-02,-3.545272289009473304e-02
9.050000000000000266e-01,3.193253675431490662e-02,1.582259996604675335e-04,-6.105124588715407988e-03
9.060000000000000275e-01,3.036326191765110691e-02,2.009512023731474008e-03,2.040925987061005184e-02
9.070000000000000284e-01,1.624573469445612841e-03,1.579705637675585944e-02,1.157938042119846175e-02
9.080000000000000293e-01,-1.707851225676526585e-02,1.330232153566086872e-02,1.050981558947295356e-02
9.090000000000000302e-01,-6.586743489606605717e-02,4.527046449041843140e-02,3.194857026417477486e-02
9.100000000000000311e-01,-4.198066231283178323e-02,2.683568500523727737e-02,3.692801258610287074e-02
9.110000000000000320e-01,-6.018890761222876057e-02,6.234756790320909042e-02,3.344105560555808709e-02
9.120000000000000329e-01,-4.091578368537917426e-02,4.736917238088392268e-02,3.468938823751097772e-02
9.130000000000000338e-01,-1.920458465205330395e-02,1.183567196938477978e-02,1.693900794759401612e-02
9.140000000000000346e-01,-3.666435341732642017e-02,2.208407515045109765e-02,3.498389884926560167e-02
9.150000000000000355e-01,-2.899748324119913109e-02,-5.776209727277527295e-03,4.150806365849327856e-02
9.160000000000000364e-01,-1.884079765956556823e-02,1.531226218044054932e-03,6.888486290072022913e-03
9.170000000000000373e-01,3.267049040557724188e-02,-2.829639037455328535e-02,-1.289490520565365200e-02
9.180000000000000382e-01,3.539479606958956248e-02,-3.186485117781436699e-02,-2.347828584807789415e-02
9.190000000000000391e-01,3.387422071805496621e-02,-3.696246807734673151e-02,-3.856365117503081363e-02
9.200000000000000400e-01,6.420257631432217671e-02,-4.430417387360841008e-02,-1.689690968840425189e-02
9.210000000000000409e-01,6.531268338673756890e-02,-4.349566981809972060e-02,-2.575204308353666247e-02
9.220000000000000417e-01,4.938858917929854486e-02,-1.890549817225479004e-02,-3.782507177305953483e-02
9.230000000000000426e-01,3.571976414210917966e-02,-2.999428734919424785e-02,-3.127787031157252401e-02
9.240000000000000435e-01,1.839009412514832492e-02,-1.565119251063448388e-02,-3.913295428255069569e-02
9.250000000000000444e-01,2.925953978052346291e-02,-1.681538948083142332e-02,-1.624580907690986731e-02
9.260000000000000453e-01,-1.288683839615028907e-02,-6.150264037405056387e-03,-9.938226236364049518e-03
9.270000000000000462e-01,7.967483649760482428e-03,1.594754912340129102e-02,-1.239001641468104970e-03
9.280000000000000471e-01,-5.064415969632895392e-02,4.412275479074893175e-02,2.171578303600780330e-02
9.290000000000000480e-01,-4.544621780517713733e-02,4.405039331890681087e-02,3.962597898371149167e-03
9.300000000000000488e-01,-4.985047855354274304e-02,4.491038117315267891e-02,3.621519047166615879e-02
9.310000000000000497e-01,-7.653491632545342260e-02,3.276131158550692202e-02,1.807281847040012948e-02
9.320000000000000506e-01,-6.075570443067956905e-02,2.747993191853451145e-02,3.503104079953872629e-02
9.330000000000000515e-01,-5.485727689843309524e-02,3.238650914397382674e-02,3.956487315150727935e-02
9.340000000000000524e-01,-2.056105654367798574e-02,1.700106648202515114e-02,2.207114508659262578e-02
9.350000000000000533e-01,-3.006546044797293871e-02,4.150327897559826472e-03,1.889213210849667243e-02
9.360000000000000542e-01,-7.157745299454952234e-03,-1.536751722462045312e-02,-2.293182945902959291e-02
9.370000000000000551e-01,9.548538178290596340e-03,7.407065077441966038e-03,1.000853313382401612e-02
9.379999999999999449e-01,8.851150205699558418e-03,-3.221201982321535151e-02,-2.131796002979573917e-02
9.389999999999999458e-01,3.996125891957501286e-02,-3.910984975399891400e-02,-1.099131710351217497e-02
9.399999999999999467e-01,5.443526607591692157e-02,-3.848245410401104211e-02,-5.879108792462134185e-03
9.409999999999999476e-01,7.943198515468523346e-02,-5.694059245700170552e-02,-4.901925055443982077e-02
9.419999999999999485e-01,3.712446014425385687e-02,-4.645214000434624152e-02,-3.515604597047380236e-02
9.429999999999999494e-01,3.818899826278140258e-02,-3.288649502075315784e-02,-4.538156724351809224e-02
9.439999999999999503e-01,3.958222669043939823e-02,-4.114167805292959224e-02,-6.509605080013013481e-03
9.449999999999999512e-01,2.937807141621819398e-02,1.249538805221652761e-02,-6.890929912142226832e-03
9.459999999999999520e-01,-7.836201331498333228e-03,8.711613330500002361e-03,-1.628688831195680697e-02
9.469999999999999529e-01,-1.112720204071479535e-02,3.314160580594279620e-02,-1.993450407091572688e-02
9.479999999999999538e-01,-3.410149989343532612e-02,1.722699198655292668e-02,-5.726202625463637161e-03
9.489999999999999547e-01,-5.621348673106581900e-02,2.523276886508366706e-02,1.826577180203224973e-02
9.499999999999999556e-01,-6.564044491479222032e-02,5.739867462441926305e-02,-4.739842621059243608e-04
9.509999999999999565e-01,-5.314678773445376259e-02,5.127974549426340262e-02,3.964985368136468569e-02
9.519999999999999574e-01,-5.594420676163287115e-02,3.802561457082626051e-02,3.269114765968714892e-02
9.529999999999999583e-01,-5.329477757355119416e-02,2.975070982960366026e-02,3.323430299134753907e-02
9.539999999999999591e-01,-3.577508276891374489e-02,1.273311178234429533e-02,3.413416202318354103e-02
9.549999999999999600e-01,-3.220960035703312324e-02,6.059472828619618008e-03,3.762209464368838213e-02
9.559999999999999609e-01,-6.192142330784546761e-03,-1.273482608878421553e-02,1.434505558653951206e-02
9.569999999999999618e-01,2.275341115076631726e-02,-1.556878367521462303e-02,-1.349846524560375551e-02
9.579999999999999627e-01,1.573879431797575376e-02,-2.505909708770507477e-02,-1.036152634825739625e-02
9.589999999999999636e-01,3.426551876448052231e-02,-3.054685327039670731e-02,-3.003850905444778105e-02
9.599999999999999645e-01,4.259073500838517906e-02,-3.672169703781527628e-02,-3.339697122562149123e-02
9.609999999999999654e-01,3.262112241496133158e-02,-3.328362909852023571e-02,-3.681321231231645535e-02
9.619999999999999662e-01,5.408383442974001865e-02,-5.151186813767143907e-02,-3.473956357412177204e-02
9.629999999999999671e-01,5.222626524273455556e-02,-2.064672940125033065e-02,-1.805773095637901865e-02
9.639999999999999680e-01,3.353555138397322499e-02,-4.960234601943771388e-02,-1.599072184869110291e-02
9.649999999999999689e-01,3.118934389995867487e-02,-1.980145965502151661e-02,-3.057585889932568773e-02
9.659999999999999698e-01,1.234380469933670822e-02,8.591585569219522753e-03,-9.953415144899396480e-03
9.669999999999999707e-01,2.182697427061990741e-02,3.498767568338775891e-02,1.389903046948137363e-02
9.679999999999999716e-01,-5.139540373095199954e-02,4.654894863529369562e-04,3.305430730977568666e-03
9.689999999999999725e-01,-3.873227978120821757e-02,2.660157726222292171e-02,-2.723606395486093037e-04
9.699999999999999734e-01,-5.118218859552413347e-02,5.244133778698813197e-02,2.185449964896498190e-02
9.709999999999999742e-01,-6.219951826019705365e-02,4.332432556366729026e-02,3.825380627375703918e-02
9.719999999999999751e-01,-6.427602127136244903e-02,2.947538619939736940e-02,4.877438564574323315e-02
9.729999999999999760e-01,-6.826575825001336695e-02,2.973970727337587119e-02,3.451497812761897960e-02
9.739999999999999769e-01,-4.612645168834132031e-02,2.004850208571051784e-02,2.794452434854248143e-02
9.749999999999999778e-01,-3.724351061788656186e-02,3.966153981073929601e-03,3.201964516364188412e-02
9.759999999999999787e-01,-1.291026403159721905e-02,-6.738782178844778632e-04,1.607580113287365329e-03
9.769999999999999796e-01,2.420625685858981621e-03,-2.361503352392231754e-03,-3.106559890901099911e-03
9.779999999999999805e-01,1.919473957547329981e-02,-2.254532873198933016e-02,-1.530306870415205044e-02
9.789999999999999813e-01,2.887239858428896494e-02,-1.603137040015681358e-02,-1.094073428251422959e-02
9.799999999999999822e-01,6.001942923240895927e-02,-3.275278538301689552e-02,-3.054408810201242677e-02
9.809999999999999831e-01,4.012863271588432840e-02,-3.955095726395525813e-02,-1.465430328957852135e-02
9.819999999999999840e-01,8.228681240027152510e-02,-4.670463800034686114e-02,-5.745573466224129788e-02
9.829999999999999849e-01,5.797523854455152031e-02,-3.200028249833668931e-02,-3.802723821487867528e-02
9.839999999999999858e-01,1.643539313543137398e-02,-3.214569051846851572e-02,-2.840830282149010150e-02
9.849999999999999867e-01,2.367333035665140570e-02,-1.883498498225812112e-02,-1.092567282787459786e-02
9.859999999999999876e-01,2.878862548780947855e-02,8.864609149807915929e-04,-2.322600435368474617e-02
9.869999999999999885e-01,6.859911916340068931e-04,2.770390829609279196e-02,-1.484303654765421754e-02
9.879999999999999893e-01,-9.620133120682650835e-03,2.783168168575249346e-02,2.978884709679666381e-03
9.889999999999999902e-01,-4.818137944490325647e-02,7.348348967547532751e-03,1.227492099267117089e-02
9.899999999999999911e-01,-3.483928521102948317e-02,3.574559813110735756e-02,3.775957192167317400e-02
9.909999999999999920e-01,-5.557732575396295144e-02,4.524705417177986994e-02,2.473434832880989573e-02
9.919999999999999929e-01,-5.588370251482718820e-02,4.386591708786024418e-02,2.630915057717259781e-02
9.929999999999999938e-01,-4.416683807417561003e-02,3.575381470859014671e-02,3.539459157966938496e-02
9.939999999999999947e-01,-5.447957360812833577e-02,3.782342962638005762e-02,2.667240353239157258e-02
9.949999999999999956e-01,-2.376330900534617818e-02,1.967253071842117035e-02,7.217937395823623668e-03
9.959999999999999964e-01,-2.173357097933709126e-02,-1.117529582798789875e-02,1.176028378837554351e-02
9.969999999999999973e-01,-8.891230798889336595e-03,-3.545954173767847106e-02,1.851779249346942324e-02
9.979999999999999982e-01,2.653354309591861304e-02,-6.277514121810229969e-03,1.756876985973256783e-02
9.989999999999999991e-01,3.933516619655224450e-02,-2.332325475297878422e-03,-1.579816727807834692e-02
1.000000000000000000e+00,4.502353201609926581e-02,-4.417068622871693495e-02,-2.310875147350706371e-02
1.000999999999999890e+00,5.108450152020203860e-02,-4.235695297051469965e-02,-2.433476831774622831e-02
1.002000000000000002e+00,4.560022069822741025e-02,-4.094895339958649905e-02,-2.775159317914130050e-02
1.002999999999999892e+00,1.965827694231892658e-02,-2.996521505932224494e-02,-4.551336240135451378e-02
1.004000000000000004e+00,4.759067369788985702e-02,-3.966336663646197191e-02,-2.649902785292923904e-02
1.004999999999999893e+00,4.720695310692413910e-02,-5.244324913038086403e-04,-2.154124251983995098e-02
1.006000000000000005e+00,1.675305891119068663e-02,7.015762387534307636e-03,-2.871302658844435141e-02
1.006999999999999895e+00,2.059246463297215168e-02,1.188694631755022636e-02,-1.308859841475695437e-02
1.008000000000000007e+00,-2.053188215429987279e-02,3.787960661426913178e-02,-1.100896242160197616e-02
1.008999999999999897e+00,-6.198859568130995340e-02,3.417905668006710612e-02,9.402696524746642290e-03
1.010000000000000009e+00,-3.216995437744899627e-02,6.151956228525803927e-02,2.906915208522773894e-02
1.010999999999999899e+00,-5.060675190954501412e-02,4.976756004771200337e-02,2.780433300899317825e-02
1.012000000000000011e+00,-3.665960044349328428e-02,3.827651488242072436e-02,3.952875106225023361e-02
1.012999999999999901e+00,-6.022976302691090272e-02,4.702364470281619052e-02,4.040824025466923514e-02
1.014000000000000012e+00,-4.223577965338663753e-02,2.922230494556099858e-02,3.987947620874702365e-02
1.014999999999999902e+00,-5.887183772486876548e-02,8.230459834573130087e-03,2.623370790274615581e-03
1.016000000000000014e+00,-1.957323815936316130e-02,-2.831372490677643017e-02,3.256111247630497779e-02
1.016999999999999904e+00,-3.000893752711004015e-04,-1.601191853280267002e-02,9.908321102406837666e-03
1.018000000000000016e+00,2.107406431925135104e-02,-3.337701381365763831e-02,2.102624910500484542e-02
1.018999999999999906e+00,3.128600005265250866e-02,-2.520498676348814637e-02,-2.131441910761508289e-03
1.020000000000000018e+00,4.306872755891957838e-02,-3.572101652975934183e-02,-3.131565691121820233e-02
1.020999999999999908e+00,4.884619420490494274e-02,-4.198215425858557032e-02,-2.427950447197836301e-02
1.022000000000000020e+00,7.911505801994500597e-02,-3.184893193884095336e-02,-1.769427364341754835e-02
1.022999999999999909e+00,5.998249646458817669e-02,-1.793147735839045395e-02,-1.653671564635873434e-02
1.024000000000000021e+00,4.963815202712308638e-02,-1.727343543353601629e-02,-1.622062860460745173e-02
1.024999999999999911e+00,5.235219567388735978e-02,-2.284883304684564090e-02,-2.239442855282335054e-02
1.026000000000000023e+00,6.010159430059613082e-03,1.395969417142475973e-02,-8.526303660457415154e-03
1.026999999999999913e+00,2.333186077537791059e-02,5.019774859139805590e-02,-1.780304623528393068e-02
1.028000000000000025e+00,-1.772207467739477654e-02,3.953139359872094583e-02,-5.385889959203648408e-03
1.028999999999999915e+00,-2.806790633685191799e-02,2.561996861211542770e-02,7.872204733462990697e-03
1.030000000000000027e+00,-5.342380801943603930e-02,4.366317250172482151e-02,2.778171486970502577e-02
1.030999999999999917e+00,-5.672535166571715526e-02,4.849742012623300957e-02,1.665938145318502164e-02
1.032000000000000028e+00,-7.007140193134039907e-02,3.529187970978746314e-02,2.287620665989998150e-02
1.032999999999999918e+00,-4.553785715348878521e-02,3.706441471777609936e-02,4.163213550789971601e-02
1.034000000000000030e+00,-4.135586230325916796e-02,1.885053518237933545e-02,2.609182578497068819e-02
1.034999999999999920e+00,-3.640427355638897744e-02,2.028013028640611448e-02,3.123305546533109919e-02
1.036000000000000032e+00,-2.339042787815612950e-02,-4.271827686998620754e-02,1.166832075118926296e-02
1.036999999999999922e+00,-2.885474893790554440e-03,-1.924821524092643760e-02,7.399903670646093556e-03
1.038000000000000034e+00,9.651601853700168820e-03,-2.657151903547974592e-02,7.825863329837853821e-03
1.038999999999999924e+00,3.432906204123387095e-02,-3.637611116051110705e-02,-4.982700867750777113e-03
1.040000000000000036e+00,4.805703532185760102e-02,-5.349856319402364335e-02,-2.591768784989105165e-02
1.040999999999999925e+00,5.450919899194240498e-02,-3.730056335772602427e-02,-2.057155231825153266e-02
1.042000000000000037e+00,6.100149134877783097e-02,-2.480351275289001400e-02,-1.344803374735458086e-02
1.042999999999999927e+00,5.286647140445510651e-02,-2.529599867876808350e-02,-1.716560070094178339e-02
1.044000000000000039e+00,4.680303160436986160e-02,-2.673531098444862156e-02,-2.842412690139736048e-02
1.044999999999999929e+00,2.598756329693559936e-02,-9.346990489753577436e-03,-4.021448890668152809e-02
1.046000000000000041e+00,1.592668892250763413e-02,-4.513312370431464375e-03,-1.261240444009766731e-02
1.046999999999999931e+00,5.311609259993488666e-03,9.024037136185828617e-03,-2.793175055124870465e-02
1.048000000000000043e+00,-2.303507792830302575e-02,1.753146137285382586e-02,1.097761749043102419e-02
1.048999999999999932e+00,-1.687426835256801080e-02,3.540877259061271654e-02,2.883124450522890191e-03
1.050000000000000044e+00,-4.829405309817177278e-02,3.987277818046629230e-02,1.172713273677637030e-02
1.050999999999999934e+00,-6.592765180619102050e-02,4.337911300201837544e-02,4.434302720554446353e-02
1.052000000000000046e+00,-6.882734820429196876e-02,5.134290632891266859e-02,4.231752106181630585e-02
1.052999999999999936e+00,-5.054907028236608341e-02,3.788500513034181311e-02,3.771232836898748969e-02
1.054000000000000048e+00,-3.784320664375759313e-02,5.801523989319554500e-03,4.430778079557130128e-02
1.054999999999999938e+00,-1.279538187458372292e-02,3.932685148997889547e-03,3.057558889893573564e-02
1.056000000000000050e+00,-5.326366576621358213e-03,3.303067357039742025e-02,1.420357138677807302e-02
1.056999999999999940e+00,-4.936225999793106842e-04,-8.290880012731014631e-03,2.243098222075289375e-02
1.058000000000000052e+00,1.688621616776053713e-02,-1.487184717955785654e-03,2.715145557286865671e-02
1.058999999999999941e+00,6.646672404352199463e-03,-1.996857990092704496e-02,5.513138460519951059e-03
1.060000000000000053e+00,5.309976986988168557e-02,-3.441977198711177605e-02,-1.890738955688461148e-02
1.060999999999999943e+00,6.434550059036833747e-02,-3.920230198579441327e-02,-1.025218727934040612e-02
1.062000000000000055e+00,4.832649900629871348e-02,-3.210253305157683562e-02,-1.999259472591658274e-02
1.062999999999999945e+00,5.096290242202732718e-02,-3.454927225254213197e-02,-4.627743159979299387e-02
1.064000000000000057e+00,5.077000693930748543e-02,-3.405672278012160381e-02,-3.083848935044077033e-02
1.064999999999999947e+00,2.860003800814480898e-02,-5.390080453416292577e-03,-3.114703077507670684e-02
1.066000000000000059e+00,2.846752908076543090e-02,-1.719417973728344304e-02,-1.028013048131993200e-02
1.066999999999999948e+00,-5.678222041096090420e-04,2.004804124542715338e-02,1.099436179568253832e-02
1.068000000000000060e+00,-1.076262546104271925e-02,3.722830241313451055e-02,-8.745303030706891301e-03
1.068999999999999950e+00,-3.464841579404443622e-02,3.571687899210488487e-02,-1.987203271810702998e-02
1.070000000000000062e+00,-2.871965561187182422e-02,3.909736914284463877e-02,-5.156247450159547746e-03
1.070999999999999952e+00,-3.479631037881585065e-02,4.509804770081919656e-02,2.700725107799084070e-03
1.072000000000000064e+00,-3.821638334400701692e-02,3.972800923022531960e-02,3.310838257787543371e-02
1.072999999999999954e+00,-5.363988918022354058e-02,4.180564590557162702e-02,3.251341303665993693e-02
1.074000000000000066e+00,-2.835198543509871369e-02,1.597416477277430191e-02,5.721612137208230420e-02
1.074999999999999956e+00,-4.172954373668716355e-02,9.756665518559139508e-03,3.858043138559265339e-02
1.076000000000000068e+00,-2.532776648278736720e-02,-1.911465528880051251e-02,2.778411873656692899e-02
1.076999999999999957e+00,-7.380245526566782920e-03,-9.213908980685444131e-03,2.234880198483591221e-02
1.078000000000000069e+00,2.502424294464872679e-03,-3.236626014266805879e-02,2.565942803314172696e-02
1.078999999999999959e+00,3.205768228727132879e-02,-5.972968367363726966e-02,3.406489634345898684e-03
1.080000000000000071e+00,4.487503509632025794e-02,-3.840462176294402730e-02,-4.140356119911953181e-03
1.080999999999999961e+00,4.236068319797630516e-02,-4.378911408974057312e-02,-1.257083259411349505e-02
1.082000000000000073e+00,6.155509114586778241e-02,-4.482257246386873312e-02,-5.761271631998422446e-03
1.082999999999999963e+00,4.066398932588580206e-02,-4.245582701795349440e-02,-1.557992670913537631e-02
1.084000000000000075e+00,4.651175503638559083e-02,-3.482234122848313490e-02,-3.177309440853635925e-02
1.084999999999999964e+00,5.919625344016383323e-02,8.759149389282964299e-03,-2.341954156348484417e-02
1.086000000000000076e+00,3.431559315288713885e-02,1.129386091765724638e-02,-6.827589714778663568e-03
1.086999999999999966e+00,1.404730595652323860e-02,2.617560186955234305e-02,-3.109493188833676799e-02
1.088000000000000078e+00,-6.489526424477517173e-03,3.776049923982547490e-02,-3.176369575522201144e-02
1.088999999999999968e+00,-8.714853953661037128e-03,6.295655585234162521e-02,-1.433078717070483329e-02
1.090000000000000080e+00,-2.742006549298948992e-02,4.438453500720378891e-02,2.318770085274588551e-03
1.090999999999999970e+00,-3.813166009783486299e-02,4.029241735856294720e-02,2.914298932453166652e-02
1.092000000000000082e+00,-5.737453558885866750e-02,6.139459123531695178e-02,2.017157218579133243e-02
1.092999999999999972e+00,-6.608249085027291525e-02,3.328416926569367079e-02,1.646783875404851660e-02
1.094000000000000083e+00,-4.378647028534890517e-02,2.939285319855785075e-02,3.555133266013944804e-02
1.094999999999999973e+00,-3.690169069842430538e-02,5.447480981542129029e-03,4.468902723350090533e-02
1.096000000000000085e+00,-1.624316322638155036e-02,3.771991284228792558e-03,3.466296407495144533e-02
1.096999999999999975e+00,-1.410166643162827490e-03,-6.693753246018255450e-03,2.531878621308407407e-02
1.098000000000000087e+00,1.886264218409964069e-03,-2.115763199799189365e-02,1.394663492467147076e-02
1.098999999999999977e+00,1.818408824816063543e-02,-4.046273818434450303e-02,1.887807169153798634e-02
1.100000000000000089e+00,4.324229633854092397e-02,-4.636155182956937237e-02,-7.177921814522879133e-03
1.100999999999999979e+00,5.759993553318754761e-02,-6.018492235352601583e-02,-2.029159260357370903e-02
1.102000000000000091e+00,5.002287384456262365e-02,-5.057735701627655289e-02,-9.486230887177257015e-03
1.102999999999999980e+00,4.187999264758702350e-02,-2.360181702300803014e-02,-1.922293576421981245e-02
1.104000000000000092e+00,6.204274383793986769e-02,-3.072257451177316454e-02,-1.918394516641348801e-02
1.104999999999999982e+00,4.568065215794878814e-02,-2.901999370510333076e-03,-1.640584347442862120e-02
1.106000000000000094e+00,3.151162919886515285e-02,-2.102342648829975263e-02,-3.695564310280100018e-02
1.106999999999999984e+00,4.744506991900630972e-03,1.224490273911498471e-02,-2.393443222473936108e-02
1.108000000000000096e+00,2.519285170559795381e-02,5.268599786877455754e-02,-6.850622416769788607e-03
1.108999999999999986e+00,-2.563448773013651816e-02,3.677063310759215442e-02,2.552313639872082901e-03
1.110000000000000098e+00,-3.387117581126855570e-02,5.564839451857429148e-02,-4.956676538937893582e-03
1.110999999999999988e+00,-4.606990777516765945e-02,3.688320334985535631e-02,1.351467831935077024e-02
1.112000000000000099e+00,-7.388650835786757243e-02,4.566377672303498919e-02,4.404572178452735055e-03
1.112999999999999989e+00,-6.744703977205365741e-02,8.329610128556741086e-03,4.217137073038547401e-02
1.114000000000000101e+00,-6.537543265747008947e-02,2.575738274726406280e-03,4.193214332970544855e-02
1.114999999999999991e+00,-4.108586199020781288e-02,1.176514547580854303e-02,2.795262918164619775e-02
1.116000000000000103e+00,-1.897535794593915165e-02,-1.019962412521658451e-02,2.910892172894875493e-02
1.116999999999999993e+00,-3.398621542029726245e-02,-1.854991027029130254e-02,1.849584002481019160e-02
1.118000000000000105e+00,1.128230063102773038e-02,-5.279166627766194303e-02,1.517118804329646966e-03
1.118999999999999995e+00,1.718998018362002250e-02,-4.309277794541670897e-02,2.225420524660627272e-02
1.120000000000000107e+00,2.813001984658193219e-02,-5.664468017151540191e-02,1.005898519194416054e-03
1.120999999999999996e+00,5.998262328081146316e-02,-2.812345565905791447e-02,2.261256957824037649e-03
1.122000000000000108e+00,4.169400430630520321e-02,-2.433142868318787649e-02,-2.864196041643057508e-02
1.122999999999999998e+00,4.919392766059364763e-02,-3.891766086912622213e-02,-3.567588775492436942e-02
1.124000000000000110e+00,6.073379860018385257e-02,-2.867612803539013044e-02,-3.868825763266586781e-02
1.125000000000000000e+00,3.580476197706094349e-02,1.204258066249744297e-02,-8.410110056157979463e-03
1.125999999999999890e+00,4.073280633051047650e-02,9.081321236489749496e-03,-3.201745425723630939e-02
1.127000000000000002e+00,-1.342799490021455910e-03,2.542934131291731126e-03,-3.927283618422295307e-03
1.127999999999999892e+00,7.920509791188683202e-03,4.146560639958334765e-02,-2.697259236863154205e-02
1.129000000000000004e+00,-1.268357719604742626e-02,4.080468138998594174e-02,9.544885244501033483e-03
1.129999999999999893e+00,-2.833232481532797775e-02,3.906045315063645662e-02,3.484790127058508963e-02
1.131000000000000005e+00,-4.507169215486441644e-02,3.157785047867614492e-02,-1.274937313105020502e-03
1.131999999999999895e+00,-2.812640626963853335e-02,2.204067980474783139e-02,2.410473148831051432e-02
1.133000000000000007e+00,-4.739634665666944691e-02,2.639690921511978275e-02,1.184614440886974651e-02
1.133999999999999897e+00,-3.812153306092112143e-02,2.063224030864495295e-02,8.858809524304529087e-03
1.135000000000000009e+00,-4.230183179956008288e-02,1.316084313156563011e-02,3.849225670281448269e-02
1.135999999999999899e+00,-2.455774915329751382e-02,2.211958680584562645e-03,3.252572151968678715e-02
1.137000000000000011e+00,-8.394309400007293753e-03,-2.359441831358347758e-02,2.708546853837780558e-02
1.137999999999999901e+00,-1.414226530965749214e-03,-3.402398569519238247e-02,3.320979068831528963e-02
1.139000000000000012e+00,3.713172882403441288e-02,-3.316473756585758270e-02,2.089188915663897639e-02
1.139999999999999902e+00,3.100041709336216408e-02,-2.819719488743728866e-02,-2.430247925000897456e-03
1.141000000000000014e+00,1.334427927426141101e-02,-5.399151648023960831e-02,-3.853924115934520556e-03
1.141999999999999904e+00,2.794991663075405836e-02,-4.961441783580228942e-02,1.581453295326684357e-03
1.143000000000000016e+00,4.950488534959428255e-02,-3.555206812948891876e-02,-1.801407705100331949e-02
1.143999999999999906e+00,3.516499803126006685e-02,-3.332738265868373517e-02,-2.180881558245641519e-03
1.145000000000000018e+00,3.624758733717525772e-02,-2.708062327238534503e-02,-3.306535953502028058e-02
1.145999999999999908e+00,3.709955299140072632e-02,1.734627183177038512e-02,-2.353466524746487820e-02
1.147000000000000020e+00,3.786599806116132394e-02,1.530529429186977021e-02,-3.867931464857626844e-02
1.147999999999999909e+00,1.744663284473547266e-02,3.335243411857833490e-02,-3.495256415646837839e-02
1.149000000000000021e+00,2.866724601701624905e-03,5.747390360183433911e-02,-1.089512123225038799e-02
1.149999999999999911e+00,-4.807396509059989193e-02,1.894175907356670380e-02,7.407598782951120217e-03
1.151000000000000023e+00,-3.695335373631510045e-02,3.152518768615338723e-02,-2.522734236118526555e-02
1.151999999999999913e+00,-6.293603148300634664e-02,4.905619939578022976e-02,1.285347653820824139e-03
1.153000000000000025e+00,-5.102660886939432150e-02,8.045854374185498412e-03,3.138878956754477534e-02
1.153999999999999915e+00,-5.149967680935163550e-02,9.046194546772948555e-03,3.009635812560555040e-02
1.155000000000000027e+00,-4.563621243396091820e-02,3.579253936390144799e-03,3.635069993557867724e-02
1.155999999999999917e+00,-2.558196532478509283e-02,1.155552343275589519e-02,2.508296387161793040e-02
1.157000000000000028e+00,-4.140535774041684963e-02,-3.148599676495573985e-02,4.160590544267890600e-02
1.157999999999999918e+00,5.186105633470278718e-03,-2.825417500584019928e-02,4.410204702352241157e-02
1.159000000000000030e+00,-4.822033138551720319e-03,-3.956117634101456032e-02,-1.158702955543469172e-02
1.159999999999999920e+00,2.995780379105646499e-02,-3.983747328203364468e-02,-2.593278330926711891e-03
1.161000000000000032e+00,4.320802045920168338e-02,-3.331023199967154264e-02,2.043960668791977922e-02
1.161999999999999922e+00,4.652008042312455460e-02,-4.684019262505648151e-02,-4.952532407807644366e-03
1.163000000000000034e+00,5.365340191389268015e-02,-4.630536513323865733e-02,-2.825724288145028962e-02
1.163999999999999924e+00,6.626706027406421839e-02,-2.024426736163610976e-02,-4.080185035246009645e-02
1.165000000000000036e+00,5.392396460002919778e-02,1.420920370818454931e-02,-2.358852625033571598e-02
1.165999999999999925e+00,2.723123803091614600e-02,2.513302963501221413e-02,-4.046250430489744393e-02
1.167000000000000037e+00,1.793767831303473212e-02,1.149761803266335057e-02,-4.992128837742687564e-02
1.167999999999999927e+00,1.122193524293327478e-02,3.624274267803218735e-02,-2.534230896286165588e-02
1.169000000000000039e+00,-7.058384638673862073e-03,1.263576516447726707e-02,-2.229009538308642999e-02
1.169999999999999929e+00,-5.359688482500601231e-02,4.239040195345206152e-02,-1.680867182872538071e-02
1.171000000000000041e+00,-4.219920803925718278e-02,2.857011650187711582e-02,-3.178337220494415632e-04
1.171999999999999931e+00,-4.756216270328231938e-02,4.616973949843319880e-02,1.757296712244154138e-02
1.173000000000000043e+00,-4.554949382220267740e-02,2.957114099232194260e-02,2.664294267109367648e-02
1.173999999999999932e+00,-5.946045984364524417e-02,3.568878134417078490e-02,1.685883570506632040e-02
1.175000000000000044e+00,-6.092342419601660258e-02,-2.370616971919040777e-03,2.745933863332263719e-02
1.175999999999999934e+00,-2.739777511181617012e-02,-4.525660155962812035e-03,1.648060811571177078e-02
1.177000000000000046e+00,-2.025932424695151349e-02,-2.066802943091705300e-02,2.735475501234765211e-02
1.177999999999999936e+00,1.775745934438131488e-02,-1.680598460662375594e-03,3.149867680982516849e-02
1.179000000000000048e+00,3.351944480820431144e-02,-4.312506491897351302e-02,1.483128385343833976e-02
1.179999999999999938e+00,1.870152446927101850e-02,-4.586953793175894967e-02,1.213155636002277889e-02
1.181000000000000050e+00,5.923933804623039701e-02,-5.176707589413423460e-02,-1.848027161440294469e-02
