time,acc_x,acc_y,acc_z
0.000000000000000000e+00,-1.632131348112627126e-02,-9.453286095595916927e-02,6.202205742072736117e-02
1.000000000000000021e-03,-2.104081278996246945e-02,-1.075198382340143283e-01,4.375790447816911566e-02
2.000000000000000042e-03,-7.379402016574640455e-02,-1.237255185687738679e-01,4.406544281868705892e-02
3.000000000000000062e-03,-7.868965043292297512e-02,-1.392805046117688572e-01,8.195239584748732070e-04
4.000000000000000083e-03,-9.780728903196990454e-02,-1.743288811630791524e-01,-5.906654552801290101e-04
5.000000000000000104e-03,-1.394631035597287683e-01,-1.700162280310414942e-01,-1.406112790607558748e-02
6.000000000000000125e-03,-1.550986503540399963e-01,-1.770345860536421401e-01,-3.005730924295298145e-02
7.000000000000000146e-03,-1.889879209965467932e-01,-2.072450733167570391e-01,-3.726014217025377245e-02
8.000000000000000167e-03,-1.995134945457147091e-01,-2.219889762570893821e-01,-6.196004426480242883e-02
8.999999999999999320e-03,-2.178615577698061745e-01,-2.270117889816530288e-01,-7.029520254424544146e-02
1.000000000000000021e-02,-2.443192676914636707e-01,-2.363833335383038470e-01,-8.984694993436199983e-02
1.099999999999999936e-02,-2.601280026909429388e-01,-2.433362960069312964e-01,-9.686800189088239088e-02
1.200000000000000025e-02,-2.795105511740339499e-01,-2.500389855358573499e-01,-1.148335843242093424e-01
1.299999999999999940e-02,-2.780472791757112039e-01,-2.497706580451559411e-01,-1.139125379725803577e-01
1.400000000000000029e-02,-2.856853679532591062e-01,-2.676091684705613760e-01,-1.350475375567836978e-01
1.499999999999999944e-02,-3.002847048264961072e-01,-2.605054226188610600e-01,-1.503324535853278743e-01
1.600000000000000033e-02,-3.228032520985776310e-01,-2.645317449229906970e-01,-1.483706934378973830e-01
1.700000000000000122e-02,-3.188008099805716422e-01,-2.794629204076071738e-01,-1.781851110701097585e-01
1.799999999999999864e-02,-3.320157780421887916e-01,-2.729243715248346192e-01,-1.503406933306268012e-01
1.899999999999999953e-02,-3.307361022350498447e-01,-2.626357669523279315e-01,-1.897277697139079233e-01
2.000000000000000042e-02,-3.194445153062893672e-01,-2.466225705520271316e-01,-1.915202550814340265e-01
2.100000000000000130e-02,-3.390199744141695337e-01,-2.520815206884781667e-01,-1.759972529816107578e-01
2.199999999999999872e-02,-3.392547625779722131e-01,-2.377092654544167571e-01,-2.101233844346795943e-01
2.299999999999999961e-02,-3.286807803746801815e-01,-2.355240276174536407e-01,-2.065464097920192699e-01
2.400000000000000050e-02,-3.272251357102544111e-01,-2.317264809367587941e-01,-2.194226268897302157e-01
2.500000000000000139e-02,-3.233717843824137628e-01,-2.320700862855600566e-01,-1.999189848162673255e-01
2.599999999999999881e-02,-3.263399382592289122e-01,-2.132073196278934935e-01,-2.153490488669554948e-01
2.699999999999999969e-02,-2.942407986840359646e-01,-1.826204915205857371e-01,-1.854039067661294726e-01
2.800000000000000058e-02,-2.861900086635004725e-01,-1.793096327201707529e-01,-2.137909076811887465e-01
2.900000000000000147e-02,-2.725947293003183614e-01,-1.527002398894891089e-01,-1.976505929050828003e-01
2.999999999999999889e-02,-2.622966393910580729e-01,-1.290589821986717345e-01,-1.870265546575028137e-01
3.099999999999999978e-02,-2.518611483135418938e-01,-1.010066227550070472e-01,-1.626766743252471559e-01
3.200000000000000067e-02,-2.144857563711816129e-01,-9.488234021362247639e-02,-1.788331895646719238e-01
3.300000000000000155e-02,-2.009472959983448770e-01,-8.095192435627515670e-02,-1.685908351269138350e-01
3.400000000000000244e-02,-1.707076359423522760e-01,-6.205547146070034686e-02,-1.742606359327040499e-01
3.500000000000000333e-02,-1.562820579704003454e-01,-4.314270104581501009e-02,-1.549167022246407677e-01
3.599999999999999728e-02,-1.385226473499562849e-01,-2.379229912347049364e-02,-1.515505015848133130e-01
3.699999999999999817e-02,-1.130161251408825090e-01,5.441301888435307911e-03,-1.283945082468576915e-01
3.799999999999999906e-02,-8.265505990983207374e-02,3.497926348729357010e-02,-1.089639680005076994e-01
3.899999999999999994e-02,-7.446890844095804818e-02,2.629994382652474372e-02,-1.019141674238025347e-01
4.000000000000000083e-02,-3.210739958247284254e-02,5.377140815973038834e-02,-8.530778941307594343e-02
4.100000000000000172e-02,-7.575711730572217903e-03,8.754807565876109032e-02,-6.345659868258585190e-02
4.200000000000000261e-02,1.169205037841860792e-02,9.324069058249154218e-02,-4.970470375724880818e-02
4.299999999999999656e-02,2.246130288501661451e-02,1.110392697122846023e-01,-3.621629983407850806e-02
4.399999999999999745e-02,6.231949355785671579e-02,1.235554008040071067e-01,-4.699893129196013042e-02
4.499999999999999833e-02,8.686069170536424300e-02,1.541725360515172893e-01,-2.494678937104089639e-02
4.599999999999999922e-02,9.659126634639875197e-02,1.675216130691642435e-01,-8.722563381447962644e-03
4.700000000000000011e-02,1.189522489387171145e-01,1.755583388021577651e-01,3.726348106097597708e-03
4.800000000000000100e-02,1.461772007826748210e-01,1.948989941828609407e-01,4.340048551311358888e-02
4.900000000000000189e-02,1.967862361651714076e-01,2.018698397761101160e-01,3.914881618092864307e-02
5.000000000000000278e-02,1.885778950006256893e-01,2.204077252559660249e-01,6.091863076140805605e-02
5.099999999999999672e-02,2.288812524178099328e-01,2.395509831219176378e-01,6.645709969954544105e-02
5.199999999999999761e-02,2.298881033373161575e-01,2.344356752367812158e-01,8.468097321185376336e-02
5.299999999999999850e-02,2.495608356396168404e-01,2.365421388407248637e-01,8.691886495533933388e-02
5.399999999999999939e-02,2.655354630336101418e-01,2.656339644779940334e-01,1.125353758748155325e-01
5.500000000000000028e-02,2.786620182093056952e-01,2.640895685951574756e-01,1.186890745092237798e-01
5.600000000000000117e-02,3.148773219294436765e-01,2.744566410482611740e-01,1.300635058212308293e-01
5.700000000000000205e-02,3.085175361424470353e-01,2.732999459821250920e-01,1.519863092882002276e-01
5.800000000000000294e-02,3.114661458678966710e-01,2.776713525595704835e-01,1.542232226080468283e-01
5.899999999999999689e-02,3.319450623923585475e-01,2.821362100541924267e-01,1.724166761887493127e-01
5.999999999999999778e-02,3.262083944531365964e-01,2.675392049879707912e-01,1.763307776033680441e-01
6.099999999999999867e-02,3.364397684795785159e-01,2.494812166533685038e-01,1.748216254751817078e-01
6.199999999999999956e-02,3.352635943218481573e-01,2.753513662069071999e-01,1.820930746114274301e-01
6.300000000000000044e-02,3.469962611759492277e-01,2.546309917330635830e-01,2.032721502280105397e-01
6.400000000000000133e-02,3.522911339230262451e-01,2.497304334398524339e-01,1.781046546468410263e-01
6.500000000000000222e-02,3.367398324598387394e-01,2.509544947311130314e-01,1.877641893885320656e-01
6.600000000000000311e-02,3.075228069672838460e-01,2.147938456157384712e-01,1.971910541413716134e-01
6.700000000000000400e-02,3.101882309131839266e-01,1.926266243576107706e-01,2.100300167517275551e-01
6.800000000000000488e-02,3.068528028496430027e-01,1.921161180841764737e-01,1.939928598361139733e-01
6.900000000000000577e-02,2.815680418947588137e-01,1.848941110703334056e-01,2.123306669379244616e-01
7.000000000000000666e-02,2.972445041434808588e-01,1.495109018742286078e-01,2.091468277826923627e-01
7.099999999999999367e-02,2.703772264153500582e-01,1.432185812587174478e-01,1.874274485843349658e-01
7.199999999999999456e-02,2.385612827220170151e-01,1.387065646972174826e-01,1.945397373981038180e-01
7.299999999999999545e-02,2.380104103456545939e-01,1.065405179698327987e-01,1.821968393271575226e-01
7.399999999999999634e-02,2.257497842140868405e-01,8.978353999617726122e-02,1.708895179133641806e-01
7.499999999999999722e-02,2.096605360533677076e-01,6.931520299287952103e-02,1.616440075915459018e-01
7.599999999999999811e-02,1.692454046800901390e-01,5.359254677224356556e-02,1.628534092175312475e-01
7.699999999999999900e-02,1.612243575280432883e-01,2.508682732482403477e-02,1.429717165160722947e-01
7.799999999999999989e-02,1.333207549235583267e-01,2.217059563169378276e-03,1.382939976799947013e-01
7.900000000000000078e-02,1.140477216079165135e-01,-9.379975657980757150e-03,1.308310913128415409e-01
8.000000000000000167e-02,8.217844790456282911e-02,-4.733619874184671200e-02,1.160384965342831642e-01
8.100000000000000255e-02,6.523286804416435214e-02,-4.168645472043010225e-02,1.072179554238326671e-01
8.200000000000000344e-02,3.182938706121340999e-02,-5.671712505273592692e-02,8.552646654383008751e-02
8.300000000000000433e-02,1.658897233914126412e-02,-9.849422302680192753e-02,9.780516320046231393e-02
8.400000000000000522e-02,-3.927387722036843574e-03,-9.953003380227819219e-02,8.468899097767192130e-02
8.500000000000000611e-02,-3.086146356457615883e-02,-1.162428118864793497e-01,6.732327208782018513e-02
8.599999999999999312e-02,-6.025662937384055479e-02,-1.392321198075613942e-01,5.331475618463907967e-02
8.699999999999999400e-02,-9.035517827180924999e-02,-1.566320408050602686e-01,1.857989510022676691e-02
8.799999999999999489e-02,-9.568354240526154297e-02,-1.717823407767966049e-01,2.252024773925470624e-02
8.899999999999999578e-02,-1.416361076341478287e-01,-1.740141905449990034e-01,9.888734811007217698e-03
8.999999999999999667e-02,-1.618930721335742340e-01,-1.955052516290020637e-01,-1.012660985610525782e-02
9.099999999999999756e-02,-1.788899701761115513e-01,-2.152825785558226956e-01,-3.643157893242492118e-02
9.199999999999999845e-02,-1.931566450030625937e-01,-2.252816454856874095e-01,-5.697845789808364536e-02
9.299999999999999933e-02,-2.165384013351148440e-01,-2.472395165999597133e-01,-7.055783256738255849e-02
9.400000000000000022e-02,-2.237751452960073106e-01,-2.614005580587805411e-01,-8.180168006376689616e-02
9.500000000000000111e-02,-2.491401068106499361e-01,-2.572506662823806911e-01,-9.642582552686200514e-02
9.600000000000000200e-02,-2.688040313593777486e-01,-2.551455234501999736e-01,-8.750084791182095867e-02
9.700000000000000289e-02,-2.805501418269742420e-01,-2.638558424525473400e-01,-1.217464713260717063e-01
9.800000000000000377e-02,-2.957120246399529973e-01,-2.582396635038866073e-01,-1.170112530553304581e-01
9.900000000000000466e-02,-3.042312847449354374e-01,-2.727006498802821977e-01,-1.552131710808551668e-01
1.000000000000000056e-01,-3.236042593830096847e-01,-2.623681990152485488e-01,-1.517741426351486289e-01
1.010000000000000064e-01,-3.175598693142214213e-01,-2.591379380190064752e-01,-1.642234754572024502e-01
1.019999999999999934e-01,-3.265720924783640511e-01,-2.611132463485281718e-01,-1.651436894754958196e-01
1.029999999999999943e-01,-3.355758555355630723e-01,-2.548934904995300843e-01,-1.805001355635276750e-01
1.039999999999999952e-01,-3.335516330320710265e-01,-2.661395954750707671e-01,-1.838628628058894543e-01
1.049999999999999961e-01,-3.278906439497756287e-01,-2.385714109261728999e-01,-1.827433422709405786e-01
1.059999999999999970e-01,-3.472566971217843634e-01,-2.582734832446213491e-01,-1.849629299861206277e-01
1.069999999999999979e-01,-3.395767250707403262e-01,-2.120365110294828159e-01,-1.935370535683770266e-01
1.079999999999999988e-01,-3.293807532886347533e-01,-2.092235684841238508e-01,-1.922440109378986128e-01
1.089999999999999997e-01,-3.173409137995544804e-01,-1.980418665521406496e-01,-1.908316236425252888e-01
1.100000000000000006e-01,-3.149840839775693846e-01,-2.022434996500711846e-01,-1.936375089571181762e-01
1.110000000000000014e-01,-3.055029656580861008e-01,-1.783056481349239719e-01,-2.115315201921350308e-01
1.120000000000000023e-01,-2.842911700098164074e-01,-1.752426264885660889e-01,-2.142912604830496948e-01
1.130000000000000032e-01,-2.720511884367362021e-01,-1.488009791262545345e-01,-2.005593665631446032e-01
1.140000000000000041e-01,-2.594942185225228015e-01,-1.388676196172110855e-01,-1.892528218780127058e-01
1.150000000000000050e-01,-2.226313462277697275e-01,-8.933259595654832741e-02,-2.004089087055140328e-01
1.160000000000000059e-01,-2.146911223566519700e-01,-9.133105198263102853e-02,-1.843725286437861433e-01
1.170000000000000068e-01,-2.156130038160672946e-01,-5.856571832701094882e-02,-1.800301411436830146e-01
1.179999999999999938e-01,-1.686180242174587507e-01,-4.938346890615588625e-02,-1.633033306157467279e-01
1.189999999999999947e-01,-1.604836321834121893e-01,-4.289354227431496636e-02,-1.532035490938473687e-01
1.199999999999999956e-01,-1.372238478795490546e-01,-4.038569773513570570e-03,-1.442978009481993285e-01
1.209999999999999964e-01,-1.156352730574765481e-01,1.589539485265626870e-02,-1.361474795860863340e-01
1.219999999999999973e-01,-9.838447678074539737e-02,4.605735063987206890e-02,-1.198716414254627077e-01
1.229999999999999982e-01,-6.236370047459414978e-02,4.284799989669256515e-02,-1.286148981560219229e-01
1.239999999999999991e-01,-4.207758587438993614e-02,7.493188941951015036e-02,-9.587438481180066141e-02
1.250000000000000000e-01,-1.341150099580665396e-02,9.248119706418812813e-02,-1.054512323563885218e-01
1.260000000000000009e-01,1.528610745638738638e-02,1.073626784761797515e-01,-7.451448000707330821e-02
1.270000000000000018e-01,3.200630341041538901e-02,1.432598413664173398e-01,-5.743932654227699303e-02
1.280000000000000027e-01,5.074439357250440374e-02,1.611594094778046882e-01,-2.633772232210683864e-02
1.290000000000000036e-01,7.742086770222364467e-02,1.660004606706197428e-01,-2.357482037736660305e-02
1.300000000000000044e-01,1.138381041900449892e-01,1.809852858487053240e-01,-2.634628039029807828e-02
1.310000000000000053e-01,1.345231564651616918e-01,2.071192158102053427e-01,9.544464523158166860e-03
1.320000000000000062e-01,1.708718272603645671e-01,2.137823477581178855e-01,2.383109861769955751e-03
1.330000000000000071e-01,1.772770493631346256e-01,2.100724959446625684e-01,3.908689527488756754e-02
1.340000000000000080e-01,1.907199778129785028e-01,2.363483324888521198e-01,5.769861969480055003e-02
1.350000000000000089e-01,2.086936643275414116e-01,2.303249510350332541e-01,5.843511658924467611e-02
1.360000000000000098e-01,2.366243853539724273e-01,2.484015189468276597e-01,8.155541730486168261e-02
1.370000000000000107e-01,2.372222560030675109e-01,2.522016015271525968e-01,8.377979158021332806e-02
1.380000000000000115e-01,2.661888218331555089e-01,2.645599550191592431e-01,9.002324993925810148e-02
1.390000000000000124e-01,2.937713328318802275e-01,2.648079366969976478e-01,1.100007722878129368e-01
1.400000000000000133e-01,2.817525684214193249e-01,2.787199294392611049e-01,1.202247807050178807e-01
1.409999999999999865e-01,3.026102430972775759e-01,2.521776360207987899e-01,1.415212410241950547e-01
1.419999999999999873e-01,2.968887554466595469e-01,2.690273041200751392e-01,1.527022614230950370e-01
1.429999999999999882e-01,3.352150308967152825e-01,2.762770043384898955e-01,1.622924655126870563e-01
1.439999999999999891e-01,3.260051770055876763e-01,2.615833578829813155e-01,1.640410830756707794e-01
1.449999999999999900e-01,3.267364007059122555e-01,2.581313359020450671e-01,1.657501139704251059e-01
1.459999999999999909e-01,3.499112238769062633e-01,2.546017072661630465e-01,1.678386205463793523e-01
1.469999999999999918e-01,3.460513520796576481e-01,2.535813618730766161e-01,1.935194832254842068e-01
1.479999999999999927e-01,3.367011988952593460e-01,2.417858333673385540e-01,1.920480627135940088e-01
1.489999999999999936e-01,3.411938047900402449e-01,2.373721635939378405e-01,1.949902647101769693e-01
1.499999999999999944e-01,3.235592639601588827e-01,2.066528488025213828e-01,1.863596230417262634e-01
1.509999999999999953e-01,3.279811465469690823e-01,1.886070593717328325e-01,2.005477760175140567e-01
1.519999999999999962e-01,2.904584199489054774e-01,1.806894634094207974e-01,2.094840559387129153e-01
1.529999999999999971e-01,3.048086829880690685e-01,1.653330035190906655e-01,2.023724064129495404e-01
1.539999999999999980e-01,2.816299668049737637e-01,1.540662084104197915e-01,2.001390917653386170e-01
1.549999999999999989e-01,2.681851819499381229e-01,1.256846353590401477e-01,1.945606142980960407e-01
1.559999999999999998e-01,2.563775009202557964e-01,1.014770483445036064e-01,2.033973387956942991e-01
1.570000000000000007e-01,2.508901888002016967e-01,8.855197162984676518e-02,1.721403996263623781e-01
1.580000000000000016e-01,2.227521777270792258e-01,7.288777857176069463e-02,1.995568522804477829e-01
1.590000000000000024e-01,2.050197703780845260e-01,5.830755419486827879e-02,1.826035857352527603e-01
1.600000000000000033e-01,1.737501259199677184e-01,2.821546658810070163e-02,1.552588909686032359e-01
1.610000000000000042e-01,1.522739462896576246e-01,2.037829248765832615e-02,1.711765492553928569e-01
1.620000000000000051e-01,1.414549917161866399e-01,-6.358619683621184217e-03,1.403049981714382666e-01
1.630000000000000060e-01,1.079132648992032761e-01,-2.062127168561020754e-02,1.291091717154832785e-01
1.640000000000000069e-01,9.259668168667611887e-02,-6.316973822371904634e-02,1.266943518719674533e-01
1.650000000000000078e-01,5.839217552954088092e-02,-6.946944572568340692e-02,1.207323548456619017e-01
1.660000000000000087e-01,4.733023054596464940e-02,-8.419520583429739025e-02,1.103805661043594094e-01
1.670000000000000095e-01,2.727864092798092110e-02,-1.063894062228532278e-01,9.794049022196874010e-02
1.680000000000000104e-01,-1.661963585629923010e-02,-1.206455765324534329e-01,8.318593618346099838e-02
1.690000000000000113e-01,-3.460825292349389154e-02,-1.600767211400446199e-01,6.362103771095337090e-02
1.700000000000000122e-01,-6.825967426317817999e-02,-1.594239608668289454e-01,6.202678757363214168e-02
1.710000000000000131e-01,-8.351432687301883762e-02,-1.755279304512387117e-01,4.014963649394130002e-02
1.719999999999999862e-01,-1.135878588629983810e-01,-1.971048859380885032e-01,1.447032542059933403e-02
1.729999999999999871e-01,-1.332146452084204125e-01,-2.009431962734846699e-01,5.230276389403852762e-03
1.739999999999999880e-01,-1.537658234737304952e-01,-2.362477525154685620e-01,-1.261058288659853976e-02
1.749999999999999889e-01,-1.875215989325960397e-01,-2.398564382078932355e-01,-2.421290431434800980e-02
1.759999999999999898e-01,-1.909906678690674875e-01,-2.294382676277552380e-01,-3.922091332683946829e-02
1.769999999999999907e-01,-2.205224186427089672e-01,-2.549354561613564885e-01,-5.963300749300493725e-02
1.779999999999999916e-01,-2.334979555901645631e-01,-2.330946340122796168e-01,-6.020776077752930389e-02
1.789999999999999925e-01,-2.531804669299557164e-01,-2.701021413229779955e-01,-7.187188019966979369e-02
1.799999999999999933e-01,-2.797310242933302993e-01,-2.716758888400774286e-01,-8.727633304225108912e-02
1.809999999999999942e-01,-2.897650029095950597e-01,-2.676396932403716789e-01,-9.987654460864692219e-02
1.819999999999999951e-01,-2.917372158540105787e-01,-2.639281662718067634e-01,-1.334386048482051612e-01
1.829999999999999960e-01,-3.030964440972244156e-01,-2.592809819899125068e-01,-1.388301112218862932e-01
1.839999999999999969e-01,-3.241140557539733957e-01,-2.731898329940687931e-01,-1.548145233682962363e-01
1.849999999999999978e-01,-3.273948480406494443e-01,-2.497470835684335866e-01,-1.591234235657400242e-01
1.859999999999999987e-01,-3.418221259582248095e-01,-2.456033724593909839e-01,-1.708928507940277175e-01
1.869999999999999996e-01,-3.335588901157946484e-01,-2.599787169841780710e-01,-1.627136717992053172e-01
1.880000000000000004e-01,-3.296421217016089478e-01,-2.537032261943985567e-01,-1.770822201365752357e-01
1.890000000000000013e-01,-3.373116128000936409e-01,-2.440664450028452170e-01,-1.807101489554339413e-01
1.900000000000000022e-01,-3.481148846969425170e-01,-2.153824839371087096e-01,-1.881486729371466271e-01
1.910000000000000031e-01,-3.370512153524908294e-01,-2.128889069996078853e-01,-1.891280182985592417e-01
1.920000000000000040e-01,-3.177059108029363088e-01,-2.056232018970032271e-01,-2.034273046577808886e-01
1.930000000000000049e-01,-3.154310706068423342e-01,-1.971153817099232652e-01,-1.825730114222295086e-01
1.940000000000000058e-01,-2.986474165746508813e-01,-1.576408166158326241e-01,-1.996040693761776674e-01
1.950000000000000067e-01,-2.891010061100829920e-01,-1.642367969819893692e-01,-1.918830853593616881e-01
1.960000000000000075e-01,-2.782432259475406400e-01,-1.539795968828280570e-01,-2.055754338659377400e-01
1.970000000000000084e-01,-2.685857838498586503e-01,-1.148795775808501840e-01,-2.021896068222802101e-01
1.980000000000000093e-01,-2.577286644616684774e-01,-9.860394560160877508e-02,-2.002196967959504192e-01
1.990000000000000102e-01,-2.202724821461045090e-01,-7.349902401633887083e-02,-1.837021387286514040e-01
2.000000000000000111e-01,-2.197084153857435940e-01,-7.121628774318480848e-02,-1.838740310177977288e-01
2.010000000000000120e-01,-1.797694827063464618e-01,-5.183614141990904728e-02,-1.853533590453591007e-01
2.020000000000000129e-01,-1.900983943674944832e-01,-2.422170005636619175e-02,-1.703266146918315793e-01
2.030000000000000138e-01,-1.527331157348637003e-01,-2.115213672290784143e-03,-1.616166625386581124e-01
2.039999999999999869e-01,-1.356343319606235776e-01,1.205859768118063523e-02,-1.559014532056413604e-01
2.049999999999999878e-01,-1.178352961667624849e-01,3.482909307859009124e-02,-1.460000241558278289e-01
2.059999999999999887e-01,-8.829830054464746225e-02,7.617109365112371966e-02,-1.347905253190752328e-01
2.069999999999999896e-01,-6.030151574723920799e-02,7.265224149593339786e-02,-1.070564393750969012e-01
2.079999999999999905e-01,-2.826884530070350454e-02,1.016323834971977202e-01,-1.150196243640205090e-01
2.089999999999999913e-01,-2.824051236359844536e-02,1.146586576948831482e-01,-9.916920504906917566e-02
2.099999999999999922e-01,1.997355022634773533e-02,1.243820586111581694e-01,-8.511989090969350469e-02
2.109999999999999931e-01,4.842246476298084357e-02,1.578849483565690215e-01,-7.719319828019274854e-02
2.119999999999999940e-01,5.874599422222766265e-02,1.488994606760630501e-01,-5.671213026016679731e-02
2.129999999999999949e-01,9.214987708911925868e-02,1.821137728674503409e-01,-3.797565598545689369e-02
2.139999999999999958e-01,1.117254102895990087e-01,1.914076223721461745e-01,-1.406817320718003507e-02
2.149999999999999967e-01,1.410936572703624103e-01,2.020699200590185818e-01,-1.673319030364409793e-02
2.159999999999999976e-01,1.753777195110201581e-01,2.266979531039527707e-01,4.741620865084020253e-03
2.169999999999999984e-01,1.767182701429569902e-01,2.250092910161998749e-01,1.921755622499311117e-02
2.179999999999999993e-01,1.892625362379586340e-01,2.281879588385580526e-01,3.612569800827116623e-02
2.190000000000000002e-01,2.269010962469774628e-01,2.547683294484660577e-01,4.244796268169319375e-02
2.200000000000000011e-01,2.419288752054943314e-01,2.566526179632513394e-01,5.364619299922430279e-02
2.210000000000000020e-01,2.523541701510086388e-01,2.630000707940357008e-01,7.033452468235312782e-02
2.220000000000000029e-01,2.685781198002434311e-01,2.747106214518303391e-01,8.584559992481678725e-02
2.230000000000000038e-01,2.690657540036791029e-01,2.733054960617030127e-01,1.120519388683940271e-01
2.240000000000000047e-01,2.960779186131509699e-01,2.608839606531498378e-01,1.299795817691334621e-01
2.250000000000000056e-01,3.001328394273600764e-01,2.625827241664302480e-01,1.163212695341705322e-01
2.260000000000000064e-01,3.252460853173131938e-01,2.748846859086510053e-01,1.353162151499971710e-01
2.270000000000000073e-01,3.112309983751409548e-01,2.678061694135793758e-01,1.431009190757147886e-01
2.280000000000000082e-01,3.416496012339275135e-01,2.626682167608960228e-01,1.702957866419852195e-01
2.290000000000000091e-01,3.430547099217934326e-01,2.346945229469354077e-01,1.679321062267730147e-01
2.300000000000000100e-01,3.275776863046943044e-01,2.425761385529465741e-01,1.939803255673089588e-01
2.310000000000000109e-01,3.374171843194953002e-01,2.292109036576031877e-01,1.720952466352113075e-01
2.320000000000000118e-01,3.345671979801012608e-01,2.279438292713525105e-01,1.944834810577984185e-01
2.330000000000000127e-01,3.333439947871008058e-01,1.918718982879310253e-01,1.889661397935517573e-01
2.340000000000000135e-01,3.255964078838161635e-01,2.069666553815646126e-01,2.001874173167806636e-01
2.349999999999999867e-01,3.177510996157270617e-01,1.732999826684606115e-01,2.029172492604608413e-01
2.359999999999999876e-01,3.149933713755917464e-01,1.590319487718700742e-01,1.963223846988366439e-01
2.369999999999999885e-01,2.933318076520636808e-01,1.425461894843022825e-01,2.038386529063463404e-01
2.379999999999999893e-01,2.885075184174212271e-01,1.406326958828532647e-01,1.870333668880472811e-01
2.389999999999999902e-01,2.656133595223915678e-01,1.235214858020547563e-01,2.121013409851015274e-01
2.399999999999999911e-01,2.514602893042860998e-01,8.351395846886781882e-02,1.969893424737808596e-01
2.409999999999999920e-01,2.241523078114934786e-01,7.487652604795684563e-02,1.871907435802561137e-01
2.419999999999999929e-01,2.149644172379295004e-01,5.584082557922701723e-02,1.778004222611447305e-01
2.429999999999999938e-01,1.974598892248620174e-01,5.744205864062457839e-02,1.872609578094132643e-01
2.439999999999999947e-01,1.849293623209524173e-01,1.262436876530263416e-02,1.801268964201477862e-01
2.449999999999999956e-01,1.577840245147005827e-01,-5.337990539582957881e-04,1.778582261267143971e-01
2.459999999999999964e-01,1.430109891189934035e-01,-2.622760739245233799e-02,1.530755224927889124e-01
2.469999999999999973e-01,1.006071286901479428e-01,-5.636458958030492183e-02,1.456331581349364634e-01
2.479999999999999982e-01,8.371624052334356025e-02,-6.069849826717531316e-02,1.466969730026009278e-01
2.489999999999999991e-01,6.232436046590068141e-02,-8.422329773502781891e-02,1.247466351950222013e-01
2.500000000000000000e-01,2.818103041815547133e-02,-1.003935895637488723e-01,1.216199958103180989e-01
2.510000000000000009e-01,1.481039191208568390e-02,-1.163901704122700387e-01,9.960035514468322526e-02
2.520000000000000018e-01,-3.456788386524139653e-03,-1.428446497011833516e-01,9.317559522404907091e-02
2.530000000000000027e-01,-3.384666687217901399e-02,-1.672554869233401631e-01,8.653067132950677254e-02
2.540000000000000036e-01,-6.068235734642307005e-02,-1.723776634300652755e-01,6.329632574328190875e-02
2.550000000000000044e-01,-9.119457327687890968e-02,-1.932295785531428500e-01,4.170483731353181317e-02
2.560000000000000053e-01,-1.022405862272575544e-01,-2.229513497990878723e-01,2.682671363165342951e-02
2.570000000000000062e-01,-1.521173059872306110e-01,-2.048086116788533084e-01,4.185055178981384599e-02
2.580000000000000071e-01,-1.536636895375300682e-01,-2.250614656532265168e-01,-3.146668693328717389e-03
2.590000000000000080e-01,-1.721583145663536651e-01,-2.375938084466785727e-01,-5.455608852916341532e-03
2.600000000000000089e-01,-2.112485000263841228e-01,-2.362763675625527415e-01,-2.534995989020316989e-02
2.610000000000000098e-01,-2.310661875909391927e-01,-2.629223528889041428e-01,-4.843010218905609288e-02
2.620000000000000107e-01,-2.608400686333789964e-01,-2.424029534376072048e-01,-4.689485837170041110e-02
2.630000000000000115e-01,-2.512570827103973725e-01,-2.698167497377154667e-01,-7.703932205191758864e-02
2.640000000000000124e-01,-2.668699491693702908e-01,-2.642017327354760359e-01,-7.251958417110913879e-02
2.650000000000000133e-01,-2.898683479797456441e-01,-2.748477044572091854e-01,-9.886349105431462003e-02
2.660000000000000142e-01,-2.998114867694101071e-01,-2.643279747149644976e-01,-1.040711779528313841e-01
2.670000000000000151e-01,-2.964400879507452236e-01,-2.545335167629396711e-01,-1.177737797956575488e-01
2.680000000000000160e-01,-3.101183306940107354e-01,-2.543951800423151499e-01,-1.412421418369020631e-01
2.690000000000000169e-01,-3.376530508112048912e-01,-2.708385107737662501e-01,-1.521305516860595175e-01
2.700000000000000178e-01,-3.414418393552859365e-01,-2.474799311209474051e-01,-1.694700204405434896e-01
2.710000000000000187e-01,-3.300042983114615525e-01,-2.330213908319957172e-01,-1.714545796282732348e-01
2.720000000000000195e-01,-3.364020959228586904e-01,-2.424489235042811830e-01,-1.804459716968226934e-01
2.730000000000000204e-01,-3.307834988745668170e-01,-2.286380806867670257e-01,-1.935109227024126022e-01
2.740000000000000213e-01,-3.466451699021461663e-01,-2.137413554871132049e-01,-1.941768489543652665e-01
2.750000000000000222e-01,-3.366510633369402261e-01,-2.085315740749366376e-01,-1.877366520678746264e-01
2.760000000000000231e-01,-3.188858636517699074e-01,-2.009032465189187211e-01,-1.870290634447805134e-01
2.770000000000000240e-01,-3.178407239584447597e-01,-1.804025563792591158e-01,-1.980984607421320542e-01
2.780000000000000249e-01,-3.106669538931087216e-01,-1.715401758762647721e-01,-2.079489628685615710e-01
2.790000000000000258e-01,-2.952328129286751479e-01,-1.350558133947580286e-01,-1.792812552663226033e-01
2.800000000000000266e-01,-2.891879146601372685e-01,-1.301723871630846296e-01,-2.032741922567874726e-01
2.810000000000000275e-01,-2.671296894813180445e-01,-1.086956998653036827e-01,-1.947728197217923896e-01
2.819999999999999729e-01,-2.629625969162942556e-01,-8.780097237947376287e-02,-2.020372844736807727e-01
2.829999999999999738e-01,-2.210381265111523719e-01,-6.683799526399875068e-02,-1.954304340058772016e-01
2.839999999999999747e-01,-2.014454622885027690e-01,-3.976599029053411172e-02,-1.911130534406985104e-01
2.849999999999999756e-01,-1.979902353188840169e-01,-1.707414820709529310e-02,-1.847918433650018732e-01
2.859999999999999765e-01,-1.830661852721951199e-01,-3.010619896214340990e-03,-1.838021380025220974e-01
2.869999999999999774e-01,-1.542803091476204480e-01,8.717656535231658316e-03,-1.661067235536977937e-01
2.879999999999999782e-01,-1.383020247489117338e-01,4.024661326993935612e-02,-1.634391234363898882e-01
2.889999999999999791e-01,-1.173847468720159715e-01,6.762122705849009374e-02,-1.486924521866659910e-01
2.899999999999999800e-01,-8.717612239774172322e-02,8.882071884350201119e-02,-1.589640306898433830e-01
2.909999999999999809e-01,-5.923232892113694525e-02,9.830873750592414306e-02,-1.296081308167651713e-01
2.919999999999999818e-01,-3.144612425414913814e-02,1.144989397359646860e-01,-1.306828793447958603e-01
2.929999999999999827e-01,-4.814388499286863764e-03,1.210365499621613994e-01,-1.017989596531514301e-01
2.939999999999999836e-01,6.777560992035457435e-03,1.451613563239170512e-01,-9.189635280337993262e-02
2.949999999999999845e-01,4.045188722980278678e-02,1.371336460816810765e-01,-7.717466252924418124e-02
2.959999999999999853e-01,5.594651987017649347e-02,1.806950024900072782e-01,-6.184026065188271554e-02
2.969999999999999862e-01,8.509376306843011162e-02,1.977620391215695606e-01,-6.330297649471119947e-02
2.979999999999999871e-01,9.382561916011840364e-02,2.137177881363823695e-01,-3.896008896697520513e-02
2.989999999999999880e-01,1.331854827169622890e-01,2.128841132542107217e-01,-3.045399610967170628e-02
2.999999999999999889e-01,1.471407386917272242e-01,2.463858100843777099e-01,-1.196710956416587382e-02
3.009999999999999898e-01,1.867952231363265159e-01,2.351897430772861841e-01,2.275722962338496899e-02
3.019999999999999907e-01,2.082056899444004183e-01,2.597051885141360428e-01,3.815013668729053120e-02
3.029999999999999916e-01,2.227278201107766586e-01,2.487094278021058091e-01,2.892248730317648064e-02
3.039999999999999925e-01,2.393395313596202167e-01,2.565439452676375742e-01,5.634051321915246185e-02
3.049999999999999933e-01,2.641730043013409968e-01,2.571724708662396774e-01,5.498274512695654898e-02
3.059999999999999942e-01,2.607792001261562964e-01,2.634559135377753103e-01,8.054274875047828797e-02
3.069999999999999951e-01,2.933309097815382516e-01,2.681618800361834642e-01,9.397411997939376926e-02
3.079999999999999960e-01,3.033820744869116792e-01,2.655327121654292855e-01,1.045535933200789080e-01
3.089999999999999969e-01,3.077717262780249596e-01,2.665856763172501642e-01,1.063378088815546824e-01
3.099999999999999978e-01,3.150942369832525070e-01,2.593499645264137898e-01,1.146662712785067456e-01
3.109999999999999987e-01,3.353311107935254554e-01,2.587816555759163140e-01,1.375677543304736627e-01
3.119999999999999996e-01,3.311378392575231033e-01,2.580917178225471953e-01,1.494212012192371875e-01
3.130000000000000004e-01,3.406850340665691923e-01,2.580888936311989124e-01,1.682807515944545751e-01
3.140000000000000013e-01,3.185653090489831696e-01,2.151200510548613443e-01,1.662333164667155749e-01
3.150000000000000022e-01,3.392641555449001367e-01,2.171823466023869997e-01,1.800079931008650713e-01
3.160000000000000031e-01,3.255416191321240937e-01,1.947777422969778349e-01,1.894168932281914963e-01
3.170000000000000040e-01,3.360401356580173804e-01,2.114303589625433355e-01,1.844571700944620529e-01
3.180000000000000049e-01,3.250825915485486273e-01,1.719177528342143157e-01,1.916944902067422019e-01
3.190000000000000058e-01,3.207474789510267321e-01,1.896460402427827541e-01,1.986373308100796431e-01
3.200000000000000067e-01,3.097220118752835871e-01,1.549720153189859950e-01,2.013149644497167490e-01
3.210000000000000075e-01,2.993144979242979842e-01,1.358020013728363229e-01,1.944897799940245309e-01
3.220000000000000084e-01,2.795526988368525201e-01,9.587040920358473606e-02,1.927197736328544464e-01
3.230000000000000093e-01,2.737598460359061403e-01,9.070914018906919840e-02,2.046786339500965279e-01
3.240000000000000102e-01,2.569618347537797054e-01,9.353198603073462070e-02,1.784396826474299869e-01
3.250000000000000111e-01,2.444791708221229209e-01,7.816856815012790394e-02,2.032217629369902634e-01
3.260000000000000120e-01,2.164989531056588923e-01,3.381355476360859563e-02,1.929567932912830408e-01
3.270000000000000129e-01,1.802683075795167289e-01,9.820684791105807263e-03,1.894557857218743813e-01
3.280000000000000138e-01,1.570130297084214588e-01,-9.430037811977886241e-04,1.693045333690854359e-01
3.290000000000000147e-01,1.577455220832351679e-01,-3.709733625588484268e-02,1.693049980042159730e-01
3.300000000000000155e-01,1.274320548571058198e-01,-4.528119532066087610e-02,1.743635584636905600e-01
3.310000000000000164e-01,9.947452628498100469e-02,-6.344605096544751743e-02,1.451824122285458873e-01
3.320000000000000173e-01,7.914742745963219972e-02,-8.179154692309376085e-02,1.393802192661005024e-01
3.330000000000000182e-01,4.248742937434420858e-02,-1.020031209156263552e-01,1.261390613200504551e-01
3.340000000000000191e-01,4.126324806157123659e-02,-1.077889432724439545e-01,1.347627413648785077e-01
3.350000000000000200e-01,4.543315061998984099e-03,-1.329565656877262914e-01,1.072523310711808314e-01
3.360000000000000209e-01,-1.124226798165973464e-02,-1.670108133626519165e-01,8.877569223159828549e-02
3.370000000000000218e-01,-3.219214197470950806e-02,-1.774995575751566468e-01,8.680790818654111896e-02
3.380000000000000226e-01,-7.050546056595623223e-02,-1.852644629996476056e-01,7.312643645158131700e-02
3.390000000000000235e-01,-9.744806456585175525e-02,-2.077359740180494962e-01,4.995857158422289945e-02
3.400000000000000244e-01,-1.300004061536374211e-01,-2.187615809247381027e-01,3.921788694034666900e-02
3.410000000000000253e-01,-1.297945151872268721e-01,-2.296148330309463192e-01,1.684179173520161665e-02
3.420000000000000262e-01,-1.516505663656526892e-01,-2.350157078484617357e-01,7.995828807487340845e-03
3.430000000000000271e-01,-1.847485400232949104e-01,-2.582021866559054413e-01,-1.878662574403624705e-02
3.439999999999999725e-01,-2.018645411851290594e-01,-2.530758292824864530e-01,-5.563485771782017593e-03
3.449999999999999734e-01,-2.238497812424924127e-01,-2.537964268638881471e-01,-1.987589311666950950e-02
3.459999999999999742e-01,-2.255322685105452529e-01,-2.717213644999460498e-01,-5.449611250560554981e-02
3.469999999999999751e-01,-2.514634304735541281e-01,-2.889292863760116181e-01,-6.909035874888759532e-02
3.479999999999999760e-01,-2.600441768082946692e-01,-2.678814637498625473e-01,-7.344971103083923480e-02
3.489999999999999769e-01,-2.827322208233389311e-01,-2.775308637782390453e-01,-8.453497307687332651e-02
3.499999999999999778e-01,-3.050870442604107224e-01,-2.676913406640697990e-01,-8.625884762592224420e-02
3.509999999999999787e-01,-3.063997504887658874e-01,-2.553405714084712175e-01,-1.141945338100199547e-01
3.519999999999999796e-01,-3.188023551970623481e-01,-2.529701191631065216e-01,-1.081536634923995904e-01
3.529999999999999805e-01,-3.247486208981247291e-01,-2.520773116637590738e-01,-1.302294281179468827e-01
3.539999999999999813e-01,-3.258985562924877066e-01,-2.488886949892081812e-01,-1.480069652873792496e-01
3.549999999999999822e-01,-3.255355174243711458e-01,-2.432233614870337179e-01,-1.543089188472319961e-01
3.559999999999999831e-01,-3.381008998054488845e-01,-2.294814744015001573e-01,-1.836274193443434566e-01
3.569999999999999840e-01,-3.307796315432221523e-01,-2.188714812441759916e-01,-1.785819501253918806e-01
3.579999999999999849e-01,-3.314933803953072911e-01,-1.918818347423255077e-01,-1.809205529390255640e-01
3.589999999999999858e-01,-3.354056524007874573e-01,-1.794267584955875072e-01,-2.022857878913921770e-01
3.599999999999999867e-01,-3.254161671064419448e-01,-1.825906457317874598e-01,-1.903249710431074437e-01
3.609999999999999876e-01,-3.095553353324404511e-01,-1.628601157318172454e-01,-1.747236671599777524e-01
3.619999999999999885e-01,-3.031895886466583478e-01,-1.418196927379870298e-01,-1.925817987384638719e-01
3.629999999999999893e-01,-2.839957211884264754e-01,-1.124630660565018175e-01,-2.011029819775214944e-01
3.639999999999999902e-01,-2.924722406100800365e-01,-1.159998350024186858e-01,-1.876293703428806303e-01
3.649999999999999911e-01,-2.724631526120949165e-01,-8.851218233695025417e-02,-1.871995021385869928e-01
3.659999999999999920e-01,-2.510784291355930287e-01,-6.888364890112110006e-02,-1.923448817175656689e-01
3.669999999999999929e-01,-2.417102550867142319e-01,-4.092402136544691371e-02,-2.164123564898440821e-01
3.679999999999999938e-01,-2.119998448437638572e-01,-1.543423577947434372e-02,-1.981859590711282926e-01
3.689999999999999947e-01,-1.927648966691514754e-01,-2.539793144157605209e-02,-1.787216962568904666e-01
3.699999999999999956e-01,-1.701070603367054734e-01,1.566009973783262857e-02,-1.853469325558887160e-01
3.709999999999999964e-01,-1.635912078458841568e-01,2.611654578339157873e-02,-1.784888040366413853e-01
3.719999999999999973e-01,-1.261256905530270811e-01,5.336489440208077445e-02,-1.757387772948848792e-01
3.729999999999999982e-01,-1.211301439750954861e-01,7.118311525496241743e-02,-1.675049319769921219e-01
3.739999999999999991e-01,-7.318392789142592891e-02,1.105382957376254555e-01,-1.467805694193581312e-01
3.750000000000000000e-01,-6.848839915381089993e-02,1.148824101290688571e-01,-1.412105460892983388e-01
3.760000000000000009e-01,-3.006377099514202095e-02,1.301709476081010508e-01,-1.263159779852053577e-01
3.770000000000000018e-01,-1.855091508443948781e-02,1.609668895887063633e-01,-1.067117548215791023e-01
3.780000000000000027e-01,1.071962613516505916e-02,1.553665030538355363e-01,-9.829635366851968703e-02
3.790000000000000036e-01,4.175654487617398714e-02,1.810663721675664084e-01,-9.253373648270292462e-02
3.800000000000000044e-01,5.456089992111860104e-02,1.857395232928233386e-01,-7.697234096088471922e-02
3.810000000000000053e-01,9.271632967932730285e-02,2.170733731046236292e-01,-5.852366637480024142e-02
3.820000000000000062e-01,1.154465426773093051e-01,2.072053791030630532e-01,-4.505791764545436645e-02
3.830000000000000071e-01,1.420910211118045496e-01,2.252774137105016394e-01,-4.244092699669586854e-02
3.840000000000000080e-01,1.724561048231938176e-01,2.523739287784274032e-01,-2.547447195129576639e-02
3.850000000000000089e-01,1.948084594537437819e-01,2.475404853871921163e-01,-3.023607984722900821e-02
3.860000000000000098e-01,1.966616980625636446e-01,2.476636731249942103e-01,1.139757961846862497e-02
3.870000000000000107e-01,2.299811360203904420e-01,2.635177826396458145e-01,2.128217024726559298e-02
3.880000000000000115e-01,2.434046864947551070e-01,2.556560662144397034e-01,4.876493654129988864e-02
3.890000000000000124e-01,2.507056901181901609e-01,2.611285215563541318e-01,4.105045513153900844e-02
3.900000000000000133e-01,2.725415600070373312e-01,2.731019558506913580e-01,6.451957519755120718e-02
3.910000000000000142e-01,2.928297122882024262e-01,2.667005331906735499e-01,7.823125051997421864e-02
3.920000000000000151e-01,2.939054006956964282e-01,2.681848621478535866e-01,1.008946349060723252e-01
3.930000000000000160e-01,3.215356108250397305e-01,2.703799122304590408e-01,1.098205243345246468e-01
3.940000000000000169e-01,3.069134078014351119e-01,2.528958852672520408e-01,1.067445946764918607e-01
3.950000000000000178e-01,3.250449587475411350e-01,2.491211702672625761e-01,1.422803164910292906e-01
3.960000000000000187e-01,3.506082131388755241e-01,2.445893433004576178e-01,1.474133572854551266e-01
3.970000000000000195e-01,3.193008165749560701e-01,2.150962734865869974e-01,1.495579185340032147e-01
3.980000000000000204e-01,3.333649643820906783e-01,2.327895144847978159e-01,1.488509830685974533e-01
3.990000000000000213e-01,3.358243942962318984e-01,2.112890947271488240e-01,1.696552693621113661e-01
4.000000000000000222e-01,3.227032889368522950e-01,1.925033531028484957e-01,1.765664295798433092e-01
4.010000000000000231e-01,3.167826295791427160e-01,1.794065299609540476e-01,1.951035122589925286e-01
4.020000000000000240e-01,3.207799871049646923e-01,1.653743109508706843e-01,1.865333059055356013e-01
4.030000000000000249e-01,3.139219629803765566e-01,1.533591323382785809e-01,2.027789967472312105e-01
4.040000000000000258e-01,2.839813441608731170e-01,1.263354438171672145e-01,1.931496358455348783e-01
4.050000000000000266e-01,2.851947363648702494e-01,1.219401932575307351e-01,1.974470348459614333e-01
4.060000000000000275e-01,2.770075987217002211e-01,1.165303609932031997e-01,1.938876241337886552e-01
4.069999999999999729e-01,2.626491209374225977e-01,8.572404525317377233e-02,1.997092741903464530e-01
4.079999999999999738e-01,2.407122539952936402e-01,6.121307298128137592e-02,2.074668519177906567e-01
4.089999999999999747e-01,2.305301266006618555e-01,3.584833753141127011e-02,2.052292847677439358e-01
4.099999999999999756e-01,2.106952016345820522e-01,2.691473996397961144e-02,1.819902952814390629e-01
4.109999999999999765e-01,2.011820723848718462e-01,-1.985333593577112352e-02,1.927994856644928423e-01
4.119999999999999774e-01,1.699836192063998719e-01,2.603175974832138730e-04,1.923855322199083118e-01
4.129999999999999782e-01,1.531728670227613942e-01,-4.330097486922309530e-02,1.734413905237899012e-01
4.139999999999999791e-01,1.330053688471583284e-01,-7.178533367326699055e-02,1.712391647862183952e-01
4.149999999999999800e-01,1.133456743983522058e-01,-7.520725958519036691e-02,1.566126228316226665e-01
4.159999999999999809e-01,8.031717713197443487e-02,-1.003153798883819614e-01,1.506978778546608500e-01
4.169999999999999818e-01,4.671978846553020981e-02,-1.067057580821429152e-01,1.457919043478581311e-01
4.179999999999999827e-01,3.318704911891773995e-02,-1.451338367763145010e-01,1.521012025073983920e-01
4.189999999999999836e-01,1.182115540111662415e-02,-1.629175731511676994e-01,1.117668436422458167e-01
4.199999999999999845e-01,-1.287416879855888749e-02,-1.693460987928050443e-01,9.608009726642441350e-02
4.209999999999999853e-01,-4.130799136684014383e-02,-1.889344130343994232e-01,9.535045949986048486e-02
4.219999999999999862e-01,-6.914671773772902708e-02,-1.944628725249185341e-01,9.491613672883814079e-02
4.229999999999999871e-01,-8.140671582744581081e-02,-2.174407798945637571e-01,6.747967570923883718e-02
4.239999999999999880e-01,-1.064061972013361501e-01,-2.257903908729403941e-01,4.898599283198203785e-02
4.249999999999999889e-01,-1.291373967195478534e-01,-2.413143339444366042e-01,4.465009916986033972e-02
4.259999999999999898e-01,-1.640635892472096513e-01,-2.353524351446275031e-01,2.182426970787597342e-02
4.269999999999999907e-01,-1.788345165960701644e-01,-2.595728336493169919e-01,1.692179259390657123e-02
4.279999999999999916e-01,-2.009689377955046208e-01,-2.656566844281632034e-01,6.648730801249346650e-03
4.289999999999999925e-01,-2.306446369141177122e-01,-2.722904748894754423e-01,-2.619230458977774359e-02
4.299999999999999933e-01,-2.494607922657020305e-01,-2.706909987262167139e-01,-3.188861844397570394e-02
4.309999999999999942e-01,-2.623734657642678991e-01,-2.560614774400334914e-01,-5.038242644510282364e-02
4.319999999999999951e-01,-2.749903333979162312e-01,-2.676478548380826217e-01,-6.358412620732172005e-02
4.329999999999999960e-01,-3.015579445457742258e-01,-2.733212827600598471e-01,-7.811243537835739492e-02
4.339999999999999969e-01,-2.985138815289142822e-01,-2.620536167617775747e-01,-9.342819441572385031e-02
4.349999999999999978e-01,-3.042957958385916761e-01,-2.663053720074616826e-01,-1.019728099142306055e-01
4.359999999999999987e-01,-3.164826090628178323e-01,-2.543827685081378465e-01,-1.227439358720365387e-01
4.369999999999999996e-01,-3.308158691602092749e-01,-2.357323529912355720e-01,-1.375551442631044452e-01
4.380000000000000004e-01,-3.245311773657947318e-01,-2.344657810066174686e-01,-1.420208782484280174e-01
4.390000000000000013e-01,-3.420259168370891611e-01,-2.223027732460534645e-01,-1.497365910360083929e-01
4.400000000000000022e-01,-3.350487039463306838e-01,-1.926759965275826048e-01,-1.753134996787684141e-01
4.410000000000000031e-01,-3.350656725839467054e-01,-1.986033350635663663e-01,-1.649638086100641554e-01
4.420000000000000040e-01,-3.502481077647477403e-01,-1.891217532583518712e-01,-1.694959501383190570e-01
4.430000000000000049e-01,-3.190739901642276055e-01,-1.785456654655214193e-01,-1.832780128536663777e-01
4.440000000000000058e-01,-3.134964081926184809e-01,-1.613940500351336016e-01,-1.882472985222726491e-01
4.450000000000000067e-01,-3.278103126330990658e-01,-1.383564960439374880e-01,-2.073237312865858217e-01
4.460000000000000075e-01,-2.965352468914949635e-01,-1.410977633155103828e-01,-1.904369773973636215e-01
4.470000000000000084e-01,-2.811043397397360311e-01,-1.075914855710221746e-01,-2.000473973585993326e-01
4.480000000000000093e-01,-2.792198729025661130e-01,-8.253036315543715862e-02,-1.831788731827254380e-01
4.490000000000000102e-01,-2.675187396263555839e-01,-6.296932124629560368e-02,-1.999436434193139212e-01
4.500000000000000111e-01,-2.325186854525197466e-01,-3.836842419970708934e-02,-2.113714376832862285e-01
4.510000000000000120e-01,-2.275192194977656013e-01,-2.488179828222990622e-02,-1.934414930836639568e-01
4.520000000000000129e-01,-2.153795306343127547e-01,-1.204855308197497199e-02,-1.924593655099077760e-01
4.530000000000000138e-01,-1.938817195351848766e-01,-3.322079297436683273e-03,-1.858812767617292749e-01
4.540000000000000147e-01,-1.617390017436507177e-01,3.595488450546475978e-02,-1.814398576245873640e-01
4.550000000000000155e-01,-1.378419461186817796e-01,4.112456313101608973e-02,-1.918735981598422846e-01
4.560000000000000164e-01,-1.319362436573019159e-01,6.718291802638937105e-02,-1.775033553945974396e-01
4.570000000000000173e-01,-1.087478813952375556e-01,7.710234720068603886e-02,-1.727914940598060944e-01
4.580000000000000182e-01,-5.512174735879296628e-02,1.227375187093478065e-01,-1.552842648301845097e-01
4.590000000000000191e-01,-6.550125737369902335e-02,1.284809822888986208e-01,-1.553377771207492541e-01
4.600000000000000200e-01,-3.793417868410864369e-02,1.431559808137556344e-01,-1.340544470918025310e-01
4.610000000000000209e-01,2.927097820160236633e-03,1.659760456008280427e-01,-1.235289828372054394e-01
4.620000000000000218e-01,1.508782713302067417e-02,1.843309574716699706e-01,-1.060151383464242453e-01
4.630000000000000226e-01,5.528078834705947575e-02,2.068075242458912166e-01,-9.751080243511829615e-02
4.640000000000000235e-01,7.077250109414304213e-02,2.213978203230115016e-01,-7.124834186939893454e-02
4.650000000000000244e-01,1.116700599474896999e-01,2.262503817915318127e-01,-6.606975788034034902e-02
4.660000000000000253e-01,1.188825201296836720e-01,2.192225312714533025e-01,-5.029747478070420441e-02
4.670000000000000262e-01,1.466501802681618727e-01,2.326463796389089123e-01,-4.369977187236945282e-02
4.680000000000000271e-01,1.604559691335560034e-01,2.471225740834303020e-01,-3.321521368201234975e-02
4.689999999999999725e-01,1.943148345508137198e-01,2.555972223123595954e-01,-1.283373761374757664e-02
4.699999999999999734e-01,2.128173338419032112e-01,2.514229084594264974e-01,-5.243429153062869642e-03
4.709999999999999742e-01,2.252562882505647346e-01,2.704890183114708746e-01,1.188619856818021181e-02
4.719999999999999751e-01,2.401110213575636254e-01,2.611780016907926383e-01,2.040636613999857393e-02
4.729999999999999760e-01,2.563783624519183069e-01,2.698637559925098350e-01,3.944972879167554791e-02
4.739999999999999769e-01,2.832146757094085032e-01,2.632025502599776856e-01,4.484386371934350607e-02
4.749999999999999778e-01,2.699475539677883562e-01,2.599130900142989642e-01,7.360590519734272474e-02
4.759999999999999787e-01,3.105291092349897752e-01,2.508555996441017011e-01,9.115498143527511754e-02
4.769999999999999796e-01,3.161568790854699107e-01,2.653335656403987830e-01,1.001658611647076730e-01
4.779999999999999805e-01,3.264403980991638088e-01,2.466409422058869483e-01,1.109659813305048093e-01
4.789999999999999813e-01,3.261650618739565521e-01,2.574685708006136386e-01,1.299210807632160958e-01
4.799999999999999822e-01,3.246347014454817326e-01,2.355599449090998165e-01,1.199714825933608092e-01
4.809999999999999831e-01,3.344289029051262241e-01,2.229679432090689306e-01,1.501129251718489876e-01
4.819999999999999840e-01,3.385181610323517720e-01,2.115597423681073452e-01,1.606454744329957052e-01
4.829999999999999849e-01,3.318125542531939476e-01,1.983293268789698971e-01,1.625541507858986878e-01
4.839999999999999858e-01,3.272375976426593058e-01,1.843169012825345565e-01,1.690892282011736691e-01
4.849999999999999867e-01,3.327831815434469376e-01,1.715546744755919728e-01,1.850793010586026521e-01
4.859999999999999876e-01,3.295372776992886998e-01,1.642041085771557551e-01,1.775657966745254612e-01
4.869999999999999885e-01,3.206741709050236477e-01,1.306837568752552692e-01,1.868235466891194629e-01
4.879999999999999893e-01,3.181356198015997672e-01,1.178214366934585283e-01,2.065561685568748918e-01
4.889999999999999902e-01,2.952447308824626693e-01,8.781692257560340387e-02,2.043988975382032558e-01
4.899999999999999911e-01,2.838543756359340753e-01,6.737551284911984240e-02,1.952059888065546533e-01
4.909999999999999920e-01,2.799034001010150541e-01,6.114901906346734139e-02,1.945143673789538341e-01
4.919999999999999929e-01,2.562233792091603291e-01,3.525097735591516818e-02,1.862071304716445275e-01
4.929999999999999938e-01,2.298945429983750843e-01,4.587695539252570689e-03,2.017867802468015226e-01
4.939999999999999947e-01,2.064153846367930145e-01,1.443544055636037694e-02,2.007969683665492000e-01
4.949999999999999956e-01,1.860303213729814498e-01,-2.852176183802177314e-02,1.747597905648390348e-01
4.959999999999999964e-01,1.845406206876331334e-01,-4.993322069585062056e-02,1.940928391365740191e-01
4.969999999999999973e-01,1.545041666188701757e-01,-6.400963397376437103e-02,1.965337732623670119e-01
4.979999999999999982e-01,1.315823512692183284e-01,-8.314164002437786360e-02,1.719650068297970402e-01
4.989999999999999991e-01,1.023591264446407217e-01,-9.696041056708258610e-02,1.764196377565750984e-01
5.000000000000000000e-01,7.591528967761931868e-02,-1.095215471248116995e-01,1.568096487178325948e-01
5.010000000000000009e-01,4.413492654429279627e-02,-1.464067046057810351e-01,1.541456989133472011e-01
5.020000000000000018e-01,1.160037994381658832e-02,-1.506088800731458510e-01,1.302599284359780840e-01
5.030000000000000027e-01,4.189208494728900029e-03,-1.704894033926863950e-01,1.341009494292100535e-01
5.040000000000000036e-01,-2.426479739672862679e-02,-1.959732455247771288e-01,1.209031300022564565e-01
5.050000000000000044e-01,-5.662629955630525680e-02,-2.118148262288860328e-01,9.866716082414199451e-02
5.060000000000000053e-01,-6.877628971517127376e-02,-2.239611485530423884e-01,8.830804670573226545e-02
5.070000000000000062e-01,-9.952034186560060336e-02,-2.319277223127816645e-01,1.024013692501800632e-01
5.080000000000000071e-01,-1.248943476985248102e-01,-2.168497212907672389e-01,5.779790959476021478e-02
5.090000000000000080e-01,-1.443875183261330297e-01,-2.232859770074525352e-01,4.790612867873653147e-02
5.100000000000000089e-01,-1.760407363461132246e-01,-2.429214742138394445e-01,2.835567673448271056e-02
5.110000000000000098e-01,-1.971454305122040118e-01,-2.621017703144389310e-01,2.770859554017600368e-02
5.120000000000000107e-01,-2.156324523908828561e-01,-2.616169328541291250e-01,8.165887207043032170e-03
5.130000000000000115e-01,-2.431846438110370767e-01,-2.587976635879732923e-01,-9.109707217388709338e-03
5.140000000000000124e-01,-2.377810862483522858e-01,-2.702795860588677601e-01,-2.220495188015697216e-02
5.150000000000000133e-01,-2.559191676802939353e-01,-2.772144671841244024e-01,-2.225213221953058901e-02
5.160000000000000142e-01,-2.721729023336519893e-01,-2.679544965915660604e-01,-5.722094605988241323e-02
5.170000000000000151e-01,-2.819922871122746977e-01,-2.644055763464422948e-01,-6.678499900626028163e-02
5.180000000000000160e-01,-3.074189293656723332e-01,-2.698671580982372475e-01,-8.473489770820477607e-02
5.190000000000000169e-01,-3.238168727365593469e-01,-2.518908314412518501e-01,-1.130671902080807589e-01
5.200000000000000178e-01,-3.318153835450068923e-01,-2.448069647895174394e-01,-1.022552066525305725e-01
5.210000000000000187e-01,-3.240604049302276968e-01,-2.203653869834632795e-01,-1.224797585500973091e-01
5.220000000000000195e-01,-3.425976839802592488e-01,-2.235651175452382233e-01,-1.363385882503028723e-01
5.230000000000000204e-01,-3.432923076207655688e-01,-2.282706043861739975e-01,-1.317793684234239704e-01
5.240000000000000213e-01,-3.318981194444554084e-01,-2.015825299133570114e-01,-1.539236011257580916e-01
5.250000000000000222e-01,-3.307192398945201783e-01,-1.933211024599141015e-01,-1.567079992506783814e-01
5.260000000000000231e-01,-3.220463119016008235e-01,-1.678195576281084900e-01,-1.661131589957446086e-01
5.270000000000000240e-01,-3.255880882193706860e-01,-1.565847958069637447e-01,-1.760832368127483449e-01
5.280000000000000249e-01,-3.163442636486026305e-01,-1.731001994777863207e-01,-1.978084940736064001e-01
5.290000000000000258e-01,-3.017087475269772390e-01,-1.279374368905477621e-01,-1.798171818123608101e-01
5.300000000000000266e-01,-3.107666009191905054e-01,-9.450060342076894992e-02,-1.912580110777615805e-01
5.310000000000000275e-01,-2.956738194802408515e-01,-8.250262319514183040e-02,-2.144834717569883142e-01
5.320000000000000284e-01,-2.689902738749345712e-01,-7.571780116608364808e-02,-2.094706835430532321e-01
5.330000000000000293e-01,-2.641172433481879800e-01,-6.294854757470463857e-02,-1.939167326742513575e-01
5.340000000000000302e-01,-2.599127881205539614e-01,-3.166200242370940249e-02,-2.039758914369760034e-01
5.350000000000000311e-01,-2.179980643060324130e-01,-9.971370378000639703e-03,-1.954369903966153843e-01
5.360000000000000320e-01,-2.178395972781294598e-01,2.299180027279441527e-02,-1.930351112589995255e-01
5.370000000000000329e-01,-1.826567483280477355e-01,3.878624423414769873e-02,-2.030319783269027012e-01
5.380000000000000338e-01,-1.602917051515383440e-01,4.319110695282624840e-02,-1.980154125025101464e-01
5.390000000000000346e-01,-1.422370377708665201e-01,7.996197578989741594e-02,-1.761456378693695424e-01
5.400000000000000355e-01,-1.256951420572183786e-01,8.659246682379449778e-02,-1.882702108314268930e-01
5.410000000000000364e-01,-1.087617011096537328e-01,1.053165971568070514e-01,-1.739602348169661528e-01
5.420000000000000373e-01,-7.889547920448090890e-02,1.325730119619879244e-01,-1.670567513585906605e-01
5.430000000000000382e-01,-5.224509530147102704e-02,1.347810822914993212e-01,-1.726055246397329990e-01
5.440000000000000391e-01,-2.679210494369381815e-02,1.613471540079232935e-01,-1.541193330111939319e-01
5.450000000000000400e-01,-1.854285986877162243e-03,1.883563236184222223e-01,-1.350140070681642990e-01
5.460000000000000409e-01,1.975740584830918550e-02,1.966148091004392973e-01,-1.347347970003037465e-01
5.470000000000000417e-01,4.098196771554536016e-02,2.053478745068632594e-01,-1.116652176429216575e-01
5.480000000000000426e-01,7.590385330889433402e-02,2.228619097163074270e-01,-1.016083156498992501e-01
5.490000000000000435e-01,8.688349332287428894e-02,2.172930985568551354e-01,-8.523697566567715878e-02
5.500000000000000444e-01,1.161968523782214990e-01,2.471356362899572445e-01,-6.399814267125329692e-02
5.510000000000000453e-01,1.450822227435311917e-01,2.442070955016223677e-01,-5.181670523697350789e-02
5.520000000000000462e-01,1.803619938268676004e-01,2.599538716420090045e-01,-4.805342510049245147e-02
5.530000000000000471e-01,1.855034393487083044e-01,2.666944815795022627e-01,-3.053269774508291651e-02
5.540000000000000480e-01,2.083273216998199617e-01,2.753624885229550845e-01,-4.118532975623185807e-03
5.550000000000000488e-01,2.158083551344320283e-01,2.806858717685007387e-01,3.188583680392465826e-04
5.560000000000000497e-01,2.514547961530097520e-01,2.745728826625166152e-01,9.960926652238024162e-03
5.570000000000000506e-01,2.477525081619640634e-01,2.629382647997634548e-01,2.940784837169017549e-02
5.580000000000000515e-01,2.701647708526043190e-01,2.679131661486647831e-01,4.232178677205061107e-02
5.590000000000000524e-01,2.813110772106395263e-01,2.659863717280853135e-01,5.913499701443673123e-02
5.600000000000000533e-01,2.941974713096978111e-01,2.727271959949374436e-01,7.216021391292919140e-02
5.610000000000000542e-01,3.302375731117895286e-01,2.541329117381597724e-01,9.468743250080849383e-02
5.620000000000000551e-01,3.052446698583674012e-01,2.484134005770979314e-01,1.004093067140715695e-01
5.629999999999999449e-01,3.290664616927188590e-01,2.425530451569800072e-01,1.103144412106354666e-01
5.639999999999999458e-01,3.338204006896609011e-01,2.371482101608544113e-01,1.201043296343601852e-01
5.649999999999999467e-01,3.336812768430195697e-01,2.243997185803687788e-01,1.272037123826348648e-01
5.659999999999999476e-01,3.297281835032569997e-01,2.066500336665294535e-01,1.454336655250959009e-01
5.669999999999999485e-01,3.309906168167464635e-01,1.864632525836325827e-01,1.429616671788225546e-01
5.679999999999999494e-01,3.325686923144430818e-01,1.718332963719296502e-01,1.579969772141373019e-01
5.689999999999999503e-01,3.337360658840942129e-01,1.518664592233163191e-01,1.827651398180553388e-01
5.699999999999999512e-01,3.170923236436289927e-01,1.325087453264866544e-01,1.763243268205810232e-01
5.709999999999999520e-01,3.149602756636726286e-01,1.105347006227285489e-01,1.863645285631505832e-01
5.719999999999999529e-01,3.044248109771771627e-01,1.053542574129379406e-01,1.834842184574782542e-01
5.729999999999999538e-01,2.978920143782357588e-01,7.257180779133654003e-02,2.104219760392519178e-01
5.739999999999999547e-01,2.901961466896240127e-01,7.282625979403406502e-02,1.890538284026204996e-01
5.749999999999999556e-01,2.678973006579454252e-01,3.622412696370629764e-02,2.066120616807270438e-01
5.759999999999999565e-01,2.498967479025979710e-01,1.823149575026912148e-02,1.979108112024086097e-01
5.769999999999999574e-01,2.209083845431514259e-01,-6.876947763984580901e-03,1.968527701197858581e-01
5.779999999999999583e-01,2.062160080289379416e-01,-3.439479096536906394e-02,1.991037990507492639e-01
5.789999999999999591e-01,1.927665217296565259e-01,-4.363170834180753188e-02,1.989602538577981417e-01
5.799999999999999600e-01,1.605970876800682234e-01,-6.851707634651781065e-02,1.994081927579146873e-01
5.809999999999999609e-01,1.310182618545384925e-01,-8.221600124056163694e-02,1.806620949379685037e-01
5.819999999999999618e-01,1.117268834437844666e-01,-1.047125805449862779e-01,1.878871253177446798e-01
5.829999999999999627e-01,1.051317065199099537e-01,-1.207706423272448953e-01,1.709426023133264194e-01
5.839999999999999636e-01,8.447358452418143870e-02,-1.503142534283306297e-01,1.630802309044954435e-01
5.849999999999999645e-01,5.869552797874272310e-02,-1.566723906459266680e-01,1.723159898853967587e-01
5.859999999999999654e-01,3.617249194024639569e-02,-1.650871296058770699e-01,1.401877410689621184e-01
5.869999999999999662e-01,-1.046488177120810659e-02,-1.929535163799404873e-01,1.471296772733904079e-01
5.879999999999999671e-01,-3.291673235449424362e-02,-1.971147543483415254e-01,1.225613324803849213e-01
5.889999999999999680e-01,-4.423874082182902706e-02,-2.176055523585969098e-01,1.143502579371487859e-01
5.899999999999999689e-01,-7.256617519297774155e-02,-2.293916208543446411e-01,1.012130620708978079e-01
5.909999999999999698e-01,-8.414570252831575503e-02,-2.518598551206870928e-01,7.249977827786263651e-02
5.919999999999999707e-01,-1.257882938038895615e-01,-2.502418529850300444e-01,7.466902452100694643e-02
5.929999999999999716e-01,-1.529175991375715249e-01,-2.512731350401181674e-01,6.109884978611741790e-02
5.939999999999999725e-01,-1.514045822828551102e-01,-2.519092762539205665e-01,5.076200047739313354e-02
5.949999999999999734e-01,-1.850406552929417525e-01,-2.667092591761274778e-01,4.363489115922890293e-02
5.959999999999999742e-01,-2.062841984237935855e-01,-2.787081170105307759e-01,3.274012924145761061e-02
5.969999999999999751e-01,-2.319652457795551292e-01,-2.631451325589627688e-01,1.815126508355224474e-02
5.979999999999999760e-01,-2.584711857925302558e-01,-2.680740110109394170e-01,-1.444058662788098857e-02
5.989999999999999769e-01,-2.728325100176427487e-01,-2.727726042502663373e-01,-1.886087999088247383e-02
5.999999999999999778e-01,-2.894882165736671897e-01,-2.628828450028937724e-01,-2.939899277404564235e-02
6.009999999999999787e-01,-2.927609281006680608e-01,-2.563406225810443417e-01,-4.569840462999839176e-02
6.019999999999999796e-01,-2.989307740087164822e-01,-2.529910706394638553e-01,-7.138228920658047649e-02
6.029999999999999805e-01,-3.060582264861145263e-01,-2.463591195221399022e-01,-7.374292364626751362e-02
6.039999999999999813e-01,-3.188727971244311177e-01,-2.515566056803399952e-01,-9.622654186554577271e-02
6.049999999999999822e-01,-3.303988481590278692e-01,-2.324580892206736527e-01,-1.050210150677700072e-01
6.059999999999999831e-01,-3.250342812395238812e-01,-2.274446587280571364e-01,-1.049698758018046962e-01
6.069999999999999840e-01,-3.368857607651984942e-01,-2.097148898976127218e-01,-1.287521269110816768e-01
6.079999999999999849e-01,-3.208687093478203023e-01,-1.886244613569593442e-01,-1.532675099652185957e-01
6.089999999999999858e-01,-3.420546509261558898e-01,-1.707820176762017139e-01,-1.645164188954640061e-01
6.099999999999999867e-01,-3.293431843756199906e-01,-1.539342437709364242e-01,-1.552806897356921734e-01
6.109999999999999876e-01,-3.251587547509742770e-01,-1.498700393185756763e-01,-1.819418695240763995e-01
6.119999999999999885e-01,-3.475870041867146765e-01,-1.458413287476517384e-01,-1.778750759462717768e-01
6.129999999999999893e-01,-3.132720365170548749e-01,-1.111008321117385317e-01,-1.776231125641895559e-01
6.139999999999999902e-01,-2.981554076271841769e-01,-9.659108158893323082e-02,-1.918984296313846760e-01
6.149999999999999911e-01,-2.931911744813044396e-01,-7.255628197739960594e-02,-2.006464390369986639e-01
6.159999999999999920e-01,-2.690892732900492246e-01,-4.655394628566051490e-02,-1.899250430736726114e-01
6.169999999999999929e-01,-2.620074580275587595e-01,-4.919802659635438835e-02,-2.004556839280551006e-01
6.179999999999999938e-01,-2.545958275375478919e-01,-8.636600481952401084e-03,-2.092234452753898022e-01
6.189999999999999947e-01,-2.390054100589221742e-01,9.203508881429950730e-03,-2.052545188817085919e-01
6.199999999999999956e-01,-2.139056680638646291e-01,4.052379022148985127e-02,-1.867773851623389936e-01
6.209999999999999964e-01,-1.869247493335376986e-01,5.840431872145773057e-02,-2.086498612963162691e-01
6.219999999999999973e-01,-1.562621557072982892e-01,6.452643995842720359e-02,-1.955385703285758559e-01
6.229999999999999982e-01,-1.338436332975380394e-01,8.372519461945807095e-02,-1.967285783861627002e-01
6.239999999999999991e-01,-1.206667311683571192e-01,1.044960895198951273e-01,-1.840557836029094729e-01
6.250000000000000000e-01,-9.483264970016964945e-02,1.411093688060315321e-01,-1.741695593614455972e-01
6.260000000000000009e-01,-8.099507633882807589e-02,1.455599708663511405e-01,-1.671525721850490587e-01
6.270000000000000018e-01,-4.656250361593104736e-02,1.665451925357297469e-01,-1.467290199452315202e-01
6.280000000000000027e-01,-4.411244164711593946e-02,1.821923091231104352e-01,-1.572831156925088847e-01
6.290000000000000036e-01,1.041286581639305720e-03,2.028918476042199937e-01,-1.471676429226014826e-01
6.300000000000000044e-01,3.182523764225345109e-02,2.098030760670152872e-01,-1.392039315710347502e-01
6.310000000000000053e-01,7.276085538017075527e-02,2.307343770499225288e-01,-1.176286075769869266e-01
6.320000000000000062e-01,7.744614660032378417e-02,2.364616000195626233e-01,-9.825773165686495225e-02
6.330000000000000071e-01,8.619078752008189903e-02,2.488490275886050263e-01,-9.547817808574651788e-02
6.340000000000000080e-01,1.090749888851502147e-01,2.560250382413304382e-01,-8.900435963326888689e-02
6.350000000000000089e-01,1.391451692214899227e-01,2.586261104529791743e-01,-6.204170413845188498e-02
6.360000000000000098e-01,1.613865910933485193e-01,2.704089757780101522e-01,-5.450300077103468338e-02
6.370000000000000107e-01,1.951297244611907011e-01,2.755303499257681921e-01,-3.186356990308869541e-02
6.380000000000000115e-01,2.122998868974184383e-01,2.759237435660419346e-01,-2.276049328524329743e-02
6.390000000000000124e-01,2.077329103695498835e-01,2.628424434456697600e-01,-9.242082267068071205e-03
6.400000000000000133e-01,2.542137248992555887e-01,2.521141439538844287e-01,1.298582322007130196e-02
6.410000000000000142e-01,2.593103727862883234e-01,2.552049134549305709e-01,2.105170653006271236e-02
6.420000000000000151e-01,2.840519695764032182e-01,2.671545034218026360e-01,2.961251695276776938e-02
6.430000000000000160e-01,2.789895201941665626e-01,2.626085269892294294e-01,6.006567134344149850e-02
6.440000000000000169e-01,2.986592460288731710e-01,2.488588096727565036e-01,6.557449411216158264e-02
6.450000000000000178e-01,3.203610864222430910e-01,2.272239777619798617e-01,7.535202345051965345e-02
6.460000000000000187e-01,3.096011623820790204e-01,2.539726799225798803e-01,9.063784961745792457e-02
6.470000000000000195e-01,3.366830781437834541e-01,2.330343409855059611e-01,9.439344353614020910e-02
6.480000000000000204e-01,3.429989736074672835e-01,2.081407377966887073e-01,1.132672745836926786e-01
6.490000000000000213e-01,3.456170964035636395e-01,2.041706320174490608e-01,1.314862691994871380e-01
6.500000000000000222e-01,3.502367124805337295e-01,1.964510433356232155e-01,1.446533032146070097e-01
6.510000000000000231e-01,3.399907680312277414e-01,1.652215118212333467e-01,1.559334555077133422e-01
6.520000000000000240e-01,3.363972523853841490e-01,1.765655622606106256e-01,1.503896426949018206e-01
6.530000000000000249e-01,3.194346718035692700e-01,1.404221544674938704e-01,1.558338540809712791e-01
6.540000000000000258e-01,3.080559120995318700e-01,1.169966151546019822e-01,1.747463833620972185e-01
6.550000000000000266e-01,3.091882974444503107e-01,9.483011040531802438e-02,1.950969270775578523e-01
6.560000000000000275e-01,3.020948355440112865e-01,6.937646507968865672e-02,1.843785434865115314e-01
6.570000000000000284e-01,2.955347416854712805e-01,7.400901710026080993e-02,1.821320075373430991e-01
6.580000000000000293e-01,2.768745870865033654e-01,4.942592175675879912e-02,1.953572777832341123e-01
6.590000000000000302e-01,2.497542397292730199e-01,1.957307919026580328e-02,1.878908570040182802e-01
6.600000000000000311e-01,2.467333549421207584e-01,1.283494052091884580e-02,1.972113364659117962e-01
6.610000000000000320e-01,2.145662222191320467e-01,-1.257538675509777860e-02,2.176575377303026915e-01
6.620000000000000329e-01,2.071087091829521276e-01,-5.395825603062472803e-02,2.002785734273578033e-01
6.630000000000000338e-01,1.969722961116095739e-01,-5.734360100487705114e-02,1.987865181136653780e-01
6.640000000000000346e-01,1.655659829939934435e-01,-5.953979828237677963e-02,1.986658130551242352e-01
6.650000000000000355e-01,1.371538395384258591e-01,-1.076990279688213037e-01,1.949829542066685018e-01
6.660000000000000364e-01,1.149055728078980515e-01,-1.069066206085922954e-01,1.960952808984323670e-01
6.670000000000000373e-01,1.005329664028534464e-01,-1.262381923510820514e-01,1.924410787853508553e-01
6.680000000000000382e-01,7.270827417086579703e-02,-1.569589067076481437e-01,1.799982872049338545e-01
6.690000000000000391e-01,5.018061605893157223e-02,-1.686633701895461079e-01,1.678029034893684657e-01
6.700000000000000400e-01,3.362338212055292902e-02,-1.768257950497619246e-01,1.620611131946875783e-01
6.710000000000000409e-01,3.577262277767867624e-03,-1.932943524048431616e-01,1.427650104109793872e-01
6.720000000000000417e-01,-2.846520135472204935e-02,-2.010385501466870339e-01,1.371107535676557854e-01
6.730000000000000426e-01,-6.495908800003664940e-02,-2.179256657095204885e-01,1.287264291338617861e-01
6.740000000000000435e-01,-8.122728741682776199e-02,-2.296391622891778839e-01,1.197002631685564616e-01
6.750000000000000444e-01,-1.124363083120158285e-01,-2.557384355400859621e-01,9.201856689562583347e-02
6.760000000000000453e-01,-1.352298048536061947e-01,-2.449864917619951066e-01,9.206682026383128381e-02
6.770000000000000462e-01,-1.448077351022288295e-01,-2.675256926854533979e-01,7.911544893624819497e-02
6.780000000000000471e-01,-1.830224808280793425e-01,-2.517643719148245918e-01,7.326374544281245849e-02
6.790000000000000480e-01,-1.773071432788918267e-01,-2.592726954603926659e-01,6.000496983667288203e-02
6.800000000000000488e-01,-2.110765873498454681e-01,-2.627832316997159023e-01,3.630386437560310930e-02
6.810000000000000497e-01,-2.216314079102778278e-01,-2.655881294341179699e-01,4.578067121686657179e-03
6.820000000000000506e-01,-2.406023847355514278e-01,-2.604161652650571757e-01,-8.806405829886232439e-03
6.830000000000000515e-01,-2.514550176303044227e-01,-2.493879724729342051e-01,-1.690159379037113260e-02
6.840000000000000524e-01,-2.900776141425374655e-01,-2.598324330204866972e-01,-1.162761377666738510e-02
6.850000000000000533e-01,-3.005178408045131588e-01,-2.719235380839143401e-01,-5.655439826306044721e-02
6.860000000000000542e-01,-3.112409970739657417e-01,-2.519514232068221782e-01,-6.349315662721437270e-02
6.870000000000000551e-01,-3.273872183852432616e-01,-2.364328238177783870e-01,-8.217232726694409517e-02
6.879999999999999449e-01,-3.231856632571967203e-01,-2.482179730191202693e-01,-9.221222442268586783e-02
6.889999999999999458e-01,-3.408517386265328408e-01,-2.309806500867403467e-01,-9.250625395003400642e-02
6.899999999999999467e-01,-3.197175440424744330e-01,-2.085923764667848013e-01,-1.085367175467610579e-01
6.909999999999999476e-01,-3.278218532182748945e-01,-1.848041834525660509e-01,-1.250396789134801123e-01
6.919999999999999485e-01,-3.351609673915860177e-01,-1.855491460728460884e-01,-1.499494063368192742e-01
6.929999999999999494e-01,-3.377232843168967991e-01,-1.585421608723717735e-01,-1.553453469016828348e-01
6.939999999999999503e-01,-3.335567766417715241e-01,-1.538882795420173366e-01,-1.608322702942756033e-01
6.949999999999999512e-01,-3.262252103061419883e-01,-1.331300591967904678e-01,-1.670970262832022490e-01
6.959999999999999520e-01,-3.190894103044530361e-01,-1.284975462453440964e-01,-1.749092698983891470e-01
6.969999999999999529e-01,-3.084702207368015814e-01,-8.333685892434058995e-02,-1.744464838599353307e-01
6.979999999999999538e-01,-2.895364060633023318e-01,-5.971306772462902507e-02,-1.788960475542812345e-01
6.989999999999999547e-01,-2.914278284495900317e-01,-4.419044291616459202e-02,-1.895004229861247391e-01
6.999999999999999556e-01,-2.641024912454630891e-01,-4.372869940899616614e-02,-1.884523981659037839e-01
7.009999999999999565e-01,-2.615807317344215899e-01,2.739836996637507599e-04,-1.893860606531164725e-01
7.019999999999999574e-01,-2.306223739202631628e-01,-8.708851636144501751e-03,-2.064918813050111990e-01
7.029999999999999583e-01,-2.209852876376408037e-01,2.939705398888581636e-02,-2.035623813703814067e-01
7.039999999999999591e-01,-2.073923838247338780e-01,4.218246890821868850e-02,-2.024716248272728780e-01
7.049999999999999600e-01,-1.811440610003359208e-01,7.764697450263723100e-02,-1.871764498331636717e-01
7.059999999999999609e-01,-1.774026529461215917e-01,7.014078780627597265e-02,-1.864637612679733436e-01
7.069999999999999618e-01,-1.430176815220084996e-01,1.082981997480701730e-01,-1.901789164375262131e-01
7.079999999999999627e-01,-1.360135771408066130e-01,1.194074446965424224e-01,-1.844522314858877410e-01
7.089999999999999636e-01,-8.000554314841618053e-02,1.452974621868380334e-01,-1.898582898417231768e-01
7.099999999999999645e-01,-7.272304208623019128e-02,1.609589881648962328e-01,-1.793592930760473658e-01
7.109999999999999654e-01,-4.009051384149365377e-02,1.798597522448532882e-01,-1.720782155622321563e-01
7.119999999999999662e-01,-8.494235351127851774e-03,1.971781880472248949e-01,-1.496228401822433107e-01
7.129999999999999671e-01,3.102829610527617701e-03,2.089078788348029125e-01,-1.487531900650585215e-01
7.139999999999999680e-01,1.895309422049956324e-02,2.155879796829401063e-01,-1.448320023033499437e-01
7.149999999999999689e-01,5.925007245310341675e-02,2.171808672835753296e-01,-1.184189372188429179e-01
7.159999999999999698e-01,7.356739960275433809e-02,2.271148458220836885e-01,-1.138385468427365460e-01
7.169999999999999707e-01,1.122443083454572749e-01,2.389718555473055173e-01,-9.801200922294722728e-02
7.179999999999999716e-01,1.216565539750075475e-01,2.521143061713735367e-01,-8.499795720053729409e-02
7.189999999999999725e-01,1.486407623524914068e-01,2.575327487242846658e-01,-6.074999241353960105e-02
7.199999999999999734e-01,1.830579998086792337e-01,2.613162946490878991e-01,-6.048366900363214005e-02
7.209999999999999742e-01,1.947137039323947882e-01,2.590322115055124219e-01,-3.771661799751931804e-02
7.219999999999999751e-01,2.212491652867706882e-01,2.646399026597551218e-01,-3.467136884756463755e-02
7.229999999999999760e-01,2.458012905230455014e-01,2.638886530176741685e-01,-1.109731677136795679e-02
7.239999999999999769e-01,2.445453865703540453e-01,2.681356739848329007e-01,2.056138683679166555e-03
7.249999999999999778e-01,2.687032853635953344e-01,2.568575567850847619e-01,-1.760556821948806036e-04
7.259999999999999787e-01,2.755222168917102477e-01,2.539866516106865091e-01,2.178494043942730621e-02
7.269999999999999796e-01,3.041902252086745029e-01,2.493390849111567775e-01,2.018426492430892838e-02
7.279999999999999805e-01,2.962509838028875575e-01,2.506350082230385801e-01,3.998613545237332534e-02
7.289999999999999813e-01,3.217050661607564477e-01,2.258218383003209873e-01,6.680579211145407093e-02
7.299999999999999822e-01,3.287521669704427385e-01,2.307191697828945565e-01,7.614761305960088267e-02
7.309999999999999831e-01,3.361552727373206539e-01,2.003313890920578322e-01,9.401957551696249471e-02
7.319999999999999840e-01,3.329350560045271079e-01,2.100905042315656390e-01,9.149767161345859212e-02
7.329999999999999849e-01,3.206638164448058492e-01,1.820607052233664813e-01,1.252841808667408685e-01
7.339999999999999858e-01,3.302215179025542735e-01,1.572377160893876635e-01,1.317920760673280955e-01
7.349999999999999867e-01,3.325421053224448809e-01,1.678227075176903227e-01,1.468133084948801959e-01
7.359999999999999876e-01,3.396335459939379686e-01,1.285912233514863168e-01,1.599624746010795406e-01
7.369999999999999885e-01,3.327489703381177888e-01,1.194318514159555533e-01,1.640913480296818661e-01
7.379999999999999893e-01,3.221218469739429158e-01,1.012059699391796852e-01,1.846903773404041660e-01
7.389999999999999902e-01,3.275169914367010437e-01,8.230997859830248287e-02,1.816719102847475786e-01
7.399999999999999911e-01,3.117692217350096495e-01,8.027424982918231200e-02,2.065062919440890932e-01
7.409999999999999920e-01,2.818546205805286808e-01,3.450175342697137104e-02,1.906731236959155751e-01
7.419999999999999929e-01,2.763842582634127298e-01,2.643693885682843817e-02,2.036288558756770839e-01
7.429999999999999938e-01,2.568299506975391666e-01,1.267859921773250914e-03,1.955835709607489092e-01
7.439999999999999947e-01,2.572115238385957459e-01,-1.866145202697367875e-02,2.018377467979715345e-01
7.449999999999999956e-01,2.258871794340241990e-01,-1.685328046857520815e-02,2.069801792333224033e-01
7.459999999999999964e-01,1.915390321446401589e-01,-7.007634814711581617e-02,1.986539455259558884e-01
7.469999999999999973e-01,1.912540073092222626e-01,-9.124872252239601966e-02,1.928510990843118889e-01
7.479999999999999982e-01,1.553184306210388110e-01,-1.001294522755874633e-01,1.879340813860398141e-01
7.489999999999999991e-01,1.541670123778400292e-01,-1.064328184515880571e-01,1.959353809899143928e-01
7.500000000000000000e-01,1.310212161763631422e-01,-1.400780447341558321e-01,1.889632896588627209e-01
7.510000000000000009e-01,1.046116797179888203e-01,-1.479006555280300561e-01,1.747570069174687601e-01
7.520000000000000018e-01,7.357020811667859539e-02,-1.565720813944841139e-01,1.583857226565080212e-01
7.530000000000000027e-01,4.884000466955460557e-02,-1.902113906371342977e-01,1.640353738881583923e-01
7.540000000000000036e-01,1.567929179156183836e-02,-1.921209098785279512e-01,1.549818787816375221e-01
7.550000000000000044e-01,3.131584546292530066e-03,-2.102043157995525380e-01,1.538735555050047554e-01
7.560000000000000053e-01,-5.144804541967479966e-02,-2.119079076260685646e-01,1.489188963030527724e-01
7.570000000000000062e-01,-6.180157817323841257e-02,-2.389312296385317502e-01,1.396225498239815066e-01
7.580000000000000071e-01,-7.504216880989053595e-02,-2.563340824860278477e-01,1.040214823041240855e-01
7.590000000000000080e-01,-1.029846034863624721e-01,-2.494814369433552281e-01,1.191730367660502332e-01
7.600000000000000089e-01,-1.292093526674367721e-01,-2.510609837926338073e-01,9.261613352182093695e-02
7.610000000000000098e-01,-1.576815546274146773e-01,-2.644407647592086352e-01,7.310415872105867352e-02
7.620000000000000107e-01,-1.573083953414217973e-01,-2.602771519257346400e-01,7.307181981242868996e-02
7.630000000000000115e-01,-2.052837261893945553e-01,-2.592864381245232885e-01,5.649971845456925462e-02
7.640000000000000124e-01,-2.081239189049410299e-01,-2.841397378205813284e-01,2.216453759147135952e-02
7.650000000000000133e-01,-2.513576368899719804e-01,-2.728046813335418541e-01,2.088383960217977953e-02
7.660000000000000142e-01,-2.486510614641760653e-01,-2.651699025721306335e-01,1.439681173377731042e-02
7.670000000000000151e-01,-2.512303396199155325e-01,-2.619049316772510960e-01,-7.055403095683915674e-03
7.680000000000000160e-01,-2.858686725977399590e-01,-2.476031360090324152e-01,-1.490797876832864084e-02
7.690000000000000169e-01,-2.783247578555310131e-01,-2.640528524061484528e-01,-3.409857621473847550e-02
7.700000000000000178e-01,-3.060164234213529899e-01,-2.392736962490683572e-01,-4.593145269751953280e-02
7.710000000000000187e-01,-3.163927317548106966e-01,-2.396864425341831417e-01,-6.763927452302877230e-02
7.720000000000000195e-01,-3.068320745305339048e-01,-2.277589004504609049e-01,-6.841280929862483817e-02
7.730000000000000204e-01,-3.286556295721503318e-01,-2.046075252320273818e-01,-8.418730395110758657e-02
7.740000000000000213e-01,-3.326569329479096560e-01,-2.030938522246897027e-01,-1.117552370617112961e-01
7.750000000000000222e-01,-3.374616239770322212e-01,-1.926223794345220675e-01,-1.037741656850033195e-01
7.760000000000000231e-01,-3.391578588793079940e-01,-1.600389584627645856e-01,-1.260309038620128774e-01
7.770000000000000240e-01,-3.441210334617536004e-01,-1.623378123654461713e-01,-1.475420340016906640e-01
7.780000000000000249e-01,-3.238524085392325835e-01,-1.331471283336236600e-01,-1.541996160116698433e-01
7.790000000000000258e-01,-3.322065506572461913e-01,-1.175407526014227849e-01,-1.578252571820973338e-01
7.800000000000000266e-01,-3.201241770128753217e-01,-8.951518714698086798e-02,-1.716774128114423592e-01
7.810000000000000275e-01,-3.022579319193785530e-01,-7.597221461361260142e-02,-1.728818063311697295e-01
7.820000000000000284e-01,-3.093521205145047803e-01,-5.703262446846202316e-02,-1.789781080085137144e-01
7.830000000000000293e-01,-2.912876845011012628e-01,-3.136366152254845691e-02,-1.901287725263122175e-01
7.840000000000000302e-01,-2.733669066130258174e-01,-1.140799269159811780e-02,-2.027144220273173758e-01
7.850000000000000311e-01,-2.569245492659161245e-01,1.304285283949902473e-02,-1.941018862181253524e-01
7.860000000000000320e-01,-2.482888741158741086e-01,2.000665025914341588e-02,-2.107218797605195648e-01
7.870000000000000329e-01,-2.313933405232485863e-01,5.016029335466908046e-02,-2.039775764715853201e-01
7.880000000000000338e-01,-1.977629754970380294e-01,7.862224356319172380e-02,-2.001482916957288694e-01
7.890000000000000346e-01,-1.821055696725872308e-01,9.052992610692171815e-02,-1.918609357319910336e-01
7.900000000000000355e-01,-1.616774031259664846e-01,1.060832731667416956e-01,-2.006401428908299311e-01
7.910000000000000364e-01,-1.532619726135051319e-01,1.137157989823101567e-01,-1.822520629012381321e-01
7.920000000000000373e-01,-1.223355317681306537e-01,1.505945902835255923e-01,-2.011059335128654868e-01
7.930000000000000382e-01,-9.600455507032541747e-02,1.598695951549789496e-01,-2.031964720654718948e-01
7.940000000000000391e-01,-6.289808152807090103e-02,1.747855076399656704e-01,-1.925239722668429243e-01
7.950000000000000400e-01,-3.629317349469111248e-02,1.992088455769117639e-01,-1.713970136242611852e-01
7.960000000000000409e-01,5.057246976139333910e-03,2.375827033260190235e-01,-1.621704962748858891e-01
7.970000000000000417e-01,1.077294517680424391e-02,1.936421762618241726e-01,-1.622003537951476615e-01
7.980000000000000426e-01,3.805953327283226328e-02,2.203995660192900885e-01,-1.419988622558972791e-01
7.990000000000000435e-01,6.709805143876601541e-02,2.446793531947975553e-01,-1.376078411860614248e-01
8.000000000000000444e-01,8.032159491402467155e-02,2.409574127068486449e-01,-1.235943960397110630e-01
8.010000000000000453e-01,8.836563103814795705e-02,2.600988968040729987e-01,-1.065044158496251531e-01
8.020000000000000462e-01,1.322359973251506782e-01,2.569398535162637498e-01,-9.291495939971035345e-02
8.030000000000000471e-01,1.644604322617843062e-01,2.659222718429441468e-01,-7.496744720254462646e-02
8.040000000000000480e-01,1.780841041929974444e-01,2.610000863594938436e-01,-8.407612184424005652e-02
8.050000000000000488e-01,1.837722640211278680e-01,2.588133232659035055e-01,-5.582206696519941003e-02
8.060000000000000497e-01,2.084878934774899717e-01,2.679966713165161663e-01,-4.531853258782866239e-02
8.070000000000000506e-01,2.215265931063162830e-01,2.786651926082173159e-01,-3.050326433957714287e-02
8.080000000000000515e-01,2.449683680006555786e-01,2.738153262637969543e-01,-1.409574894476072447e-02
8.090000000000000524e-01,2.622190896168528074e-01,2.758633774858982868e-01,1.268782545483077961e-03
8.100000000000000533e-01,2.939835066148692722e-01,2.435653737567495258e-01,1.053339937686293380e-02
8.110000000000000542e-01,2.946608627791276747e-01,2.429367326607921596e-01,3.086428474574742439e-02
8.120000000000000551e-01,3.191668852939196777e-01,2.411649414698410765e-01,3.870504841486329534e-02
8.129999999999999449e-01,3.170100476892270258e-01,2.311586723517750630e-01,6.043096131721382297e-02
8.139999999999999458e-01,3.129244877095171407e-01,2.210773804707408252e-01,6.922506149634098660e-02
8.149999999999999467e-01,3.231856721871561033e-01,2.101946002888954446e-01,9.190922311016574975e-02
8.159999999999999476e-01,3.429359446496256236e-01,1.900966491121287849e-01,1.034321658586489917e-01
8.169999999999999485e-01,3.384203396492997951e-01,1.797013925090680808e-01,1.114888646250782461e-01
8.179999999999999494e-01,3.318492696348748772e-01,1.605243447342948881e-01,1.349950340241637958e-01
8.189999999999999503e-01,3.376119056904107740e-01,1.284870837016920675e-01,1.444991432785822372e-01
8.199999999999999512e-01,3.284223460849385878e-01,1.363234397536993714e-01,1.591786807245911817e-01
8.209999999999999520e-01,3.312633929218699591e-01,8.839004840181018119e-02,1.610369063943490053e-01
8.219999999999999529e-01,3.198665165772816565e-01,8.257065014982586937e-02,1.585108009914818761e-01
8.229999999999999538e-01,3.099938872773078113e-01,7.389960970878191315e-02,1.820887724576052691e-01
8.239999999999999547e-01,2.988628328391323974e-01,3.802448932419047467e-02,1.847741660232026240e-01
8.249999999999999556e-01,3.015386199815707768e-01,1.703700972223170726e-02,1.654817425937308295e-01
8.259999999999999565e-01,2.768652418440770702e-01,-1.370746297876450012e-03,1.920974038030363595e-01
8.269999999999999574e-01,2.587466639232642862e-01,-2.038290008136699888e-02,1.993840198950470044e-01
8.279999999999999583e-01,2.424729383865271704e-01,-5.299196662402460428e-02,2.174952971883440389e-01
8.289999999999999591e-01,2.196032520370314323e-01,-5.229242232641979210e-02,2.082408449540390227e-01
8.299999999999999600e-01,2.030714854293148575e-01,-7.905559887640654926e-02,2.002471709942833522e-01
8.309999999999999609e-01,1.818248634345918657e-01,-1.014366237779996821e-01,1.778881159674757795e-01
8.319999999999999618e-01,1.758091315086353912e-01,-1.110784265199436655e-01,2.054650037824982678e-01
8.329999999999999627e-01,1.575710924912913369e-01,-1.235519374147260874e-01,1.977535845660179092e-01
8.339999999999999636e-01,1.198764406924859721e-01,-1.653561280315397342e-01,1.868358845887909125e-01
8.349999999999999645e-01,9.649321040786706938e-02,-1.634679702173171822e-01,1.913265750212427285e-01
8.359999999999999654e-01,6.717224353232009726e-02,-2.023702380734045680e-01,1.702284255133786894e-01
8.369999999999999662e-01,5.009804444331401180e-02,-1.919368702038891095e-01,1.926061366119998508e-01
8.379999999999999671e-01,2.314724204903941332e-02,-2.283222784049902532e-01,1.582504787496683551e-01
8.389999999999999680e-01,-1.185905111010263080e-02,-2.154458769152109709e-01,1.552547572467387338e-01
8.399999999999999689e-01,-3.936907575859088099e-02,-2.391198781783223648e-01,1.440434169951456955e-01
8.409999999999999698e-01,-7.557400931437208147e-02,-2.460578861610135393e-01,1.424659180868953490e-01
8.419999999999999707e-01,-8.866312332412355779e-02,-2.421026016514460644e-01,1.232582669427070426e-01
8.429999999999999716e-01,-1.039988166854346058e-01,-2.533714052983815357e-01,1.057552486201694397e-01
8.439999999999999725e-01,-1.254116987603982325e-01,-2.864132080600035879e-01,1.013595211628840614e-01
8.449999999999999734e-01,-1.576525117770752327e-01,-2.650075396832394237e-01,9.012361232811055833e-02
8.459999999999999742e-01,-1.889455246087819174e-01,-2.611840489056005965e-01,8.904988815626943555e-02
8.469999999999999751e-01,-1.819929153370593855e-01,-2.650796412330957974e-01,6.663716987891159238e-02
8.479999999999999760e-01,-2.181468504534301578e-01,-2.576934333112124720e-01,3.831781727003327059e-02
8.489999999999999769e-01,-2.245444211659461675e-01,-2.786843190926713842e-01,2.006299405670994296e-02
8.499999999999999778e-01,-2.567653851614548621e-01,-2.714615838031638750e-01,3.733037225107117135e-02
8.509999999999999787e-01,-2.607675309170397471e-01,-2.554880602735800643e-01,1.654343506005366213e-02
8.519999999999999796e-01,-2.947399437537585043e-01,-2.505515351588766260e-01,-3.767340133100408425e-05
8.529999999999999805e-01,-2.863301785405306665e-01,-2.417571019714569724e-01,-2.250458332374380421e-02
8.539999999999999813e-01,-3.028755025963953407e-01,-2.297585893451227212e-01,-2.965621281593089353e-02
8.549999999999999822e-01,-3.100361635502273949e-01,-2.160639116807777094e-01,-4.450078629476857117e-02
8.559999999999999831e-01,-3.186134436666223646e-01,-2.088655765537566211e-01,-7.694942958000973443e-02
8.569999999999999840e-01,-3.199794049221275638e-01,-2.056014167097693912e-01,-6.175183019378856220e-02
8.579999999999999849e-01,-3.283675224853729313e-01,-1.859778130809436880e-01,-1.085534426729361512e-01
8.589999999999999858e-01,-3.252891222718414244e-01,-1.617658689169871322e-01,-1.229691231016659253e-01
8.599999999999999867e-01,-3.361794281941984375e-01,-1.355586153374105651e-01,-1.061847888610057550e-01
8.609999999999999876e-01,-3.359131888666925803e-01,-1.255773579005455276e-01,-1.232644176853129186e-01
8.619999999999999885e-01,-3.224122065436977325e-01,-1.252403174294445531e-01,-1.342127810345024874e-01
8.629999999999999893e-01,-3.077684683634617224e-01,-1.006786439933670257e-01,-1.522925623812593499e-01
8.639999999999999902e-01,-3.162225988023963930e-01,-6.362267283438009791e-02,-1.657529716770910211e-01
8.649999999999999911e-01,-3.178957034219374034e-01,-6.174790500920334518e-02,-1.796299128002647461e-01
8.659999999999999920e-01,-3.057486161066528818e-01,-5.057681537912315367e-02,-1.753560796113349807e-01
8.669999999999999929e-01,-2.831715729264538961e-01,-1.675861017308463360e-02,-1.845152505236133667e-01
8.679999999999999938e-01,-2.790055311641100322e-01,-4.547290038332017954e-03,-1.893933003624770073e-01
8.689999999999999947e-01,-2.623302562361274903e-01,3.003625304791648909e-02,-1.914290823116794049e-01
8.699999999999999956e-01,-2.563942499305042477e-01,4.752580466791020419e-02,-2.069487158848032637e-01
8.709999999999999964e-01,-2.198389759835224222e-01,5.979623118134529819e-02,-1.896652397853405281e-01
8.719999999999999973e-01,-1.960757550418341377e-01,7.682005909205172345e-02,-2.039190861377952468e-01
8.729999999999999982e-01,-1.844795699844918868e-01,1.106442673205362132e-01,-2.009566862566820600e-01
8.739999999999999991e-01,-1.530573110425467731e-01,1.098117980295735263e-01,-1.932962565363375851e-01
8.750000000000000000e-01,-1.362997797699567748e-01,1.289113827044927052e-01,-2.110862073431872543e-01
8.760000000000000009e-01,-1.090264161087828032e-01,1.620920323177353350e-01,-2.026289041690069737e-01
8.770000000000000018e-01,-8.417212060690067166e-02,1.727972036782573773e-01,-1.931657286632667003e-01
8.780000000000000027e-01,-7.490694180061638341e-02,1.964414040934643890e-01,-1.838806790889261356e-01
8.790000000000000036e-01,-3.465058781018735129e-02,1.965745708141527770e-01,-1.750585081928606179e-01
8.800000000000000044e-01,-1.821531627703519909e-02,2.102297983211255661e-01,-1.790147108123810449e-01
8.810000000000000053e-01,7.552093616985669977e-04,2.176665229358193399e-01,-1.649352302752108701e-01
8.820000000000000062e-01,1.366751858564553904e-02,2.479259087682892104e-01,-1.598355701974476240e-01
8.830000000000000071e-01,5.907808721007240527e-02,2.398015078632060870e-01,-1.476819887170586487e-01
8.840000000000000080e-01,7.511971681056020533e-02,2.556541606953249279e-01,-1.228066329294431047e-01
8.850000000000000089e-01,9.946034248677484979e-02,2.296017262491444333e-01,-1.195924563593349782e-01
8.860000000000000098e-01,1.326200408370518946e-01,2.680015312887806811e-01,-1.207953403914308610e-01
8.870000000000000107e-01,1.520262758177214069e-01,2.607908745057063160e-01,-9.099669484498824901e-02
8.880000000000000115e-01,1.812218962393002675e-01,2.709599261721289398e-01,-7.721159281106844408e-02
8.890000000000000124e-01,1.911973457161763035e-01,2.703513322397062546e-01,-7.108738105079932812e-02
8.900000000000000133e-01,2.112940244127390343e-01,2.600863031739533704e-01,-5.295993358525402650e-02
8.910000000000000142e-01,2.279686706494040149e-01,2.569971909732243209e-01,-3.323443459751094370e-02
8.920000000000000151e-01,2.538847734488975383e-01,2.711394771563150341e-01,-2.375906390799262247e-02
8.930000000000000160e-01,2.575986756502412489e-01,2.608982458683652972e-01,-2.176315189426453189e-02
8.940000000000000169e-01,3.043749719916760132e-01,2.366615122371732993e-01,6.232312508988687404e-03
8.950000000000000178e-01,2.901945289206084300e-01,2.356093181908626988e-01,2.032204627581372935e-02
8.960000000000000187e-01,3.071246227711210697e-01,2.210643852426046052e-01,2.959835530605703022e-02
8.970000000000000195e-01,3.114168020063436959e-01,2.227650367758907957e-01,3.311003531364015845e-02
8.980000000000000204e-01,3.278674057360586591e-01,2.077708250654497213e-01,6.172201833533608184e-02
8.990000000000000213e-01,3.208328207803298748e-01,1.969063077354538671e-01,7.869126695508106561e-02
9.000000000000000222e-01,3.264566159561798631e-01,1.654806918953934392e-01,8.661641483395401964e-02
9.010000000000000231e-01,3.394127631826683311e-01,1.636356145525000860e-01,9.294694006021914090e-02
9.020000000000000240e-01,3.351288632195384420e-01,1.367190850045061912e-01,1.138120944625311132e-01
9.030000000000000249e-01,3.409597140080304345e-01,1.206546003492256353e-01,1.251162365948917943e-01
9.040000000000000258e-01,3.279490185983125472e-01,1.009756584152276954e-01,1.371685896667103610e-01
9.050000000000000266e-01,3.191743709572193444e-01,8.751076756322050121e-02,1.389172836886384266e-01
9.060000000000000275e-01,3.193401074439354281e-01,6.659318986815472574e-02,1.653241631893362651e-01
9.070000000000000284e-01,3.101821287149816864e-01,4.310994676596903441e-02,1.591641534641672351e-01
9.080000000000000293e-01,2.788193132596655244e-01,1.623972316121159026e-02,1.738443895643877746e-01
9.090000000000000302e-01,2.885109526670842639e-01,-9.947487395223324202e-03,1.775217103184134892e-01
9.100000000000000311e-01,2.687121146493147705e-01,-1.836826319461094467e-02,1.878509817188924180e-01
9.110000000000000320e-01,2.526539269320155490e-01,-3.688280929421949156e-02,1.883923297649871265e-01
9.120000000000000329e-01,2.392004679539982137e-01,-5.574700464390190680e-02,1.974591906254287432e-01
9.130000000000000338e-01,2.318071123931194355e-01,-7.015521409400642117e-02,1.934329603526301344e-01
9.140000000000000346e-01,2.076411214232620761e-01,-8.484055032932183438e-02,1.920145664853420697e-01
9.150000000000000355e-01,1.823902908680891943e-01,-1.262707331528337418e-01,1.994282150766684136e-01
9.160000000000000364e-01,1.636010051629140372e-01,-1.334107664472947985e-01,2.043155698876108484e-01
9.170000000000000373e-01,1.370651488665437234e-01,-1.266339064270986803e-01,2.086868926704909255e-01
9.180000000000000382e-01,1.126610784742757554e-01,-1.803333332684177170e-01,1.934225392315171987e-01
9.190000000000000391e-01,8.455831551323034212e-02,-1.764964288442420204e-01,1.933821708987970289e-01
9.200000000000000400e-01,6.804903195596480325e-02,-1.881472592945539202e-01,1.744287175958103564e-01
9.210000000000000409e-01,4.306182698313389123e-02,-1.959388315436055017e-01,1.819422706713421101e-01
9.220000000000000417e-01,2.463659801929449569e-02,-2.151279813007014319e-01,1.696891548474226963e-01
9.230000000000000426e-01,-1.392988898294588232e-02,-2.253603475222240859e-01,1.710712229966683817e-01
9.240000000000000435e-01,-3.495496942655926254e-02,-2.421677638864149773e-01,1.601510629089088200e-01
9.250000000000000444e-01,-7.819558417664904115e-02,-2.518230118635868542e-01,1.567796333793634589e-01
9.260000000000000453e-01,-8.440034227299084146e-02,-2.573062437365725152e-01,1.416593624238293714e-01
9.270000000000000462e-01,-1.182528971271444296e-01,-2.532406377321352875e-01,1.162302137834437810e-01
9.280000000000000471e-01,-1.181059718205154790e-01,-2.591347106978663106e-01,1.210383100587258398e-01
9.290000000000000480e-01,-1.432162830299482659e-01,-2.788967340111269122e-01,1.062062563768064183e-01
9.300000000000000488e-01,-1.635047894951384695e-01,-2.697590388415324059e-01,9.329479324624895265e-02
9.310000000000000497e-01,-1.896035570371557011e-01,-2.787201062203420454e-01,7.281063867701589865e-02
9.320000000000000506e-01,-2.212790746354668658e-01,-2.590243011985883803e-01,6.558659267848014618e-02
9.330000000000000515e-01,-2.400099208582023858e-01,-2.573969390307390692e-01,4.475416787004688618e-02
9.340000000000000524e-01,-2.595583513044326107e-01,-2.697837722796717075e-01,4.096228207663522164e-02
9.350000000000000533e-01,-2.698958816344066980e-01,-2.359989800295883289e-01,2.032804568016255767e-02
9.360000000000000542e-01,-2.858717031550643273e-01,-2.447761504325018933e-01,6.432022592017497438e-03
9.370000000000000551e-01,-2.907592212325312842e-01,-2.279561383149149578e-01,-1.078869710791945970e-02
9.379999999999999449e-01,-3.078586107466626531e-01,-2.084052805923067020e-01,-3.663068574468258259e-02
9.389999999999999458e-01,-3.191034841229178909e-01,-2.041020453985251115e-01,-4.379103651527359309e-02
9.399999999999999467e-01,-3.213971258240265749e-01,-1.917309264089715470e-01,-6.267962247514957674e-02
9.409999999999999476e-01,-3.198149810124047976e-01,-1.937102922948810424e-01,-7.665996197774041510e-02
9.419999999999999485e-01,-3.444145049474481302e-01,-1.775429578409067066e-01,-7.797236181360488183e-02
9.429999999999999494e-01,-3.332945974166822700e-01,-1.524078515147436197e-01,-8.994437076112131446e-02
9.439999999999999503e-01,-3.297120976686382932e-01,-1.344096838694787688e-01,-1.029149015273938678e-01
9.449999999999999512e-01,-3.251660386808003511e-01,-1.218019700990860404e-01,-1.198824474544417928e-01
9.459999999999999520e-01,-3.385143933979505859e-01,-1.021671410261638380e-01,-1.265937728197521206e-01
9.469999999999999529e-01,-3.142747266413524199e-01,-8.056595469461180770e-02,-1.407964004206664343e-01
9.479999999999999538e-01,-3.316901390835745311e-01,-4.789902535801516398e-02,-1.617822973772521378e-01
9.489999999999999547e-01,-2.929047281484998821e-01,-3.651112801638769362e-02,-1.561101745180573930e-01
9.499999999999999556e-01,-3.044370504710700032e-01,-2.061251245189066675e-02,-1.695902726679914818e-01
9.509999999999999565e-01,-2.947404218451245006e-01,-2.427473056820047236e-03,-1.731269481810205346e-01
9.519999999999999574e-01,-2.779691243069585815e-01,2.174303410059222341e-02,-1.960832038029188817e-01
9.529999999999999583e-01,-2.583384251986996505e-01,4.640692412998911193e-02,-1.898515312561716017e-01
9.539999999999999591e-01,-2.497388138677623104e-01,7.696657975842541299e-02,-1.934008615247433949e-01
9.549999999999999600e-01,-2.144192040922986153e-01,8.687031503934569687e-02,-1.838502762715717720e-01
9.559999999999999609e-01,-1.978659990829680637e-01,9.584601008401577582e-02,-2.046486578754195818e-01
9.569999999999999618e-01,-1.921598721751160144e-01,1.237927882291496445e-01,-2.051893765009212001e-01
9.579999999999999627e-01,-1.527257818188684779e-01,1.446863723161374016e-01,-2.063815907055072396e-01
9.589999999999999636e-01,-1.219930679315836264e-01,1.618670420924163689e-01,-1.891855979147218647e-01
9.599999999999999645e-01,-1.269167963497622731e-01,1.573100215754389408e-01,-1.880690836704426716e-01
9.609999999999999654e-01,-8.878564586492909694e-02,1.959788297810265700e-01,-1.740722793638099786e-01
9.619999999999999662e-01,-7.274668329972475145e-02,2.100249813972437929e-01,-2.058618173329055945e-01
9.629999999999999671e-01,-5.308416455908380321e-02,2.173446856622774648e-01,-1.778029855110092594e-01
9.639999999999999680e-01,-1.440215283146888212e-03,2.324494632081874623e-01,-1.808233873316860696e-01
9.649999999999999689e-01,7.912396646040178311e-03,2.333058250517172083e-01,-1.731556175247223606e-01
9.659999999999999698e-01,3.859077671386798580e-02,2.339195920759004066e-01,-1.795200725031180222e-01
9.669999999999999707e-01,5.218142067269743861e-02,2.557733607992190850e-01,-1.558216275368655701e-01
9.679999999999999716e-01,7.659529365818466828e-02,2.588238798123901896e-01,-1.356835931700766662e-01
9.689999999999999725e-01,1.030913226741332206e-01,2.696481077602594922e-01,-1.355154846226895304e-01
9.699999999999999734e-01,1.374418425193115190e-01,2.602199190290190867e-01,-1.246703052747751561e-01
9.709999999999999742e-01,1.513045490532422266e-01,2.705619713426946626e-01,-1.080788682697377268e-01
9.719999999999999751e-01,1.645578718956816344e-01,2.643793313282412627e-01,-1.216959512078280153e-01
9.729999999999999760e-01,2.052826833223437564e-01,2.757727802323146071e-01,-7.479961762225458000e-02
9.739999999999999769e-01,2.064413901963665088e-01,2.621278271113459679e-01,-6.807813752011759867e-02
9.749999999999999778e-01,2.385404875808863900e-01,2.477397246216171134e-01,-5.281368161806003492e-02
9.759999999999999787e-01,2.527165113449535427e-01,2.527901913858282001e-01,-4.174803902668158123e-02
9.769999999999999796e-01,2.760787518057799539e-01,2.325281281380992271e-01,-2.207612989065760659e-02
9.779999999999999805e-01,2.921141935130582290e-01,2.336199838141888030e-01,5.176899281907135220e-03
9.789999999999999813e-01,3.079099225174905530e-01,2.275287713276006873e-01,-7.831566000464295144e-03
9.799999999999999822e-01,3.103438840455267078e-01,2.209421756211611132e-01,2.592998850321567156e-02
9.809999999999999831e-01,3.193303681514862991e-01,2.030833276988003588e-01,4.645171738778129666e-02
9.819999999999999840e-01,3.306630501663089805e-01,2.012860786433847970e-01,4.980410760327658171e-02
9.829999999999999849e-01,3.409790724717438604e-01,1.866461110841846904e-01,6.988141389809179871e-02
9.839999999999999858e-01,3.271187520033931873e-01,1.598122683359133045e-01,8.087560603905878664e-02
9.849999999999999867e-01,3.421249257735965998e-01,1.329356388404919209e-01,8.422774757496011289e-02
9.859999999999999876e-01,3.324837841794022197e-01,1.152989738712700829e-01,1.057865798870516877e-01
9.869999999999999885e-01,3.398463221019226155e-01,1.070165173141374715e-01,1.207747193031942223e-01
9.879999999999999893e-01,3.337841976093190444e-01,9.182753396681878066e-02,1.296803266626509465e-01
9.889999999999999902e-01,3.180816594194961766e-01,6.559983732397584033e-02,1.330457932182533276e-01
9.899999999999999911e-01,3.000491435887521763e-01,5.452654070974703032e-02,1.320469021821953082e-01
9.909999999999999920e-01,3.102219170781697621e-01,2.264118898074591463e-02,1.532824916985089936e-01
9.919999999999999929e-01,2.956060335790409721e-01,5.701653766059877962e-03,1.622685661164178783e-01
9.929999999999999938e-01,2.798249080466400085e-01,-2.461384562154149132e-04,1.761194533359828895e-01
9.939999999999999947e-01,2.740331746347162145e-01,-2.956398284419136172e-02,1.879783632268314797e-01
9.949999999999999956e-01,2.445451550669825169e-01,-4.289138832995756379e-02,1.841719120084336081e-01
9.959999999999999964e-01,2.475684900356580620e-01,-6.391056424585751794e-02,1.891968639877198155e-01
9.969999999999999973e-01,2.206483812545077527e-01,-9.616397356381607697e-02,2.130551513802402541e-01
9.979999999999999982e-01,2.055812063019947789e-01,-1.030522668308910678e-01,2.049409998344199624e-01
9.989999999999999991e-01,1.684120561279822959e-01,-1.276200055570777536e-01,2.049238691678238466e-01
1.000000000000000000e+00,1.759986474201374052e-01,-1.444141341450818350e-01,2.015723606487366260e-01
1.000999999999999890e+00,1.431429661974470968e-01,-1.601820490298424826e-01,1.871171216353112454e-01
1.002000000000000002e+00,1.042759391798754320e-01,-1.828966410813305243e-01,1.979638679938673096e-01
1.002999999999999892e+00,8.692521853436711854e-02,-1.883897528554953349e-01,2.109101357482967565e-01
1.004000000000000004e+00,4.503878491221420532e-02,-2.006733200747512491e-01,1.952267457943887841e-01
1.004999999999999893e+00,4.573724079029493905e-02,-2.134169090151189219e-01,1.867504963554211528e-01
1.006000000000000005e+00,1.620379928236274913e-02,-2.330681819619391526e-01,1.768319835496763859e-01
1.006999999999999895e+00,-4.799060664314277157e-03,-2.684894118664363227e-01,1.801064134474286704e-01
1.008000000000000007e+00,-3.373492584071977746e-02,-2.477783688494128722e-01,1.617817339138105659e-01
1.008999999999999897e+00,-5.010020524073851428e-02,-2.655873930383904069e-01,1.471732093964076005e-01
1.010000000000000009e+00,-1.016621440930858822e-01,-2.738149758607644757e-01,1.574222678088396943e-01
1.010999999999999899e+00,-9.678230583163878464e-02,-2.769945539981612526e-01,1.351790567412720356e-01
1.012000000000000011e+00,-1.488484685394092233e-01,-2.748522858155948989e-01,1.201232509086699457e-01
1.012999999999999901e+00,-1.508867142029011732e-01,-2.623048266360061831e-01,1.135225431130795493e-01
1.014000000000000012e+00,-1.868052354184535635e-01,-2.752573760524080204e-01,1.034803491606590825e-01
1.014999999999999902e+00,-1.870024856294648652e-01,-2.666952244599512523e-01,7.835706869964549626e-02
1.016000000000000014e+00,-2.162394802657230108e-01,-2.683523356356448120e-01,7.197346045651507873e-02
1.016999999999999904e+00,-2.307386809786001469e-01,-2.396465750180777621e-01,4.876810736952674752e-02
1.018000000000000016e+00,-2.488074474125192559e-01,-2.474790267408755184e-01,4.666073624456387736e-02
1.018999999999999906e+00,-2.736655904953695373e-01,-2.407064149794385099e-01,2.187634838501034337e-02
1.020000000000000018e+00,-2.951169194958550568e-01,-2.240346646447706758e-01,2.521462863223817435e-02
1.020999999999999908e+00,-3.044105623281131989e-01,-2.260209860030855389e-01,8.513621195934380562e-03
1.022000000000000020e+00,-3.075746474820138521e-01,-1.980001149505555003e-01,-2.322998111934294462e-03
1.022999999999999909e+00,-3.108661303820403066e-01,-1.828438893947907928e-01,-2.527521836691517393e-02
1.024000000000000021e+00,-3.310609373403272659e-01,-1.819630033940535518e-01,-4.336935498107977877e-02
1.024999999999999911e+00,-3.356582817008521569e-01,-1.537480938890286031e-01,-6.817341052701963999e-02
1.026000000000000023e+00,-3.259479197879206480e-01,-1.554599883109742953e-01,-8.317384435736377424e-02
1.026999999999999913e+00,-3.459888096878303010e-01,-1.303604231538606495e-01,-8.208701784241247135e-02
1.028000000000000025e+00,-3.379056010619336248e-01,-1.055242470366231783e-01,-8.370383082449134315e-02
1.028999999999999915e+00,-3.280612670005022546e-01,-1.104417751840059692e-01,-1.176825405979089884e-01
1.030000000000000027e+00,-3.231307910765382485e-01,-6.760104610148749693e-02,-1.397931559457597783e-01
1.030999999999999917e+00,-3.073733610556965146e-01,-6.566120638806316467e-02,-1.494915066703700890e-01
1.032000000000000028e+00,-3.214506801308174011e-01,-1.714738364195396783e-02,-1.475867430282723491e-01
1.032999999999999918e+00,-2.863055161449223895e-01,-1.779746257242922208e-02,-1.650387450569226200e-01
1.034000000000000030e+00,-2.785569495495304193e-01,9.671003437020642829e-03,-1.653886676249811671e-01
1.034999999999999920e+00,-2.807529459927675664e-01,-4.226471733215548697e-04,-1.580915938471865456e-01
1.036000000000000032e+00,-2.749036906143850767e-01,4.769272192974102070e-02,-1.773708552824590778e-01
1.036999999999999922e+00,-2.490134684112005892e-01,5.860132686475889863e-02,-2.057084870427468570e-01
1.038000000000000034e+00,-2.337793692326359252e-01,1.015086157277047541e-01,-1.808399921494806273e-01
1.038999999999999924e+00,-2.107610590312599674e-01,9.454752406204948445e-02,-1.906611413667511079e-01
1.040000000000000036e+00,-2.031275303831074075e-01,1.123647398007166787e-01,-1.965167607386895665e-01
1.040999999999999925e+00,-1.793286789358571054e-01,1.392836495674167063e-01,-2.083870298257308185e-01
1.042000000000000037e+00,-1.588961253351940661e-01,1.541110146664835256e-01,-1.901852658470591650e-01
1.042999999999999927e+00,-1.418640573658136450e-01,1.757856258118644377e-01,-1.953696564472504060e-01
1.044000000000000039e+00,-1.129055360365842919e-01,1.797583022357923943e-01,-2.114543524490534732e-01
1.044999999999999929e+00,-8.624238770565653689e-02,2.039949977683077897e-01,-1.878971899873559670e-01
1.046000000000000041e+00,-6.466765166499861828e-02,2.153522951209876080e-01,-1.924429672674402569e-01
1.046999999999999931e+00,-3.279414134404179393e-02,2.246933043534675711e-01,-1.749068641508840505e-01
1.048000000000000043e+00,-1.721015264425875685e-02,2.409697109818444427e-01,-1.911640792669088151e-01
1.048999999999999932e+00,7.547643783620220509e-03,2.472986097534870531e-01,-1.931790128754869995e-01
1.050000000000000044e+00,2.003399118851994024e-02,2.575532653461745647e-01,-1.725597946046917297e-01
1.050999999999999934e+00,7.865103425606650989e-02,2.445280517989293634e-01,-1.510043996910063469e-01
1.052000000000000046e+00,9.023058846885526063e-02,2.615549769155007809e-01,-1.484094734662724513e-01
1.052999999999999936e+00,1.090845005276670221e-01,2.593322565556691051e-01,-1.341092366313762496e-01
1.054000000000000048e+00,1.388444811243981780e-01,2.672731121199475868e-01,-1.128163404293691385e-01
1.054999999999999938e+00,1.534029532225033854e-01,2.670633053738095120e-01,-1.062038460174008908e-01
1.056000000000000050e+00,1.672459037625455558e-01,2.618911004193582026e-01,-1.144779866125903850e-01
1.056999999999999940e+00,2.102807366874839545e-01,2.671259559445372522e-01,-9.212589675696425395e-02
1.058000000000000052e+00,2.108658684699952768e-01,2.579422316926981429e-01,-8.131090715140180947e-02
1.058999999999999941e+00,2.375533370729634441e-01,2.633861023651022926e-01,-5.028451026604467688e-02
1.060000000000000053e+00,2.442848895954289057e-01,2.496363177551624291e-01,-4.061279024483997052e-02
1.060999999999999943e+00,2.652382071446831580e-01,2.299355917308522901e-01,-3.711615131407387108e-02
1.062000000000000055e+00,2.865949228077254163e-01,2.270319281611136719e-01,-2.697636583271711616e-02
1.062999999999999945e+00,2.980606475852342618e-01,2.167212237880158099e-01,-4.536943830034218753e-04
1.064000000000000057e+00,3.035769201552886987e-01,2.039238515258428586e-01,1.328882380785932280e-03
1.064999999999999947e+00,3.240072736623995642e-01,1.888642371871946390e-01,2.280902676336226884e-02
1.066000000000000059e+00,3.295033631066192625e-01,1.861198058454017756e-01,2.670717231223879856e-02
1.066999999999999948e+00,3.199307264526355943e-01,1.495821753240308694e-01,6.276792454360335949e-02
1.068000000000000060e+00,3.330319536585648055e-01,1.391819059166402028e-01,6.663209775193146278e-02
1.068999999999999950e+00,3.453201004176046918e-01,1.294954102332963597e-01,8.109140593710437162e-02
1.070000000000000062e+00,3.304507777455795159e-01,1.037394607659787721e-01,9.843119756349091865e-02
1.070999999999999952e+00,3.306022630865256273e-01,9.318505529758404349e-02,9.885189349790973745e-02
1.072000000000000064e+00,3.195696218825046508e-01,6.374746824000945833e-02,1.270453627203107783e-01
1.072999999999999954e+00,3.329289447596028850e-01,5.656276972720550300e-02,1.475263570224274456e-01
1.074000000000000066e+00,3.163351907648756511e-01,1.988030347959825542e-02,1.517107188269355422e-01
1.074999999999999956e+00,3.087222416392195190e-01,8.618764238560864752e-03,1.480006213119467451e-01
1.076000000000000068e+00,2.871054357184819605e-01,-1.562654994499360420e-02,1.686688656184159030e-01
1.076999999999999957e+00,2.876900128079947216e-01,-4.715616560341111263e-02,1.746795792148647941e-01
1.078000000000000069e+00,2.639931167275566537e-01,-4.409643132409130084e-02,1.849766692253735911e-01
1.078999999999999959e+00,2.550349915607025286e-01,-7.634215186329169900e-02,1.802343225643593116e-01
1.080000000000000071e+00,2.365299355139515169e-01,-8.935338811952031612e-02,1.871974050507664022e-01
1.080999999999999961e+00,2.233231575102717081e-01,-1.045187732884447357e-01,1.888061318761571905e-01
1.082000000000000073e+00,2.210979069956123533e-01,-1.399177682167782322e-01,2.020884753038212356e-01
1.082999999999999963e+00,1.819735914463460336e-01,-1.495234271478514398e-01,2.019526488807814324e-01
1.084000000000000075e+00,1.540830884872225748e-01,-1.678496537246302878e-01,2.119981618501368681e-01
1.084999999999999964e+00,1.277188910166259517e-01,-1.833949790459161178e-01,2.117996590721109851e-01
1.086000000000000076e+00,1.195515246843658203e-01,-1.942182903991885312e-01,2.000526617807916185e-01
1.086999999999999966e+00,8.697662972334650744e-02,-2.050232484421493639e-01,1.987438543543391112e-01
1.088000000000000078e+00,7.125185903285800870e-02,-2.275496668224117336e-01,1.878063733170578231e-01
1.088999999999999968e+00,4.174850777235962485e-02,-2.284891783120201469e-01,1.870675837796866858e-01
1.090000000000000080e+00,1.335616945044467742e-02,-2.442501327915888309e-01,1.973144930222095750e-01
1.090999999999999970e+00,-1.512395579897484951e-02,-2.484616200342991965e-01,1.755913478497016511e-01
1.092000000000000082e+00,-3.506084119176180319e-02,-2.549090089237676104e-01,1.817646863781896271e-01
1.092999999999999972e+00,-6.556398762655381296e-02,-2.546287551984757758e-01,1.581175908293631360e-01
1.094000000000000083e+00,-8.541696496126689742e-02,-2.603563680156180671e-01,1.472710428629367962e-01
1.094999999999999973e+00,-1.138984931469661788e-01,-2.754408144759643018e-01,1.504488749182959495e-01
1.096000000000000085e+00,-1.408688114944405545e-01,-2.514489365171288515e-01,1.397303650019962040e-01
1.096999999999999975e+00,-1.571451750387845292e-01,-2.625650091381321327e-01,1.092648193037717430e-01
1.098000000000000087e+00,-1.720509626192316954e-01,-2.743021486672806986e-01,1.147246297103809154e-01
1.098999999999999977e+00,-2.050174291984541153e-01,-2.626429106520929979e-01,9.209927589401577241e-02
1.100000000000000089e+00,-2.213882384969357575e-01,-2.568142218296788348e-01,8.130930179955850323e-02
1.100999999999999979e+00,-2.503516894984478269e-01,-2.549039018205805918e-01,6.914802961971534823e-02
1.102000000000000091e+00,-2.424935236968395191e-01,-2.499827395918668149e-01,7.037799774294900557e-02
1.102999999999999980e+00,-2.609085831548697554e-01,-2.182896115411256110e-01,3.549562743061512177e-02
1.104000000000000092e+00,-2.882457203457033379e-01,-2.236368813229382135e-01,3.477407220919988273e-02
1.104999999999999982e+00,-2.965600511648695536e-01,-2.129169374562774886e-01,1.012230660733056190e-02
1.106000000000000094e+00,-3.126044372345957445e-01,-2.140875704684552794e-01,4.559680721371599590e-03
1.106999999999999984e+00,-3.208688630637244743e-01,-1.724683645021364287e-01,-2.031789507270901143e-02
1.108000000000000096e+00,-3.214893845610155565e-01,-1.743924374095321417e-01,-2.786608375467287610e-02
1.108999999999999986e+00,-3.426432142579641793e-01,-1.442343211420757665e-01,-4.129036986179955571e-02
1.110000000000000098e+00,-3.216921576607944533e-01,-1.383730681114100913e-01,-7.722787751489909591e-02
1.110999999999999988e+00,-3.388091624235191612e-01,-1.112101661192763796e-01,-8.168578337118280464e-02
1.112000000000000099e+00,-3.315328568152718924e-01,-8.970155243346279728e-02,-8.142672628913401323e-02
1.112999999999999989e+00,-3.452224893115855564e-01,-6.998479488185051223e-02,-9.432740907470138492e-02
1.114000000000000101e+00,-3.338621504074211210e-01,-7.902679140944121605e-02,-1.131065533370142484e-01
1.114999999999999991e+00,-3.295400419253279867e-01,-4.926619906621867995e-02,-1.368374000364052656e-01
1.116000000000000103e+00,-3.243531319805378343e-01,-3.267965796375529169e-02,-1.367210051299137530e-01
1.116999999999999993e+00,-3.024510682154347707e-01,1.146961136988311827e-02,-1.492653409402839582e-01
1.118000000000000105e+00,-3.017223254743101046e-01,1.902902581717188721e-02,-1.583647247910363043e-01
1.118999999999999995e+00,-2.694018187099154749e-01,4.728181836973922164e-02,-1.681119609691563987e-01
1.120000000000000107e+00,-2.736459724290687956e-01,5.200533969559077013e-02,-1.895979360809886549e-01
1.120999999999999996e+00,-2.636850009909199044e-01,6.736262286251368248e-02,-1.766408450938139474e-01
1.122000000000000108e+00,-2.451226091839768251e-01,1.107610100972760830e-01,-1.887985057081927875e-01
1.122999999999999998e+00,-2.054993604272069840e-01,1.197305239427342571e-01,-1.889835700139087804e-01
1.124000000000000110e+00,-2.061625217777921237e-01,1.404972715019445206e-01,-1.871779499751357601e-01
1.125000000000000000e+00,-1.751311219008421238e-01,1.612579276202311951e-01,-2.069165108132811903e-01
1.125999999999999890e+00,-1.477486106608536243e-01,1.792781649123428023e-01,-2.127534943554015845e-01
1.127000000000000002e+00,-1.322141066699350498e-01,1.728484516978676944e-01,-2.003298541852152059e-01
1.127999999999999892e+00,-1.039697691296131293e-01,1.938013218941266880e-01,-1.926824733448440630e-01
1.129000000000000004e+00,-7.937951259139919280e-02,2.229033447253538913e-01,-2.032967750344988611e-01
1.129999999999999893e+00,-6.000261109994799863e-02,2.122751182641633982e-01,-1.857431064656869801e-01
1.131000000000000005e+00,-4.013868861177478237e-02,2.254482951135095836e-01,-1.892420793826978809e-01
1.131999999999999895e+00,-9.065450644001837172e-03,2.497628959202092269e-01,-1.844766892286716919e-01
1.133000000000000007e+00,1.894630991133810886e-03,2.475102749086607601e-01,-1.886922052915065151e-01
1.133999999999999897e+00,2.740109466951218264e-02,2.522469675190747163e-01,-1.933745121711815396e-01
1.135000000000000009e+00,6.698719997251280367e-02,2.683549658890811429e-01,-1.728620894723411905e-01
1.135999999999999899e+00,7.926807983947310732e-02,2.695459986127233809e-01,-1.461459908390126683e-01
1.137000000000000011e+00,1.169596174111405817e-01,2.681865144864355455e-01,-1.471140792667163799e-01
1.137999999999999901e+00,1.400168238307245572e-01,2.717874606879494004e-01,-1.414589357519823176e-01
1.139000000000000012e+00,1.656109000199360304e-01,2.674397116441185607e-01,-1.169846024750200580e-01
1.139999999999999902e+00,1.883327253495058473e-01,2.560611439491715657e-01,-1.230601171310043707e-01
1.141000000000000014e+00,2.089486916122964000e-01,2.757756488250121540e-01,-9.573402745720208107e-02
1.141999999999999904e+00,2.210554917662677643e-01,2.530230675943513918e-01,-1.026545334290704659e-01
1.143000000000000016e+00,2.484757468426941063e-01,2.519063515756806981e-01,-8.266040687396605802e-02
1.143999999999999906e+00,2.503321354562368373e-01,2.318545335433094823e-01,-5.346463310517907824e-02
1.145000000000000018e+00,2.702132881171129264e-01,2.311477194379165101e-01,-3.451865812699406177e-02
1.145999999999999908e+00,2.853113633686186756e-01,2.255227763608289304e-01,-2.917758360100424983e-02
1.147000000000000020e+00,2.953264274717746218e-01,2.076526605679369086e-01,-2.973721704262294319e-02
1.147999999999999909e+00,3.038849440875887042e-01,1.986138194837654414e-01,-1.391103711629057202e-02
1.149000000000000021e+00,3.207770987379541250e-01,1.827408377663773675e-01,1.521996523225784687e-02
1.149999999999999911e+00,3.395699718808879997e-01,1.592410135339003274e-01,4.304811662623932167e-02
1.151000000000000023e+00,3.344398841335456396e-01,1.421550369266690594e-01,3.680421627245229754e-02
1.151999999999999913e+00,3.362817091501363320e-01,1.313948075469732468e-01,6.544431973564912575e-02
1.153000000000000025e+00,3.394129108294918207e-01,1.091083037657597649e-01,7.504578197096030412e-02
1.153999999999999915e+00,3.204953892594100129e-01,9.011359760614859327e-02,8.713011718994084776e-02
1.155000000000000027e+00,3.416137752072973544e-01,6.195707303051859599e-02,8.989480490763819553e-02
1.155999999999999917e+00,3.274438790299285529e-01,5.664400741782475018e-02,1.097779156429970898e-01
1.157000000000000028e+00,3.417182603450327205e-01,2.588516678950465721e-02,1.153766846779055583e-01
1.157999999999999918e+00,3.251136467537444341e-01,1.595144027871385484e-02,1.477244434688247676e-01
1.159000000000000030e+00,3.149577796349061765e-01,9.711058520842250031e-04,1.527587617121367036e-01
1.159999999999999920e+00,3.016602848622671473e-01,-3.377892395741540627e-02,1.500720183686934384e-01
1.161000000000000032e+00,2.832927321348136518e-01,-4.377917211323117258e-02,1.544836067299163729e-01
1.161999999999999922e+00,2.797124267554608745e-01,-7.332114340433611155e-02,1.830938708211947985e-01
1.163000000000000034e+00,2.480690564578504342e-01,-9.110037073132361274e-02,1.803517231966655365e-01
1.163999999999999924e+00,2.381144894040576609e-01,-1.179816646413074793e-01,1.767882671458750055e-01
1.165000000000000036e+00,2.047638563849595861e-01,-1.344109379377231850e-01,1.911826757751988459e-01
1.165999999999999925e+00,1.959428409323794584e-01,-1.409987712524500558e-01,1.922149380168858557e-01
1.167000000000000037e+00,1.762362604821246237e-01,-1.615581247481479299e-01,1.950344271256312656e-01
1.167999999999999927e+00,1.530053448192427723e-01,-1.764300699220188173e-01,1.923925172421962204e-01
1.169000000000000039e+00,1.328033887011451919e-01,-1.879117411249071334e-01,1.910718978319378425e-01
1.169999999999999929e+00,1.228697840235144501e-01,-2.020038849763939603e-01,2.020071184044592849e-01
1.171000000000000041e+00,8.533876749036178877e-02,-2.142851165276757064e-01,1.984445018034892982e-01
1.171999999999999931e+00,6.591280396183095414e-02,-2.295823342441370429e-01,1.979122349873533027e-01
1.173000000000000043e+00,5.549288975529746010e-02,-2.243126719864518281e-01,1.849892641334037191e-01
1.173999999999999932e+00,9.219159179502054921e-03,-2.473825125012810433e-01,2.122888254781596651e-01
1.175000000000000044e+00,-3.223849861060678473e-02,-2.527345106619545700e-01,1.851784939515257744e-01
1.175999999999999934e+00,-2.289551906365831779e-02,-2.526237347158359903e-01,1.799750613040871083e-01
1.177000000000000046e+00,-6.449680796286594298e-02,-2.617296244964107399e-01,1.750134356925499013e-01
1.177999999999999936e+00,-8.172410944571736890e-02,-2.580259232087313559e-01,1.583157836269477592e-01
1.179000000000000048e+00,-1.244309544172116644e-01,-2.714566954154667977e-01,1.486000542995177809e-01
1.179999999999999938e+00,-1.311470307209546826e-01,-2.746076623901084757e-01,1.517582574961504061e-01
