time,acc_x,acc_y,acc_z
0.000000000000000000e+00,3.522584501841064669e-02,6.112845659987252434e-02,3.598954368423459144e-02
1.000000000000000021e-03,1.835984842258085448e-01,1.411719743438854535e-01,9.920434028053611020e-02
2.000000000000000042e-03,2.750632597648449140e-01,2.149942267904507709e-01,1.793344271186025352e-01
3.000000000000000062e-03,3.164204058058158187e-01,2.648109341401493899e-01,1.838174762302064724e-01
4.000000000000000083e-03,3.086678881411737962e-01,2.335588468264127304e-01,1.868248940241311329e-01
5.000000000000000104e-03,2.254799007741516981e-01,1.719649363373883522e-01,1.333599077694829216e-01
6.000000000000000125e-03,1.012067776331866398e-01,6.144398126769637369e-02,5.309784693158898367e-02
7.000000000000000146e-03,-4.074686896242930845e-02,-3.922152136328235089e-02,-1.910124852144396562e-02
8.000000000000000167e-03,-1.757408916231026907e-01,-1.427225361783861224e-01,-9.136410447844783844e-02
8.999999999999999320e-03,-2.721976574392035442e-01,-2.264789519177963784e-01,-1.694698224911632412e-01
1.000000000000000021e-02,-3.079160552424757280e-01,-2.438796111778436249e-01,-2.185051576966600129e-01
1.099999999999999936e-02,-3.014598353926996599e-01,-2.293270462535219878e-01,-1.788266458723476449e-01
1.200000000000000025e-02,-2.413405158936106909e-01,-1.819907767419537414e-01,-1.375493716940091038e-01
1.299999999999999940e-02,-1.015625321718316709e-01,-5.277726763020100520e-02,-7.203236820051532596e-02
1.400000000000000029e-02,1.463873429219026551e-02,7.215958568032027065e-02,1.363585410764774249e-02
1.499999999999999944e-02,1.682679120898535052e-01,1.637333921327977782e-01,9.437741060017469652e-02
1.600000000000000033e-02,2.800387422372851987e-01,2.038136815403328861e-01,1.848254175366445540e-01
1.700000000000000122e-02,3.394850224935528349e-01,2.472723717629182749e-01,1.933021757844803346e-01
1.799999999999999864e-02,2.890866877579819638e-01,2.371423485858964453e-01,1.950768623356554377e-01
1.899999999999999953e-02,2.432940214965855497e-01,1.671150471246360680e-01,1.353704405378721720e-01
2.000000000000000042e-02,1.216207605605278824e-01,5.678310298763997871e-02,6.842768183593365972e-02
2.100000000000000130e-02,-3.045750498423150862e-02,-3.833295954828339069e-02,2.650135577930744918e-02
2.199999999999999872e-02,-1.682400410906562116e-01,-1.397526784996755422e-01,-7.344176591939925725e-02
2.299999999999999961e-02,-2.653261413374989885e-01,-2.036475490394190346e-01,-1.754640832821392771e-01
2.400000000000000050e-02,-3.182038786053607016e-01,-2.516869494381994699e-01,-1.931420118148731990e-01
2.500000000000000139e-02,-2.756604206573837201e-01,-2.255327795312627448e-01,-1.762830162075655072e-01
2.599999999999999881e-02,-2.302374706793091363e-01,-1.775552826860791744e-01,-1.428643883587108476e-01
2.699999999999999969e-02,-1.148185734832147670e-01,-7.515208806486686766e-02,-8.491471245477552610e-02
2.800000000000000058e-02,2.184587118826351176e-02,5.004249391693937205e-02,-1.073297162627204725e-02
2.900000000000000147e-02,1.696874961951601035e-01,1.592679140482088640e-01,6.105528962899468143e-02
2.999999999999999889e-02,2.585461521476836722e-01,2.331022529640289775e-01,1.499964037719224985e-01
3.099999999999999978e-02,3.182647023349348681e-01,2.556209840963566959e-01,1.960676621703129341e-01
3.200000000000000067e-02,2.985740525918672006e-01,2.273768112377531070e-01,1.997050635051373091e-01
3.300000000000000155e-02,2.490464399736021517e-01,1.399945664564599956e-01,1.607272530636968122e-01
3.400000000000000244e-02,1.444666604409552413e-01,6.281817731488625878e-02,1.081175274937198061e-01
3.500000000000000333e-02,-8.806732799465815872e-03,-6.677238020887595049e-02,1.944679608287235018e-02
3.599999999999999728e-02,-1.575894720410974670e-01,-1.619261764606130249e-01,-6.422839650803681411e-02
3.699999999999999817e-02,-2.704498375031562096e-01,-2.449865003036055533e-01,-1.408677041749605285e-01
3.799999999999999906e-02,-3.177979140739673469e-01,-2.529882619391608523e-01,-1.660295143998438139e-01
3.899999999999999994e-02,-3.375318808454584318e-01,-2.557854538056876792e-01,-2.099389818570677468e-01
4.000000000000000083e-02,-2.485984275146645439e-01,-1.321829628792321465e-01,-1.839189944244745689e-01
4.100000000000000172e-02,-1.206193113584573817e-01,-5.125200081620199383e-02,-9.738490933140403483e-02
4.200000000000000261e-02,8.067655366483548335e-03,4.811625611772289007e-02,-2.870372068930881690e-02
4.299999999999999656e-02,1.461209870277004608e-01,1.538402401074990822e-01,5.290337597219599980e-02
4.399999999999999745e-02,2.585828661874033374e-01,2.380252857788500154e-01,1.523818691832092287e-01
4.499999999999999833e-02,3.136675002677912216e-01,2.320344841109728828e-01,1.822643151835398323e-01
4.599999999999999922e-02,3.077958455167164042e-01,2.316979883876823521e-01,1.898179809278410513e-01
4.700000000000000011e-02,2.657463273645278568e-01,1.666410345871663645e-01,1.777420246683115712e-01
4.800000000000000100e-02,1.192737202074764108e-01,8.542565526888669381e-02,1.209123000070971288e-01
4.900000000000000189e-02,5.533034156570449140e-04,-7.713096399129056036e-02,3.799893858772855626e-02
5.000000000000000278e-02,-1.288160746136295109e-01,-1.728392300933271619e-01,-3.911410055378233830e-02
5.099999999999999672e-02,-2.387083960290193319e-01,-2.524461560357830203e-01,-1.259942304727147688e-01
5.199999999999999761e-02,-3.178233583768614867e-01,-2.694739846121138593e-01,-1.804774597260786206e-01
5.299999999999999850e-02,-3.175542586547906443e-01,-2.393161863965769520e-01,-2.092567599508917409e-01
5.399999999999999939e-02,-2.318903138930786534e-01,-1.503685931831253708e-01,-1.772291318293053863e-01
5.500000000000000028e-02,-1.394120457379382227e-01,-5.911641616868212878e-02,-1.285092165763128402e-01
5.600000000000000117e-02,1.570917196661947377e-03,6.448309486122733025e-02,-4.483577768339577080e-02
5.700000000000000205e-02,1.257313260098102126e-01,1.742314744207332233e-01,3.443961945359791388e-02
5.800000000000000294e-02,2.541572172762320281e-01,2.591233972953751463e-01,1.160513380714827819e-01
5.899999999999999689e-02,3.275613672389384723e-01,2.558995676272670106e-01,1.638159777840753895e-01
5.999999999999999778e-02,3.178153378024324849e-01,2.358397016145283576e-01,1.970210248499346395e-01
6.099999999999999867e-02,2.368690212445640764e-01,1.461511728804762156e-01,1.908967959881460452e-01
6.199999999999999956e-02,1.456620502884962420e-01,2.110739067497840321e-02,1.504225119283785495e-01
6.300000000000000044e-02,1.594453090617223290e-02,-7.982322906867396484e-02,6.040988553434663288e-02
6.400000000000000133e-02,-1.196454640400860664e-01,-1.754353001120904643e-01,-3.105411324639735168e-02
6.500000000000000222e-02,-2.605869562331724620e-01,-2.320938341348143252e-01,-1.041217721021288345e-01
6.600000000000000311e-02,-2.994363936152842909e-01,-2.611780903568325374e-01,-1.553447241974559301e-01
6.700000000000000400e-02,-2.900407574475525330e-01,-2.206217924726353030e-01,-1.916038376800304199e-01
6.800000000000000488e-02,-2.599041219404911174e-01,-1.381233394069759923e-01,-1.762996231814395465e-01
6.900000000000000577e-02,-1.437067951823105816e-01,-2.735167917924647557e-02,-1.449840812523113531e-01
7.000000000000000666e-02,-1.188063113394040478e-02,8.907899717530043393e-02,-6.675237973432650296e-02
7.099999999999999367e-02,1.452781697191850574e-01,1.677605292771788825e-01,2.613635147412348217e-02
7.199999999999999456e-02,2.400450915458412493e-01,2.554219227358582867e-01,8.303730562720428032e-02
7.299999999999999545e-02,2.891181406807948329e-01,2.699968135637390021e-01,1.636246322446530677e-01
7.399999999999999634e-02,3.213930014446636507e-01,2.390864099447219948e-01,1.840039567596672698e-01
7.499999999999999722e-02,2.588427950355485230e-01,1.303474396646701616e-01,1.864824698997683827e-01
7.599999999999999811e-02,1.325840638441137531e-01,2.787604001612403390e-02,1.317120378978371975e-01
7.699999999999999900e-02,2.945564080744750637e-02,-6.617223164497261501e-02,7.590884350786290813e-02
7.799999999999999989e-02,-1.426510232925168875e-01,-1.700222932772991469e-01,-3.550393291957658348e-02
7.900000000000000078e-02,-2.111862919486941492e-01,-2.438714389182317088e-01,-8.360293419496851730e-02
8.000000000000000167e-02,-3.115130806092084037e-01,-2.676686251622135693e-01,-1.335265245805907497e-01
8.100000000000000255e-02,-3.359163595076204434e-01,-2.061467764530184044e-01,-1.773552632112430361e-01
8.200000000000000344e-02,-2.779483488167853733e-01,-1.432165204169671135e-01,-1.865008563639508343e-01
8.300000000000000433e-02,-1.653604298910730241e-01,-3.075300451946268165e-02,-1.598254313007770044e-01
8.400000000000000522e-02,-1.614687831642137861e-02,7.395392224145337645e-02,-7.619800394115677777e-02
8.500000000000000611e-02,1.181327955613884206e-01,1.882227205091144828e-01,-1.020877703158967059e-02
8.599999999999999312e-02,2.259285617572169280e-01,2.187754175074899665e-01,6.087408793258253931e-02
8.699999999999999400e-02,2.982387037857653356e-01,2.287391098320096239e-01,1.566236772662070453e-01
8.799999999999999489e-02,3.326809516044945680e-01,2.121885205030082933e-01,1.960936658687352507e-01
8.899999999999999578e-02,2.691245089235649313e-01,1.153837215916546644e-01,1.850250080608543679e-01
8.999999999999999667e-02,1.500650779900792042e-01,5.143982870745401198e-02,1.655522426121512625e-01
9.099999999999999756e-02,3.921205803587845401e-02,-8.157782719254810799e-02,7.584053794726917930e-02
9.199999999999999845e-02,-9.290821916691011095e-02,-1.719463400154502553e-01,7.897314756453249762e-03
9.299999999999999933e-02,-2.442807631184379658e-01,-2.523321761916841321e-01,-8.250426486309433982e-02
9.400000000000000022e-02,-3.057196906904740552e-01,-2.644562466865212347e-01,-1.536182946285786777e-01
9.500000000000000111e-02,-3.068721804117318097e-01,-2.173891605333330979e-01,-1.751831572498777911e-01
9.600000000000000200e-02,-2.631424528457093071e-01,-1.490131155804980678e-01,-1.682438315843285404e-01
9.700000000000000289e-02,-1.536236668597910082e-01,-7.168423508477740971e-03,-1.638857533199786498e-01
9.800000000000000377e-02,6.296382000833936760e-03,1.026295631095955341e-01,-9.876347967864634869e-02
9.900000000000000466e-02,1.208639123399274096e-01,1.797872091605795808e-01,-9.199652764080728379e-03
1.000000000000000056e-01,2.262725888443996303e-01,2.264533393159291474e-01,7.657357541727928540e-02
1.010000000000000064e-01,3.018642120153943176e-01,2.593660867857555119e-01,1.414740639579314396e-01
1.019999999999999934e-01,3.018631810295036577e-01,2.194955193227019208e-01,1.862391211682527525e-01
1.029999999999999943e-01,2.765173331731923256e-01,1.322612203755932359e-01,2.014336098494705629e-01
1.039999999999999952e-01,1.860448760721090666e-01,1.063783445444562055e-02,1.696516575932442428e-01
1.049999999999999961e-01,3.520522383197086796e-02,-8.866855328716699569e-02,8.575071666895847655e-02
1.059999999999999970e-01,-1.312100624589357944e-01,-1.593328076928817449e-01,2.462714806487809743e-02
1.069999999999999979e-01,-2.270704629439440070e-01,-2.596344143575805008e-01,-5.289558317699247919e-02
1.079999999999999988e-01,-2.960211757729998006e-01,-2.570390210140557352e-01,-1.136864574316317350e-01
1.089999999999999997e-01,-2.824538769201805910e-01,-2.134183112158708484e-01,-1.748463512514753793e-01
1.100000000000000006e-01,-2.775269807040710579e-01,-1.443136654537023333e-01,-1.938733842702103360e-01
1.110000000000000014e-01,-1.883541324964053965e-01,1.381214643841178688e-02,-1.923895873824694736e-01
1.120000000000000023e-01,-6.687772734716100620e-02,9.743065617286536528e-02,-8.839129582440793942e-02
1.130000000000000032e-01,9.390323288577542837e-02,2.044696923470403771e-01,-3.802915429705769346e-02
1.140000000000000041e-01,2.457311709546728118e-01,2.283485111375744558e-01,2.699354446847336553e-02
1.150000000000000050e-01,3.117720600782755147e-01,2.427700159008123471e-01,1.119440327054410517e-01
1.160000000000000059e-01,3.180809841943938454e-01,2.209245878277465713e-01,1.712197875690487647e-01
1.170000000000000068e-01,2.906157852306573974e-01,1.526315310740061493e-01,2.149792317638544448e-01
1.179999999999999938e-01,1.536425312995036152e-01,3.457723403486934188e-02,1.972789149760093008e-01
1.189999999999999947e-01,3.215354519087979673e-02,-9.622034865127754300e-02,1.216029859820181441e-01
1.199999999999999956e-01,-8.916397291075485454e-02,-1.838920367256001442e-01,4.291489519700925070e-02
1.209999999999999964e-01,-2.223826879775334386e-01,-2.347563797431663768e-01,-6.054790853910235748e-02
1.219999999999999973e-01,-2.815802292155626940e-01,-2.589838377767276767e-01,-1.060962296178725311e-01
1.229999999999999982e-01,-3.256469123996152959e-01,-2.137601524316833645e-01,-1.669543952852637902e-01
1.239999999999999991e-01,-2.987763659971415797e-01,-1.140210651268637881e-01,-1.962575063851922375e-01
1.250000000000000000e-01,-1.947264232871963041e-01,4.192023160785527704e-03,-1.767523024121423758e-01
1.260000000000000009e-01,-5.056013322981772057e-02,9.156275082393321163e-02,-1.507096945199392080e-01
1.270000000000000018e-01,9.225523427461912451e-02,2.265419506334017397e-01,-8.269692678528429985e-02
1.280000000000000027e-01,2.109992887315384757e-01,2.680972483814344498e-01,3.415882373402336081e-02
1.290000000000000036e-01,2.941593371919164479e-01,2.400792696167060036e-01,9.350408579333330250e-02
1.300000000000000044e-01,3.132264184968963638e-01,1.980485354212943028e-01,1.482671237234786943e-01
1.310000000000000053e-01,2.787387613622758775e-01,1.202794647864443012e-01,1.982719348170067231e-01
1.320000000000000062e-01,1.867349316377508450e-01,-2.504819503717819768e-03,1.503849066304590865e-01
1.330000000000000071e-01,6.454688400728254838e-02,-8.456833754185510976e-02,1.297935448647783430e-01
1.340000000000000080e-01,-9.020716489795786719e-02,-1.657066727901810865e-01,7.829177094045826346e-02
1.350000000000000089e-01,-2.196916815657905808e-01,-2.597130892607148467e-01,-3.032865286076031827e-02
1.360000000000000098e-01,-3.001897378259484883e-01,-2.405174665209512674e-01,-9.855030605200490457e-02
1.370000000000000107e-01,-3.120890900320149597e-01,-1.773931641125483238e-01,-1.685999620615770689e-01
1.380000000000000115e-01,-2.934344874982049989e-01,-1.138330835356085313e-01,-2.115241064697973017e-01
1.390000000000000124e-01,-2.120606533765660995e-01,7.449886151810355267e-03,-1.597791435952096439e-01
1.400000000000000133e-01,-3.747711083282624644e-02,1.254702753410908422e-01,-1.265714977756046689e-01
1.409999999999999865e-01,8.211035996375244672e-02,1.953130081145893759e-01,-5.982169409232034746e-02
1.419999999999999873e-01,2.390532845500163428e-01,2.510779105689731061e-01,2.197624195153179485e-02
1.429999999999999882e-01,2.784448029225246035e-01,2.618400723470539759e-01,8.360931295743172231e-02
1.439999999999999891e-01,3.233131707248264042e-01,2.148247232606295687e-01,1.513062352052123027e-01
1.449999999999999900e-01,2.911475132561338608e-01,1.113532800947819867e-01,1.781449225911859724e-01
1.459999999999999909e-01,1.782568748510729439e-01,-2.725151459342166349e-02,1.953731358483987990e-01
1.469999999999999918e-01,6.685362602192157500e-02,-1.042698920085038394e-01,1.341333375753895885e-01
1.479999999999999927e-01,-9.589010692372233746e-02,-2.098638511323890898e-01,8.184264629504407751e-02
1.489999999999999936e-01,-2.348023091010136287e-01,-2.296564587087441267e-01,-3.344726296248508313e-02
1.499999999999999944e-01,-2.814659122536353197e-01,-2.278274546361619690e-01,-1.063971817834703237e-01
1.509999999999999953e-01,-3.250401827125683485e-01,-2.068159415383316324e-01,-1.456846728688003245e-01
1.519999999999999962e-01,-2.647766412820031223e-01,-1.129306037098032484e-01,-1.801042951907602108e-01
1.529999999999999971e-01,-1.911971256887610715e-01,-5.838615344354741027e-03,-1.924980202346055769e-01
1.539999999999999980e-01,-6.690019982902478679e-02,1.351491605626828907e-01,-1.537544621106359533e-01
1.549999999999999989e-01,7.424244682623901137e-02,2.154140811856010418e-01,-9.922240095836570850e-02
1.559999999999999998e-01,2.160199665543414416e-01,2.772792792127661277e-01,-7.690652815076658155e-03
1.570000000000000007e-01,2.991377818776281838e-01,2.512390031191781281e-01,6.900283981647561959e-02
1.580000000000000016e-01,3.192039365730478528e-01,1.579328871233152687e-01,1.427883041599500302e-01
1.590000000000000024e-01,3.052077209431259264e-01,7.822707520031491057e-02,1.798097010906139492e-01
1.600000000000000033e-01,2.030281441456581182e-01,7.640235379676133410e-04,1.797384560787360364e-01
1.610000000000000042e-01,5.845882421769760251e-02,-1.326863010000725596e-01,1.627831015337888598e-01
1.620000000000000051e-01,-3.992078898054909203e-02,-1.997061248699380509e-01,9.108653126455802662e-02
1.630000000000000060e-01,-2.012786591856145502e-01,-2.434755195186915078e-01,2.075881281964165118e-02
1.640000000000000069e-01,-2.935716042310542728e-01,-2.554094906766682382e-01,-7.041758772982714687e-02
1.650000000000000078e-01,-3.219751230262328789e-01,-1.851587375656483792e-01,-1.340090894217648987e-01
1.660000000000000087e-01,-3.047348030598565072e-01,-9.033196796057584022e-02,-1.858934165293982810e-01
1.670000000000000095e-01,-2.067764416209631195e-01,5.512109607743667520e-04,-1.820346499071437141e-01
1.680000000000000104e-01,-7.631800936516060230e-02,1.324181489036102555e-01,-1.674348700752301689e-01
1.690000000000000113e-01,4.897617441088004953e-02,1.890074259179755356e-01,-8.907135346753536354e-02
1.700000000000000122e-01,1.751505013939751720e-01,2.475011832076996210e-01,-3.897075143027948357e-02
1.710000000000000131e-01,2.726678821050464996e-01,2.697377668765933434e-01,4.869915002961042877e-02
1.719999999999999862e-01,3.162346346101485572e-01,1.921893385819951616e-01,1.175658594337426754e-01
1.729999999999999871e-01,2.968979968632570188e-01,7.291283665421977034e-02,1.702121328796172006e-01
1.739999999999999880e-01,2.079820094312375967e-01,-5.141892521842042138e-03,2.015341544746637736e-01
1.749999999999999889e-01,6.885267926649628334e-02,-1.367223422144880074e-01,1.656304066146159215e-01
1.759999999999999898e-01,-7.201705984240527880e-02,-2.023211532352889586e-01,1.431812662381363455e-01
1.769999999999999907e-01,-1.788762730342624008e-01,-2.595116524804246816e-01,3.366478184658847073e-02
1.779999999999999916e-01,-2.671509938187390798e-01,-2.595144301211262383e-01,-2.477224473908444524e-02
1.789999999999999925e-01,-3.293596013288536128e-01,-1.861881633645227629e-01,-1.282766285328648670e-01
1.799999999999999933e-01,-2.860080210960717073e-01,-9.772387447499739088e-02,-1.587575768299828161e-01
1.809999999999999942e-01,-2.270533899227467900e-01,4.194870963499597316e-02,-2.041062601138519672e-01
1.819999999999999951e-01,-8.100659816234377641e-02,1.261822928908112873e-01,-1.634578941242623151e-01
1.829999999999999960e-01,5.015849178711440093e-02,2.353395828132384682e-01,-1.180801999811113695e-01
1.839999999999999969e-01,2.088931378268335803e-01,2.677060019463184948e-01,-4.219042552081205683e-02
1.849999999999999978e-01,2.870934357406877413e-01,2.170976678320690190e-01,1.986555184886910561e-02
1.859999999999999987e-01,3.403996770133522753e-01,1.872827249836473973e-01,1.458948774049217134e-01
1.869999999999999996e-01,3.243205366242571386e-01,7.250419423061575663e-02,1.939326467919100794e-01
1.880000000000000004e-01,2.215526183032144047e-01,-3.426044580931474764e-02,1.782774342775101661e-01
1.890000000000000013e-01,9.469474114735416947e-02,-1.154927325263495203e-01,1.907013040076972477e-01
1.900000000000000022e-01,-3.859357271058482669e-02,-2.201478627396513121e-01,1.123106106603982135e-01
1.910000000000000031e-01,-1.998508237563212664e-01,-2.392858364091219603e-01,1.974632971332915266e-02
1.920000000000000040e-01,-3.011017262132132943e-01,-2.621845346675552579e-01,-1.130314098076476773e-02
1.930000000000000049e-01,-3.401607354376752768e-01,-1.956034808396438784e-01,-1.103271550821725566e-01
1.940000000000000058e-01,-3.182245449087526268e-01,-9.389754844594268290e-02,-1.537226292109203363e-01
1.950000000000000067e-01,-2.275565872378373100e-01,1.118158219725227595e-02,-1.966335518467650367e-01
1.960000000000000075e-01,-8.068457693149602705e-02,1.381751625072166478e-01,-1.623896328461904293e-01
1.970000000000000084e-01,6.475206313953886517e-02,2.109444393877127344e-01,-1.305285368934946122e-01
1.980000000000000093e-01,1.714571810204838787e-01,2.364825570357846629e-01,-6.652170862538515916e-02
1.990000000000000102e-01,2.837352979278661147e-01,2.397672739536074737e-01,2.177805829283882902e-02
2.000000000000000111e-01,3.387857386392033043e-01,1.869430654857399954e-01,1.135972949087632605e-01
2.010000000000000120e-01,2.951950398861973857e-01,7.047796808792652912e-02,1.597548150796213595e-01
2.020000000000000129e-01,2.073983627107615080e-01,-2.500774429221192668e-02,2.039239886257516454e-01
2.030000000000000138e-01,8.261093040169881219e-02,-1.532548977572653626e-01,1.778828747204906635e-01
2.039999999999999869e-01,-4.080350137373996849e-02,-2.135972832346549888e-01,1.490146107483799887e-01
2.049999999999999878e-01,-1.417586905286912502e-01,-2.574028163306341654e-01,3.159362818447739724e-02
2.059999999999999887e-01,-2.921183382730361267e-01,-2.210908670326875436e-01,1.554025039214159808e-03
2.069999999999999896e-01,-3.021607378712248271e-01,-1.886937357628323542e-01,-8.105851120500563722e-02
2.079999999999999905e-01,-2.910128037712769733e-01,-1.037913348495704824e-01,-1.624904634645166490e-01
2.089999999999999913e-01,-2.203236269527714675e-01,4.815983167460743952e-02,-1.824547972595908230e-01
2.099999999999999922e-01,-9.812307536150001452e-02,1.620804798115074441e-01,-1.915176481911279038e-01
2.109999999999999931e-01,4.029617038983577398e-02,2.257250179927336453e-01,-1.360170965644648122e-01
2.119999999999999940e-01,1.727770131686592603e-01,2.506091812090823767e-01,-7.142396229556770282e-02
2.129999999999999949e-01,2.668110948812749128e-01,2.341819351154924289e-01,6.231263394342346877e-03
2.139999999999999958e-01,3.155977457710419931e-01,1.621737516479014873e-01,9.459482250259217129e-02
2.149999999999999967e-01,3.159092081560472276e-01,6.668272759391144500e-02,1.672888063469579467e-01
2.159999999999999976e-01,2.313395135087228383e-01,-3.576210389557094721e-02,2.034669802212765721e-01
2.169999999999999984e-01,7.970092489941577041e-02,-1.434963288058126452e-01,2.008381013556291839e-01
2.179999999999999993e-01,-1.890707421802226632e-02,-2.001348266300930212e-01,1.592187743135989042e-01
2.190000000000000002e-01,-1.847202766868629997e-01,-2.413289343247172480e-01,7.874959197523224985e-02
2.200000000000000011e-01,-2.823555847155171938e-01,-2.617332812777345974e-01,-1.923087769323927020e-03
2.210000000000000020e-01,-3.247804736988399998e-01,-1.738864120032605209e-01,-7.131460811943160505e-02
2.220000000000000029e-01,-2.982681113638358528e-01,-7.264135376840132052e-02,-1.450699847303675294e-01
2.230000000000000038e-01,-2.265400260200554350e-01,4.906525182899388465e-02,-1.740854087871595013e-01
2.240000000000000047e-01,-1.106179499006181011e-01,1.412415464056979986e-01,-1.789263676887520582e-01
2.250000000000000056e-01,3.685201715278479950e-02,2.357420850150695191e-01,-1.537517032379511484e-01
2.260000000000000064e-01,1.688419679757446057e-01,2.430980260755454259e-01,-8.718019553811408306e-02
2.270000000000000073e-01,2.794503819403231226e-01,2.244170798736916661e-01,-2.157801832909526929e-03
2.280000000000000082e-01,3.263540353007253203e-01,1.609522556117232162e-01,9.215039947761707873e-02
2.290000000000000091e-01,3.094762879599606831e-01,4.530451483559317510e-02,1.505117435534011616e-01
2.300000000000000100e-01,2.487016309044605133e-01,-8.166369722081151528e-02,1.811941201965083237e-01
2.310000000000000109e-01,1.368991748107747375e-01,-1.632109335536819916e-01,1.868497943597481059e-01
2.320000000000000118e-01,-1.673386167417468401e-02,-2.146696180093326523e-01,1.506398596870025530e-01
2.330000000000000127e-01,-1.488063384582670734e-01,-2.717843504671126342e-01,8.768383909835558709e-02
2.340000000000000135e-01,-2.602196594785332051e-01,-2.115538313017520933e-01,2.424258106161792867e-02
2.349999999999999867e-01,-3.016073021249455199e-01,-1.877621698442758225e-01,-6.054530183989621089e-02
2.359999999999999876e-01,-3.187939620683725717e-01,-4.403760593926545758e-02,-8.705320497458067519e-02
2.369999999999999885e-01,-2.285348677138072937e-01,5.799398661877822742e-02,-1.823797145198969571e-01
2.379999999999999893e-01,-1.213675213814123105e-01,1.920011409600130281e-01,-1.895750542287878426e-01
2.389999999999999902e-01,8.088775282784965021e-03,2.684076292691532362e-01,-1.882056992690662733e-01
2.399999999999999911e-01,1.401838726550503067e-01,2.598951001802824456e-01,-1.094627620176065880e-01
2.409999999999999920e-01,2.412488588550297519e-01,2.266973420190295518e-01,-1.192045166714704278e-02
2.419999999999999929e-01,3.217163697749406692e-01,1.691153341772104746e-01,4.783648456960691575e-02
2.429999999999999938e-01,3.185613531568202705e-01,6.770862725611158373e-02,1.200697763791122447e-01
2.439999999999999947e-01,2.293734554491012045e-01,-5.996896054849052554e-02,1.905908872636542795e-01
2.449999999999999956e-01,1.331534324233104583e-01,-1.639879934127207173e-01,1.941318902741906438e-01
2.459999999999999964e-01,-2.431648824689579269e-02,-2.297480593169903829e-01,1.717731264282786885e-01
2.469999999999999973e-01,-1.709425439825067450e-01,-2.890014215933209285e-01,1.250294211719904236e-01
2.479999999999999982e-01,-2.845629561996531054e-01,-2.315842472496395521e-01,2.665474901641260233e-02
2.489999999999999991e-01,-3.071029395301722587e-01,-1.419884706749149905e-01,-2.763508906040287177e-02
2.500000000000000000e-01,-3.014140654232850269e-01,-3.274645868077725314e-02,-1.085578196726298128e-01
2.510000000000000009e-01,-2.305103412601973711e-01,4.752767892906053365e-02,-1.758475121395021712e-01
2.520000000000000018e-01,-1.253752485062884225e-01,1.683017754905969388e-01,-1.906781418891048130e-01
2.530000000000000027e-01,1.180218798278459200e-02,2.379575344004357662e-01,-1.640503366649724015e-01
2.540000000000000036e-01,1.601496292314890380e-01,2.269672087409951577e-01,-1.118114033768990156e-01
2.550000000000000044e-01,2.718654880534349672e-01,2.233907508232222949e-01,-6.699044670765819109e-02
2.560000000000000053e-01,2.925799177316211197e-01,1.198782128867609681e-01,5.393452654299849686e-02
2.570000000000000062e-01,3.037543199986824649e-01,3.720711396159611523e-02,1.142183370733047543e-01
2.580000000000000071e-01,2.481534826996212029e-01,-6.001646886983597745e-02,1.732351644275104685e-01
2.590000000000000080e-01,1.223579599206872093e-01,-2.156857792425954656e-01,1.831857543713416026e-01
2.600000000000000089e-01,1.812188423325959002e-02,-2.360524518894472901e-01,1.866650382175629730e-01
2.610000000000000098e-01,-1.544814775305013432e-01,-2.544414410989419006e-01,1.296641633415218653e-01
2.620000000000000107e-01,-2.297034650916309484e-01,-2.320745456762676462e-01,7.785415630536583753e-02
2.630000000000000115e-01,-3.111497913509588265e-01,-1.366592715223985954e-01,-1.838771892504915614e-02
2.640000000000000124e-01,-3.056961350050356185e-01,-5.058193986357977651e-02,-1.146430123444052707e-01
2.650000000000000133e-01,-2.397068305337688443e-01,7.469202276735223411e-02,-1.649872871502433280e-01
2.660000000000000142e-01,-1.322877053745624143e-01,1.942205784637588417e-01,-1.768232568356722934e-01
2.670000000000000151e-01,6.326370242892682960e-03,2.370549890369607060e-01,-1.880000351212577359e-01
2.680000000000000160e-01,1.549094718521064340e-01,2.443155124756567209e-01,-1.424764541822772235e-01
2.690000000000000169e-01,2.679694760955543820e-01,2.338113003908530163e-01,-6.226004415810264259e-02
2.700000000000000178e-01,3.180316572621068594e-01,1.303495806418193681e-01,4.233859157166842014e-04
2.710000000000000187e-01,3.320331981371082986e-01,5.022055245915821309e-02,9.150226530050872831e-02
2.720000000000000195e-01,2.570440218028406387e-01,-9.013879029060527237e-02,1.573218256155289041e-01
2.730000000000000204e-01,1.623125930166327280e-01,-1.961563447845786345e-01,1.698811031253073256e-01
2.740000000000000213e-01,-2.558737230004507900e-05,-2.101647950769193751e-01,2.144020917873107612e-01
2.750000000000000222e-01,-1.350176084154276201e-01,-2.456346957073273496e-01,1.224421160026901989e-01
2.760000000000000231e-01,-2.407947922665751028e-01,-2.276042066176121592e-01,7.176025939890083583e-02
2.770000000000000240e-01,-3.171941974607553338e-01,-1.527192624069160232e-01,-7.996392362555288045e-04
2.780000000000000249e-01,-3.090591350809432925e-01,-4.283738528631145931e-02,-9.565906695616212263e-02
2.790000000000000258e-01,-2.708664122491004078e-01,9.181941092340357990e-02,-1.507407165471849053e-01
2.800000000000000266e-01,-1.663635169005250602e-01,1.624972869742794257e-01,-1.848410595233224152e-01
2.810000000000000275e-01,-1.998689130910336759e-02,2.569739051592641044e-01,-2.014716441229796318e-01
2.819999999999999729e-01,1.056269814088974524e-01,2.540822673931387166e-01,-1.454126730565673820e-01
2.829999999999999738e-01,2.542910290276210183e-01,2.158226532781863105e-01,-8.168072162981612760e-02
2.839999999999999747e-01,3.101216622819638613e-01,1.419107111254554743e-01,1.346130057445342997e-02
2.849999999999999756e-01,3.118428359442536602e-01,1.782688186096875391e-02,6.132415720511175811e-02
2.859999999999999765e-01,2.703779826223308147e-01,-5.668098756335999966e-02,1.470931370737042498e-01
2.869999999999999774e-01,1.653068482622025992e-01,-1.873895921766575712e-01,1.906652474224461435e-01
2.879999999999999782e-01,1.176440837490626973e-02,-2.542886580271289665e-01,1.773493787379608333e-01
2.889999999999999791e-01,-1.294061419676689195e-01,-2.506705058173451239e-01,1.451657332058422789e-01
2.899999999999999800e-01,-2.336444513039004633e-01,-1.986022960036100127e-01,9.807196503349559225e-02
2.909999999999999809e-01,-2.982042426426501636e-01,-1.245354968399945417e-01,2.707755339795609589e-02
2.919999999999999818e-01,-3.090396828317970024e-01,-3.524859660663552923e-03,-5.991033326645799073e-02
2.929999999999999827e-01,-2.739322151767725200e-01,9.137284337216411423e-02,-1.279016972891416359e-01
2.939999999999999836e-01,-1.656694228691462656e-01,1.720355201916073107e-01,-2.010547130849449915e-01
2.949999999999999845e-01,-1.157435275056921224e-02,2.477733693620815525e-01,-1.838660629206722297e-01
2.959999999999999853e-01,1.329363544074221304e-01,2.461989602884240846e-01,-1.736263902471532894e-01
2.969999999999999862e-01,2.464620408925686790e-01,2.043542392073184888e-01,-1.049076347025059280e-01
2.979999999999999871e-01,2.966652613262420468e-01,1.445991497536473214e-01,-1.658226954955323990e-02
2.989999999999999880e-01,3.301649270693587379e-01,3.629802838523849429e-03,6.918634389300504228e-02
2.999999999999999889e-01,2.582482479386926655e-01,-6.690161275073713831e-02,1.453478246892501435e-01
3.009999999999999898e-01,1.551928007912662388e-01,-1.594607271293990713e-01,1.653055258382051806e-01
3.019999999999999907e-01,6.591871041823602756e-03,-2.550329272812210113e-01,1.612948285571949580e-01
3.029999999999999916e-01,-1.090583269959942564e-01,-2.577041506011581440e-01,2.004673225947301851e-01
3.039999999999999925e-01,-2.194942646559415178e-01,-2.052702785140433639e-01,8.620586172026833971e-02
3.049999999999999933e-01,-2.961240738186826094e-01,-1.381152730498528824e-01,4.528611533300791470e-02
3.059999999999999942e-01,-3.307825867234601702e-01,-2.213336301716721174e-02,-7.532967461658708619e-02
3.069999999999999951e-01,-2.750373091151612770e-01,7.535460524180166708e-02,-1.497597192066018046e-01
3.079999999999999960e-01,-1.899641926861264096e-01,1.732416584449239239e-01,-1.900254309687215704e-01
3.089999999999999969e-01,-2.643925255278991096e-02,2.399550411595915977e-01,-2.124589489229883055e-01
3.099999999999999978e-01,9.351615003737416554e-02,2.643031365816418399e-01,-1.642906707620402917e-01
3.109999999999999987e-01,2.623779041432663384e-01,2.087701092557972260e-01,-9.084439187839989105e-02
3.119999999999999996e-01,2.939060363451663771e-01,1.383636826182856605e-01,-3.337103513958095818e-02
3.130000000000000004e-01,3.295933311794655429e-01,-3.111554014467141343e-03,8.002561470207501804e-02
3.140000000000000013e-01,2.641093507326649492e-01,-1.162602848559310675e-01,1.448209881840268887e-01
3.150000000000000022e-01,1.903911772537734415e-01,-2.014907769496761536e-01,1.614121373302942475e-01
3.160000000000000031e-01,5.804224148379124454e-02,-2.700777935975082200e-01,1.714436498679015874e-01
3.170000000000000040e-01,-9.881946374512033671e-02,-2.441646329295102669e-01,1.508121397126027108e-01
3.180000000000000049e-01,-2.106130790254178986e-01,-1.937390437427488621e-01,1.341718138669185378e-01
3.190000000000000058e-01,-2.993469638877452321e-01,-1.160662501628480364e-01,3.630178513871405721e-02
3.200000000000000067e-01,-3.439084065609541163e-01,1.119019387777525631e-02,-4.629779188074894386e-02
3.210000000000000075e-01,-2.871042123803185242e-01,9.292545222508143132e-02,-9.732552084526403802e-02
3.220000000000000084e-01,-1.961001222395473143e-01,1.833150181081732166e-01,-1.539474884187411186e-01
3.230000000000000093e-01,-5.359419989599024936e-02,2.230608306391116125e-01,-1.992787749061756819e-01
3.240000000000000102e-01,9.191372231415058380e-02,2.385135372708260815e-01,-1.662020304589532094e-01
3.250000000000000111e-01,2.396035400902615520e-01,2.081497352177861526e-01,-1.355502953422195456e-01
3.260000000000000120e-01,2.966267985217574399e-01,9.990826718006282081e-02,-3.163404581643279589e-02
3.270000000000000129e-01,3.290464650883661579e-01,-5.749738041526274504e-03,6.503281180186538946e-02
3.280000000000000138e-01,2.670212083773452205e-01,-9.260978063200706045e-02,1.052884015755594233e-01
3.290000000000000147e-01,1.891209922083811890e-01,-1.803375697804968369e-01,1.743109278168880616e-01
3.300000000000000155e-01,4.814915988917813777e-02,-2.554578488042266726e-01,1.838954577644129618e-01
3.310000000000000164e-01,-1.037607339578677929e-01,-2.752420279358019362e-01,2.057037023935417153e-01
3.320000000000000173e-01,-2.309543268223792911e-01,-2.039301081177239960e-01,1.235780131714926677e-01
3.330000000000000182e-01,-3.193697987388634529e-01,-1.290654693806992659e-01,5.386290931998342912e-02
3.340000000000000191e-01,-3.311586217546811928e-01,-8.362728479204413826e-03,-2.364408720936281988e-02
3.350000000000000200e-01,-2.870930934504032361e-01,1.123013620843078958e-01,-9.487338701804819141e-02
3.360000000000000209e-01,-1.726851764300759429e-01,1.853653520419915046e-01,-1.641406678233492400e-01
3.370000000000000218e-01,-5.039168197767514290e-02,2.560095656935152952e-01,-1.858915079434512174e-01
3.380000000000000226e-01,9.620357517589103735e-02,2.595752230007910000e-01,-1.573217328633204071e-01
3.390000000000000235e-01,2.196028821437066847e-01,1.647693366566268802e-01,-1.439812188379186453e-01
3.400000000000000244e-01,2.833877231613796122e-01,1.005504718897342192e-01,-7.455257857916987307e-02
3.410000000000000253e-01,3.264223423457116580e-01,-1.098024310138320282e-02,3.209199586427109036e-02
3.420000000000000262e-01,2.751362846246483973e-01,-1.159408254429277196e-01,9.220357362657104205e-02
3.430000000000000271e-01,1.882631037226890069e-01,-1.971369684820927504e-01,1.600484801093991216e-01
3.439999999999999725e-01,7.018890894806514846e-02,-2.696512112580033982e-01,2.000049643120355991e-01
3.449999999999999734e-01,-1.021942417181098683e-01,-2.361504160287219989e-01,1.670546016886618745e-01
3.459999999999999742e-01,-2.235539570463265791e-01,-1.916385011967450536e-01,1.591311148103811690e-01
3.469999999999999751e-01,-2.786904335550700051e-01,-9.681163376878917926e-02,7.634202032600780063e-02
3.479999999999999760e-01,-3.300399269397915059e-01,-3.967978226742835922e-03,-1.235121875664116353e-02
3.489999999999999769e-01,-2.939200912889087247e-01,1.313986481292383768e-01,-9.469690513558770562e-02
3.499999999999999778e-01,-2.000279028177410767e-01,2.016501562418280824e-01,-1.649625443799292157e-01
3.509999999999999787e-01,-7.434843072710194123e-02,2.553630916668795936e-01,-1.774015520834861803e-01
3.519999999999999796e-01,8.262391561126351813e-02,2.393098616867701534e-01,-1.787281645382142459e-01
3.529999999999999805e-01,1.888903353945998453e-01,1.843060059449204424e-01,-1.482424040435546819e-01
3.539999999999999813e-01,2.861636730072845136e-01,1.198526123285585804e-01,-8.404513736384180977e-02
3.549999999999999822e-01,2.911727211808874949e-01,1.035885996692826813e-02,1.495786805192773905e-02
3.559999999999999831e-01,2.767838242488736555e-01,-1.155136935772973772e-01,8.121733803866462709e-02
3.569999999999999840e-01,1.915307328073849458e-01,-2.113129931584012688e-01,1.387993728822885520e-01
3.579999999999999849e-01,8.250981385156776204e-02,-2.567176333157276669e-01,1.851872999225858130e-01
3.589999999999999858e-01,-6.117694757390638310e-02,-2.214396012290681393e-01,1.962300348741810585e-01
3.599999999999999867e-01,-2.046994023099379667e-01,-1.939327306836290121e-01,1.603373915968242525e-01
3.609999999999999876e-01,-2.748232746545573035e-01,-1.077803705432035103e-01,1.019715030216817864e-01
3.619999999999999885e-01,-3.444628530922750342e-01,3.003411897410049672e-02,2.425082728130673049e-02
3.629999999999999893e-01,-2.854193189825341426e-01,1.278652922935284431e-01,-7.715336385447284229e-02
3.639999999999999902e-01,-1.997710870089516866e-01,2.297331531155784590e-01,-1.503980096791764087e-01
3.649999999999999911e-01,-8.852646435757832721e-02,2.304553476422665503e-01,-1.719029315199556984e-01
3.659999999999999920e-01,5.511320335765548112e-02,2.523611377784527599e-01,-1.923030503947144587e-01
3.669999999999999929e-01,1.893129759787355593e-01,1.962510314363375696e-01,-1.696812946191206539e-01
3.679999999999999938e-01,2.801066720547166766e-01,8.777425073075545425e-02,-1.123010060420615713e-01
3.689999999999999947e-01,3.007420104587114618e-01,-1.087282645970105710e-02,-2.209038138942244836e-02
3.699999999999999956e-01,3.019113978445182034e-01,-1.430612885809069146e-01,6.698408808230785216e-02
3.709999999999999964e-01,1.941387594130829508e-01,-2.192151496047428094e-01,1.351786014149538029e-01
3.719999999999999973e-01,9.253518635693624983e-02,-2.345946835593383795e-01,1.982173844470472290e-01
3.729999999999999982e-01,-5.171592683537377944e-02,-2.332770733133966434e-01,2.152755912735746791e-01
3.739999999999999991e-01,-1.703357815096074312e-01,-2.065424304276914369e-01,1.660822951624728316e-01
3.750000000000000000e-01,-2.840897272423236752e-01,-8.099023674626301683e-02,1.090923320692089721e-01
3.760000000000000009e-01,-3.367254286145376363e-01,1.556420893153274629e-02,1.715363681280145797e-02
3.770000000000000018e-01,-2.926930976340009760e-01,1.195152004213940189e-01,-5.153885804708968621e-02
3.780000000000000027e-01,-2.118620699289046339e-01,2.050712009699693639e-01,-1.155166765650122579e-01
3.790000000000000036e-01,-8.957046368154418514e-02,2.677129641027538587e-01,-1.778535184489958842e-01
3.800000000000000044e-01,5.951460471090432025e-02,2.354249449206178846e-01,-1.959797338394718702e-01
3.810000000000000053e-01,1.637358574674528111e-01,1.929561364068360374e-01,-1.648792868200440465e-01
3.820000000000000062e-01,2.714117542780126735e-01,6.980208849332358856e-02,-1.073673713257476403e-01
3.830000000000000071e-01,3.161495040068500462e-01,-1.536217348852803206e-02,-6.544223487252424920e-02
3.840000000000000080e-01,2.685425090410799021e-01,-1.231294226772807060e-01,1.863659419355319022e-02
3.850000000000000089e-01,2.229046225910227830e-01,-2.113444425591479159e-01,1.139178515225327121e-01
3.860000000000000098e-01,8.641154402084075259e-02,-2.516105128886111375e-01,1.934365419761581439e-01
3.870000000000000107e-01,-7.374889666974869529e-02,-2.642052513620412602e-01,1.873299618175795767e-01
3.880000000000000115e-01,-1.860716966326389221e-01,-1.625393894520757443e-01,1.893814812219765387e-01
3.890000000000000124e-01,-2.625409480064959666e-01,-8.841853047761014106e-02,1.168348611556218192e-01
3.900000000000000133e-01,-3.482377522814059101e-01,4.206387870374757310e-02,4.342274614425973428e-02
3.910000000000000142e-01,-3.072576860210795568e-01,1.565940608125756528e-01,-3.749344787712581561e-02
3.920000000000000151e-01,-1.995363502904109465e-01,2.050883838147166682e-01,-1.124675025689229613e-01
3.930000000000000160e-01,-1.000319223807204227e-01,2.401760201852360110e-01,-1.931956970873831836e-01
3.940000000000000169e-01,5.394143906276146344e-02,2.497626923089663331e-01,-1.834439711286197927e-01
3.950000000000000178e-01,1.697832793863921497e-01,1.689644341502327118e-01,-1.571572481967773438e-01
3.960000000000000187e-01,2.462971099785914719e-01,9.071246028333211642e-02,-1.293271253615529692e-01
3.970000000000000195e-01,3.237600733777606377e-01,-3.169336267548003572e-02,-7.118649578091278129e-02
3.980000000000000204e-01,3.090934868691856408e-01,-1.499991223632654580e-01,3.288115466412722815e-02
3.990000000000000213e-01,2.362044980425054841e-01,-2.247487562515385617e-01,1.018943037790377842e-01
4.000000000000000222e-01,8.269223839386977137e-02,-2.363814145777189957e-01,1.956292119736157964e-01
4.010000000000000231e-01,-5.785470639785441488e-02,-2.171203520711909307e-01,2.075752263054430058e-01
4.020000000000000240e-01,-1.712774512493247248e-01,-1.779039337733819004e-01,1.831736086767371541e-01
4.030000000000000249e-01,-2.913111517549124008e-01,-6.172186428557768778e-02,1.548646513714617701e-01
4.040000000000000258e-01,-3.220152988586847398e-01,2.670015351777039678e-02,6.857101143324242920e-02
4.050000000000000266e-01,-3.126565766386014134e-01,1.368964014760417902e-01,-3.764211500684033762e-02
4.060000000000000275e-01,-2.397192624003887385e-01,2.290885229267307921e-01,-9.782299018603918261e-02
4.069999999999999729e-01,-9.636999324570423575e-02,2.501511580602937546e-01,-1.769279839171520041e-01
4.079999999999999738e-01,3.964624935695120617e-02,2.391287237284591971e-01,-1.737911889629601137e-01
4.089999999999999747e-01,1.577332006414434162e-01,1.699192993853416711e-01,-1.814485653581376368e-01
4.099999999999999756e-01,2.527091275359471534e-01,6.377955656713081567e-02,-1.746460757938229635e-01
4.109999999999999765e-01,3.151832082718969419e-01,-5.026731182150669802e-02,-8.728177288812122292e-02
4.119999999999999774e-01,2.806753987770562175e-01,-1.545260766197646685e-01,-6.869217385485737459e-03
4.129999999999999782e-01,2.246734412201002729e-01,-2.229794299358122400e-01,9.925562050350736354e-02
4.139999999999999791e-01,9.154407440328767021e-02,-2.839218063472589426e-01,1.282597450369246661e-01
4.149999999999999800e-01,-1.519907279128422141e-02,-2.333086434778923746e-01,1.943220795147157787e-01
4.159999999999999809e-01,-1.621039080464525273e-01,-1.751827314777710809e-01,1.794383695002689239e-01
4.169999999999999818e-01,-2.828844900006339258e-01,-6.452695234725802642e-02,1.534527626069641937e-01
4.179999999999999827e-01,-3.284279604974176814e-01,3.452952768810382128e-02,7.753471584406089467e-02
4.189999999999999836e-01,-2.862640739948292268e-01,1.426394463996975281e-01,1.489549715573183775e-02
4.199999999999999845e-01,-2.267922770918937569e-01,2.469540440249474167e-01,-7.768493520609424940e-02
4.209999999999999853e-01,-1.355112872246851397e-01,2.546967463445764523e-01,-1.452817467694930698e-01
4.219999999999999862e-01,4.191820021476421604e-02,2.192155400350037642e-01,-1.660953010836827837e-01
4.229999999999999871e-01,1.650138650777269733e-01,1.770367033917943922e-01,-1.937001985859333753e-01
4.239999999999999880e-01,2.685381532089263223e-01,6.363631076395845354e-02,-1.382683468507950597e-01
4.249999999999999889e-01,3.297454947697510685e-01,-5.313526946364171416e-02,-1.010228552971659116e-01
4.259999999999999898e-01,3.158318221999334985e-01,-1.664275216529975954e-01,-9.771777316359189433e-03
4.269999999999999907e-01,2.539099407769302985e-01,-2.189372505526653856e-01,4.102749977910225693e-02
4.279999999999999916e-01,1.093616916028309627e-01,-2.556716517290850699e-01,1.498982560982520806e-01
4.289999999999999925e-01,-2.829168113569952014e-02,-2.250885533515771530e-01,1.766383846467920737e-01
4.299999999999999933e-01,-1.600898965613622160e-01,-1.602198548453115379e-01,1.796094686221833825e-01
4.309999999999999942e-01,-2.528992108651760828e-01,-6.158014369805776128e-02,1.548940100411050069e-01
4.319999999999999951e-01,-2.987864021713228513e-01,5.192539874074998674e-02,1.266940920053225561e-01
4.329999999999999960e-01,-3.299876517481545868e-01,1.554000847545770891e-01,1.112316509834933125e-02
4.339999999999999969e-01,-2.467173201940425498e-01,2.263470118453713709e-01,-6.555147092653705598e-02
4.349999999999999978e-01,-1.146434272339189042e-01,2.638343144080732561e-01,-1.392502533534426823e-01
4.359999999999999987e-01,4.804639666467888648e-02,2.074269549110162592e-01,-1.751607237762540514e-01
4.369999999999999996e-01,1.696814407370890732e-01,1.724506060272067431e-01,-1.706343552739293390e-01
4.380000000000000004e-01,2.672548814530165684e-01,5.160529992473993771e-02,-1.639182776396241326e-01
4.390000000000000013e-01,3.189316252863949597e-01,-7.841588507946774256e-02,-8.633862152341430229e-02
4.400000000000000022e-01,3.294598037989963646e-01,-1.525942733506499560e-01,-1.896314564842091141e-02
4.410000000000000031e-01,2.233059786521187362e-01,-2.405107592834336006e-01,7.286485718314845983e-02
4.420000000000000040e-01,1.359116059747439709e-01,-2.289222962320817401e-01,1.321515578952368597e-01
4.430000000000000049e-01,-1.289262334512105042e-02,-2.383034379401441083e-01,1.853103112621640736e-01
4.440000000000000058e-01,-1.324723155543677255e-01,-1.689001823089605336e-01,1.943302053871092394e-01
4.450000000000000067e-01,-2.617256601546620876e-01,-1.172923508435039924e-02,1.662196501381703606e-01
4.460000000000000075e-01,-3.071215235345101102e-01,7.625240645763584069e-02,1.040863374849066714e-01
4.470000000000000084e-01,-3.088556924805306858e-01,1.743856923551264926e-01,4.995101116802699165e-02
4.480000000000000093e-01,-2.248564227722741615e-01,2.269909345687584901e-01,-3.567197069742294308e-02
4.490000000000000102e-01,-1.416467589538518146e-01,2.420421430772499438e-01,-1.036557160309792142e-01
4.500000000000000111e-01,-1.196840268704313370e-02,2.204455347246072616e-01,-1.578353004779013413e-01
4.510000000000000120e-01,1.632162337583109579e-01,1.602821341379754849e-01,-1.802387806587598396e-01
4.520000000000000129e-01,2.697567972597713637e-01,3.567899715058962806e-02,-1.435688978492881129e-01
4.530000000000000138e-01,3.109710541155103480e-01,-5.444118150429578390e-02,-1.086446793173536096e-01
4.540000000000000147e-01,2.949263626475162048e-01,-1.549143008823132828e-01,-4.215143764784600594e-02
4.550000000000000155e-01,2.336172792809662335e-01,-2.238075698075755737e-01,5.726472347202252872e-02
4.560000000000000164e-01,1.444825088224302445e-01,-2.609022187232780676e-01,1.083647028767239645e-01
4.570000000000000173e-01,6.059811901088342848e-03,-2.178527962950945751e-01,1.887930892708019337e-01
4.580000000000000182e-01,-1.499755016910100103e-01,-1.486447024693704211e-01,1.757217709331332089e-01
4.590000000000000191e-01,-2.526853943832164107e-01,-3.242977529547207138e-02,1.870749634839018738e-01
4.600000000000000200e-01,-3.352441589734672100e-01,6.905055167042074837e-02,1.352378353954400148e-01
4.610000000000000209e-01,-3.181384023190077515e-01,1.763495494849969536e-01,6.401798741239357604e-02
4.620000000000000218e-01,-2.531540139933148303e-01,2.580302342817093475e-01,-2.448087877204918605e-02
4.630000000000000226e-01,-1.332576692886309755e-01,2.442388955086958746e-01,-1.127151081247339953e-01
4.640000000000000235e-01,-4.482841493022232844e-03,2.161076318564498500e-01,-1.823079681740247260e-01
4.650000000000000244e-01,1.340546961598512166e-01,1.607176089784022599e-01,-2.003076037597253389e-01
4.660000000000000253e-01,2.648029030157868502e-01,4.807653022953419647e-02,-1.791431534877654386e-01
4.670000000000000262e-01,3.115627627682364120e-01,-6.936509997178852416e-02,-1.362660431355681434e-01
4.680000000000000271e-01,3.170991075144445892e-01,-1.635948903891324135e-01,-8.033541877408048593e-02
4.689999999999999725e-01,2.510346408882671576e-01,-2.350599864783153303e-01,1.844107055641474799e-02
4.699999999999999734e-01,1.321532320916441738e-01,-2.355978452633321618e-01,7.793436104626534633e-02
4.709999999999999742e-01,8.672577199956833099e-03,-2.358678861189415221e-01,1.646828502934974681e-01
4.719999999999999751e-01,-1.173755773764884464e-01,-1.590561684130669950e-01,1.861339958033316477e-01
4.729999999999999760e-01,-2.552064688070709852e-01,-1.918641029945633569e-02,1.922320687430970343e-01
4.739999999999999769e-01,-3.145369152484300823e-01,8.676357112783593395e-02,1.383824207079651925e-01
4.749999999999999778e-01,-2.766841726486441444e-01,1.782005029618401459e-01,7.339101989210337906e-02
4.759999999999999787e-01,-2.755771115367937063e-01,2.613387407415209696e-01,-3.798037294742663637e-03
4.769999999999999796e-01,-1.539196115062850256e-01,2.543538072930773830e-01,-9.215186692711022087e-02
4.779999999999999805e-01,-1.067457823520029684e-03,2.225041785884731838e-01,-1.489115752629964484e-01
4.789999999999999813e-01,1.253845548183193381e-01,1.261727408458075128e-01,-1.802476915163321869e-01
4.799999999999999822e-01,2.265063933898889825e-01,4.786483605575112682e-02,-1.675343594743758102e-01
4.809999999999999831e-01,3.045543600182460398e-01,-8.511823242766669573e-02,-1.542344787389495764e-01
4.819999999999999840e-01,3.508547294085277990e-01,-1.927991774530117275e-01,-5.780425078000370892e-02
4.829999999999999849e-01,2.411710954188913403e-01,-2.408167579973100880e-01,2.956178425425108960e-02
4.839999999999999858e-01,1.646635125597577798e-01,-2.481213682478069782e-01,8.858268798842403036e-02
4.849999999999999867e-01,2.631831483462029539e-02,-2.156129372318715265e-01,1.673013074946577694e-01
4.859999999999999876e-01,-1.333996183794047552e-01,-1.379004631977913120e-01,1.763944177288259141e-01
4.869999999999999885e-01,-2.405194714209927809e-01,-3.952027329444635778e-02,1.967599722740122070e-01
4.879999999999999893e-01,-2.869108231834588407e-01,8.845618563725496375e-02,1.527910719589328781e-01
4.889999999999999902e-01,-3.142704284492773836e-01,1.563772281707952183e-01,5.432673484123837909e-02
4.899999999999999911e-01,-2.995123553462004096e-01,2.386144835217404170e-01,7.673894880869049258e-03
4.909999999999999920e-01,-1.579739830458511129e-01,2.691143094775464983e-01,-6.119848124420603636e-02
4.919999999999999929e-01,-1.733469710873440303e-02,2.125825022580638823e-01,-1.237104549354570149e-01
4.929999999999999938e-01,1.286053815943120071e-01,1.072901529339291837e-01,-1.628159704363568161e-01
4.939999999999999947e-01,2.463093364164732346e-01,2.101157622464348493e-02,-1.944332488404760251e-01
4.949999999999999956e-01,2.901852999287539703e-01,-8.984350680254174493e-02,-1.436999114829661250e-01
4.959999999999999964e-01,3.188203722748951807e-01,-1.852851249044728255e-01,-7.907935281670720740e-02
4.969999999999999973e-01,2.573906948874624678e-01,-2.452754001140611539e-01,-2.336242833332189892e-02
4.979999999999999982e-01,1.553636547179289007e-01,-2.547399875572812777e-01,7.528482093753846582e-02
4.989999999999999991e-01,1.769586617668243017e-02,-2.092060882875278471e-01,1.566531665616294478e-01
5.000000000000000000e-01,-8.818321501224922476e-02,-1.295331357630532809e-01,1.802773194194909612e-01
5.010000000000000009e-01,-2.212775911456033306e-01,-6.930619321991966786e-03,1.877953286832664548e-01
5.020000000000000018e-01,-2.821531305421601798e-01,8.762928738362295300e-02,1.761653736156477967e-01
5.030000000000000027e-01,-3.241859374583648812e-01,2.016439547976669189e-01,9.081627151796996256e-02
5.040000000000000036e-01,-2.605214054662342016e-01,2.250188689285936572e-01,2.116257299626239999e-02
5.050000000000000044e-01,-1.581108590582098183e-01,2.661461573669779979e-01,-8.025305357138923235e-02
5.060000000000000053e-01,-6.565130950516216701e-02,1.776938102872295255e-01,-1.062001229888208942e-01
5.070000000000000062e-01,8.797396019244037302e-02,1.153583199927893099e-01,-1.684474306964012236e-01
5.080000000000000071e-01,2.377912941896272725e-01,3.067122356480675438e-02,-2.129534538677833599e-01
5.090000000000000080e-01,2.874741645974825954e-01,-9.690679708350034838e-02,-1.498613577847920653e-01
5.100000000000000089e-01,3.202340620088244827e-01,-1.835632801511974110e-01,-1.269535149745868730e-01
5.110000000000000098e-01,3.019167785517871128e-01,-2.431326490102291016e-01,-2.386529702422413718e-02
5.120000000000000107e-01,1.610252124627653825e-01,-2.668306985961015343e-01,4.586035348041531817e-02
5.130000000000000115e-01,5.050826074825928019e-02,-1.926335984419787761e-01,1.232834717008815389e-01
5.140000000000000124e-01,-1.096073437816969670e-01,-1.154837706874516229e-01,1.753235863334287881e-01
5.150000000000000133e-01,-2.050217211856556199e-01,-3.574054675028644212e-03,1.917888031282188321e-01
5.160000000000000142e-01,-3.066773653888834605e-01,7.734135647957679494e-02,1.725805696044653559e-01
5.170000000000000151e-01,-3.015850104628535755e-01,1.905580290807730726e-01,1.015017105026672778e-01
5.180000000000000160e-01,-2.689219373783865441e-01,2.426968053770424960e-01,4.284944711052414423e-02
5.190000000000000169e-01,-1.764754563273534527e-01,2.618481169779297013e-01,-6.008037640112773997e-02
5.200000000000000178e-01,-6.522948907479107772e-02,2.044774347988080609e-01,-1.201032286676031041e-01
5.210000000000000187e-01,1.030864062216845650e-01,1.356345521080625505e-01,-1.974183296188311842e-01
5.220000000000000195e-01,2.110169173384645880e-01,1.105227405703868146e-03,-2.103817390471784676e-01
5.230000000000000204e-01,2.899920103674485938e-01,-9.079620225567910929e-02,-1.822435352341064685e-01
5.240000000000000213e-01,3.191489821717325981e-01,-1.833688719142629597e-01,-1.470749277355404283e-01
5.250000000000000222e-01,2.727695508825053738e-01,-2.271262080066098754e-01,-6.177907020321961318e-02
5.260000000000000231e-01,1.731109772901986976e-01,-2.395233059690381472e-01,4.301376498076734528e-02
5.270000000000000240e-01,6.585063334135643487e-02,-2.118404593921048851e-01,1.002077833790756545e-01
5.280000000000000249e-01,-7.338689082800965713e-02,-1.259198062680758901e-01,1.775104598400588651e-01
5.290000000000000258e-01,-2.102350211067416097e-01,-6.425490219535445226e-03,2.166387978940223225e-01
5.300000000000000266e-01,-2.663994815608326516e-01,1.155656901570329825e-01,1.904932702152974666e-01
5.310000000000000275e-01,-3.073140442993950172e-01,2.079134993911544438e-01,1.266306330754560505e-01
5.320000000000000284e-01,-2.920098348098471019e-01,2.322937738826164611e-01,4.764361405646144049e-02
5.330000000000000293e-01,-1.877377584386114295e-01,2.471339229732613108e-01,-9.076827542067919183e-03
5.340000000000000302e-01,-5.020704115483861502e-02,2.040313101384874095e-01,-9.715739549919209794e-02
5.350000000000000311e-01,7.510815384315620846e-02,9.244441847460943551e-02,-1.699240703330118507e-01
5.360000000000000320e-01,2.086750493295665143e-01,1.130794940378068540e-02,-1.958289249312257230e-01
5.370000000000000329e-01,2.879279635626514344e-01,-1.037774431238036310e-01,-1.648322591249464786e-01
5.380000000000000338e-01,3.220292286842249552e-01,-1.942106687881241245e-01,-1.492026127289203807e-01
5.390000000000000346e-01,2.713284897849653765e-01,-2.773403621458436774e-01,-7.473182350350647540e-02
5.400000000000000355e-01,1.579385595618420512e-01,-2.575258688924874639e-01,3.842062049398620865e-02
5.410000000000000364e-01,5.697409375849297325e-02,-2.013426054235709362e-01,8.227475621037211306e-02
5.420000000000000373e-01,-7.911177797182539218e-02,-1.086907212476422302e-01,1.510538315591937741e-01
5.430000000000000382e-01,-2.042593851741478228e-01,9.365897502992753115e-03,2.173459292115627328e-01
5.440000000000000391e-01,-3.005205029158996566e-01,1.074900237746712617e-01,1.794406486439533710e-01
5.450000000000000400e-01,-3.162232194629675530e-01,1.884906014695001131e-01,1.659241165893778347e-01
5.460000000000000409e-01,-2.665303257460087116e-01,2.483441215420606474e-01,8.410096284391721522e-02
5.470000000000000417e-01,-1.880361740351942645e-01,2.566507400532594407e-01,-5.334455934108099998e-03
5.480000000000000426e-01,-6.056234628149834848e-02,1.834298136093086562e-01,-9.696709268023541439e-02
5.490000000000000435e-01,8.028535164856266670e-02,1.057112134910576651e-01,-1.496392185782474682e-01
5.500000000000000444e-01,2.101785594745120000e-01,-5.235655369477731913e-03,-1.943083376489272152e-01
5.510000000000000453e-01,2.785712723725781714e-01,-1.060960409697490475e-01,-1.859603338016750096e-01
5.520000000000000462e-01,3.412388926146601165e-01,-1.959489067835215315e-01,-1.371728562924479089e-01
5.530000000000000471e-01,2.985784977518015082e-01,-2.387761769965864311e-01,-9.377204956916694589e-02
5.540000000000000480e-01,2.087785092289645150e-01,-2.384739572724924317e-01,2.975917124461977415e-03
5.550000000000000488e-01,5.238370725376474690e-02,-2.072020040732329427e-01,9.851837074950448025e-02
5.560000000000000497e-01,-4.485685058963743976e-02,-9.983240098811552166e-02,1.257386631308369251e-01
5.570000000000000506e-01,-2.030865995958492654e-01,-1.132384612616185379e-03,1.936871493537806743e-01
5.580000000000000515e-01,-3.143633051907863685e-01,1.299046791856278693e-01,1.863374945215510170e-01
5.590000000000000524e-01,-3.072890952488111505e-01,2.005170099776859838e-01,1.673333029538578709e-01
5.600000000000000533e-01,-2.926958071018542773e-01,2.487142612406663400e-01,1.006952355945702204e-01
5.610000000000000542e-01,-1.956211053985583426e-01,2.590122536653006180e-01,1.647746721349841598e-02
5.620000000000000551e-01,-2.825712183085682394e-02,2.026965876936358824e-01,-5.882555936856876527e-02
5.629999999999999449e-01,7.429636677525322530e-02,9.727527171934378936e-02,-1.351489858397527666e-01
5.639999999999999458e-01,1.872279690953489451e-01,-2.275809881093526776e-02,-1.825511058472620296e-01
5.649999999999999467e-01,2.905135870240554974e-01,-1.380369902048398378e-01,-2.001884108090803138e-01
5.659999999999999476e-01,3.131210637595213120e-01,-1.968899073965595659e-01,-1.778825985546749200e-01
5.669999999999999485e-01,2.995928196503326868e-01,-2.559846918387642667e-01,-1.213411288214947814e-01
5.679999999999999494e-01,2.193640193279967066e-01,-2.468532752107017725e-01,-1.592672498619925742e-02
5.689999999999999503e-01,7.787960585025446858e-02,-2.056300504003951701e-01,4.493191560791472833e-02
5.699999999999999512e-01,-6.769833479126528830e-02,-1.114507598090457435e-01,1.163647866431127137e-01
5.709999999999999520e-01,-1.890429830262911892e-01,1.102182456908514831e-02,1.826223932611887590e-01
5.719999999999999529e-01,-2.776410582351125922e-01,1.179352062626233127e-01,1.753984572736549397e-01
5.729999999999999538e-01,-3.412367114049388306e-01,2.248641410670459140e-01,1.759592077176785063e-01
5.739999999999999547e-01,-3.112948380341405974e-01,2.259199530777315224e-01,1.028538065051262385e-01
5.749999999999999556e-01,-2.042216712225356778e-01,2.468624787760030082e-01,4.754905615051210205e-02
5.759999999999999565e-01,-7.387508606437584446e-02,1.855418186823231674e-01,-5.242840714800607593e-02
5.769999999999999574e-01,4.208622141258759608e-02,1.068747675317827800e-01,-1.357045561192670724e-01
5.779999999999999583e-01,1.883941481078032221e-01,-2.513164358295381581e-02,-1.792737586761929403e-01
5.789999999999999591e-01,2.842646193377154074e-01,-1.497021354960433037e-01,-1.966202823207779948e-01
5.799999999999999600e-01,3.119871840304391242e-01,-2.296198360695456131e-01,-1.588601804536962647e-01
5.809999999999999609e-01,2.941607863520538380e-01,-2.522039230579394276e-01,-1.346314984097380374e-01
5.819999999999999618e-01,2.084425771730649135e-01,-2.452820394340788079e-01,-3.780327826896374976e-02
5.829999999999999627e-01,8.562043251706633051e-02,-1.700280495868496389e-01,5.284165606379773866e-02
5.839999999999999636e-01,-6.129557696723592075e-02,-8.434808061392681799e-02,1.315906143899172043e-01
5.849999999999999645e-01,-1.776984250436035306e-01,4.151937594489362761e-03,1.733155360600953931e-01
5.859999999999999654e-01,-2.857506459645865471e-01,1.155500135875347084e-01,2.181202731005383033e-01
5.869999999999999662e-01,-3.115996056740575892e-01,2.212778392340288003e-01,1.849077513823974839e-01
5.879999999999999671e-01,-3.114230170301078848e-01,2.351576541470306037e-01,1.231891166572424701e-01
5.889999999999999680e-01,-2.229636574203384125e-01,2.528734230703630903e-01,5.463228150818342371e-02
5.899999999999999689e-01,-6.850517498915949244e-02,1.718672676343814820e-01,-6.024636821180277824e-02
5.909999999999999698e-01,3.600265049414792806e-02,1.043414092230432744e-01,-1.474557191262174938e-01
5.919999999999999707e-01,1.915781411438017834e-01,-1.901117964036885474e-02,-1.732174172894137554e-01
5.929999999999999716e-01,2.841540801888861600e-01,-1.016383185261692246e-01,-1.986258570705405624e-01
5.939999999999999725e-01,3.152209073522247440e-01,-2.248065320947434942e-01,-1.510191058825654797e-01
5.949999999999999734e-01,3.247575344854409241e-01,-2.319075505311984087e-01,-1.358988224933735112e-01
5.959999999999999742e-01,2.219688813945588646e-01,-2.393011256901987072e-01,-4.838350126437931248e-02
5.969999999999999751e-01,9.338388932978343437e-02,-1.923396908323567467e-01,-5.223751155690684739e-03
5.979999999999999760e-01,-4.680178099772321076e-02,-6.873593669055494404e-02,1.212644793852808295e-01
5.989999999999999769e-01,-1.820876803465074911e-01,4.340050496621890991e-02,1.662879709331515077e-01
5.999999999999999778e-01,-2.823232512327912280e-01,1.596671700893378398e-01,2.065388320008747502e-01
6.009999999999999787e-01,-3.030041284672338464e-01,1.946320588596283652e-01,1.589756715339662452e-01
6.019999999999999796e-01,-2.993540522771892531e-01,2.373574108657597326e-01,1.224980619664854248e-01
6.029999999999999805e-01,-2.346923828036090176e-01,2.285621819612989880e-01,6.834413915502850212e-02
6.039999999999999813e-01,-8.272228373507382881e-02,1.692407057366041578e-01,-3.217126542575259734e-02
6.049999999999999822e-01,2.759979552319721460e-02,8.516256250839958353e-02,-8.714253054286527633e-02
6.059999999999999831e-01,1.664563346946295319e-01,-5.655000657787052215e-02,-1.436652588765874594e-01
6.069999999999999840e-01,2.577841749548596684e-01,-1.589225949522157511e-01,-2.069121294437475389e-01
6.079999999999999849e-01,3.328573039720243987e-01,-2.202187583126817283e-01,-1.884779998994040306e-01
6.089999999999999858e-01,2.858376669744366327e-01,-2.489551195901043013e-01,-1.314208100524977829e-01
6.099999999999999867e-01,2.379834589408839629e-01,-2.325176592782347562e-01,-5.866567153667093248e-02
6.109999999999999876e-01,1.024793291951743984e-01,-1.723051503339248502e-01,1.082825248430374122e-02
6.119999999999999885e-01,-3.891101884289659141e-02,-6.924852454121532830e-02,1.029233234119372731e-01
6.129999999999999893e-01,-1.800927471315494077e-01,4.993036184553261564e-02,1.482787032345559419e-01
6.139999999999999902e-01,-2.707508408251722565e-01,1.605753259330520155e-01,1.815148568378372462e-01
6.149999999999999911e-01,-3.113688553469489695e-01,2.097640197419251007e-01,1.916828371498961736e-01
6.159999999999999920e-01,-2.832648990643152898e-01,2.487395894101167571e-01,1.461451386879989711e-01
6.169999999999999929e-01,-2.250096958728897145e-01,2.325521384597940000e-01,8.016811355404952766e-02
6.179999999999999938e-01,-1.032444864771172172e-01,1.778777657678929924e-01,-1.331159057350197236e-03
6.189999999999999947e-01,2.216492637711771699e-02,9.539244725386375467e-02,-7.581415358319293363e-02
6.199999999999999956e-01,1.673038889079278002e-01,-2.947162063818777045e-02,-1.378083780831897698e-01
6.209999999999999964e-01,2.623136770720301270e-01,-1.438400663751592812e-01,-1.812073802235607267e-01
6.219999999999999973e-01,3.215423156405080030e-01,-2.164728029736396608e-01,-1.850855321710905554e-01
6.229999999999999982e-01,3.010510168855268232e-01,-2.568188620918278597e-01,-1.510738218103876151e-01
6.239999999999999991e-01,2.351986817830178933e-01,-2.169626285277432010e-01,-1.043115168539885396e-01
6.250000000000000000e-01,1.200226476675543275e-01,-1.863955796781138208e-01,-6.803586870881666616e-03
6.260000000000000009e-01,-1.237875096437191999e-02,-5.329524173152828947e-02,7.667516871268910406e-02
6.270000000000000018e-01,-1.210206338699220258e-01,3.771973512172577953e-02,1.379959089784174309e-01
6.280000000000000027e-01,-2.588645745218320915e-01,1.351674097259716600e-01,2.023590520655256242e-01
6.290000000000000036e-01,-3.119112853423506859e-01,2.196179118973066169e-01,1.680692289522978389e-01
6.300000000000000044e-01,-3.102252641431713087e-01,2.452299808806303882e-01,1.426549164097111744e-01
6.310000000000000053e-01,-2.169103998070932848e-01,2.468264752088031311e-01,9.716429403275265997e-02
6.320000000000000062e-01,-9.800332690302700211e-02,1.775044526198716610e-01,1.745464003298776573e-02
6.330000000000000071e-01,5.312325714727632320e-02,7.163482143497711119e-02,-7.200448314437611630e-02
6.340000000000000080e-01,1.335526875563799176e-01,-3.263665412716987291e-02,-1.437890400595285278e-01
6.350000000000000089e-01,2.425543434387183728e-01,-1.402348612664325866e-01,-1.895512124006167587e-01
6.360000000000000098e-01,3.069304053664524412e-01,-2.148603316747710601e-01,-1.944842347377931380e-01
6.370000000000000107e-01,3.114226755109211209e-01,-2.690392176875668340e-01,-1.722118389382575054e-01
6.380000000000000115e-01,2.594560459561914834e-01,-2.224070602080847336e-01,-1.100355478616944216e-01
6.390000000000000124e-01,1.336518914406365499e-01,-1.486001547338043072e-01,-4.148046931679703897e-02
6.400000000000000133e-01,-1.737180155196409864e-02,-4.089462608969533092e-02,3.842739745317710898e-02
6.410000000000000142e-01,-1.493551238270042492e-01,4.028427307853960776e-02,1.498820698205992341e-01
6.420000000000000151e-01,-2.655088747613480460e-01,1.627937233150069385e-01,1.704515435733255091e-01
6.430000000000000160e-01,-3.144631085619968847e-01,2.487671158886156364e-01,1.880886731355028152e-01
6.440000000000000169e-01,-3.285645240473235584e-01,2.591751651450704408e-01,1.673845070943266455e-01
6.450000000000000178e-01,-2.284962936312529003e-01,2.441209946568869971e-01,1.139835956163597064e-01
6.460000000000000187e-01,-1.233020121772641087e-01,1.574145052452906868e-01,4.724421693263795852e-02
6.470000000000000195e-01,1.706244727792279731e-02,8.040639030026412726e-02,-6.569831967975432729e-02
6.480000000000000204e-01,1.570982985715502767e-01,-6.089589054430330495e-02,-1.126553311642123356e-01
6.490000000000000213e-01,2.260259473138461483e-01,-1.610797921221643891e-01,-1.630167014995869135e-01
6.500000000000000222e-01,3.266721591935189406e-01,-2.172851347181656290e-01,-2.031937608444385479e-01
6.510000000000000231e-01,3.076889094991538398e-01,-2.807676964696191324e-01,-1.798061565614091084e-01
6.520000000000000240e-01,2.249817587176113076e-01,-2.204497394050747294e-01,-1.113713404922641453e-01
6.530000000000000249e-01,1.337491144412121524e-01,-1.310729550430747570e-01,-3.157449020867113265e-02
6.540000000000000258e-01,1.949324383896281279e-02,-5.945991771360709804e-02,2.825802175278344097e-02
6.550000000000000266e-01,-1.386687148466057284e-01,5.305336745733410519e-02,1.273264143386615421e-01
6.560000000000000275e-01,-2.735023420003703243e-01,1.683623511881220669e-01,1.757539825146675061e-01
6.570000000000000284e-01,-3.264811574677027317e-01,2.377703068883755821e-01,1.915667885515557889e-01
6.580000000000000293e-01,-2.936942692036906277e-01,2.389104012382534947e-01,1.725998899801706454e-01
6.590000000000000302e-01,-2.553173234271947090e-01,2.003948248172116031e-01,1.178531847993329051e-01
6.600000000000000311e-01,-1.427046299871346235e-01,1.615841266564282952e-01,6.587732773201956937e-02
6.610000000000000320e-01,1.075148389446316244e-02,4.758901494954292932e-02,-1.287146601062875984e-02
6.620000000000000329e-01,1.351779400773164552e-01,-6.170812477890245951e-02,-1.055717714428913434e-01
6.630000000000000338e-01,2.405317939799277993e-01,-1.792603292680723104e-01,-1.868157220718442701e-01
6.640000000000000346e-01,3.396411603310374172e-01,-2.307642843769866503e-01,-1.940757765941786284e-01
6.650000000000000355e-01,3.038170639416155061e-01,-2.450135541705159570e-01,-1.633455697020620434e-01
6.660000000000000364e-01,2.509400032299560768e-01,-2.064331113081692148e-01,-9.987261731529560593e-02
6.670000000000000373e-01,1.329139001075286541e-01,-1.507465670305654371e-01,-7.773522197691969116e-02
6.680000000000000382e-01,4.990621896465796334e-03,-9.128592548084131508e-03,2.057322268591883080e-02
6.690000000000000391e-01,-1.289420350465338150e-01,9.272287005809638771e-02,1.121728382451715605e-01
6.700000000000000400e-01,-2.546436915166131465e-01,1.910177077143667967e-01,1.496526180220691116e-01
6.710000000000000409e-01,-2.907598770671451227e-01,2.451488765932704761e-01,1.989692444983034436e-01
6.720000000000000417e-01,-3.231253205966488906e-01,2.511343029892483258e-01,1.920905615135581335e-01
6.730000000000000426e-01,-2.539511252519156548e-01,2.285486413205745637e-01,1.444891484004503790e-01
6.740000000000000435e-01,-1.503365987663301817e-01,1.411220584342408602e-01,5.232761965886813943e-02
6.750000000000000444e-01,-6.051320961248163321e-03,4.853377581635201499e-02,-3.147193476662005912e-02
6.760000000000000453e-01,1.252532318637522568e-01,-6.862235501271035654e-02,-9.467411248720923600e-02
6.770000000000000462e-01,2.363184676361015091e-01,-1.752258627774298527e-01,-1.643358573066072137e-01
6.780000000000000471e-01,3.195219109854915973e-01,-2.330966465886106787e-01,-1.779566272696752605e-01
6.790000000000000480e-01,3.127583523424785072e-01,-2.646424836545723247e-01,-2.037950212578212017e-01
6.800000000000000488e-01,2.566413304680875140e-01,-2.131176319555221910e-01,-1.346232243227412917e-01
6.810000000000000497e-01,1.522398861418663152e-01,-1.218326885812547611e-01,-7.649340332524015573e-02
6.820000000000000506e-01,1.151653307912453052e-02,-3.052525910733733944e-02,-1.455810128589181060e-02
6.830000000000000515e-01,-1.062796757682542143e-01,7.113985024692517922e-02,8.311444247131781482e-02
6.840000000000000524e-01,-2.383005212215613400e-01,2.088240941187466393e-01,1.484938659425199259e-01
6.850000000000000533e-01,-2.933172686496319237e-01,2.326622815031858249e-01,2.074389560215362249e-01
6.860000000000000542e-01,-3.074069517557351805e-01,2.605757623254261190e-01,1.996137905984015914e-01
6.870000000000000551e-01,-2.708026597888971154e-01,2.344357776336652988e-01,1.410325873212831538e-01
6.879999999999999449e-01,-1.607197795788667116e-01,1.372959683338456638e-01,1.002371354584332130e-01
6.889999999999999458e-01,-4.622261530550280523e-02,2.328807992274476227e-02,4.836090655995508268e-03
6.899999999999999467e-01,1.179446147475696066e-01,-9.513237058228167509e-02,-1.038491219897416246e-01
6.909999999999999476e-01,2.353165295111965538e-01,-1.765350661196636306e-01,-1.355759315562085066e-01
6.919999999999999485e-01,2.967274287471286520e-01,-2.483101239848135855e-01,-1.836693049916472142e-01
6.929999999999999494e-01,3.080202036398250187e-01,-2.572671004713867893e-01,-1.695667256167870396e-01
6.939999999999999503e-01,2.711324564116026625e-01,-2.078360299390956956e-01,-1.682076778159856678e-01
6.949999999999999512e-01,1.727053163019417192e-01,-1.256313789617271581e-01,-9.506366958476961115e-02
6.959999999999999520e-01,2.619075274385276441e-03,-2.986428885709655964e-02,-7.091564753151737878e-03
6.969999999999999529e-01,-1.243161078517163315e-01,1.019339669896432987e-01,5.993898262323152371e-02
6.979999999999999538e-01,-2.470122300007794314e-01,1.987241174062372162e-01,1.259160296223952591e-01
6.989999999999999547e-01,-3.088042151426627635e-01,2.154643668589923400e-01,1.847853918859795053e-01
6.999999999999999556e-01,-3.429477579770500717e-01,2.613788681390021296e-01,2.055864972147988523e-01
7.009999999999999565e-01,-2.870379203428529147e-01,2.253656667258259194e-01,1.561290724928590945e-01
7.019999999999999574e-01,-2.005951954977788498e-01,1.296085714211046291e-01,9.156815850923960554e-02
7.029999999999999583e-01,-3.664561961330850548e-02,2.409608753150680946e-02,2.018675422096881736e-02
7.039999999999999591e-01,1.253496917907465091e-01,-8.294447837177150451e-02,-4.320695475348931142e-02
7.049999999999999600e-01,2.208826221068837803e-01,-1.911466784285544562e-01,-1.346440260491724994e-01
7.059999999999999609e-01,2.922887407524797365e-01,-2.803012498805776409e-01,-1.631592093863123982e-01
7.069999999999999618e-01,3.373972109380289353e-01,-2.383605971997053707e-01,-1.908331888554083700e-01
7.079999999999999627e-01,2.784118813798611147e-01,-1.990630977842667848e-01,-1.550144565671838781e-01
7.089999999999999636e-01,1.805467386837768529e-01,-1.262079407547213039e-01,-1.088504876050355730e-01
7.099999999999999645e-01,2.536876572455627754e-02,-1.248606468672386859e-02,-4.538245621741902880e-02
7.109999999999999654e-01,-8.703777770952418613e-02,7.979544266957962206e-02,3.523616619189682414e-02
7.119999999999999662e-01,-1.908308466268969772e-01,2.030748325607970028e-01,1.267911089401388136e-01
7.129999999999999671e-01,-3.138233223759436252e-01,2.451040912682807549e-01,1.636164892800339721e-01
7.139999999999999680e-01,-3.002821247089423329e-01,2.631949529085007566e-01,2.081117149557317747e-01
7.149999999999999689e-01,-2.813663296305016770e-01,2.079039568322179066e-01,1.677850510863699851e-01
7.159999999999999698e-01,-1.811192652222096966e-01,1.389606106587661649e-01,1.270140278424376212e-01
7.169999999999999707e-01,-4.538738797008764342e-02,2.131540837569563529e-02,3.978273138141418669e-02
7.179999999999999716e-01,8.992486955276803029e-02,-9.755219855870672641e-02,-3.476574441247156505e-02
7.189999999999999725e-01,2.229514359167880377e-01,-1.795596756082861456e-01,-1.187081510191807243e-01
7.199999999999999734e-01,3.099591216460188536e-01,-2.531589876658431049e-01,-1.560125875304908261e-01
7.209999999999999742e-01,3.222301151180493317e-01,-2.471100028139631422e-01,-1.912329206119534331e-01
7.219999999999999751e-01,2.597243318454462435e-01,-2.007110198813764068e-01,-1.851446566541447569e-01
7.229999999999999760e-01,1.974444058490467946e-01,-1.313942133349911279e-01,-1.005487486672033415e-01
7.239999999999999769e-01,3.655837168135096793e-02,-2.380909060504106389e-02,-2.289891341723248805e-02
7.249999999999999778e-01,-1.023122476706929962e-01,1.189319472710340109e-01,2.354354732086551272e-02
7.259999999999999787e-01,-2.330252375417788957e-01,2.060461096916275658e-01,1.084303645657839904e-01
7.269999999999999796e-01,-3.164048602094671203e-01,2.469604008380583415e-01,1.667661297677327237e-01
7.279999999999999805e-01,-3.386832615140973335e-01,2.744224338314584233e-01,2.014630752546389125e-01
7.289999999999999813e-01,-2.974410252849170599e-01,2.031181592840837491e-01,1.744362063921715833e-01
7.299999999999999822e-01,-1.927253243783177417e-01,1.003234803714873613e-01,1.298282233893388038e-01
7.309999999999999831e-01,-5.019998856384166180e-02,1.275955019074280147e-02,6.563494011783942150e-02
7.319999999999999840e-01,5.479174816027897188e-02,-6.003857681656236955e-02,-3.411043583186625788e-02
7.329999999999999849e-01,2.136323478966037359e-01,-2.152085342220890762e-01,-9.281701600127030549e-02
7.339999999999999858e-01,3.009875557337337026e-01,-2.578711899396498031e-01,-1.597585543374442085e-01
7.349999999999999867e-01,3.226601600807615378e-01,-2.662638693377684107e-01,-2.152151405038322252e-01
7.359999999999999876e-01,2.541889577703815850e-01,-1.876767799985446239e-01,-1.727135529844561201e-01
7.369999999999999885e-01,1.730244730673791698e-01,-1.206739724587916618e-01,-1.306743939956452605e-01
7.379999999999999893e-01,5.584681223127261479e-02,-1.655150497648106081e-02,-8.476836039902105324e-02
7.389999999999999902e-01,-8.213503481991911437e-02,1.176402950449186718e-01,2.738564885798490389e-02
7.399999999999999911e-01,-1.901050624112593790e-01,1.982957002672122437e-01,1.030819185808066335e-01
7.409999999999999920e-01,-2.792625559174604088e-01,2.395048893745110041e-01,1.644664302220347485e-01
7.419999999999999929e-01,-3.112219196836735757e-01,2.626010750749828149e-01,1.913592092573311865e-01
7.429999999999999938e-01,-2.828139222970227906e-01,1.947235869344327575e-01,1.972390432793864889e-01
7.439999999999999947e-01,-1.937541633591288448e-01,1.084035128359238653e-01,1.672452500158347899e-01
7.449999999999999956e-01,-6.456132211505641316e-02,-4.611651655371274208e-03,6.843587796085677522e-02
7.459999999999999964e-01,9.517269739114055105e-02,-1.269775968877126515e-01,1.246601341505550707e-02
7.469999999999999973e-01,2.083842786961777882e-01,-2.272610581353236847e-01,-9.830994350984177677e-02
7.479999999999999982e-01,2.985566764136504680e-01,-2.510202467416109418e-01,-1.675905752136857829e-01
7.489999999999999991e-01,3.170363087949191194e-01,-2.381334000826199060e-01,-1.493677646379186208e-01
7.500000000000000000e-01,3.009970554803418907e-01,-1.913228948886186165e-01,-1.855001940240185720e-01
7.510000000000000009e-01,2.109761080896460084e-01,-1.226409529242654672e-01,-1.647045847549402087e-01
7.520000000000000018e-01,5.263645389389691454e-02,4.322413469030800086e-03,-1.092134934808280111e-01
7.530000000000000027e-01,-7.176014068354569231e-02,1.044364522779588911e-01,-9.033222579850215192e-03
7.540000000000000036e-01,-2.094895025498655639e-01,1.942010641844127417e-01,6.350567030008497094e-02
7.550000000000000044e-01,-2.762518184243600294e-01,2.239901373667463891e-01,1.448132091834101465e-01
7.560000000000000053e-01,-3.194015182928612862e-01,2.459583068417887375e-01,1.890590908261511049e-01
7.570000000000000062e-01,-2.822842813911022875e-01,1.922724386656279039e-01,1.854057140028042838e-01
7.580000000000000071e-01,-1.841284686675383198e-01,8.549236691221349937e-02,1.649395572875023419e-01
7.590000000000000080e-01,-8.674858223306250449e-02,-2.071194309444854970e-02,7.189972674903502559e-02
7.600000000000000089e-01,8.864913928635774487e-02,-9.180058626360541874e-02,1.972867770742208621e-02
7.610000000000000098e-01,1.876375832329760796e-01,-1.914772146460859137e-01,-6.347378159981030554e-02
7.620000000000000107e-01,2.840563646063209435e-01,-2.522978908115532937e-01,-1.454751605392843594e-01
7.630000000000000115e-01,3.246777613160128917e-01,-2.379456047417689013e-01,-2.051993891244905110e-01
7.640000000000000124e-01,2.522547282194149698e-01,-1.785859617409367717e-01,-1.784662010940876176e-01
7.650000000000000133e-01,1.870795660137881677e-01,-9.463938794100956731e-02,-1.482489664521427497e-01
7.660000000000000142e-01,9.166665325197087544e-02,-1.038942502579509250e-02,-1.180878199839181519e-01
7.670000000000000151e-01,-4.933707682000612604e-02,1.151140872041251095e-01,-1.597119679943801579e-02
7.680000000000000160e-01,-1.718661821720371685e-01,2.185585096559665708e-01,5.279675585822266037e-02
7.690000000000000169e-01,-2.866280863954511204e-01,2.348341352803599291e-01,1.313536254784438972e-01
7.700000000000000178e-01,-3.165350251831393624e-01,2.253828717851917018e-01,2.021955400068520259e-01
7.710000000000000187e-01,-2.837132008476962453e-01,1.884346881638386262e-01,1.710575390783903027e-01
7.720000000000000195e-01,-1.975824195396038707e-01,1.195682682334274771e-01,1.703519043445793635e-01
7.730000000000000204e-01,-7.514241069759454439e-02,-4.627421793319174553e-02,1.145923349679951325e-01
7.740000000000000213e-01,4.223627816753595943e-02,-9.589160130114272873e-02,2.357868864736228573e-02
7.750000000000000222e-01,1.649569660881645139e-01,-1.825484936785712609e-01,-8.230513064700721582e-02
7.760000000000000231e-01,2.807692076256937397e-01,-2.554161073101085533e-01,-1.231764882672600203e-01
7.770000000000000240e-01,3.133190150546143471e-01,-2.319057750172887344e-01,-1.831437276693439475e-01
7.780000000000000249e-01,3.099833444607623112e-01,-2.086943897712990603e-01,-1.925824900006578577e-01
7.790000000000000258e-01,2.035060364300365077e-01,-9.575624839041015079e-02,-1.594091791726735263e-01
7.800000000000000266e-01,9.207422089377151342e-02,1.568808323832075746e-02,-1.011830566037222878e-01
7.810000000000000275e-01,-6.305434917840993525e-02,1.207177905166927773e-01,-2.401757868728150724e-02
7.820000000000000284e-01,-2.078786281594154628e-01,2.077086038551190228e-01,4.358268455291223337e-02
7.830000000000000293e-01,-2.797895539834864276e-01,2.508199938658156603e-01,1.214314019130966482e-01
7.840000000000000302e-01,-3.263864512508861115e-01,2.356541907526688850e-01,1.659303084225827174e-01
7.850000000000000311e-01,-3.049141508969933634e-01,1.844659427235617877e-01,1.877531249612492958e-01
7.860000000000000320e-01,-2.375730592356496418e-01,1.030595477913527208e-01,1.685903708446596094e-01
7.870000000000000329e-01,-9.166798605140059897e-02,-1.406162042522881780e-02,1.089569955753860592e-01
7.880000000000000338e-01,4.267992445283653319e-02,-1.068414695767701678e-01,4.565999706411837111e-02
7.890000000000000346e-01,1.869942621007413264e-01,-2.175999650022420739e-01,-3.423705386283525109e-02
7.900000000000000355e-01,2.770880164925915157e-01,-2.543672973248863323e-01,-1.124661938444759118e-01
7.910000000000000364e-01,3.219358540523787893e-01,-2.216065481494502443e-01,-1.804858897270707474e-01
7.920000000000000373e-01,2.917741057488301704e-01,-1.785852567859512463e-01,-1.862169826639926418e-01
7.930000000000000382e-01,2.107126722187563916e-01,-8.390676941951401291e-02,-1.734753081436228583e-01
7.940000000000000391e-01,1.033871577043055517e-01,2.082018684101542838e-02,-1.350243622317627845e-01
7.950000000000000400e-01,-4.498526092228672529e-02,1.145156297907173604e-01,-6.951248800577436437e-02
7.960000000000000409e-01,-1.688960683718551681e-01,2.169946957918418851e-01,4.156217180332367339e-02
7.970000000000000417e-01,-2.826550967439712680e-01,2.728108250494936660e-01,1.086742298723159528e-01
7.980000000000000426e-01,-3.101654402628026830e-01,2.610929789088890507e-01,1.576224144055910770e-01
7.990000000000000435e-01,-3.042007118209280603e-01,1.634665816696253826e-01,1.858684789820683192e-01
8.000000000000000444e-01,-2.319310286942135035e-01,7.938623066474148615e-02,1.642716635347347964e-01
8.010000000000000453e-01,-1.052904949528323808e-01,-5.166543631623100874e-02,1.231159034512404327e-01
8.020000000000000462e-01,5.235469746499705340e-02,-1.697576754950970157e-01,7.233776919374194925e-02
8.030000000000000471e-01,1.650153992371901912e-01,-2.379086381599533062e-01,-5.032651773313818327e-03
8.040000000000000480e-01,2.679627706748056171e-01,-2.518175612918940320e-01,-1.104092448560800577e-01
8.050000000000000488e-01,3.005235300484729311e-01,-2.322385940151989181e-01,-1.644232076930062236e-01
8.060000000000000497e-01,3.159049132492728895e-01,-1.866747994039118785e-01,-1.875039259114414658e-01
8.070000000000000506e-01,2.254173808696793568e-01,-8.968371250556768370e-02,-1.651340121235493896e-01
8.080000000000000515e-01,1.009087876772291337e-01,1.545097686010879837e-02,-1.368641659240879549e-01
8.090000000000000524e-01,-2.822550774734846474e-02,1.236131484683207354e-01,-6.603363419865254658e-02
8.100000000000000533e-01,-1.601097258766515652e-01,2.029867092212218338e-01,1.111629735538408222e-02
8.110000000000000542e-01,-2.540716252724197211e-01,2.231100420184175814e-01,1.003877612688469645e-01
8.120000000000000551e-01,-3.131485313940599591e-01,2.256048368116655434e-01,1.402136339483033012e-01
8.129999999999999449e-01,-2.994512389842626798e-01,1.850843595414835008e-01,1.589542564311607620e-01
8.139999999999999458e-01,-2.280248671925307058e-01,7.451383377480273740e-02,1.984335407021062536e-01
8.149999999999999467e-01,-1.116095431255697545e-01,-4.462041111158334544e-02,1.254568795377048185e-01
8.159999999999999476e-01,6.132859208579960475e-02,-1.532216656858386428e-01,9.954567195711168381e-02
8.169999999999999485e-01,1.687307446414947343e-01,-2.080795663121122741e-01,-1.116821202306961941e-02
8.179999999999999494e-01,2.526923176315444830e-01,-2.545880406280489061e-01,-8.588817114657663898e-02
8.189999999999999503e-01,3.217285440283233489e-01,-2.421075601057137705e-01,-1.379238228018911383e-01
8.199999999999999512e-01,3.026481060712648552e-01,-1.655723980741572732e-01,-1.900040554099071688e-01
8.209999999999999520e-01,2.262444763692509908e-01,-8.742366425621403425e-02,-1.976344523633600248e-01
8.219999999999999529e-01,1.178356912482246832e-01,4.013139995841406155e-02,-1.432366833608290091e-01
8.229999999999999538e-01,-1.521320371840708015e-03,1.424810465607576349e-01,-9.303709567686116455e-02
8.239999999999999547e-01,-1.648086771596667943e-01,2.249113152766109014e-01,-1.006955648277866634e-02
8.249999999999999556e-01,-2.524147270063505366e-01,2.330431246914321797e-01,9.311200616468347235e-02
8.259999999999999565e-01,-3.033191138855277913e-01,2.237119382568511783e-01,1.500847517892844873e-01
8.269999999999999574e-01,-3.256125620075951410e-01,1.773352707318844590e-01,1.755254148624910693e-01
8.279999999999999583e-01,-2.514026620213470897e-01,4.568424459657004222e-02,1.868581222816333154e-01
8.289999999999999591e-01,-1.125744175244716427e-01,-2.540814407750699444e-02,1.458807920297333360e-01
8.299999999999999600e-01,3.795473140789058526e-03,-1.277651103112323328e-01,8.351780767556071794e-02
8.309999999999999609e-01,1.617600469607707037e-01,-2.149165910940595003e-01,2.433583418080796645e-02
8.319999999999999618e-01,2.604237588185139840e-01,-2.568646240340546893e-01,-7.592439748949347811e-02
8.329999999999999627e-01,3.116420020981975902e-01,-2.105485493920407347e-01,-1.304359923274455990e-01
8.339999999999999636e-01,3.152121751806837846e-01,-1.753089720569800669e-01,-1.767081178851528378e-01
8.349999999999999645e-01,2.475745529552446644e-01,-5.264200731659649662e-02,-1.904525449322492514e-01
8.359999999999999654e-01,1.036569689823793744e-01,6.696258853889855422e-02,-1.676112357251944573e-01
8.369999999999999662e-01,-2.362728671656938451e-02,1.491216978799795589e-01,-9.791221305727622337e-02
8.379999999999999671e-01,-1.578254941586963722e-01,2.078920328872653767e-01,-1.498954318175536697e-02
8.389999999999999680e-01,-2.666029442080248280e-01,2.589859835026288026e-01,4.325601923437611546e-02
8.399999999999999689e-01,-3.086021961552129489e-01,2.247502332149992066e-01,1.362391012223267972e-01
8.409999999999999698e-01,-3.115234545581510028e-01,1.695744201943900076e-01,1.753044891360442947e-01
8.419999999999999707e-01,-2.544392861112544368e-01,4.860346574612879611e-02,1.827560678415743323e-01
8.429999999999999716e-01,-1.268693493603731404e-01,-5.975479041015924891e-02,1.790708430538516249e-01
8.439999999999999725e-01,9.318983229476603819e-03,-1.605832088382217471e-01,1.081737674273292038e-01
8.449999999999999734e-01,1.623707322368664052e-01,-2.328097265982824182e-01,4.494005907367822766e-02
8.459999999999999742e-01,2.483756968127302511e-01,-2.469923276679459045e-01,-4.540468842770234437e-02
8.469999999999999751e-01,2.909393235511619213e-01,-2.230112204451060176e-01,-1.306080647945398188e-01
8.479999999999999760e-01,3.167971460271132300e-01,-1.629988735306396319e-01,-1.593146680355069233e-01
8.489999999999999769e-01,2.633780805793854984e-01,-4.603787095209758290e-02,-1.882859628901644433e-01
8.499999999999999778e-01,1.363654079856253254e-01,5.714854836087616963e-02,-1.822306190645462121e-01
8.509999999999999787e-01,-1.160263673738750646e-02,1.665162206042199722e-01,-1.375483860150493176e-01
8.519999999999999796e-01,-1.321706668368970994e-01,2.250836101749053020e-01,-3.835501817668061919e-02
8.529999999999999805e-01,-2.205798190981115847e-01,2.464640162231605536e-01,5.180401958333275686e-02
8.539999999999999813e-01,-3.076958714041087561e-01,2.138718893949782818e-01,1.296804274439735671e-01
8.549999999999999822e-01,-3.117025625421642743e-01,1.720389329879516982e-01,1.493562298305027292e-01
8.559999999999999831e-01,-2.254537268539430206e-01,4.954442720984020276e-02,2.048913059305653150e-01
8.569999999999999840e-01,-1.347379476707958046e-01,-3.681505770505159175e-02,1.846454267864112153e-01
8.579999999999999849e-01,-1.353937633099923377e-02,-1.658141529778386081e-01,1.083077029948299186e-01
8.589999999999999858e-01,1.614819791056008869e-01,-2.344083137897777225e-01,4.698802352015891970e-02
8.599999999999999867e-01,2.461900437467211544e-01,-2.430772948074911288e-01,-4.165940232109054814e-02
8.609999999999999876e-01,3.112487525227521368e-01,-2.302971105867095969e-01,-1.145961415624324187e-01
8.619999999999999885e-01,3.133595610207013937e-01,-1.497883206535176870e-01,-1.677541564535801888e-01
8.629999999999999893e-01,2.557195321475614347e-01,-5.671399978379473156e-02,-2.005988040002643635e-01
8.639999999999999902e-01,1.267682779668722337e-01,6.596442640389940659e-02,-1.818728591366965130e-01
8.649999999999999911e-01,-2.059593421680656206e-02,1.775494902637400341e-01,-1.408865057573363000e-01
8.659999999999999920e-01,-1.366656636079242593e-01,2.376272075788728455e-01,-5.135654492293338647e-02
8.669999999999999929e-01,-2.421939073804193765e-01,2.399179482210972436e-01,2.829991533583813695e-02
8.679999999999999938e-01,-3.017163579532024520e-01,2.313695002969266001e-01,6.719861041582234074e-02
8.689999999999999947e-01,-3.184467112660005483e-01,1.656799795718058299e-01,1.580599886152176947e-01
8.699999999999999956e-01,-2.412145476157558088e-01,3.709778512250648530e-02,1.913878829482115462e-01
8.709999999999999964e-01,-1.652350912641902814e-01,-8.762186643336504488e-02,1.945527165888601973e-01
8.719999999999999973e-01,-3.113082545092198464e-02,-1.757230741592820944e-01,1.489774967691254726e-01
8.729999999999999982e-01,9.930629146410530073e-02,-2.292540588089528042e-01,7.006608328000053787e-02
8.739999999999999991e-01,2.612629217179153196e-01,-2.558964958875377671e-01,-6.255644504010907103e-03
8.750000000000000000e-01,3.217275603501529857e-01,-2.223013652018124287e-01,-1.054358020644921290e-01
8.760000000000000009e-01,3.311767479146022208e-01,-1.515974971710957186e-01,-1.757183368488232089e-01
8.770000000000000018e-01,2.667030357409130858e-01,-6.153310596235338908e-02,-2.049169081675694670e-01
8.780000000000000027e-01,1.611107970176761384e-01,7.406698980355769235e-02,-1.859305858087559049e-01
8.790000000000000036e-01,3.177631822213614239e-03,1.669200898620533946e-01,-1.465419414787116903e-01
8.800000000000000044e-01,-1.265002242026418144e-01,2.563836084372669855e-01,-6.151985526913943819e-02
8.810000000000000053e-01,-2.678181546752866904e-01,2.497040787689777108e-01,4.853446083296474728e-03
8.820000000000000062e-01,-2.909091602389698994e-01,2.430376905196626469e-01,9.806795573166422753e-02
8.830000000000000071e-01,-3.276329470146553957e-01,1.448356288730257291e-01,1.643071691641080911e-01
8.840000000000000080e-01,-2.801581312263025092e-01,4.280268023766634067e-02,1.976802552348009556e-01
8.850000000000000089e-01,-1.681182435057385627e-01,-7.346304500246422786e-02,2.011358860548479732e-01
8.860000000000000098e-01,-2.712644112146975900e-02,-1.776489385112007824e-01,1.513211933564499734e-01
8.870000000000000107e-01,1.171538124193018116e-01,-2.446093280189094721e-01,9.810494031899617828e-02
8.880000000000000115e-01,2.489188454763734959e-01,-2.408125221556076667e-01,-6.888282490871838748e-03
8.890000000000000124e-01,3.012119462725554309e-01,-2.421462162095294746e-01,-6.693666646611164117e-02
8.900000000000000133e-01,3.196221309402078048e-01,-1.348856783532004777e-01,-1.418054137417490146e-01
8.910000000000000142e-01,2.479448328878526564e-01,-2.573316845193501096e-02,-1.861607517832196690e-01
8.920000000000000151e-01,1.784015854182448568e-01,6.333969569254513376e-02,-1.940287182602927485e-01
8.930000000000000160e-01,8.298485997895286778e-03,1.927878309536797119e-01,-1.829617442227916280e-01
8.940000000000000169e-01,-1.216552158688686963e-01,2.408970757086662251e-01,-7.097890856137638316e-02
8.950000000000000178e-01,-2.487064307800817831e-01,2.429704205235046766e-01,-1.630783138966845425e-03
8.960000000000000187e-01,-3.170517010363108623e-01,2.215532730215575563e-01,7.565864201726704708e-02
8.970000000000000195e-01,-3.179321370952715164e-01,1.335879704356001119e-01,1.470555245915819154e-01
8.980000000000000204e-01,-2.478492801071478790e-01,1.279689925787348866e-02,1.653728145595880772e-01
8.990000000000000213e-01,-1.577439860851308218e-01,-8.963026065716336865e-02,2.029836059686526972e-01
9.000000000000000222e-01,-6.759674169363119600e-02,-1.941727770390143659e-01,1.682357449438341146e-01
9.010000000000000231e-01,8.247911368145453836e-02,-2.052719610751383705e-01,1.239615993048442388e-01
9.020000000000000240e-01,2.304431457577050257e-01,-2.833827430383709101e-01,4.313684248431397771e-03
9.030000000000000249e-01,3.168325910810627088e-01,-2.255661872464089779e-01,-5.649138411549167738e-02
9.040000000000000258e-01,3.108652354705068177e-01,-1.261523192668196625e-01,-1.124126847929537987e-01
9.050000000000000266e-01,2.858841914435507059e-01,-2.275271494810432449e-02,-1.694643580330304766e-01
9.060000000000000275e-01,1.577074284568914520e-01,1.028266944818783113e-01,-1.906187017460820310e-01
9.070000000000000284e-01,2.577396417551036309e-02,1.726400588662188040e-01,-1.846523923102275644e-01
9.080000000000000293e-01,-1.057189376254105140e-01,2.504529956545070157e-01,-9.327860420306785527e-02
9.090000000000000302e-01,-2.154928579800305943e-01,2.508525936884382634e-01,-1.961763349190110209e-02
9.100000000000000311e-01,-2.733609102450289541e-01,2.204136715831643278e-01,4.122376731979034842e-02
9.110000000000000320e-01,-3.003891045210771993e-01,1.214113143223024827e-01,1.531529027539290655e-01
9.120000000000000329e-01,-2.742140781876176714e-01,5.122533531163281362e-02,1.623635812254358990e-01
9.130000000000000338e-01,-1.724011779010407863e-01,-6.818776441262144883e-02,1.991222477866215201e-01
9.140000000000000346e-01,-6.923462479994497987e-02,-1.821241003954151561e-01,1.771046999587337911e-01
9.150000000000000355e-01,8.753925704275460074e-02,-2.549766091433697812e-01,1.273949432941002546e-01
9.160000000000000364e-01,2.179162719702002204e-01,-2.544470017990093091e-01,3.663933081440189782e-02
9.170000000000000373e-01,2.995652921882767661e-01,-2.162916257629206307e-01,-3.698251934169854288e-02
9.180000000000000382e-01,3.119077866964837242e-01,-1.163227705281116159e-01,-1.190352229084770813e-01
9.190000000000000391e-01,2.693003759170922162e-01,6.621425107528303329e-03,-1.767263799606619001e-01
9.200000000000000400e-01,1.720096419221485429e-01,1.179275026328885367e-01,-2.026760290684516130e-01
9.210000000000000409e-01,6.255499124792855692e-02,1.897163987800628560e-01,-1.637285067331891442e-01
9.220000000000000417e-01,-8.041994816345371389e-02,2.740911288306332461e-01,-1.185016328215761083e-01
9.230000000000000426e-01,-1.988971396218782162e-01,2.683738474285136677e-01,-4.039478478192803229e-02
9.240000000000000435e-01,-2.955022345067566669e-01,2.177558410931397237e-01,3.878505315771235001e-02
9.250000000000000444e-01,-3.265327182394176520e-01,1.319171980336561467e-01,1.121734012359189570e-01
9.260000000000000453e-01,-2.721569502505099547e-01,2.264867837873185338e-02,1.648800074882516564e-01
9.270000000000000462e-01,-1.882444748260036493e-01,-1.144973632577681033e-01,2.018013589939514352e-01
9.280000000000000471e-01,-7.194117084327386613e-02,-2.108120997284020914e-01,1.562855207066363439e-01
9.290000000000000480e-01,6.591026312200919113e-02,-2.484424295132125482e-01,1.379518691372032257e-01
9.300000000000000488e-01,2.365265741517379172e-01,-2.344188925033942328e-01,7.639118310068963857e-02
9.310000000000000497e-01,2.802442721066213394e-01,-2.056917880923758990e-01,-1.613374721469418641e-02
9.320000000000000506e-01,3.227261992512115985e-01,-1.262575627035436576e-01,-1.012607112354869249e-01
9.330000000000000515e-01,2.733402584755875164e-01,-1.376785731841643004e-02,-1.978879139106100860e-01
9.340000000000000524e-01,1.891031915677102160e-01,1.016174214215372629e-01,-1.801488392008830097e-01
9.350000000000000533e-01,4.117813678406805761e-02,2.110749483467070087e-01,-1.813723384871046840e-01
9.360000000000000542e-01,-1.014171446536167726e-01,2.802581953272023085e-01,-1.399132264051259622e-01
9.370000000000000551e-01,-2.088942329115708874e-01,2.623639307944071186e-01,-4.095274823140550996e-02
9.379999999999999449e-01,-3.065581348063465272e-01,2.062667339577350933e-01,2.060201934689238554e-02
9.389999999999999458e-01,-3.339148808206398589e-01,1.269933901170753054e-01,1.201996148793026686e-01
9.399999999999999467e-01,-2.854969117314392624e-01,-1.280724152849670172e-02,1.345087396140920433e-01
9.409999999999999476e-01,-1.866039002274856584e-01,-1.269969463498849815e-01,1.685284073323441156e-01
9.419999999999999485e-01,-7.446180226910416311e-02,-2.006959467154225407e-01,1.828162022078642923e-01
9.429999999999999494e-01,7.845177627042514146e-02,-2.474750444239386393e-01,1.393032015332668905e-01
9.439999999999999503e-01,2.114386430837932873e-01,-2.651666868980286362e-01,8.910518631750759255e-02
9.449999999999999512e-01,2.726026588065848522e-01,-1.867559654546228631e-01,8.345195702797587184e-03
9.459999999999999520e-01,3.033875642907971071e-01,-1.007971006987939122e-01,-9.791488461602358695e-02
9.469999999999999529e-01,2.808177970743184759e-01,2.018498382700915569e-02,-1.804057189026522512e-01
9.479999999999999538e-01,2.199364322452470322e-01,9.361803865159816496e-02,-1.859782031293896465e-01
9.489999999999999547e-01,5.715282069880024685e-02,1.971205190578208533e-01,-1.974886910348322144e-01
9.499999999999999556e-01,-7.238500757404595087e-02,2.568344251076478124e-01,-1.571813424427330741e-01
9.509999999999999565e-01,-1.893159786858453764e-01,2.520916159987932614e-01,-6.962788255946061877e-02
9.519999999999999574e-01,-2.969374424182266714e-01,2.071385713995619327e-01,-4.993357403652115556e-03
9.529999999999999583e-01,-3.072541198172554222e-01,1.138769336585279540e-01,7.316917587832502679e-02
9.539999999999999591e-01,-2.866060086391939432e-01,1.947510387329322431e-03,1.386506861705153471e-01
9.549999999999999600e-01,-2.130302521546535988e-01,-1.030057608761590360e-01,1.687520741035396787e-01
9.559999999999999609e-01,-1.019364873984894559e-01,-2.001133568786571948e-01,1.567904713058820010e-01
9.569999999999999618e-01,7.662799988817237118e-02,-2.426373056428897390e-01,1.643111153582881845e-01
9.579999999999999627e-01,1.786099019069874727e-01,-2.548307691824379106e-01,1.080843496210365656e-01
9.589999999999999636e-01,2.981472049623606346e-01,-1.804431230074203807e-01,2.194820762763739427e-02
9.599999999999999645e-01,2.993697525669799520e-01,-1.264519581005660864e-01,-6.176211128111547266e-02
9.609999999999999654e-01,3.059472270968833785e-01,2.599211912869447277e-03,-1.454618221118645638e-01
9.619999999999999662e-01,2.168009987859954024e-01,1.188534490540641420e-01,-1.724151124861268425e-01
9.629999999999999671e-01,7.888079825212486462e-02,1.733871972521394966e-01,-1.847558113573488647e-01
9.639999999999999680e-01,-8.071238420285747894e-02,2.589922287091144248e-01,-1.509713853319833432e-01
9.649999999999999689e-01,-1.833136907101180768e-01,2.360462170027344819e-01,-9.720980178373316016e-02
9.659999999999999698e-01,-2.677432734021779615e-01,2.025413163762115054e-01,-3.994721966085225395e-02
9.669999999999999707e-01,-3.177440268945454505e-01,1.172544820711733937e-01,5.259486526169181858e-02
9.679999999999999716e-01,-2.759484539814605064e-01,-2.551938903841676973e-02,1.611327670293448144e-01
9.689999999999999725e-01,-1.920335937246418490e-01,-1.393526413095114991e-01,1.726289828143480476e-01
9.699999999999999734e-01,-7.159738369487952947e-02,-1.964712420981155616e-01,1.964167404333256872e-01
9.709999999999999742e-01,5.142751479748146337e-02,-2.411330762062495192e-01,1.857579494367864181e-01
9.719999999999999751e-01,1.925070846141099246e-01,-2.474053208291590589e-01,1.103623687873273307e-01
9.729999999999999760e-01,2.780315013029757698e-01,-1.829175654289443009e-01,3.391769932710370777e-02
9.739999999999999769e-01,3.337384867081164552e-01,-1.058072355223964450e-01,-7.654961794753688265e-02
9.749999999999999778e-01,3.255910462059162236e-01,-1.956197310452187192e-03,-1.355191132227713813e-01
9.759999999999999787e-01,1.957749383565138557e-01,1.233305919278056273e-01,-1.930623986955335714e-01
9.769999999999999796e-01,8.595201019752167493e-02,2.083878247107317783e-01,-1.418980349734433322e-01
9.779999999999999805e-01,-5.009807738646492037e-02,2.353401031925591025e-01,-1.888765775411820891e-01
9.789999999999999813e-01,-2.154128693799202132e-01,2.450147951866251672e-01,-1.233722158091233312e-01
9.799999999999999822e-01,-2.757805820148248599e-01,1.906622014836741597e-01,-3.944822155666011243e-02
9.809999999999999831e-01,-3.246801136588066128e-01,9.654405346719345526e-02,6.012601064921914429e-02
9.819999999999999840e-01,-2.730039187820486046e-01,-1.312390301218249213e-02,1.305424201663796524e-01
9.829999999999999849e-01,-2.152912571324870905e-01,-1.442224248730492320e-01,1.524564463737182740e-01
9.839999999999999858e-01,-1.147910034674511914e-01,-2.032336404957002518e-01,1.778831469940297949e-01
9.849999999999999867e-01,4.706653289353216613e-02,-2.649770296916997836e-01,1.732308953578881594e-01
9.859999999999999876e-01,1.672888495151226840e-01,-2.504835685966810832e-01,1.072622335522682713e-01
9.869999999999999885e-01,2.852122220310630007e-01,-1.911882934089990105e-01,6.880292335166862672e-02
9.879999999999999893e-01,3.294443091673311952e-01,-9.830022176313198135e-02,-1.615880069821730436e-02
9.889999999999999902e-01,3.142744346356103335e-01,2.835479165289350734e-02,-1.062363520187398630e-01
9.899999999999999911e-01,2.174154935821068502e-01,1.294243214987941537e-01,-1.623832949835795625e-01
9.909999999999999920e-01,1.007349763110774316e-01,2.114604292024546417e-01,-1.899266105211010747e-01
9.919999999999999929e-01,-3.340515616155326911e-02,2.528953176729595853e-01,-1.624492407831518437e-01
9.929999999999999938e-01,-1.763000826902586526e-01,2.229862240765703718e-01,-1.302191641940835531e-01
9.939999999999999947e-01,-2.572438907607809133e-01,1.962442024607478908e-01,-3.268428953432981482e-02
9.949999999999999956e-01,-3.340175678012811122e-01,7.649010380134275977e-02,4.271396548673110638e-02
9.959999999999999964e-01,-3.047587231735119362e-01,-2.377675928785493581e-02,1.037051720576956382e-01
9.969999999999999973e-01,-2.113061397583593515e-01,-1.180899277193468155e-01,1.477260528408937956e-01
9.979999999999999982e-01,-9.099466639854358885e-02,-2.228287345816614973e-01,1.685520195641530272e-01
9.989999999999999991e-01,3.701645250367952694e-02,-2.376147896282298499e-01,1.903657225279380971e-01
1.000000000000000000e+00,1.546815921133920524e-01,-2.513078676487249252e-01,1.461364248046142789e-01
1.000999999999999890e+00,2.546302171696235850e-01,-1.671643385918805957e-01,7.178693751284977165e-02
1.002000000000000002e+00,3.167673581675070626e-01,-1.155403909020267794e-01,-3.141174328722061426e-02
1.002999999999999892e+00,3.032071284501496322e-01,3.656449586925717560e-02,-1.275542439720276366e-01
1.004000000000000004e+00,2.210173735072029078e-01,1.488296544133168586e-01,-1.572249003997154559e-01
1.004999999999999893e+00,1.231594915832029263e-01,2.138545699610206186e-01,-1.799803753573482601e-01
1.006000000000000005e+00,-4.715287148273233225e-02,2.400970004484224429e-01,-2.053907584649040663e-01
1.006999999999999895e+00,-1.559027200251840994e-01,2.783173877237658522e-01,-1.213473152672071981e-01
1.008000000000000007e+00,-2.738737044033963119e-01,2.025164498982109929e-01,-6.509247317556092483e-02
1.008999999999999897e+00,-3.308322481381157365e-01,9.513298785637488986e-02,5.462789656771421115e-03
1.010000000000000009e+00,-2.849979519102770475e-01,-3.280331703596612442e-02,1.042023730149919530e-01
1.010999999999999899e+00,-2.124845475787185134e-01,-1.579171200408402698e-01,1.646444206463554549e-01
1.012000000000000011e+00,-1.089105862045537665e-01,-2.014826549116316978e-01,1.820501271092612450e-01
1.012999999999999901e+00,4.065225776347611980e-02,-2.347269204723471114e-01,1.911953853323974661e-01
1.014000000000000012e+00,1.722150231975827228e-01,-2.468890196117295710e-01,1.674709961552140469e-01
1.014999999999999902e+00,2.719308730368755755e-01,-1.605625770961662813e-01,7.360815759266771396e-02
1.016000000000000014e+00,3.172078491189257443e-01,-7.851737725982947669e-02,-2.080972656129541007e-02
1.016999999999999904e+00,2.835798280539069682e-01,4.141967457533295843e-02,-7.839113834503240452e-02
1.018000000000000016e+00,2.572117766471885281e-01,1.482327967721148443e-01,-1.400488313661467643e-01
1.018999999999999906e+00,1.242122595997962875e-01,2.155269912267904486e-01,-2.063133800247928251e-01
1.020000000000000018e+00,-2.580251451105097099e-02,2.695856034099853304e-01,-1.981266795450249418e-01
1.020999999999999908e+00,-1.691797693071883935e-01,2.372364019474070829e-01,-1.460423304356047725e-01
1.022000000000000020e+00,-2.531976855061953136e-01,1.707357881481693374e-01,-9.233790571296114635e-02
1.022999999999999909e+00,-3.239100624833801678e-01,6.731698029016963680e-02,1.205437448442993505e-02
1.024000000000000021e+00,-3.042470566850674629e-01,-3.154861962021556637e-02,8.558673169498549893e-02
1.024999999999999911e+00,-2.359040307011620319e-01,-1.451234781006548458e-01,1.401785583724061424e-01
1.026000000000000023e+00,-1.168667499096480711e-01,-2.343802722506264369e-01,1.995395868852113952e-01
1.026999999999999913e+00,9.506293075741627241e-03,-2.699077498306068357e-01,1.878641794146734545e-01
1.028000000000000025e+00,1.585305541747923930e-01,-2.272043373447300563e-01,1.415686828677610032e-01
1.028999999999999915e+00,2.668562766313555268e-01,-2.011367690284227849e-01,7.071342915331917112e-02
1.030000000000000027e+00,3.238859872698959252e-01,-4.861021367794104986e-02,3.158483500376393915e-02
1.030999999999999917e+00,2.835172269579319670e-01,5.722583451087398521e-02,-4.933885131317902045e-02
1.032000000000000028e+00,2.359411623237626099e-01,1.425537897371876583e-01,-1.689549874291344511e-01
1.032999999999999918e+00,1.313552172840122823e-01,2.240927580136783948e-01,-2.022386562664567899e-01
1.034000000000000030e+00,-8.947022093723338773e-03,2.561726456487497527e-01,-1.897409890794035103e-01
1.034999999999999920e+00,-1.495606920652380878e-01,2.335740168028574426e-01,-1.631907097157194730e-01
1.036000000000000032e+00,-2.363284846552271834e-01,1.736425715888299248e-01,-1.168756084012925606e-01
1.036999999999999922e+00,-3.106127222609872951e-01,6.168295399332241608e-02,-1.352423200752836049e-02
1.038000000000000034e+00,-3.245707283769471707e-01,-5.564342095839115016e-02,9.038529151016380658e-02
1.038999999999999924e+00,-2.511701944380850260e-01,-1.610717884752641549e-01,1.452208257016365800e-01
1.040000000000000036e+00,-1.209996378385194693e-01,-2.226120678928394936e-01,1.739417492719565472e-01
1.040999999999999925e+00,-5.234501848855066877e-03,-2.505918250855912466e-01,1.924236820001356818e-01
1.042000000000000037e+00,1.637671646449780360e-01,-2.289866566724239327e-01,1.758506278756966357e-01
1.042999999999999927e+00,2.695945273177238755e-01,-1.503219332257795526e-01,1.151094416674174059e-01
1.044000000000000039e+00,3.181763240571853779e-01,-5.144155587297179894e-02,4.103206441413063260e-02
1.044999999999999929e+00,3.116991129765593893e-01,2.739149088370641458e-02,-6.297663594805430476e-02
1.046000000000000041e+00,2.398399655818690135e-01,1.488172467393365506e-01,-1.098626038669443528e-01
1.046999999999999931e+00,1.349004911517952543e-01,2.082354974686069504e-01,-1.983065569482312940e-01
1.048000000000000043e+00,-1.172759658177248247e-02,2.509768126354993689e-01,-1.827253627867114205e-01
1.048999999999999932e+00,-1.139958927513171349e-01,2.184333093117729052e-01,-1.773538600205643578e-01
1.050000000000000044e+00,-2.514800414612320401e-01,1.684081800734052448e-01,-1.140864300112544999e-01
1.050999999999999934e+00,-3.218426254358611183e-01,5.363512599538892978e-02,-2.453332095899381227e-02
1.052000000000000046e+00,-2.954177170039594680e-01,-6.587903562565007587e-02,4.151586126144390237e-02
1.052999999999999936e+00,-2.168806189372702864e-01,-1.661691015297407370e-01,9.773836962892616664e-02
1.054000000000000048e+00,-1.477831139318089848e-01,-2.339454430312662703e-01,1.694973804002138096e-01
1.054999999999999938e+00,1.211699013949759686e-02,-2.372937278192746025e-01,1.938145393673342265e-01
1.056000000000000050e+00,1.188755464525316913e-01,-2.114429806713313265e-01,1.575930275725229979e-01
1.056999999999999940e+00,2.668886406395956090e-01,-1.554724967533419877e-01,1.205822017690899306e-01
1.058000000000000052e+00,3.041022961068505781e-01,-2.938361167752971681e-02,4.303269205071024589e-02
1.058999999999999941e+00,3.094501906573136618e-01,6.974135658205032895e-02,-3.671576711931917592e-02
1.060000000000000053e+00,2.662078392535429106e-01,1.632587338207318606e-01,-1.049366097907020040e-01
1.060999999999999943e+00,1.194743905009716251e-01,2.461179967086158660e-01,-1.676264564853765793e-01
1.062000000000000055e+00,-3.936995514414137580e-03,2.581122898572916768e-01,-2.188449896905730052e-01
1.062999999999999945e+00,-1.266241320749076082e-01,2.312423458782051355e-01,-1.792217786856474537e-01
1.064000000000000057e+00,-2.250961066973714009e-01,1.710777683895698953e-01,-1.427281553122608793e-01
1.064999999999999947e+00,-3.274472430407021073e-01,5.548364050920182727e-02,-5.046056293531690773e-02
1.066000000000000059e+00,-3.160199942917952254e-01,-5.865671404454024518e-02,6.331366114065694120e-03
1.066999999999999948e+00,-2.478058204205048076e-01,-1.766994072714812847e-01,9.559130717099968699e-02
1.068000000000000060e+00,-1.554598525164069822e-01,-2.379601875704780989e-01,1.589474528435788903e-01
1.068999999999999950e+00,-3.325646469851167158e-02,-2.276622382426169156e-01,2.326805934558221212e-01
1.070000000000000062e+00,1.275819365490724888e-01,-2.081535622960584697e-01,1.715518348568895735e-01
1.070999999999999952e+00,2.402702827687302201e-01,-1.351456124892461141e-01,1.484888671327039000e-01
1.072000000000000064e+00,3.196189842271905945e-01,-6.518303419887455652e-02,5.288327177044933880e-02
1.072999999999999954e+00,3.243572508173125923e-01,9.349621500495509940e-02,-1.951801473545005175e-02
1.074000000000000066e+00,2.641343198039884932e-01,1.521913542430403388e-01,-1.000978182782320397e-01
1.074999999999999956e+00,1.303779108946460374e-01,2.400457685980312283e-01,-1.598779070249477241e-01
1.076000000000000068e+00,2.190311227860612317e-02,2.562464199972110945e-01,-1.826675693244525500e-01
1.076999999999999957e+00,-1.255538219010197964e-01,2.329552649575748480e-01,-1.804721961313116574e-01
1.078000000000000069e+00,-2.462812207513292162e-01,1.434052974303285932e-01,-1.465226367379842964e-01
1.078999999999999959e+00,-3.177123207453053655e-01,4.518306593777011299e-02,-5.863393165393674528e-02
1.080000000000000071e+00,-3.186966521209398939e-01,-8.042541552469154031e-02,1.089197764098117326e-02
1.080999999999999961e+00,-2.738764256182416590e-01,-1.857205423988575466e-01,6.648801321118780194e-02
1.082000000000000073e+00,-1.418120934153886958e-01,-2.365859813656380484e-01,1.657406375781798891e-01
1.082999999999999963e+00,3.008015797069526868e-03,-2.594926048100824612e-01,1.951233884911660055e-01
1.084000000000000075e+00,1.307963236882604408e-01,-2.002635419282812745e-01,1.698254373589416222e-01
1.084999999999999964e+00,2.367266347371172752e-01,-1.264584389641423001e-01,1.478489174063937761e-01
1.086000000000000076e+00,2.995807485622257182e-01,-3.059929550021441708e-02,8.254791829638942480e-02
1.086999999999999966e+00,3.188510272330510875e-01,7.332884514373450013e-02,-4.543606402738574641e-03
1.088000000000000078e+00,2.806707641926167174e-01,1.772665314629041644e-01,-8.386147323241983920e-02
1.088999999999999968e+00,1.207303291618629093e-01,2.533679338469693731e-01,-1.226914186941506779e-01
1.090000000000000080e+00,1.826625271735671935e-02,2.823745785600663694e-01,-1.583867229641870433e-01
1.090999999999999970e+00,-1.033509532234166695e-01,2.170110132102811284e-01,-1.775625852762748313e-01
1.092000000000000082e+00,-2.421801464719126051e-01,1.320323161022552982e-01,-1.693186477630411191e-01
1.092999999999999972e+00,-3.251253811634074453e-01,4.123944332947612063e-02,-8.039639916109649065e-02
1.094000000000000083e+00,-3.170274968576435870e-01,-5.027948497600166072e-02,-3.878429377608243471e-04
1.094999999999999973e+00,-2.498815463000412795e-01,-1.873838910154290993e-01,6.790718936151857177e-02
1.096000000000000085e+00,-1.416100259417446550e-01,-2.420961286421140779e-01,1.566383204796295281e-01
1.096999999999999975e+00,-1.115754499643077484e-02,-2.606368911150330758e-01,1.599707892969432776e-01
1.098000000000000087e+00,1.180909379757560523e-01,-1.971686969562794489e-01,1.729342547563021137e-01
1.098999999999999977e+00,2.190715289524162168e-01,-1.470356481702913831e-01,1.951015612281699341e-01
1.100000000000000089e+00,3.152187254251617166e-01,-1.142267451730610665e-02,1.065093471335399056e-01
1.100999999999999979e+00,3.280650554262713459e-01,6.212095389058770734e-02,1.786143615721944716e-02
1.102000000000000091e+00,2.771020280097488131e-01,2.008092824073703930e-01,-6.648263860545403081e-02
1.102999999999999980e+00,1.640804740934843076e-01,2.287239848518721197e-01,-1.274103519857668065e-01
1.104000000000000092e+00,5.098968799488756004e-02,2.361202191670997430e-01,-1.732645989506336193e-01
1.104999999999999982e+00,-1.169202566176296837e-01,2.403643635483383723e-01,-1.847059461516239731e-01
1.106000000000000094e+00,-2.130540406506642170e-01,1.547007391535807352e-01,-1.730852523037305357e-01
1.106999999999999984e+00,-3.107215346323701777e-01,3.290966135845507790e-02,-9.363136949937374276e-02
1.108000000000000096e+00,-3.078946602941897148e-01,-9.660287428632061135e-02,-4.369159438418827174e-02
1.108999999999999986e+00,-2.815075451147963093e-01,-2.051218847210459773e-01,3.803838149518031647e-02
1.110000000000000098e+00,-1.683176871035117761e-01,-2.282588693741268437e-01,1.336906862519216532e-01
1.110999999999999988e+00,-3.948381155871869691e-02,-2.544963756740910577e-01,1.714556932427157010e-01
1.112000000000000099e+00,1.144933208459020524e-01,-2.096640679040261412e-01,1.869917467530953503e-01
1.112999999999999989e+00,2.316312780424793771e-01,-1.354909228536465005e-01,1.654848267855418276e-01
1.114000000000000101e+00,2.860784442954637519e-01,-2.413954063901475183e-02,1.128223146346951505e-01
1.114999999999999991e+00,3.228632860193714205e-01,1.110373550148253396e-01,5.666923639455189593e-02
1.116000000000000103e+00,2.620414301716749161e-01,1.854341621394714479e-01,-5.841447941108771080e-02
1.116999999999999993e+00,1.868987490725189660e-01,2.561088384542198337e-01,-1.228333982658439127e-01
1.118000000000000105e+00,3.861783909655873426e-02,2.472375526668446621e-01,-1.549340790440630611e-01
1.118999999999999995e+00,-7.920698735808708035e-02,2.224526025891125913e-01,-1.935023763086614057e-01
1.120000000000000107e+00,-2.315352590342488748e-01,1.146892745283102366e-01,-1.615058905122576660e-01
1.120999999999999996e+00,-2.980566791220142786e-01,6.961571551073124364e-03,-1.109474337670167537e-01
1.122000000000000108e+00,-3.295202363387560451e-01,-6.900252981856054568e-02,-4.238965561906984231e-02
1.122999999999999998e+00,-2.729818102307122740e-01,-1.628845056100507449e-01,3.943202970323295836e-02
1.124000000000000110e+00,-1.681969757563246404e-01,-2.430013867982842024e-01,1.114417805829621272e-01
1.125000000000000000e+00,-3.796232712844441193e-02,-2.528750959352099037e-01,1.675125705771910722e-01
1.125999999999999890e+00,8.198767525770979392e-02,-2.321126689775837304e-01,1.911723702418869353e-01
1.127000000000000002e+00,2.159772207305429848e-01,-1.177303601989597714e-01,1.915389322842329656e-01
1.127999999999999892e+00,2.992528405706892936e-01,2.861494260558236028e-03,1.149947482053706310e-01
1.129000000000000004e+00,2.957276896729260640e-01,7.133180354500297249e-02,6.158800476898936005e-02
1.129999999999999893e+00,2.649667902861606028e-01,2.011203855980554234e-01,-4.238900312977856438e-02
1.131000000000000005e+00,1.809940156944978285e-01,2.433899084676103830e-01,-1.292929235995706194e-01
1.131999999999999895e+00,5.215219410187715843e-02,2.512248125576483360e-01,-1.492505041447106939e-01
1.133000000000000007e+00,-6.932055718017934853e-02,2.197514893222177745e-01,-1.915149361978268905e-01
1.133999999999999897e+00,-2.155040076051179254e-01,9.461447504646920692e-02,-1.785967134111247356e-01
1.135000000000000009e+00,-3.093934678321897391e-01,2.988544889619070000e-02,-1.324338677661624775e-01
1.135999999999999899e+00,-3.254868248958187049e-01,-1.081702225610579743e-01,-5.820629139839503946e-02
1.137000000000000011e+00,-2.787830496045910489e-01,-1.793421908501017237e-01,1.197378817662395588e-02
1.137999999999999901e+00,-1.959085721639998445e-01,-2.302297411616468226e-01,1.204830283560390791e-01
1.139000000000000012e+00,-5.920225079076386204e-02,-2.544170928352718075e-01,1.807813170395467517e-01
1.139999999999999902e+00,7.157370550808236920e-02,-2.212996292971776136e-01,1.988405988951804926e-01
1.141000000000000014e+00,1.932514701687706449e-01,-1.020693177906737831e-01,1.846110111899373629e-01
1.141999999999999904e+00,3.069601449619479561e-01,-5.162689944932629359e-03,1.479050967069798772e-01
1.143000000000000016e+00,3.125979333040092012e-01,1.144664670150927210e-01,6.264683977317940522e-02
1.143999999999999906e+00,2.835576099759063440e-01,1.984304470596751635e-01,-7.689401154372359085e-05
1.145000000000000018e+00,1.878476086924510957e-01,2.620859818743540015e-01,-1.013251855549584801e-01
1.145999999999999908e+00,7.164026499430865835e-02,2.544321399411487716e-01,-1.481738495407490530e-01
1.147000000000000020e+00,-8.045466009210477942e-02,2.229292924350254335e-01,-1.793479280977190171e-01
1.147999999999999909e+00,-1.911244673306079778e-01,1.279962114258016981e-01,-1.934324401521555492e-01
1.149000000000000021e+00,-2.932634177149326948e-01,-2.269779686016754235e-03,-1.321067431640998713e-01
1.149999999999999911e+00,-3.168657284948832586e-01,-1.132876872403506402e-01,-6.560198362470703870e-02
1.151000000000000023e+00,-2.686896834769085807e-01,-2.326261073637661547e-01,6.986339663839835797e-03
1.151999999999999913e+00,-1.925154555332152517e-01,-2.549669435616734869e-01,9.378575062851905730e-02
1.153000000000000025e+00,-8.191465222183173800e-02,-2.451803162808110503e-01,1.540441666246883390e-01
1.153999999999999915e+00,6.722760889322623723e-02,-2.024112862021796022e-01,1.693514367625668371e-01
1.155000000000000027e+00,1.783298949933176114e-01,-1.089004899059124454e-01,1.880700684628738018e-01
1.155999999999999917e+00,3.126753198075371554e-01,-2.273099498333283272e-03,1.375812287953168400e-01
1.157000000000000028e+00,3.402866115648194856e-01,1.237216143457023493e-01,8.913030550396816576e-02
1.157999999999999918e+00,2.852165932865862175e-01,2.063262433343224511e-01,1.181475750023063161e-02
1.159000000000000030e+00,2.182657716229656486e-01,2.577160028118999913e-01,-6.266380350580549874e-02
1.159999999999999920e+00,7.747983115704426549e-02,2.665722413385337441e-01,-1.360834931666689562e-01
1.161000000000000032e+00,-4.599238681400178580e-02,2.016138172139117224e-01,-1.916869263845360771e-01
1.161999999999999922e+00,-1.793356707242579617e-01,1.113473544500617335e-01,-1.659742090250903856e-01
1.163000000000000034e+00,-2.815112299383833450e-01,1.508291291047764854e-02,-1.403644284189824176e-01
1.163999999999999924e+00,-3.104712855627865253e-01,-1.168860545068255707e-01,-8.504000619273685557e-02
1.165000000000000036e+00,-3.041219525149593816e-01,-2.112270404868063223e-01,-3.236371107963872257e-02
1.165999999999999925e+00,-1.969654996205624786e-01,-2.510546626058436925e-01,6.181059871324709465e-02
1.167000000000000037e+00,-6.966398766669056053e-02,-2.666626571555515413e-01,1.365389488659781714e-01
1.167999999999999927e+00,4.993226315520961356e-02,-1.811393701511023469e-01,1.944503120142482555e-01
1.169000000000000039e+00,1.991042283382931377e-01,-1.204350080962787312e-01,1.974596859029516815e-01
1.169999999999999929e+00,2.843948871529037303e-01,-9.017380798290165062e-03,1.625033391579389919e-01
1.171000000000000041e+00,3.092678500947367848e-01,1.044905906892287656e-01,1.093207480176121987e-01
1.171999999999999931e+00,2.850460309482781285e-01,2.171609317310596310e-01,1.569381063217132818e-02
1.173000000000000043e+00,2.255510147886210515e-01,2.497579584209661530e-01,-6.833749201839819931e-02
1.173999999999999932e+00,7.837622000551006107e-02,2.503138474231204613e-01,-1.368395970138018558e-01
1.175000000000000044e+00,-5.263144863594095696e-02,1.823088364185894428e-01,-1.821107930545080300e-01
1.175999999999999934e+00,-1.790420422169510251e-01,8.309867737480450267e-02,-2.039100844739980267e-01
1.177000000000000046e+00,-2.804344448832158943e-01,-1.041965335170986356e-02,-1.692836432074237007e-01
1.177999999999999936e+00,-3.088279432964129434e-01,-1.119246077549435059e-01,-1.044510313275222035e-01
1.179000000000000048e+00,-2.715738584554676094e-01,-2.180297476614923291e-01,-2.516948905006132983e-02
1.179999999999999938e+00,-2.181253545831920160e-01,-2.649052794522609444e-01,4.834233583781153559e-02
1.181000000000000050e+00,-6.740297538205319849e-02,-2.664580008756139984e-01,1.200413849018370921e-01
