time,acc_x,acc_y,acc_z
0.000000000000000000e+00,-8.043333937008867451e-02,-1.549047306975958327e-01,2.347041233825829243e-02
1.000000000000000021e-03,-1.207740525669457471e-01,-2.017202864615880165e-01,-2.927657184216174088e-02
2.000000000000000042e-03,-2.100906350414142587e-01,-2.205223474948183326e-01,-6.542245729001561205e-02
3.000000000000000062e-03,-2.234293914526277736e-01,-2.336659060919204223e-01,-8.449217213084204980e-02
4.000000000000000083e-03,-2.702710190378633248e-01,-2.694897527781518476e-01,-6.754852687657411647e-02
5.000000000000000104e-03,-3.235170351500202823e-01,-2.899251008388376571e-01,-1.555188999190942334e-01
6.000000000000000125e-03,-3.408007810913490365e-01,-2.861387443615535098e-01,-1.590625537459281758e-01
7.000000000000000146e-03,-3.269861134346088161e-01,-2.995256695604717745e-01,-1.703935564765501343e-01
8.000000000000000167e-03,-3.383849758298053678e-01,-2.760735435003339733e-01,-2.046438940701137132e-01
8.999999999999999320e-03,-3.838279670504332053e-01,-2.852992660091702160e-01,-2.121086910912133583e-01
1.000000000000000021e-02,-3.759425547519680277e-01,-2.405482041838782059e-01,-2.286134130178811841e-01
1.099999999999999936e-02,-3.358092871625520948e-01,-2.171991533893216086e-01,-2.360601170279284788e-01
1.200000000000000025e-02,-2.989493201924663945e-01,-1.920212163555700680e-01,-2.080263569541117852e-01
1.299999999999999940e-02,-2.689199376456726798e-01,-1.378857678648439389e-01,-2.133017738976958622e-01
1.400000000000000029e-02,-2.241108938382035398e-01,-9.297331299269256943e-02,-1.763212114394141772e-01
1.499999999999999944e-02,-1.940335657528742819e-01,-7.898319821763151449e-02,-1.815196209269877015e-01
1.600000000000000033e-02,-1.542713076776997538e-01,-1.632802671001857067e-02,-1.438798036855938323e-01
1.700000000000000122e-02,-9.632798220218533047e-02,4.357660920240878644e-02,-1.274656908308561265e-01
1.799999999999999864e-02,-1.020847107327491239e-02,9.845097728190452258e-02,-9.539523077145362073e-02
1.899999999999999953e-02,2.411294295975084309e-02,1.403318547992759568e-01,-5.585620943875418271e-02
2.000000000000000042e-02,9.570450381913506166e-02,1.555541206280935396e-01,-1.505323638615195699e-02
2.100000000000000130e-02,1.462565692373517245e-01,1.912723328762054309e-01,3.212236869921514248e-02
2.199999999999999872e-02,1.933382125706622490e-01,2.261658424477519802e-01,3.571072791639054445e-02
2.299999999999999961e-02,2.479014124158309962e-01,2.711119101442575618e-01,7.059011844054670359e-02
2.400000000000000050e-02,2.796103479767548805e-01,2.660753990716118733e-01,1.058696862836854269e-01
2.500000000000000139e-02,3.131970566622354069e-01,2.739422504086825860e-01,1.496688041993724794e-01
2.599999999999999881e-02,3.614260274533846462e-01,2.881868141137385320e-01,1.655184109509401646e-01
2.699999999999999969e-02,3.427656527466327874e-01,2.974083669119904627e-01,1.581422638465188601e-01
2.800000000000000058e-02,3.583023773148246716e-01,2.747074113702007159e-01,2.034969913106828288e-01
2.900000000000000147e-02,3.714781638926290541e-01,2.558205587825581606e-01,2.037150372961945288e-01
2.999999999999999889e-02,3.239851860867991595e-01,2.093250599782105481e-01,1.980721069062415796e-01
3.099999999999999978e-02,3.368062300562117972e-01,2.081221396849126104e-01,2.022725230185064837e-01
3.200000000000000067e-02,3.281716893851400751e-01,1.578672108093844562e-01,1.955169063789591599e-01
3.300000000000000155e-02,2.471497591032238150e-01,1.343618997388172642e-01,1.891136782845536934e-01
3.400000000000000244e-02,2.215671229422016275e-01,6.457445630859620644e-02,2.129793381661523322e-01
3.500000000000000333e-02,1.702523989587292064e-01,2.422920215319842446e-02,1.654130210170519089e-01
3.599999999999999728e-02,1.223813866708782089e-01,1.035644617971019687e-03,1.284079679052901601e-01
3.699999999999999817e-02,4.905009565080440531e-02,-8.046023285947280501e-02,1.125185881129247417e-01
3.799999999999999906e-02,2.964637367125760870e-02,-9.687334653247711702e-02,7.936413292196785318e-02
3.899999999999999994e-02,-3.502969006843299760e-02,-1.438784999443212531e-01,6.243371401132297160e-02
4.000000000000000083e-02,-9.873422379889894296e-02,-1.867354359565603916e-01,1.614959860042768439e-02
4.100000000000000172e-02,-1.853167230634197304e-01,-2.301239601060083573e-01,-7.582753634150297614e-03
4.200000000000000261e-02,-1.913899059282864468e-01,-2.555387153195572969e-01,-6.295571962568102808e-02
4.299999999999999656e-02,-2.324000425037486828e-01,-2.706609932793326845e-01,-7.691636282364906763e-02
4.399999999999999745e-02,-2.920503708556652089e-01,-2.696642452130856848e-01,-1.169970790700881474e-01
4.499999999999999833e-02,-3.447047426583174645e-01,-2.993936142788289900e-01,-1.356426490086762027e-01
4.599999999999999922e-02,-3.378994540690714032e-01,-3.096341824883411253e-01,-1.662726483888279927e-01
4.700000000000000011e-02,-3.726955936450493945e-01,-2.774587872169103631e-01,-1.984903956052519736e-01
4.800000000000000100e-02,-3.728071495010015224e-01,-2.445956437697426877e-01,-2.000338134469441254e-01
4.900000000000000189e-02,-3.837197565485906403e-01,-2.394089427369797407e-01,-2.115114903528092782e-01
5.000000000000000278e-02,-3.448468803749192291e-01,-2.048461906918499220e-01,-2.098222249818510743e-01
5.099999999999999672e-02,-3.147282902834042106e-01,-1.829644371747300713e-01,-2.134524673823543217e-01
5.199999999999999761e-02,-2.879956399888937146e-01,-1.415061141064394568e-01,-2.041500650185896215e-01
5.299999999999999850e-02,-2.352610541832833302e-01,-9.092220119940608303e-02,-1.996103803505541729e-01
5.399999999999999939e-02,-1.870763391994741676e-01,-3.682893035057006187e-02,-1.887193027833815595e-01
5.500000000000000028e-02,-1.420608520734908953e-01,-4.588920228978648347e-03,-1.620557297913047534e-01
5.600000000000000117e-02,-9.769594069903615730e-02,3.553266176213511207e-02,-1.478779142120842383e-01
5.700000000000000205e-02,-1.537302394700990364e-03,9.977173221279771187e-02,-1.016716031056118519e-01
5.800000000000000294e-02,1.730928102496410298e-02,1.153395836319839746e-01,-7.157768404228509462e-02
5.899999999999999689e-02,9.118239108015246952e-02,2.015320257913632285e-01,-7.110879537453752841e-02
5.999999999999999778e-02,1.151990239741786798e-01,2.194378785225134521e-01,-9.528253039895158774e-03
6.099999999999999867e-02,1.881501728897597425e-01,2.371718806827976533e-01,1.268717604631241710e-02
6.199999999999999956e-02,2.121957999302337694e-01,2.605479440757106913e-01,4.152243741651988340e-02
6.300000000000000044e-02,2.748142612850321131e-01,2.760898163427744079e-01,8.412813390815887526e-02
6.400000000000000133e-02,2.869741802240090012e-01,2.973123309596739650e-01,1.183020150156509770e-01
6.500000000000000222e-02,3.656513864708972883e-01,3.276756188636664180e-01,1.421978579989280622e-01
6.600000000000000311e-02,3.568053821377176194e-01,3.136011584301944821e-01,1.559056922069774198e-01
6.700000000000000400e-02,3.582520111400556706e-01,2.727760387976757017e-01,1.752743382385719695e-01
6.800000000000000488e-02,3.658073035406211870e-01,2.502797016785753836e-01,2.109721650702645890e-01
6.900000000000000577e-02,3.702703458228420175e-01,1.939424019996590920e-01,1.945952517953148109e-01
7.000000000000000666e-02,3.276460151321652914e-01,1.985093366358584299e-01,2.075021481209242125e-01
7.099999999999999367e-02,3.338593038555046077e-01,1.618199279612941577e-01,2.199802386563100842e-01
7.199999999999999456e-02,2.557973824658859585e-01,1.362356258999332381e-01,2.047575995637171131e-01
7.299999999999999545e-02,2.488605103356165138e-01,8.628686487386667825e-02,2.084620982999557670e-01
7.399999999999999634e-02,1.908257620527760989e-01,1.695757919115994591e-02,1.755613722892975237e-01
7.499999999999999722e-02,1.463987636708091178e-01,-2.642664186386354391e-02,1.615368208997751409e-01
7.599999999999999811e-02,8.797017561568676314e-02,-7.540307850013826252e-02,1.243087845124787316e-01
7.699999999999999900e-02,5.433667102826676698e-02,-1.181044546820609886e-01,1.192431177769740502e-01
7.799999999999999989e-02,-1.745325971429914982e-02,-1.350962178629623311e-01,7.212665842500404212e-02
7.900000000000000078e-02,-7.227342081441402721e-02,-2.139318231403101178e-01,7.865360830910957113e-02
8.000000000000000167e-02,-1.431642262001518173e-01,-2.236914303028597062e-01,6.281124228368705799e-03
8.100000000000000255e-02,-1.958671094867430185e-01,-2.295685769419497091e-01,-2.653296306865575438e-02
8.200000000000000344e-02,-2.403161095452149287e-01,-2.721458049126766476e-01,-4.747475784105292113e-02
8.300000000000000433e-02,-2.673257639012271980e-01,-3.074369555062284598e-01,-8.422931411512153688e-02
8.400000000000000522e-02,-3.164353629820692571e-01,-2.768966756055043499e-01,-1.184712545789760041e-01
8.500000000000000611e-02,-3.014608717938795923e-01,-2.815414101665703051e-01,-1.414815048742131820e-01
8.599999999999999312e-02,-3.452370638877820253e-01,-2.861994250172191778e-01,-1.605674377305002232e-01
8.699999999999999400e-02,-3.638182037158681492e-01,-2.784419382987790015e-01,-1.954689205152224385e-01
8.799999999999999489e-02,-3.782692935322273242e-01,-2.680103232904391675e-01,-1.894600498594572469e-01
8.899999999999999578e-02,-3.512590264416146080e-01,-2.188006831545632747e-01,-2.159832402710594179e-01
8.999999999999999667e-02,-3.385216055590696826e-01,-1.727225692259322098e-01,-2.164889470210365485e-01
9.099999999999999756e-02,-2.956393872807696055e-01,-1.473147774317246916e-01,-2.174704246927575690e-01
9.199999999999999845e-02,-2.831003033504409516e-01,-1.026934960648396011e-01,-2.141704420520699759e-01
9.299999999999999933e-02,-2.334488583360742053e-01,-5.320615148894924235e-02,-2.232074931751638347e-01
9.400000000000000022e-02,-1.632799259688016147e-01,-2.236232753025066064e-02,-1.666379371665216991e-01
9.500000000000000111e-02,-1.221277679628748197e-01,3.884631108322281201e-02,-1.647003906264835893e-01
9.600000000000000200e-02,-8.419436494885612632e-02,7.150350961230352020e-02,-1.332076488016086524e-01
9.700000000000000289e-02,4.714508098024234087e-04,1.421223907607620240e-01,-1.165142673638909082e-01
9.800000000000000377e-02,3.652496824532042163e-02,1.429275246412436973e-01,-7.348971555792806198e-02
9.900000000000000466e-02,9.823398335233395062e-02,2.098913372061392557e-01,-5.995171136949842272e-02
1.000000000000000056e-01,1.587754825894762134e-01,2.283237660358990173e-01,-1.501806389614015504e-02
1.010000000000000064e-01,2.051631039792448097e-01,2.424403085202344321e-01,6.806748132977455401e-02
1.019999999999999934e-01,2.570695148354520398e-01,2.955832254138357484e-01,7.668481394346586544e-02
1.029999999999999943e-01,3.059126878495391777e-01,2.930275411672332853e-01,1.011533359595375714e-01
1.039999999999999952e-01,3.375952528374749906e-01,2.894848761660749337e-01,1.202814313640847427e-01
1.049999999999999961e-01,3.600554992283483413e-01,3.110712365512641187e-01,1.481342381739538805e-01
1.059999999999999970e-01,3.469991536085593742e-01,2.572545563839961358e-01,1.640807570093166246e-01
1.069999999999999979e-01,3.503149451188194430e-01,2.511073467053951958e-01,2.065631611299094395e-01
1.079999999999999988e-01,3.746438705994842855e-01,2.291989574365593807e-01,2.176376414721273855e-01
1.089999999999999997e-01,3.486620865918829693e-01,1.893228233662161697e-01,2.086280090167028090e-01
1.100000000000000006e-01,3.234862129015498300e-01,1.588423928583493072e-01,2.176071806146697429e-01
1.110000000000000014e-01,3.066991466928263299e-01,1.392909613716701300e-01,2.204096121558801469e-01
1.120000000000000023e-01,2.428578579770561963e-01,7.832200455258180039e-02,1.943009305056052904e-01
1.130000000000000032e-01,2.123727371925784035e-01,2.659488958213751877e-02,2.018082834772269574e-01
1.140000000000000041e-01,1.541478976358617858e-01,-4.586486629040112395e-03,1.927856612344768239e-01
1.150000000000000050e-01,9.679702564790183816e-02,-5.756940757129818537e-02,2.004173210142373152e-01
1.160000000000000059e-01,4.943577430591708510e-02,-1.028151128092778810e-01,1.297097157086832264e-01
1.170000000000000068e-01,-5.395398448851661602e-03,-1.617711358886033124e-01,1.123246891572434181e-01
1.179999999999999938e-01,-4.875926077608451481e-02,-1.856400488787912639e-01,8.500389376460962265e-02
1.189999999999999947e-01,-1.214186351529588370e-01,-2.316600880758557801e-01,3.928436262119830436e-02
1.199999999999999956e-01,-1.630682943615148484e-01,-2.536153399669219821e-01,2.415409244288848484e-02
1.209999999999999964e-01,-2.086110617902140474e-01,-2.648932499081688707e-01,-2.251372700923942941e-02
1.219999999999999973e-01,-2.578471462412969539e-01,-2.959536548663251887e-01,-4.724148054990922468e-02
1.229999999999999982e-01,-3.368849531482120407e-01,-2.931631407618617291e-01,-7.781246247592808751e-02
1.239999999999999991e-01,-3.310812775713207756e-01,-2.601659264507319436e-01,-1.062180345561727079e-01
1.250000000000000000e-01,-3.497908808238991973e-01,-2.773413680787024105e-01,-1.311388627354096170e-01
1.260000000000000009e-01,-3.783282161690348921e-01,-2.591072578248866387e-01,-1.625849633446758979e-01
1.270000000000000018e-01,-3.696685052932786597e-01,-2.383122333614892119e-01,-2.056285440043608137e-01
1.280000000000000027e-01,-3.573196325955318997e-01,-2.141237534484575489e-01,-2.084633053204139608e-01
1.290000000000000036e-01,-3.051648555748844860e-01,-1.741103267942999966e-01,-2.323628372346290549e-01
1.300000000000000044e-01,-2.968482828858391986e-01,-1.178279097393657576e-01,-2.072155747427082417e-01
1.310000000000000053e-01,-2.729522908105863066e-01,-1.377715309089579676e-01,-2.180768100058546322e-01
1.320000000000000062e-01,-2.307943974758913663e-01,-4.860876679370187275e-02,-1.869407015637153668e-01
1.330000000000000071e-01,-1.935681043934834866e-01,-1.413875378134053264e-02,-2.048948674772254896e-01
1.340000000000000080e-01,-1.546264572950435956e-01,4.791783064610910525e-02,-1.640175222785417997e-01
1.350000000000000089e-01,-1.008294878539126582e-01,7.728222354968355967e-02,-1.668405678997083030e-01
1.360000000000000098e-01,-5.810197746497132443e-02,1.220306634253382622e-01,-1.110189344692251723e-01
1.370000000000000107e-01,2.887269277455771152e-02,1.679144655714639167e-01,-1.172578229283959828e-01
1.380000000000000115e-01,8.933506646365639570e-02,2.081993635657477248e-01,-7.950629057844485481e-02
1.390000000000000124e-01,1.414446201203153897e-01,2.477754843679856323e-01,-2.377404233540945586e-02
1.400000000000000133e-01,1.744125249266483269e-01,2.813059021459167752e-01,-2.077580541913818385e-02
1.409999999999999865e-01,2.439258095451546648e-01,2.954740074640959668e-01,5.583014947091067409e-02
1.419999999999999873e-01,2.689353498009541821e-01,2.873385086464460003e-01,6.652688370670040152e-02
1.429999999999999882e-01,3.247035461709579240e-01,3.270918430469216820e-01,9.721409456283298944e-02
1.439999999999999891e-01,3.577680371415580263e-01,2.939272062420021925e-01,1.154016397630795721e-01
1.449999999999999900e-01,3.486346729518426391e-01,2.791043893299301470e-01,1.500393872841479792e-01
1.459999999999999909e-01,3.547090926966912638e-01,2.683073020686875254e-01,1.873923795684740989e-01
1.469999999999999918e-01,3.634751757555541585e-01,2.328646998605713170e-01,1.840563523824743919e-01
1.479999999999999927e-01,3.633498170653574055e-01,2.085658997665702230e-01,1.964874014038613670e-01
1.489999999999999936e-01,3.389896710214284625e-01,1.739256682228794704e-01,2.229140122845873484e-01
1.499999999999999944e-01,2.939822354491750112e-01,1.218467115171216891e-01,2.093720556768551566e-01
1.509999999999999953e-01,2.926499945532859970e-01,8.847416943397265476e-02,2.230904177259958043e-01
1.519999999999999962e-01,2.369676898579635704e-01,4.360543691015319329e-02,2.235570255675873308e-01
1.529999999999999971e-01,1.965105922542412509e-01,-1.829429979117924796e-03,2.027502641574981945e-01
1.539999999999999980e-01,1.296533736089214017e-01,-7.573294155290856422e-02,1.855534277743403904e-01
1.549999999999999989e-01,7.281877002019800094e-02,-1.131188475895106016e-01,1.339711892532980120e-01
1.559999999999999998e-01,1.599637334898237895e-02,-1.432831738695751478e-01,1.393542112147651557e-01
1.570000000000000007e-01,-5.212617119492451989e-02,-1.771757471797981986e-01,9.002437967396569041e-02
1.580000000000000016e-01,-8.601132627582820656e-02,-2.136127366283061546e-01,7.867221993725741214e-02
1.590000000000000024e-01,-1.529844703590156341e-01,-2.398352515133237717e-01,1.873725094952231190e-02
1.600000000000000033e-01,-2.065194467486360375e-01,-2.694247462681041427e-01,4.505944252892947477e-03
1.610000000000000042e-01,-2.573427375799086647e-01,-2.961430346908278111e-01,-3.238460108240823893e-02
1.620000000000000051e-01,-2.833749694485407922e-01,-2.750054926784419318e-01,-5.344022375554527415e-02
1.630000000000000060e-01,-3.381865561454227009e-01,-2.855065477555166487e-01,-9.556957035924264210e-02
1.640000000000000069e-01,-3.347218709717585949e-01,-3.163411405418645739e-01,-1.494700806541291171e-01
1.650000000000000078e-01,-3.592713702308303891e-01,-2.893519293123105740e-01,-1.345785729450023060e-01
1.660000000000000087e-01,-3.967507571264549115e-01,-2.531919628217320084e-01,-1.700883543430468381e-01
1.670000000000000095e-01,-3.431730774640884274e-01,-2.366286638162757305e-01,-1.957746792748313869e-01
1.680000000000000104e-01,-3.455826595327232686e-01,-1.738581559480475991e-01,-2.138046025547481743e-01
1.690000000000000113e-01,-3.498773753469399672e-01,-1.467134576927197620e-01,-2.369742206145643015e-01
1.700000000000000122e-01,-3.017276693710378432e-01,-1.315249220638394223e-01,-2.104293167672786069e-01
1.710000000000000131e-01,-2.603867483603278798e-01,-7.734908955015447340e-02,-2.114581094584312426e-01
1.719999999999999862e-01,-2.165417806863243200e-01,-2.918607289164158340e-05,-2.105123609548444352e-01
1.729999999999999871e-01,-1.704467876010361815e-01,4.973942126854345724e-02,-1.984469638091969079e-01
1.739999999999999880e-01,-1.253743840421041866e-01,6.812550769462083489e-02,-2.106938936276955276e-01
1.749999999999999889e-01,-3.606090591193494843e-02,1.305241092866644415e-01,-1.605921845275264104e-01
1.759999999999999898e-01,1.669477783384070921e-02,1.704712524141658303e-01,-1.403099486579308386e-01
1.769999999999999907e-01,4.576293927680394336e-02,2.044255652493519870e-01,-8.872135209472316320e-02
1.779999999999999916e-01,9.360040763614756176e-02,2.208310362014921369e-01,-6.702981662758500381e-02
1.789999999999999925e-01,1.931780256451447741e-01,2.396936811509107756e-01,-5.911129404216108191e-02
1.799999999999999933e-01,2.285608977218979154e-01,2.920590624809242808e-01,3.046415211514125459e-03
1.809999999999999942e-01,2.547012352200264673e-01,2.894548112363766190e-01,2.701206080403647028e-02
1.819999999999999951e-01,3.078127989241536411e-01,3.038221104238150172e-01,8.195006463854156986e-02
1.829999999999999960e-01,3.285752389041569077e-01,3.060959732500287966e-01,9.477509704389339151e-02
1.839999999999999969e-01,3.400851250302590612e-01,2.788757177772229201e-01,1.391801444798572984e-01
1.849999999999999978e-01,3.521019324341123635e-01,2.567318534467419311e-01,1.639502868751593345e-01
1.859999999999999987e-01,3.636977555670923290e-01,2.427392423019436585e-01,1.557305381717734583e-01
1.869999999999999996e-01,3.801253689293944693e-01,1.808251046569651355e-01,2.012020732522001587e-01
1.880000000000000004e-01,3.536242532844611763e-01,1.529364611238800964e-01,2.203079355407925044e-01
1.890000000000000013e-01,3.166665848356671753e-01,1.457164245606007436e-01,1.962880970477124676e-01
1.900000000000000022e-01,2.810385748681828999e-01,7.632434788917076551e-02,2.011129225918251162e-01
1.910000000000000031e-01,2.530686500764209312e-01,2.618875716812555168e-02,2.114924686155112143e-01
1.920000000000000040e-01,1.820608298277970050e-01,-2.237825764013787536e-02,2.192326008411913663e-01
1.930000000000000049e-01,1.746203644082556516e-01,-6.569665613395780923e-02,1.969637888033044237e-01
1.940000000000000058e-01,9.015560037393884063e-02,-9.965474362186117763e-02,1.546049633556570158e-01
1.950000000000000067e-01,3.786723389341602880e-02,-1.243499655208890886e-01,1.557593957373809845e-01
1.960000000000000075e-01,-2.799384593013892059e-02,-1.876939715340614212e-01,1.524449696145112609e-01
1.970000000000000084e-01,-7.786794474102677610e-02,-2.053914058806778631e-01,9.501557787068407035e-02
1.980000000000000093e-01,-1.171678877571623728e-01,-2.441272824352800908e-01,6.827341835612263377e-02
1.990000000000000102e-01,-1.764036968719182863e-01,-2.848542104057849023e-01,2.551519451820996598e-02
2.000000000000000111e-01,-2.199443605092296361e-01,-2.808476865057681904e-01,-1.195326160042726148e-02
2.010000000000000120e-01,-2.753766968485176769e-01,-3.166725193204477096e-01,-2.187884834781504348e-02
2.020000000000000129e-01,-2.876780981290755212e-01,-2.994424914277521999e-01,-7.956130380443919570e-02
2.030000000000000138e-01,-3.510532965759987634e-01,-2.892094353329096035e-01,-1.107861512752246341e-01
2.039999999999999869e-01,-3.611784043955256762e-01,-2.729136649002745219e-01,-1.467770508992668477e-01
2.049999999999999878e-01,-3.531816085135863204e-01,-2.577836523095070609e-01,-1.574780623963280557e-01
2.059999999999999887e-01,-3.627477197670792020e-01,-2.063273339682874796e-01,-1.904276813722836081e-01
2.069999999999999896e-01,-3.598215881559406748e-01,-1.781075754270161349e-01,-1.873411476634475326e-01
2.079999999999999905e-01,-3.305836097209899904e-01,-1.618676589968471580e-01,-2.034535544088022230e-01
2.089999999999999913e-01,-2.835833319398679553e-01,-8.253795230599013377e-02,-2.172079030193062588e-01
2.099999999999999922e-01,-2.651096879609844970e-01,-6.516920467288656038e-02,-2.015814062583637378e-01
2.109999999999999931e-01,-2.439231096811519950e-01,-1.518106527695641320e-02,-2.267102959115065430e-01
2.119999999999999940e-01,-1.957515917742631006e-01,2.552776847865589893e-02,-1.860594197065808253e-01
2.129999999999999949e-01,-1.481336565025337393e-01,6.680883819323027439e-02,-1.999317678076792115e-01
2.139999999999999958e-01,-6.197146518726107112e-02,1.023450967074722162e-01,-1.675956473332949892e-01
2.149999999999999967e-01,-1.047198151362471741e-02,1.968366996113373180e-01,-1.566835046569244050e-01
2.159999999999999976e-01,4.182318487007787716e-02,2.211591089851167036e-01,-1.164942985569105832e-01
2.169999999999999984e-01,6.762303063683992865e-02,2.062119752314549304e-01,-8.372682487859406386e-02
2.179999999999999993e-01,1.524126330739149493e-01,2.657060538947763617e-01,-6.673926955939414596e-02
2.190000000000000002e-01,1.752747285627378471e-01,2.758955920926579042e-01,9.013082887264586189e-04
2.200000000000000011e-01,2.129868031748090029e-01,2.560350716691435768e-01,1.302945591332035739e-02
2.210000000000000020e-01,2.729102323895526427e-01,2.775077973295230760e-01,3.552794074124305396e-02
2.220000000000000029e-01,3.247734366303965947e-01,2.883073348870482944e-01,7.131089212802377286e-02
2.230000000000000038e-01,3.581194830996242140e-01,2.527123185451462528e-01,1.093550715228192305e-01
2.240000000000000047e-01,3.587379116173252114e-01,2.318133043849445740e-01,1.447915494141724935e-01
2.250000000000000056e-01,3.501020215843509975e-01,2.489194969081507391e-01,1.755995322486877674e-01
2.260000000000000064e-01,3.590848169341979701e-01,1.793886748840641532e-01,1.720254331699516692e-01
2.270000000000000073e-01,3.688544726159178055e-01,1.784861599034300583e-01,2.149826693199320404e-01
2.280000000000000082e-01,3.480141964886875883e-01,1.286446037944000420e-01,2.237016875324409626e-01
2.290000000000000091e-01,3.191968480786267492e-01,7.317662080178308215e-02,2.391532762178663341e-01
2.300000000000000100e-01,2.445778498682493474e-01,3.096211665660779377e-02,1.969553514810394867e-01
2.310000000000000109e-01,2.163110805977707107e-01,-6.179417997878008072e-03,2.177890693163695712e-01
2.320000000000000118e-01,1.880289713332046753e-01,-8.324235818511946383e-02,1.814166136657158479e-01
2.330000000000000127e-01,9.828741329784265734e-02,-9.639202984625298842e-02,1.842865202162831950e-01
2.340000000000000135e-01,6.964459048185285550e-02,-1.448467936850792448e-01,1.766378046333143825e-01
2.349999999999999867e-01,7.530642078100848423e-03,-1.712208804054921873e-01,1.257596250412128525e-01
2.359999999999999876e-01,-4.240743690331012783e-02,-2.278569304259346062e-01,1.005210302991664251e-01
2.369999999999999885e-01,-9.932724026210905388e-02,-2.502766174545814071e-01,8.584044906319127088e-02
2.379999999999999893e-01,-1.832424755665594540e-01,-2.707095645227272640e-01,6.600862935821427691e-02
2.389999999999999902e-01,-2.375313523388312420e-01,-2.884587176463390135e-01,3.239816975080073852e-02
2.399999999999999911e-01,-2.712946677391261940e-01,-2.782270593132205039e-01,-2.892683095347939326e-02
2.409999999999999920e-01,-2.980173500813400045e-01,-2.832390245615005187e-01,-3.814980470570755733e-02
2.419999999999999929e-01,-3.366065950695293352e-01,-2.816881543951754718e-01,-9.829660101596340849e-02
2.429999999999999938e-01,-3.438735466602964030e-01,-2.529020849681608007e-01,-1.167849158409720450e-01
2.439999999999999947e-01,-3.642084324804259476e-01,-2.400038366326301131e-01,-1.436589151835477862e-01
2.449999999999999956e-01,-3.632853317874297772e-01,-2.057647800830795792e-01,-1.405158031404988850e-01
2.459999999999999964e-01,-3.604176492654794783e-01,-1.742126101058067700e-01,-1.854445288749071441e-01
2.469999999999999973e-01,-3.517123865388967485e-01,-1.404922131661100748e-01,-2.105501280209414461e-01
2.479999999999999982e-01,-3.064722809489666133e-01,-1.167408103562376509e-01,-2.209868984577008089e-01
2.489999999999999991e-01,-2.787366218960034003e-01,-6.208209398153768932e-02,-2.126097189126145703e-01
2.500000000000000000e-01,-2.663287983939548464e-01,-6.760786802287687206e-03,-2.342019529822821078e-01
2.510000000000000009e-01,-2.103248434323389260e-01,2.254235009977416382e-02,-2.046485378397290833e-01
2.520000000000000018e-01,-1.436184269923125589e-01,9.358920766952615045e-02,-1.930303024225663022e-01
2.530000000000000027e-01,-1.225472417576777967e-01,1.351083832765409831e-01,-1.942893927330962278e-01
2.540000000000000036e-01,-3.542626737291094258e-02,1.720859796397544439e-01,-1.839665993580258951e-01
2.550000000000000044e-01,5.189521938013494026e-03,2.060106336530855564e-01,-1.377758138856236547e-01
2.560000000000000053e-01,5.831466265158887635e-02,2.143223001312525300e-01,-1.160279802700018154e-01
2.570000000000000062e-01,1.413402051585567476e-01,2.397797827423031602e-01,-7.792979200454128175e-02
2.580000000000000071e-01,1.888444377872388891e-01,2.923734213067582521e-01,-4.030578704526530109e-02
2.590000000000000080e-01,2.266348182960458979e-01,2.782655148408932355e-01,-1.664618119090703272e-02
2.600000000000000089e-01,2.608736576465140455e-01,2.895738538178034838e-01,3.137634222698249681e-02
2.610000000000000098e-01,3.081444236557621674e-01,2.935032333545654071e-01,4.868674611620572856e-02
2.620000000000000107e-01,3.221632748968044635e-01,2.796591863139515910e-01,8.074067687122342407e-02
2.630000000000000115e-01,3.542126265917971972e-01,2.606842375993523864e-01,8.995672665383833144e-02
2.640000000000000124e-01,3.596045472276367394e-01,2.397762243374024771e-01,1.566887227283767503e-01
2.650000000000000133e-01,3.504865089148454516e-01,1.930192292158431633e-01,1.787353077972835824e-01
2.660000000000000142e-01,3.553472136350534494e-01,1.554894655447442708e-01,1.999368226167184126e-01
2.670000000000000151e-01,3.396296152566219972e-01,1.093734424322129611e-01,1.877212509369200755e-01
2.680000000000000160e-01,3.151300269452947389e-01,8.487184315407092505e-02,2.130426776333232131e-01
2.690000000000000169e-01,2.951975418562075570e-01,3.796973742047943245e-02,1.889431342348470155e-01
2.700000000000000178e-01,2.273028491793721850e-01,-1.541375144087243389e-02,2.078241347319521870e-01
2.710000000000000187e-01,1.998808847018581913e-01,-3.766722307557874433e-02,2.018539092649906108e-01
2.720000000000000195e-01,1.355835829940683357e-01,-8.951586679165349225e-02,1.884763730100463552e-01
2.730000000000000204e-01,8.425304128204659515e-02,-1.675830063177583540e-01,1.971510456176450987e-01
2.740000000000000213e-01,2.416238553783901788e-02,-2.001766808407837162e-01,1.643358638810018257e-01
2.750000000000000222e-01,-3.356914097487281867e-02,-2.232785552252605776e-01,1.463261717772048609e-01
2.760000000000000231e-01,-6.598785276431692881e-02,-2.444496681001538940e-01,1.579745116785206682e-01
2.770000000000000240e-01,-1.515937066706444514e-01,-2.589831938936727473e-01,9.356730178487247807e-02
2.780000000000000249e-01,-1.931281737810022769e-01,-2.837977379994164329e-01,5.766752427563506117e-02
2.790000000000000258e-01,-2.551002739247981155e-01,-3.071044776663486853e-01,4.829807886019684034e-03
2.800000000000000266e-01,-2.957158877329605362e-01,-2.783489625578171034e-01,-2.547767914126981836e-02
2.810000000000000275e-01,-3.217150064443802249e-01,-2.797591244944873101e-01,-6.408292546623439723e-02
2.819999999999999729e-01,-3.250911229002708680e-01,-2.856874941054322603e-01,-6.518605687059249310e-02
2.829999999999999738e-01,-3.543762892433883205e-01,-2.432396849672935346e-01,-1.023922944955626413e-01
2.839999999999999747e-01,-3.467603199216750531e-01,-1.906013870012102651e-01,-1.374134115756603103e-01
2.849999999999999756e-01,-3.686834164144859871e-01,-1.828617718799888381e-01,-1.463257512275167593e-01
2.859999999999999765e-01,-3.594445382579739001e-01,-1.661979338866331757e-01,-2.088578680541393617e-01
2.869999999999999774e-01,-3.250132102258977973e-01,-9.428877810623569056e-02,-2.113762198545759696e-01
2.879999999999999782e-01,-2.974740355698813343e-01,-4.946911375337612743e-02,-2.097610625298831633e-01
2.889999999999999791e-01,-2.834752995474122406e-01,-7.900374260639457871e-03,-2.024547844142270681e-01
2.899999999999999800e-01,-2.206141131666087829e-01,3.874331818133518179e-02,-2.091452649281677068e-01
2.909999999999999809e-01,-1.851816803537089662e-01,9.249574146941390296e-02,-2.120811462469189279e-01
2.919999999999999818e-01,-1.201227765982975787e-01,1.192497234983577320e-01,-1.958319173338720909e-01
2.929999999999999827e-01,-8.842510374169965104e-02,1.630136137838963106e-01,-1.933231180518575065e-01
2.939999999999999836e-01,-3.765229810510618141e-02,1.930647929980475186e-01,-1.539467287484526659e-01
2.949999999999999845e-01,6.162385335911317596e-02,2.355681161854931149e-01,-1.434115603798150895e-01
2.959999999999999853e-01,1.029835238688860399e-01,2.901702443446980695e-01,-1.277524953692581178e-01
2.969999999999999862e-01,1.790164891868216424e-01,2.991952366494101123e-01,-4.926794445602739048e-02
2.979999999999999871e-01,2.071767787911969194e-01,3.061858584884795120e-01,-5.572206968898259921e-02
2.989999999999999880e-01,2.563639508636063602e-01,2.972394114837094148e-01,-1.370197333192608308e-02
2.999999999999999889e-01,2.947670961794559008e-01,2.848035376034065425e-01,5.308682593329203808e-03
3.009999999999999898e-01,3.277806178297993367e-01,2.805507295801602519e-01,7.089469840845945281e-02
3.019999999999999907e-01,3.582091168798879899e-01,2.473863306540904639e-01,1.001295152083195722e-01
3.029999999999999916e-01,3.652044742726570092e-01,2.351078317520910177e-01,1.152902155559826503e-01
3.039999999999999925e-01,3.796761837500546855e-01,2.197535047645235717e-01,1.541320575644162805e-01
3.049999999999999933e-01,3.748122229512599324e-01,1.824061459102246097e-01,1.700825146164970936e-01
3.059999999999999942e-01,3.312995610778178279e-01,1.320812717368225753e-01,1.864588331601365334e-01
3.069999999999999951e-01,3.394849332743468118e-01,9.287074948476617409e-02,2.007769569936596610e-01
3.079999999999999960e-01,2.865879166871155292e-01,1.538341133762077297e-02,2.409623739513573337e-01
3.089999999999999969e-01,2.638572184553991673e-01,-1.184831331648496591e-02,2.338014214987887418e-01
3.099999999999999978e-01,2.173996376988917567e-01,-5.770898477159965706e-02,2.081369103791932684e-01
3.109999999999999987e-01,1.496426471013861115e-01,-1.061916101080288832e-01,2.274545060870455104e-01
3.119999999999999996e-01,1.044713870789261700e-01,-1.421140799713055403e-01,1.987806275295322389e-01
3.130000000000000004e-01,7.408626451034064364e-02,-1.782472472436047173e-01,1.803456592249267909e-01
3.140000000000000013e-01,1.106087957135328502e-02,-2.246922750945526126e-01,1.541657546347683927e-01
3.150000000000000022e-01,-6.460786357642643585e-02,-2.573166395893584091e-01,1.526531191719222302e-01
3.160000000000000031e-01,-1.279789202656866631e-01,-2.764878538937968200e-01,9.890576109846603570e-02
3.170000000000000040e-01,-1.718757455480794671e-01,-2.828915562880658929e-01,7.836979273647748379e-02
3.180000000000000049e-01,-2.188764791217246708e-01,-2.884306847812345143e-01,4.922315715011135739e-02
3.190000000000000058e-01,-2.515273876068729875e-01,-2.869142665672373971e-01,2.084521228708580490e-03
3.200000000000000067e-01,-3.040275161053082598e-01,-2.774682917946079130e-01,-2.376533305653102252e-02
3.210000000000000075e-01,-3.280632693026775959e-01,-2.940288696407402091e-01,-6.822030064608514133e-02
3.220000000000000084e-01,-3.516031510601640986e-01,-2.418089250665719503e-01,-1.058701664616851501e-01
3.230000000000000093e-01,-3.494970349005628862e-01,-1.893605646851098112e-01,-1.172839557503720515e-01
3.240000000000000102e-01,-3.507639355459197805e-01,-2.012218201380477911e-01,-1.574339284930881544e-01
3.250000000000000111e-01,-3.649395912188532765e-01,-1.465014238039483996e-01,-1.690808637542047521e-01
3.260000000000000120e-01,-3.369438498344670130e-01,-1.175921598249085043e-01,-1.978254680656967579e-01
3.270000000000000129e-01,-3.154960224541574210e-01,-5.868952028401114990e-02,-2.213673993338621804e-01
3.280000000000000138e-01,-2.812641517610289243e-01,-1.668632603919652235e-02,-1.987074137547940600e-01
3.290000000000000147e-01,-2.556483608624988690e-01,3.170921008317788975e-02,-2.356099532967811661e-01
3.300000000000000155e-01,-1.905821271017838492e-01,7.852911355448781439e-02,-2.038772327876452461e-01
3.310000000000000164e-01,-1.523870423004385077e-01,1.526425189183429620e-01,-2.017596553866611020e-01
3.320000000000000173e-01,-6.763495808338056137e-02,1.697218820565688513e-01,-2.108935525922649989e-01
3.330000000000000182e-01,-5.060815273999381275e-02,1.788039307965332558e-01,-1.879875549725508466e-01
3.340000000000000191e-01,2.538767331159653626e-02,2.512291988317937874e-01,-1.438686587934308592e-01
3.350000000000000200e-01,6.333957197458656152e-02,2.502119471577661791e-01,-1.297823062268757821e-01
3.360000000000000209e-01,1.484927782793430129e-01,2.889572378610984482e-01,-1.175920352301273314e-01
3.370000000000000218e-01,1.719039979773223370e-01,2.853704796031866220e-01,-7.094622215013486610e-02
3.380000000000000226e-01,2.408143596464495106e-01,2.865122347041275663e-01,-3.367320807230315960e-02
3.390000000000000235e-01,2.730918085815174368e-01,2.925019295739491043e-01,1.844720244868399426e-03
3.400000000000000244e-01,2.909564732034171097e-01,2.819969203531411672e-01,2.079284054177945804e-02
3.410000000000000253e-01,3.300501578764082344e-01,2.481466848024032890e-01,6.786239088218416760e-02
3.420000000000000262e-01,3.763516531822025390e-01,2.190148665631055092e-01,6.017192204340236772e-02
3.430000000000000271e-01,3.698042311923122605e-01,2.198560330745342184e-01,1.232890658873712214e-01
3.439999999999999725e-01,3.707245458087756740e-01,1.835041562428722794e-01,1.421787273188719891e-01
3.449999999999999734e-01,3.473830943076273159e-01,1.049151678463264986e-01,1.885842081453424912e-01
3.459999999999999742e-01,3.370066545723900409e-01,8.890588050121987773e-02,1.895840025328600909e-01
3.469999999999999751e-01,3.218879286573930187e-01,2.113325272357684595e-02,2.077644637764974322e-01
3.479999999999999760e-01,2.698124423196788246e-01,1.127701599722742525e-02,2.083481844709437203e-01
3.489999999999999769e-01,2.314172213796751310e-01,-6.637073034190307808e-02,2.309618634567645601e-01
3.499999999999999778e-01,1.576058124318025500e-01,-9.562250767671956475e-02,2.225101857871180089e-01
3.509999999999999787e-01,1.257853070606294588e-01,-1.374612702385078766e-01,2.207219935595937932e-01
3.519999999999999796e-01,8.009458597024772530e-02,-1.851935568267231436e-01,2.008429810739936761e-01
3.529999999999999805e-01,9.217004081221020356e-03,-2.189342357611961387e-01,1.956208869951739371e-01
3.539999999999999813e-01,-3.427440814478081854e-02,-2.508717102926988907e-01,1.467920563598290318e-01
3.549999999999999822e-01,-9.083690961047337364e-02,-2.860065346716753054e-01,1.281588666462765425e-01
3.559999999999999831e-01,-1.593721794331415809e-01,-2.983310819520339496e-01,1.027751884820604367e-01
3.569999999999999840e-01,-1.917761786029287541e-01,-2.941623911685001258e-01,4.302749280835718726e-02
3.579999999999999849e-01,-2.403529167334187144e-01,-2.773624338951663493e-01,3.855349120653613071e-02
3.589999999999999858e-01,-2.853357880422892623e-01,-2.770824163031733178e-01,7.385297094023990719e-03
3.599999999999999867e-01,-3.267702286919271781e-01,-2.749391036706471114e-01,-4.689429494976195961e-02
3.609999999999999876e-01,-3.579050231095836088e-01,-2.638307067398185657e-01,-6.071392594841495266e-02
3.619999999999999885e-01,-3.666677502330795146e-01,-2.053854246083567647e-01,-7.431281424180583017e-02
3.629999999999999893e-01,-3.712349499419338450e-01,-2.063140842702852473e-01,-1.517049633387742291e-01
3.639999999999999902e-01,-3.371137189251582345e-01,-1.316128752848531591e-01,-1.439060019932801304e-01
3.649999999999999911e-01,-3.513536717350504435e-01,-9.706516657075062171e-02,-1.835106525492224971e-01
3.659999999999999920e-01,-3.145537538538922262e-01,-7.492897739333442830e-02,-1.876155618498755728e-01
3.669999999999999929e-01,-2.742157040455204253e-01,7.676105764809391940e-03,-2.051319468047331229e-01
3.679999999999999938e-01,-2.662806957401047669e-01,1.529090803477132707e-02,-2.235157456707782819e-01
3.689999999999999947e-01,-2.269956262107692968e-01,7.863050738142299267e-02,-2.015715907523198402e-01
3.699999999999999956e-01,-1.679079847613687004e-01,1.030055711098936538e-01,-2.181913500013881457e-01
3.709999999999999964e-01,-1.191419897863014860e-01,1.634957399865826499e-01,-2.018369196822349665e-01
3.719999999999999973e-01,-5.939989241159510797e-02,1.862312585081370431e-01,-2.141650325316539483e-01
3.729999999999999982e-01,3.676918948009796472e-03,2.327236614395825354e-01,-1.877666020129394042e-01
3.739999999999999991e-01,5.076862162785777954e-02,2.445539613801334666e-01,-1.537648671962097979e-01
3.750000000000000000e-01,1.220557630683622580e-01,2.830733253038874020e-01,-1.293240605307598157e-01
3.760000000000000009e-01,1.770441662507185876e-01,2.829949137333886977e-01,-1.019295549328769757e-01
3.770000000000000018e-01,2.126697641555290730e-01,3.012137383976711269e-01,-6.824316736292979080e-02
3.780000000000000027e-01,2.550753850349087304e-01,2.853032363313839359e-01,-2.293437303208709435e-02
3.790000000000000036e-01,2.824143778276924643e-01,2.580288576163810577e-01,2.582215918498827461e-03
3.800000000000000044e-01,3.445362198276604726e-01,2.546850929859391099e-01,4.938107015213245160e-02
3.810000000000000053e-01,3.439169265102550721e-01,2.532107741956898805e-01,5.000593457209890486e-02
3.820000000000000062e-01,3.801524783073956248e-01,2.107140536039132095e-01,1.055672645102351120e-01
3.830000000000000071e-01,3.877293061714906508e-01,1.775360680829646820e-01,1.249212102093931742e-01
3.840000000000000080e-01,3.566930620865075841e-01,1.160029834376911095e-01,1.534419447046154461e-01
3.850000000000000089e-01,3.489567640116557068e-01,9.031625600623606476e-02,1.944644163059668640e-01
3.860000000000000098e-01,3.108399912513687413e-01,3.586877827689664844e-02,1.732799867175768838e-01
3.870000000000000107e-01,2.918956198777658551e-01,-5.934342480095022333e-03,2.320523146871550646e-01
3.880000000000000115e-01,2.289407398536771332e-01,-7.384450074768808547e-02,2.141578472059228744e-01
3.890000000000000124e-01,1.924924247111750586e-01,-1.185191406442695355e-01,2.092364903773563656e-01
3.900000000000000133e-01,1.571547104765260161e-01,-1.342917151102954176e-01,2.212152572689721208e-01
3.910000000000000142e-01,1.197772546726719456e-01,-1.704765286416793091e-01,1.879177316976935741e-01
3.920000000000000151e-01,5.891204698131132650e-02,-2.354293439738807947e-01,2.140188034504789394e-01
3.930000000000000160e-01,-2.594275325686792519e-02,-2.520439603138867612e-01,1.572389212179227391e-01
3.940000000000000169e-01,-7.056274624042595256e-02,-2.824076337847072904e-01,1.644339229849212103e-01
3.950000000000000178e-01,-1.290151802493343935e-01,-2.873018320682193538e-01,1.346675439862590196e-01
3.960000000000000187e-01,-1.519984339811655816e-01,-3.092172084764339690e-01,9.137075580068973468e-02
3.970000000000000195e-01,-2.426553524486530500e-01,-2.939824102031962649e-01,5.665172766654934244e-02
3.980000000000000204e-01,-2.915570470710951434e-01,-2.959254099073331812e-01,3.332557703075483130e-02
3.990000000000000213e-01,-2.942433662932059657e-01,-2.728116903385374714e-01,-2.523809192116054090e-02
4.000000000000000222e-01,-3.212328148990951093e-01,-2.498859077798080419e-01,-3.817495372212597465e-02
4.010000000000000231e-01,-3.498329173443530116e-01,-2.007775044597452652e-01,-7.514365868462652420e-02
4.020000000000000240e-01,-3.663034749627661069e-01,-1.906927646510721275e-01,-1.060983788235542735e-01
4.030000000000000249e-01,-3.787929621218968368e-01,-1.418580874665981428e-01,-1.335416143394334010e-01
4.040000000000000258e-01,-3.714763990431575458e-01,-1.007933347229794802e-01,-1.750696811823449495e-01
4.050000000000000266e-01,-3.121860145672055165e-01,-5.744797022244477191e-02,-1.844624747658457076e-01
4.060000000000000275e-01,-3.024362505104015164e-01,-1.156608749542625304e-02,-2.255583963162238748e-01
4.069999999999999729e-01,-2.944291141962003255e-01,6.419642031274543081e-02,-2.128535327831480306e-01
4.079999999999999738e-01,-2.323663020714793193e-01,6.846996557483174539e-02,-2.414809287284778172e-01
4.089999999999999747e-01,-1.737495113308892558e-01,1.422816907868647007e-01,-1.935895190138326449e-01
4.099999999999999756e-01,-1.435842918394634737e-01,1.472416522686134377e-01,-2.381113683786462987e-01
4.109999999999999765e-01,-7.258597682094843073e-02,1.927533113596119618e-01,-2.062202695759292881e-01
4.119999999999999774e-01,-3.267193506715883322e-02,2.511555061503691899e-01,-1.818945574668496545e-01
4.129999999999999782e-01,2.535791407027966973e-02,2.808302280464727851e-01,-1.561515955671291533e-01
4.139999999999999791e-01,9.551298336671307232e-02,2.751355452111614031e-01,-1.393321493610277795e-01
4.149999999999999800e-01,1.598067921047932327e-01,2.794414634400776976e-01,-1.301503638206260582e-01
4.159999999999999809e-01,1.939825168252049536e-01,2.902203559023147639e-01,-1.005444565740305218e-01
4.169999999999999818e-01,2.319745280853185987e-01,3.074060079395114498e-01,-7.043015604139764296e-02
4.179999999999999827e-01,2.854636168458468126e-01,2.810325771053710509e-01,-3.344924454210133902e-02
4.189999999999999836e-01,3.416212426048318429e-01,2.562787270485571423e-01,1.490541060162992731e-02
4.199999999999999845e-01,3.359762277919330353e-01,2.294139155775004602e-01,6.003076634508483500e-02
4.209999999999999853e-01,3.617846297166311675e-01,1.931391933026641583e-01,6.288452671522351545e-02
4.219999999999999862e-01,3.586101421076805518e-01,1.763261211336773493e-01,1.106416947768395082e-01
4.229999999999999871e-01,3.452609652627440795e-01,1.328488439295901491e-01,1.515883676739399055e-01
4.239999999999999880e-01,3.810877959686399530e-01,9.480670625245590788e-02,1.606643218373392523e-01
4.249999999999999889e-01,3.595993756690817889e-01,2.415092893173442432e-02,1.750213939039766964e-01
4.259999999999999898e-01,2.979795621382060888e-01,1.329405038299711836e-02,2.003030184269809777e-01
4.269999999999999907e-01,2.705679070867608171e-01,-4.822317497089848026e-02,2.142723664300720809e-01
4.279999999999999916e-01,2.292938039982543030e-01,-1.215975797201975517e-01,2.169358451171367885e-01
4.289999999999999925e-01,1.721469768904877184e-01,-1.458247422141354388e-01,2.304595619181109833e-01
4.299999999999999933e-01,1.353886218950230425e-01,-1.707481196891261488e-01,2.130603533021415974e-01
4.309999999999999942e-01,6.013027601559392532e-02,-2.083401692892770940e-01,2.158418576584945903e-01
4.319999999999999951e-01,1.155722785843472065e-02,-2.409707771819137312e-01,2.167983131995037116e-01
4.329999999999999960e-01,-5.198296432879136175e-02,-2.529627902122448813e-01,1.708406603902831167e-01
4.339999999999999969e-01,-1.234128837870760165e-01,-2.986137947822466998e-01,1.529831889407125556e-01
4.349999999999999978e-01,-1.663395819099775519e-01,-2.785311035776301680e-01,1.076617700635114500e-01
4.359999999999999987e-01,-2.146252684884994988e-01,-2.828041946820638586e-01,6.470635414435788046e-02
4.369999999999999996e-01,-2.648073775900985360e-01,-2.947265171157737451e-01,5.611738876876319615e-02
4.380000000000000004e-01,-2.697304859843547287e-01,-2.692236263391403761e-01,-1.896391507218752985e-03
4.390000000000000013e-01,-3.343674085759342218e-01,-2.568635440185954577e-01,-5.505688119388428732e-03
4.400000000000000022e-01,-3.396617195748658502e-01,-2.348342129060609629e-01,-3.801500789611256259e-02
4.410000000000000031e-01,-3.560596808894117005e-01,-1.893894164868050456e-01,-1.067212419773753140e-01
4.420000000000000040e-01,-3.566762134466425760e-01,-1.403424707821089856e-01,-1.009146862521983629e-01
4.430000000000000049e-01,-3.743600259290823518e-01,-9.359324372802940717e-02,-1.217684890205642939e-01
4.440000000000000058e-01,-3.244154323231696613e-01,-5.601986760323591358e-02,-1.487318696942055707e-01
4.450000000000000067e-01,-3.030067750952189498e-01,-4.303026823044481253e-03,-1.908262538945925124e-01
4.460000000000000075e-01,-2.998609331606550410e-01,5.453950054420720478e-02,-2.284498584227591944e-01
4.470000000000000084e-01,-2.577372389420285459e-01,6.737419400473934616e-02,-2.242995158603575401e-01
4.480000000000000093e-01,-2.117627868558306925e-01,1.374790115234501287e-01,-2.114904225580835073e-01
4.490000000000000102e-01,-1.378654684437412015e-01,1.781208721049636345e-01,-2.071485048622633829e-01
4.500000000000000111e-01,-9.729296852873567381e-02,2.069098015871476404e-01,-2.371249302064227515e-01
4.510000000000000120e-01,-4.900849636888113259e-02,2.495335538539753539e-01,-1.962413213301904824e-01
4.520000000000000129e-01,1.194033107890870790e-02,2.575327010598167932e-01,-1.736451087155346795e-01
4.530000000000000138e-01,3.567270765125014897e-02,2.864595921613717899e-01,-1.480128169332521892e-01
4.540000000000000147e-01,1.211526250252324272e-01,2.774502717738415725e-01,-1.576057171189900463e-01
4.550000000000000155e-01,1.942798435095464127e-01,2.811452886134251372e-01,-1.019106876114076882e-01
4.560000000000000164e-01,2.366208870754226978e-01,2.726192106751608168e-01,-9.225464401108997292e-02
4.570000000000000173e-01,2.476373239988161612e-01,2.755084564156660698e-01,-5.961025358776776001e-02
4.580000000000000182e-01,3.125202941724631867e-01,2.563226794281169840e-01,-7.969888391316536091e-03
4.590000000000000191e-01,3.491560413417812980e-01,2.099502151508260139e-01,2.930296470466761324e-02
4.600000000000000200e-01,3.587668010116456530e-01,2.048021411065124031e-01,5.719934144554657263e-02
4.610000000000000209e-01,4.083842943196151487e-01,1.641800399554674272e-01,9.126024142709437958e-02
4.620000000000000218e-01,3.626383004065860671e-01,1.027081304396113420e-01,1.058087456996121417e-01
4.630000000000000226e-01,3.680086981360031206e-01,9.230715013290695381e-02,1.460651504449304583e-01
4.640000000000000235e-01,3.211068020680367674e-01,4.974363498470572853e-02,1.495756191254626888e-01
4.650000000000000244e-01,3.232379062404302505e-01,-1.467926414694230471e-02,1.818079875172433912e-01
4.660000000000000253e-01,2.721786313208436336e-01,-5.447696984754824001e-02,2.122254046850647613e-01
4.670000000000000262e-01,2.298072713732238481e-01,-1.061858425181619048e-01,2.325969885284568939e-01
4.680000000000000271e-01,1.779891853549214753e-01,-1.211271591766915207e-01,2.208514547906715308e-01
4.689999999999999725e-01,1.446863779575901232e-01,-1.745334228477602168e-01,2.226505776138441306e-01
4.699999999999999734e-01,7.439278204728705379e-02,-2.102976204967999529e-01,2.227889041847538054e-01
4.709999999999999742e-01,2.268035859766459952e-02,-2.493898264055285918e-01,1.935032926768331940e-01
4.719999999999999751e-01,-2.312826592662348135e-02,-2.922952358805205875e-01,1.768531313117532866e-01
4.729999999999999760e-01,-9.002586226710787565e-02,-2.739223857410728602e-01,1.655647288152487795e-01
4.739999999999999769e-01,-1.465620942469117172e-01,-2.708070878344959742e-01,1.574637402600751745e-01
4.749999999999999778e-01,-1.572748783323512645e-01,-3.172949092180078479e-01,8.976954028587134926e-02
4.759999999999999787e-01,-2.624695368225264946e-01,-2.927386013449687074e-01,1.004745590532904603e-01
4.769999999999999796e-01,-2.717657889779770408e-01,-2.693904021384741498e-01,4.968927150165105416e-02
4.779999999999999805e-01,-2.987668280506023955e-01,-2.586034280166097932e-01,2.252218053368956752e-02
4.789999999999999813e-01,-3.451836656588533336e-01,-2.255513773399246413e-01,-4.256149542625227433e-02
4.799999999999999822e-01,-3.352898935489774246e-01,-1.816582798013923195e-01,-4.344710024897204675e-02
4.809999999999999831e-01,-3.678055786905815583e-01,-1.527045469212684192e-01,-8.577167069835078816e-02
4.819999999999999840e-01,-3.613559432284096373e-01,-1.041491515718649258e-01,-1.057843879974690871e-01
4.829999999999999849e-01,-3.502494685815899511e-01,-4.873747115349512382e-02,-1.213572576276844422e-01
4.839999999999999858e-01,-3.335046731275024268e-01,-1.553450918758171812e-03,-1.279589166310715620e-01
4.849999999999999867e-01,-2.895225570988364527e-01,5.887071223388237046e-02,-1.832803995476063041e-01
4.859999999999999876e-01,-2.867180492438987094e-01,9.034603675804238343e-02,-1.747835890427898720e-01
4.869999999999999885e-01,-2.294220542808668439e-01,9.786786447934735234e-02,-2.007845725487053257e-01
4.879999999999999893e-01,-1.710995097727293357e-01,1.638636092022779933e-01,-2.103660920595408490e-01
4.889999999999999902e-01,-1.364276248547584003e-01,1.949069459649901137e-01,-1.926441696478450316e-01
4.899999999999999911e-01,-6.015008163026473731e-02,2.149690424842283509e-01,-2.358904096602534028e-01
4.909999999999999920e-01,-1.342410742770378494e-02,2.651014946289598773e-01,-2.028661031697853723e-01
4.919999999999999929e-01,4.995983942404973871e-02,2.758546837300381860e-01,-1.673147321648290053e-01
4.929999999999999938e-01,9.378189644597599572e-02,2.736043616045017446e-01,-1.612648405822024456e-01
4.939999999999999947e-01,1.555402914438855366e-01,2.904591678818434497e-01,-1.484960041620737026e-01
4.949999999999999956e-01,2.202646673698012425e-01,2.989124696189263686e-01,-1.000550047173963120e-01
4.959999999999999964e-01,2.560179308899342421e-01,2.845658379117381731e-01,-9.040531457207615085e-02
4.969999999999999973e-01,2.935476071175328605e-01,2.388968663658087022e-01,-3.804894096092512057e-02
4.979999999999999982e-01,3.400037780132045273e-01,2.419407404538388151e-01,9.813826674030006608e-03
4.989999999999999991e-01,3.367155229979300057e-01,2.064212848041567239e-01,6.294778360771438770e-03
5.000000000000000000e-01,3.560765286494805282e-01,1.760059571161197434e-01,5.749184742297418910e-02
5.010000000000000009e-01,3.387052790899225951e-01,1.238882836175265179e-01,8.694627904352442149e-02
5.020000000000000018e-01,3.653708679238736323e-01,6.712362152183780351e-02,1.139925407914098576e-01
5.030000000000000027e-01,3.624342546048652802e-01,5.830299999688263318e-02,1.483972059550830169e-01
5.040000000000000036e-01,3.158554829110519213e-01,-2.203967491320606847e-02,2.018251643805987205e-01
5.050000000000000044e-01,2.953838205978001619e-01,-5.480556056125417130e-02,1.847899642061842651e-01
5.060000000000000053e-01,2.508457592484508170e-01,-1.150203095309152435e-01,1.887926448836103333e-01
5.070000000000000062e-01,2.059366062856678725e-01,-1.330624061416977588e-01,2.110766694422207823e-01
5.080000000000000071e-01,1.635653037367336970e-01,-1.551009544652400818e-01,2.079547445496047475e-01
5.090000000000000080e-01,9.554301952193890168e-02,-2.078824519690251338e-01,1.897674527574509662e-01
5.100000000000000089e-01,3.509209880879483878e-02,-2.420744806648656711e-01,2.219234010462350914e-01
5.110000000000000098e-01,-2.462842322388120869e-02,-2.821373325546959188e-01,2.230726116558338912e-01
5.120000000000000107e-01,-5.058053196536632656e-02,-2.936073027832091786e-01,1.946862657895171711e-01
5.130000000000000115e-01,-1.251332394789731184e-01,-2.841085017787315370e-01,1.259966864498152650e-01
5.140000000000000124e-01,-1.633879365387866101e-01,-2.839516648940832444e-01,1.109589083031622125e-01
5.150000000000000133e-01,-2.181445232171760062e-01,-2.719778147454985917e-01,1.037755847360058159e-01
5.160000000000000142e-01,-2.509558812357532420e-01,-2.557057203770084497e-01,6.625989736626777815e-02
5.170000000000000151e-01,-3.076063319180857847e-01,-2.429336553469358673e-01,5.518439659993542440e-02
5.180000000000000160e-01,-3.359998950047012878e-01,-2.251119888865892038e-01,1.932522532023081899e-02
5.190000000000000169e-01,-3.585712719146417760e-01,-1.779427249826222857e-01,-3.186647011664333479e-02
5.200000000000000178e-01,-3.655339978748115004e-01,-1.331991624264338703e-01,-7.988046482109040225e-02
5.210000000000000187e-01,-3.625564806544954721e-01,-1.239454202384341897e-01,-7.409660565191961146e-02
5.220000000000000195e-01,-3.737628673495744791e-01,-4.272720181191433375e-02,-1.278988548884259502e-01
5.230000000000000204e-01,-3.485684323694294151e-01,-1.370918638897373684e-02,-1.384690843629499957e-01
5.240000000000000213e-01,-2.894026139051407709e-01,1.900656160202566364e-02,-1.749371468641857386e-01
5.250000000000000222e-01,-2.744955316459535832e-01,7.859235592253445424e-02,-1.921966459041340725e-01
5.260000000000000231e-01,-2.519741116436473582e-01,1.294397425002752622e-01,-1.884622501834787855e-01
5.270000000000000240e-01,-2.178663364628671828e-01,1.922391050108237798e-01,-2.123719570129070922e-01
5.280000000000000249e-01,-1.559405760647735451e-01,1.827317753524932420e-01,-2.369090172187649501e-01
5.290000000000000258e-01,-1.029433574343837782e-01,2.308990672415474066e-01,-2.086193573056220329e-01
5.300000000000000266e-01,-4.907716540734386595e-02,2.382409129151802918e-01,-1.945183570952743468e-01
5.310000000000000275e-01,2.167788555951648960e-02,2.789981860109388978e-01,-2.123771160640165467e-01
5.320000000000000284e-01,5.391400726539744698e-02,2.878272882244037323e-01,-1.903624560925416820e-01
5.330000000000000293e-01,1.176720717106465863e-01,3.078082855630250303e-01,-1.492517333515383793e-01
5.340000000000000302e-01,1.542083185031860038e-01,2.888979103286735128e-01,-1.240095492360809015e-01
5.350000000000000311e-01,2.196091496960118350e-01,2.860102224352794043e-01,-1.025917540703323028e-01
5.360000000000000320e-01,2.913294337658331457e-01,2.649515242320177877e-01,-7.218302164634157747e-02
5.370000000000000329e-01,2.797253645369618957e-01,2.311950541634969769e-01,-3.384893221864615498e-02
5.380000000000000338e-01,3.318546523394866887e-01,1.971997993240735270e-01,-7.121404618151222499e-03
5.390000000000000346e-01,3.560508469883282845e-01,1.905221606563655967e-01,5.290292512217983911e-02
5.400000000000000355e-01,3.558227490758643086e-01,1.335422488848367895e-01,5.211934757979531235e-02
5.410000000000000364e-01,3.726021391998310395e-01,1.210448139183687849e-01,9.736126923579231651e-02
5.420000000000000373e-01,3.694015739594938563e-01,3.307563177427085693e-02,1.370477546215412845e-01
5.430000000000000382e-01,3.228194728238072964e-01,-8.110375068992486166e-04,1.541452068921912166e-01
5.440000000000000391e-01,3.036147228633313544e-01,-6.067442823756600406e-02,1.827322412017669817e-01
5.450000000000000400e-01,2.816081423166549302e-01,-1.126262357391779739e-01,1.844261337196820005e-01
5.460000000000000409e-01,2.501961761377881621e-01,-1.389990673379422337e-01,2.058463133240142351e-01
5.470000000000000417e-01,2.004178063999591808e-01,-1.784782432227123572e-01,2.037949789477851714e-01
5.480000000000000426e-01,1.220638309618730377e-01,-2.080909871528066613e-01,2.118399840896101893e-01
5.490000000000000435e-01,6.248639418861869077e-02,-2.153531569024660086e-01,1.840041053622404887e-01
5.500000000000000444e-01,3.690274926521925486e-02,-2.819407827051237936e-01,2.146444265375968274e-01
5.510000000000000453e-01,-4.702450215491193325e-02,-2.941687646059753525e-01,2.014714798555889141e-01
5.520000000000000462e-01,-9.189471513359485921e-02,-3.043154126676222426e-01,1.654706494453921373e-01
5.530000000000000471e-01,-1.397116909775360516e-01,-3.118428905779472848e-01,1.521492664571842957e-01
5.540000000000000480e-01,-2.123912016708296713e-01,-2.703180947176774263e-01,1.131271675791632875e-01
5.550000000000000488e-01,-2.453650333160805330e-01,-2.636478333645825289e-01,1.111284895586970578e-01
5.560000000000000497e-01,-2.769090378102960215e-01,-2.566590282140345791e-01,6.444061818366784988e-02
5.570000000000000506e-01,-3.373642004642092851e-01,-2.072239158752881560e-01,4.671952051746557089e-02
5.580000000000000515e-01,-3.526500687395563438e-01,-1.697147431236072646e-01,-8.348419452241477925e-03
5.590000000000000524e-01,-3.485216553586471533e-01,-1.503991889643980784e-01,-3.198313145766309290e-02
5.600000000000000533e-01,-3.986295134348046831e-01,-1.153479989830465680e-01,-8.107798347782919912e-02
5.610000000000000542e-01,-3.623631038040333596e-01,-7.121368918961530625e-02,-8.735506308861992752e-02
5.620000000000000551e-01,-3.521063793333377712e-01,-3.194968639592078719e-02,-1.410835146543138185e-01
5.629999999999999449e-01,-3.260570059155715739e-01,3.582500111963761447e-02,-1.456320715352237005e-01
5.639999999999999458e-01,-3.182137351485571641e-01,6.672359254659435135e-02,-1.672139802060149394e-01
5.649999999999999467e-01,-2.767688597510242765e-01,1.486759187225914491e-01,-1.878985559810787687e-01
5.659999999999999476e-01,-2.162401939003927853e-01,1.571791850461663198e-01,-2.060966059694273045e-01
5.669999999999999485e-01,-1.711862200094646791e-01,1.908970483640867466e-01,-2.173554996327613231e-01
5.679999999999999494e-01,-1.020159404734805875e-01,2.279583690083222813e-01,-2.213397532778489940e-01
5.689999999999999503e-01,-6.850141428500809704e-02,2.607424953776414922e-01,-2.074335986466871173e-01
5.699999999999999512e-01,7.310345741237334743e-03,2.636320608399869703e-01,-1.923732392809411329e-01
5.709999999999999520e-01,2.949370489177442073e-02,2.791641097119349491e-01,-1.925157106340531221e-01
5.719999999999999529e-01,1.174071244083580712e-01,2.985996645442972608e-01,-1.642539437623989351e-01
5.729999999999999538e-01,1.633172283327579688e-01,2.839156636886531193e-01,-1.538970973643308260e-01
5.739999999999999547e-01,2.422811487921650297e-01,2.872293041143658687e-01,-1.260274238896303689e-01
5.749999999999999556e-01,2.593578692101294325e-01,2.427201571687441495e-01,-1.101203563792833712e-01
5.759999999999999565e-01,3.024516113471515388e-01,2.452422806009690870e-01,-6.846201942088925296e-02
5.769999999999999574e-01,3.339482286712577297e-01,2.197236948989099437e-01,-5.216167964116953659e-02
5.779999999999999583e-01,3.569140081743242265e-01,1.642533750094705702e-01,9.082016642861275978e-04
5.789999999999999591e-01,3.569910505700937819e-01,1.259496052509739006e-01,2.996833699912276883e-02
5.799999999999999600e-01,3.665439513257109927e-01,8.912883272986091288e-02,5.463827223384983001e-02
5.809999999999999609e-01,3.641774963926324715e-01,5.973087901832983132e-02,1.078337366322772717e-01
5.819999999999999618e-01,3.333959285484746071e-01,-7.395213406446148746e-03,1.390177311310262509e-01
5.829999999999999627e-01,3.120898092654602052e-01,-6.775197439875856043e-02,1.714194240809161773e-01
5.839999999999999636e-01,2.837168332799295256e-01,-1.168646222062030143e-01,1.711208197843171464e-01
5.849999999999999645e-01,2.402567232542177633e-01,-1.351828536825675497e-01,1.821720195820179522e-01
5.859999999999999654e-01,2.172529207298728171e-01,-1.834345459868912676e-01,2.204014311542540072e-01
5.869999999999999662e-01,1.664427338770252951e-01,-2.092608498671535422e-01,2.375452013665377837e-01
5.879999999999999671e-01,9.220442234949755012e-02,-2.372215829742847226e-01,2.286345632188235277e-01
5.889999999999999680e-01,4.746211436805004152e-02,-2.660930677829668745e-01,2.232454766570683979e-01
5.899999999999999689e-01,-3.478693911697545993e-02,-2.837807254890355457e-01,2.058159497834122498e-01
5.909999999999999698e-01,-8.586322062540158173e-02,-3.048999211470255766e-01,1.913564972476766712e-01
5.919999999999999707e-01,-1.117281160874769863e-01,-3.074766561370254614e-01,1.749379157814829888e-01
5.929999999999999716e-01,-1.902372442668022745e-01,-2.761127689638118721e-01,1.461249971277580606e-01
5.939999999999999725e-01,-2.590210308436481368e-01,-2.691626470993194187e-01,1.176255164100775685e-01
5.949999999999999734e-01,-2.604223451307838277e-01,-2.392902118328205652e-01,8.163361651739339808e-02
5.959999999999999742e-01,-3.092317503821274127e-01,-2.316783865518830532e-01,6.583845423912754180e-02
5.969999999999999751e-01,-3.450520785897819298e-01,-1.839214205605526620e-01,3.796846883502715680e-02
5.979999999999999760e-01,-3.532441851903816987e-01,-1.671387967930512974e-01,-1.628420666103372327e-03
5.989999999999999769e-01,-3.570800527830376159e-01,-7.824992932820366842e-02,-4.748285960888815049e-02
5.999999999999999778e-01,-3.705400758318415644e-01,-7.722392608048103679e-02,-8.452548253602183703e-02
6.009999999999999787e-01,-3.578798049556214944e-01,-9.490514247741669435e-03,-1.083396751144398290e-01
6.019999999999999796e-01,-3.442842532467442762e-01,2.468723894384344114e-02,-1.125296618090616679e-01
6.029999999999999805e-01,-3.312055758201337685e-01,6.873114070752991966e-02,-1.592873237508977691e-01
6.039999999999999813e-01,-2.565259469726209884e-01,1.202753445652220837e-01,-1.814297810008829448e-01
6.049999999999999822e-01,-2.471207098631778842e-01,1.556193707057671183e-01,-2.169646160217194031e-01
6.059999999999999831e-01,-1.850718259025600498e-01,2.036613478971649460e-01,-2.236748517618786514e-01
6.069999999999999840e-01,-1.538690640667196297e-01,2.436741754312948538e-01,-2.063551992332514906e-01
6.079999999999999849e-01,-7.141155626883791130e-02,2.427944596291158608e-01,-2.149533928933749505e-01
6.089999999999999858e-01,-2.081377461415278435e-02,2.859410075480591784e-01,-2.003911785056342043e-01
6.099999999999999867e-01,4.606336429667964340e-03,2.799843722724106310e-01,-2.215077714759433325e-01
6.109999999999999876e-01,1.043342727097419792e-01,2.713318189633226463e-01,-2.026085753154610314e-01
6.119999999999999885e-01,1.393898552855665218e-01,2.944595276470309275e-01,-1.794358525033890595e-01
6.129999999999999893e-01,1.839631311367787014e-01,2.760667734434396614e-01,-1.335908253527321454e-01
6.139999999999999902e-01,2.391530431789661015e-01,2.704801777394154061e-01,-9.318243062964703949e-02
6.149999999999999911e-01,2.851371858494071709e-01,2.592269044983110393e-01,-1.026227940375131487e-01
6.159999999999999920e-01,3.194333059548724041e-01,2.097363775983470402e-01,-5.855506130917549623e-02
6.169999999999999929e-01,3.384491689569178452e-01,1.743159287934674673e-01,6.925979817318706280e-03
6.179999999999999938e-01,3.638524397727981308e-01,1.391118544415855529e-01,3.653868510305296330e-02
6.189999999999999947e-01,3.803513525752673652e-01,8.597766166810054400e-02,5.527846391259862852e-02
6.199999999999999956e-01,3.624240879246223845e-01,4.658608526999948735e-02,6.608356164772803687e-02
6.209999999999999964e-01,3.617899948158854739e-01,8.690679350998401984e-03,1.121773732969618687e-01
6.219999999999999973e-01,3.536088724807870398e-01,-6.522209007304274886e-02,1.315273574128565381e-01
6.229999999999999982e-01,3.031671647121649271e-01,-1.048968721815165400e-01,1.622445642292377199e-01
6.239999999999999991e-01,2.786523685049833721e-01,-1.391601086328894954e-01,1.730960380682336486e-01
6.250000000000000000e-01,2.183615554641285261e-01,-1.576075910446720629e-01,1.903049599813016746e-01
6.260000000000000009e-01,1.597356130700693100e-01,-2.171201449048651422e-01,2.125957302701371177e-01
6.270000000000000018e-01,1.054313915003730479e-01,-2.445531100900721067e-01,2.379497111607908888e-01
6.280000000000000027e-01,7.696704577309755602e-02,-2.663565641982494903e-01,2.024704572816894699e-01
6.290000000000000036e-01,1.688595492326410916e-02,-2.836440560195201410e-01,2.023442151450469961e-01
6.300000000000000044e-01,-5.512025920670362428e-02,-2.785357767480192148e-01,1.955635485805544693e-01
6.310000000000000053e-01,-1.077555418642881235e-01,-2.761124885139984442e-01,1.958896849455143141e-01
6.320000000000000062e-01,-1.788481101033936038e-01,-2.833157568790801162e-01,1.827658729873571641e-01
6.330000000000000071e-01,-2.081531640614288914e-01,-2.903459433375727983e-01,1.378552882162536741e-01
6.340000000000000080e-01,-2.797873853885918805e-01,-2.484561130694604714e-01,1.011846614422809987e-01
6.350000000000000089e-01,-3.018654639414243279e-01,-2.265365425898467622e-01,7.718417080515245499e-02
6.360000000000000098e-01,-3.430535124207160780e-01,-1.869637067512473216e-01,7.305604740885209003e-02
6.370000000000000107e-01,-3.371653123467874824e-01,-1.544413965917277309e-01,2.568476703140413001e-02
6.380000000000000115e-01,-3.716846433590114129e-01,-1.142011834116006541e-01,-1.809581244900795513e-02
6.390000000000000124e-01,-3.505871444117824032e-01,-5.259021289705498314e-02,-5.575818604319533744e-02
6.400000000000000133e-01,-3.545682295148517293e-01,-1.122664214249779330e-02,-8.719078838056525116e-02
6.410000000000000142e-01,-3.501236150626047539e-01,4.011646658414740052e-02,-1.060184225529483132e-01
6.420000000000000151e-01,-3.178040561566851108e-01,9.312186246971518311e-02,-1.421299255495902525e-01
6.430000000000000160e-01,-2.959692076183674248e-01,1.268705215879927517e-01,-1.700147844202707093e-01
6.440000000000000169e-01,-2.220913881072022200e-01,1.644976980256927512e-01,-1.684645272087863521e-01
6.450000000000000178e-01,-2.094824925946719985e-01,1.969699361198542498e-01,-1.806412370038078252e-01
6.460000000000000187e-01,-1.720026520771861522e-01,2.348796285157248587e-01,-2.092706495569508496e-01
6.470000000000000195e-01,-1.226492995581624501e-01,2.671711040586163266e-01,-2.194532526111796500e-01
6.480000000000000204e-01,-5.412765924809975066e-02,2.747236658058819780e-01,-2.149613484627279913e-01
6.490000000000000213e-01,1.255291739209460876e-02,2.966067699931775326e-01,-2.156775804840562194e-01
6.500000000000000222e-01,7.833507021172175788e-02,2.853534495442346386e-01,-2.186129003561633477e-01
6.510000000000000231e-01,1.248197547015929554e-01,2.894858593144605807e-01,-1.838637609428280251e-01
6.520000000000000240e-01,1.622583760930644547e-01,2.596746368777716474e-01,-1.559064607068717245e-01
6.530000000000000249e-01,2.249936592966160498e-01,2.544777545408526964e-01,-1.207593865367254105e-01
6.540000000000000258e-01,2.562844690852186802e-01,2.387960297958505174e-01,-9.194701034670146877e-02
6.550000000000000266e-01,3.204934610381062199e-01,1.862559451067190841e-01,-8.879134339950603416e-02
6.560000000000000275e-01,3.374687416775020710e-01,1.780046094576022420e-01,-4.901066393789378639e-02
6.570000000000000284e-01,3.591693167117088747e-01,1.350178113549297954e-01,-4.549190815641417085e-02
6.580000000000000293e-01,3.458030800962726969e-01,8.819698626656008456e-02,2.241189786689683910e-02
6.590000000000000302e-01,3.744596546133427961e-01,3.868598277690940557e-02,5.910181316499325821e-02
6.600000000000000311e-01,3.410226767054973518e-01,1.335253324845794495e-02,6.955135164987000240e-02
6.610000000000000320e-01,3.220692335877182177e-01,-3.953547933411904330e-02,1.146458264581972364e-01
6.620000000000000329e-01,3.022398152046460451e-01,-8.284629438364261855e-02,1.307409550437354517e-01
6.630000000000000338e-01,3.026762365062373727e-01,-1.379600058178992450e-01,1.855958410847909634e-01
6.640000000000000346e-01,2.288847750093001565e-01,-1.767524216719881525e-01,1.912685678740282391e-01
6.650000000000000355e-01,2.029797190170551380e-01,-2.402336862944297602e-01,2.002663259429503517e-01
6.660000000000000364e-01,1.297349589898113276e-01,-2.564534762352279063e-01,2.168598123898309304e-01
6.670000000000000373e-01,9.669589132938324894e-02,-2.829059241504128241e-01,2.094999787766109456e-01
6.680000000000000382e-01,3.412932443139127942e-02,-2.869719990849889935e-01,2.253119987660541501e-01
6.690000000000000391e-01,-4.666457294792723809e-02,-2.918773987479803544e-01,1.975356907556280184e-01
6.700000000000000400e-01,-7.897676404326293975e-02,-3.019796751623347597e-01,2.174875836331003343e-01
6.710000000000000409e-01,-1.540994425036936455e-01,-2.706119100240216846e-01,2.025936456978781608e-01
6.720000000000000417e-01,-1.821219710798564206e-01,-2.660349099888401070e-01,1.403677922836829017e-01
6.730000000000000426e-01,-2.355542620983208379e-01,-2.573403019695002514e-01,1.284487251600383295e-01
6.740000000000000435e-01,-2.643640495618883035e-01,-2.229224399636490217e-01,1.223724926244128680e-01
6.750000000000000444e-01,-2.995441557104998598e-01,-1.885623572912596413e-01,6.434840894650342702e-02
6.760000000000000453e-01,-3.442347375156565303e-01,-1.412867750337193085e-01,4.161321898188628104e-02
6.770000000000000462e-01,-3.653784650958238900e-01,-1.271046549137827275e-01,4.690501136170489513e-03
6.780000000000000471e-01,-3.570572486042634663e-01,-5.642335070945932868e-02,-2.323465287653983524e-02
6.790000000000000480e-01,-3.744872966383983592e-01,-1.463359244875416486e-02,-5.893100771280555816e-02
6.800000000000000488e-01,-3.453499968526910768e-01,1.985981584045762652e-02,-1.082968079762141739e-01
6.810000000000000497e-01,-3.169580458038899762e-01,7.625102004302378167e-02,-1.168270191609527831e-01
6.820000000000000506e-01,-3.279491449423809213e-01,1.249479393703530894e-01,-1.354858392023689795e-01
6.830000000000000515e-01,-2.644527302726565887e-01,1.837193827266151713e-01,-1.600032936433617714e-01
6.840000000000000524e-01,-2.176319784408731750e-01,1.983867590701690609e-01,-1.760687476039568267e-01
6.850000000000000533e-01,-1.772991795870365317e-01,2.369246867682997526e-01,-2.036906694687587727e-01
6.860000000000000542e-01,-1.111018394062295023e-01,2.537490422438826720e-01,-2.133451650305827618e-01
6.870000000000000551e-01,-6.692290863856238670e-02,2.910854839213048995e-01,-2.185054743268176614e-01
6.879999999999999449e-01,-2.282458400133770271e-02,2.956092255684564241e-01,-2.250067316956613772e-01
6.889999999999999458e-01,5.397355798907151753e-02,2.859372680548060708e-01,-1.898976280587422183e-01
6.899999999999999467e-01,9.888451421746043135e-02,3.160385143548331000e-01,-1.928675503245484424e-01
6.909999999999999476e-01,1.631169176862456716e-01,3.010228388187546900e-01,-1.757879980472215331e-01
6.919999999999999485e-01,2.072679333309876137e-01,2.679474316037451231e-01,-1.791863410248268618e-01
6.929999999999999494e-01,2.468316674652641096e-01,2.273148848422576473e-01,-1.261703640228087897e-01
6.939999999999999503e-01,2.849340124986291523e-01,2.124105171766957068e-01,-1.139195913793231707e-01
6.949999999999999512e-01,3.011239138163829820e-01,1.586239129129915215e-01,-7.639948987770554811e-02
6.959999999999999520e-01,3.489988144325738006e-01,1.127592189462487265e-01,-5.457328137240014670e-02
6.969999999999999529e-01,3.580225372324428168e-01,7.373194038487621005e-02,-2.862877920746380311e-02
6.979999999999999538e-01,3.594147606202918177e-01,2.561204511910411194e-02,1.924438561044243545e-02
6.989999999999999547e-01,3.578008103854338762e-01,-1.430059591817096562e-02,6.777923167831442774e-02
6.999999999999999556e-01,3.556335417088374862e-01,-5.921226818895210242e-02,1.117756749720000969e-01
7.009999999999999565e-01,3.380144753671205926e-01,-9.427250071962885170e-02,1.230787931818782682e-01
7.019999999999999574e-01,2.848271783911068278e-01,-1.580549166445929243e-01,1.454737581572357052e-01
7.029999999999999583e-01,2.784185919027378220e-01,-1.581646747653650265e-01,1.630283373485533482e-01
7.039999999999999591e-01,2.267668686309377291e-01,-2.025096458425186541e-01,1.957301732704775088e-01
7.049999999999999600e-01,1.642869840877576593e-01,-2.434047979391025518e-01,1.846523775900161535e-01
7.059999999999999609e-01,1.430750720454559144e-01,-2.832712732066497430e-01,2.378694110651153049e-01
7.069999999999999618e-01,4.060326115063694896e-02,-2.684362337974348089e-01,2.326589699064985639e-01
7.079999999999999627e-01,-1.334971544863624226e-04,-3.008232619248878970e-01,2.116831194454753817e-01
7.089999999999999636e-01,-7.411817187536896834e-02,-2.873830419340038245e-01,2.230645674256188093e-01
7.099999999999999645e-01,-9.730392608771733232e-02,-2.836560498905213445e-01,1.936192372838988207e-01
7.109999999999999654e-01,-1.769704924001094803e-01,-2.834277433898626519e-01,1.879782298976054034e-01
7.119999999999999662e-01,-2.402211364966583829e-01,-2.392120665783739053e-01,1.572136254229940522e-01
7.129999999999999671e-01,-2.616212259929517336e-01,-2.381760965287415266e-01,1.290669463249334570e-01
7.139999999999999680e-01,-3.011975743010290585e-01,-1.567034664030009794e-01,1.056649144558747533e-01
7.149999999999999689e-01,-3.285201071689646257e-01,-1.456775626168527737e-01,8.263577200787149135e-02
7.159999999999999698e-01,-3.578552431060758043e-01,-1.131909043113156627e-01,4.909128591107155687e-02
7.169999999999999707e-01,-3.603316583560827180e-01,-6.175587778678534590e-02,1.051369540543459040e-02
7.179999999999999716e-01,-3.647231061551609588e-01,9.845536772677293894e-03,-3.353024251168507802e-02
7.189999999999999725e-01,-3.752413861639586901e-01,1.650540273106159903e-02,-5.559920308183945864e-02
7.199999999999999734e-01,-3.308661962142246393e-01,6.464192035807557468e-02,-9.327852068977871003e-02
7.209999999999999742e-01,-3.294242064177979601e-01,1.125794643933468731e-01,-1.346530634188867481e-01
7.219999999999999751e-01,-2.781632696833905571e-01,1.557277094589647193e-01,-1.409176625440444752e-01
7.229999999999999760e-01,-2.271117010106779299e-01,1.955799584017846315e-01,-1.934753093745779085e-01
7.239999999999999769e-01,-1.856691563144622914e-01,2.336399293218408002e-01,-1.734741697341606603e-01
7.249999999999999778e-01,-1.573521082427853934e-01,2.576569853365744400e-01,-2.093308080242497760e-01
7.259999999999999787e-01,-9.255365238010970774e-02,2.846386030847211090e-01,-2.176025952587752332e-01
7.269999999999999796e-01,-4.064383912673401322e-02,3.031416670008506564e-01,-2.112354399830980167e-01
7.279999999999999805e-01,1.734428142843642828e-02,3.056633389162032310e-01,-2.178494938262471037e-01
7.289999999999999813e-01,8.412443781592847392e-02,3.018031267072434076e-01,-2.087214086838305449e-01
7.299999999999999822e-01,1.504054166797145764e-01,2.674801749357919589e-01,-1.935691209011292380e-01
7.309999999999999831e-01,1.749689897554531637e-01,2.493921786798687645e-01,-1.895225444453077224e-01
7.319999999999999840e-01,2.291653775814057603e-01,2.302258443104495123e-01,-1.766841722483145638e-01
7.329999999999999849e-01,2.811333650297314080e-01,2.304602943144665184e-01,-1.355824902075619953e-01
7.339999999999999858e-01,2.993839637233269846e-01,1.931208790953257703e-01,-9.626253328822359512e-02
7.349999999999999867e-01,3.376287512992529050e-01,1.327144691652147601e-01,-7.737825511265078449e-02
7.359999999999999876e-01,3.464901057503547710e-01,7.896488172367245595e-02,-4.879006706745217525e-02
7.369999999999999885e-01,3.724464500309845882e-01,3.354616866147094867e-02,-1.359988464039056655e-02
7.379999999999999893e-01,3.554716377063529831e-01,-3.752564469857718604e-02,5.115797582547247646e-02
7.389999999999999902e-01,3.573560673503139440e-01,-7.379626413270523599e-02,6.968236358088022997e-02
7.399999999999999911e-01,3.395183132224763867e-01,-8.019403345513986814e-02,9.348293442632051031e-02
7.409999999999999920e-01,3.078703403240702352e-01,-1.443481164068508016e-01,1.266961279785714656e-01
7.419999999999999929e-01,2.808973692887013485e-01,-1.933469192018291982e-01,1.509922673680068328e-01
7.429999999999999938e-01,2.525717651558174737e-01,-2.317928882577314498e-01,1.657291395784228349e-01
7.439999999999999947e-01,1.774180351588111049e-01,-2.428056906610597532e-01,2.019032440877356338e-01
7.449999999999999956e-01,1.219080737563628947e-01,-2.608161191445185212e-01,2.042736629906634904e-01
7.459999999999999964e-01,6.232352961081083498e-02,-2.950857161948196583e-01,1.910285695408865392e-01
7.469999999999999973e-01,2.078759477113000312e-02,-2.961900095165717617e-01,2.176723904110967056e-01
7.479999999999999982e-01,-2.435896482870206214e-02,-3.200020364504214121e-01,1.985038262231970385e-01
7.489999999999999991e-01,-8.783235719037554845e-02,-2.745113731816985481e-01,2.104620561392342437e-01
7.500000000000000000e-01,-1.608065847876513355e-01,-2.698816051578911690e-01,1.848066421897152367e-01
7.510000000000000009e-01,-1.681723682719851176e-01,-2.436740108889354217e-01,1.690435720592438351e-01
7.520000000000000018e-01,-2.510323801323725568e-01,-2.212180427985375730e-01,1.435906176948960888e-01
7.530000000000000027e-01,-2.818895772924252530e-01,-1.966416395142309981e-01,1.200369048222634655e-01
7.540000000000000036e-01,-3.198159391451630418e-01,-1.632728650511811874e-01,9.764043115604148504e-02
7.550000000000000044e-01,-3.461898733353667157e-01,-1.242567056878228215e-01,6.432117597592489078e-02
7.560000000000000053e-01,-3.750431816998068268e-01,-5.803140868190137525e-02,4.414449470304315087e-02
7.570000000000000062e-01,-3.478791534416655895e-01,-2.817103578991985227e-02,-1.413574224227237726e-02
7.580000000000000071e-01,-3.656600651512122435e-01,5.958079372145866359e-02,-3.586738649651442096e-02
7.590000000000000080e-01,-3.254475963502323488e-01,5.545136146783394976e-02,-6.005531645432096027e-02
7.600000000000000089e-01,-3.145826715302731391e-01,1.231453134426695323e-01,-1.117829844737532885e-01
7.610000000000000098e-01,-2.922541791198133287e-01,1.565710280190481529e-01,-1.205776756093501906e-01
7.620000000000000107e-01,-2.771506813467508046e-01,2.150551067462265209e-01,-1.601887983751142108e-01
7.630000000000000115e-01,-2.107087408659734928e-01,2.392148663895461713e-01,-1.654716923786865024e-01
7.640000000000000124e-01,-1.627100718775313093e-01,2.255608225471548156e-01,-1.984198958135451885e-01
7.650000000000000133e-01,-1.052025050776950049e-01,2.883702573993320306e-01,-2.100865081640006793e-01
7.660000000000000142e-01,-6.896593538969798820e-02,2.764583564690011874e-01,-2.158768658783815630e-01
7.670000000000000151e-01,-1.142917709207704434e-02,3.032510494765791598e-01,-2.268322804559509964e-01
7.680000000000000160e-01,5.483071961513494297e-02,2.915913910078504756e-01,-1.885340651362810982e-01
7.690000000000000169e-01,1.313412634635775234e-01,2.774010144360260499e-01,-2.160735770569811309e-01
7.700000000000000178e-01,1.508893441096834098e-01,2.658981591290630608e-01,-2.024749041943250949e-01
7.710000000000000187e-01,1.970240899513560628e-01,2.525623120288379986e-01,-1.778045707512391216e-01
7.720000000000000195e-01,2.567242261392517766e-01,2.065664649305570255e-01,-1.570351724096111790e-01
7.730000000000000204e-01,2.998586573320556337e-01,1.818558456992294958e-01,-1.476842797513235606e-01
7.740000000000000213e-01,3.268761385197260783e-01,1.451795983473950780e-01,-1.010711678054879714e-01
7.750000000000000222e-01,3.662193345483358287e-01,8.629137409320748742e-02,-6.574292766542094713e-02
7.760000000000000231e-01,3.874670672586834064e-01,4.400523728800237455e-02,-1.149419197689960891e-02
7.770000000000000240e-01,3.522318878269304898e-01,-9.634716193035889123e-03,-2.213830616784068228e-02
7.780000000000000249e-01,3.676247684290702700e-01,-4.730483529590382569e-02,5.281520004111070477e-02
7.790000000000000258e-01,3.419483268132027520e-01,-9.306953644236168333e-02,6.695956355401833093e-02
7.800000000000000266e-01,3.350991443136711045e-01,-1.386216051423741491e-01,9.091386476965655772e-02
7.810000000000000275e-01,2.731584611398525930e-01,-1.964042957052887783e-01,1.442454674965656103e-01
7.820000000000000284e-01,2.679187660921018566e-01,-2.077374088534399699e-01,1.579861737998407289e-01
7.830000000000000293e-01,2.075960052552527080e-01,-2.313178554603527726e-01,1.772568765459195395e-01
7.840000000000000302e-01,1.587880530945385837e-01,-2.738345382199884881e-01,1.939615422158051383e-01
7.850000000000000311e-01,1.201560210350577640e-01,-2.579484315511833548e-01,2.080417521709452267e-01
7.860000000000000320e-01,4.569434891535453791e-02,-3.024929359904635628e-01,2.001791118791446666e-01
7.870000000000000329e-01,-2.657411310583880984e-02,-3.023333748696085954e-01,2.053228240822856099e-01
7.880000000000000338e-01,-5.546033193153483004e-02,-2.972529760698490731e-01,2.123261261337900385e-01
7.890000000000000346e-01,-1.371523865801733688e-01,-2.611641162080013956e-01,2.173345968684993745e-01
7.900000000000000355e-01,-1.771339526847380275e-01,-2.843774588375542201e-01,1.960046355865192325e-01
7.910000000000000364e-01,-2.170856159777390659e-01,-2.374007281467964137e-01,1.690514445836968638e-01
7.920000000000000373e-01,-2.716206671789530569e-01,-1.769632300801845526e-01,1.340665762362205915e-01
7.930000000000000382e-01,-3.044695238855190111e-01,-1.799665509685845211e-01,1.164537168178587934e-01
7.940000000000000391e-01,-3.470099629843402811e-01,-1.155557924298719619e-01,9.076081755957002284e-02
7.950000000000000400e-01,-3.786895097269870614e-01,-6.050149093213275098e-02,7.077725174539774289e-02
7.960000000000000409e-01,-3.533568464521154029e-01,-1.330473434672744051e-02,4.303637118747678791e-02
7.970000000000000417e-01,-3.502854221733914253e-01,2.899557055489296667e-02,8.071370338076578471e-03
7.980000000000000426e-01,-3.790988679285083318e-01,6.550006375171815720e-02,-4.115109168002346884e-02
7.990000000000000435e-01,-3.372969589585088634e-01,1.052731283174658666e-01,-7.922824051274435231e-02
8.000000000000000444e-01,-3.358659586842521749e-01,1.722495734806151202e-01,-1.221151148421600330e-01
8.010000000000000453e-01,-2.860643701293299479e-01,1.855218632438663251e-01,-1.403804148349297454e-01
8.020000000000000462e-01,-2.042438888065272184e-01,2.112554864999421633e-01,-1.611154305348915794e-01
8.030000000000000471e-01,-1.887789886612419310e-01,2.425022868501499340e-01,-1.704138818112994613e-01
8.040000000000000480e-01,-1.362723377030734817e-01,2.465589640506938296e-01,-1.975177648168376099e-01
8.050000000000000488e-01,-5.717982686478155496e-02,3.057734781475066610e-01,-2.232993381083909490e-01
8.060000000000000497e-01,-2.054765863341758911e-02,3.160740044981323882e-01,-2.200543356072702517e-01
8.070000000000000506e-01,4.904245024101976796e-02,2.862024725249270318e-01,-2.264875194756019727e-01
8.080000000000000515e-01,8.980364585693351165e-02,2.647567779648949404e-01,-2.237777619375326543e-01
8.090000000000000524e-01,1.359423674823436179e-01,2.661572755450422045e-01,-1.976019503924184018e-01
8.100000000000000533e-01,2.008208361200074232e-01,2.527947501166853961e-01,-1.956997623959080557e-01
8.110000000000000542e-01,2.202612146742632671e-01,2.370171120656248687e-01,-1.692023631043290399e-01
8.120000000000000551e-01,2.688593361035572782e-01,1.717783530308457929e-01,-1.562188702176994792e-01
8.129999999999999449e-01,3.311544831028407909e-01,1.548091920606337601e-01,-1.544672016142714932e-01
8.139999999999999458e-01,3.368209842935572240e-01,9.727575475648740644e-02,-1.165530436158096761e-01
8.149999999999999467e-01,3.647292943555329181e-01,6.204035270180920797e-02,-6.339176991544683004e-02
8.159999999999999476e-01,3.388174070015775308e-01,-4.276992713837061803e-03,-2.821170636238920157e-02
8.169999999999999485e-01,3.673647128766437397e-01,-6.679282286118209955e-02,-1.291060580925417704e-04
8.179999999999999494e-01,3.464382698863482379e-01,-1.054782887700324301e-01,3.600137055974261813e-02
8.189999999999999503e-01,3.355764063454926838e-01,-1.362817012965936991e-01,8.231685388451998042e-02
8.199999999999999512e-01,2.942820351411725155e-01,-2.077176387698731197e-01,1.293706573881619193e-01
8.209999999999999520e-01,2.586335851656424989e-01,-2.201225677098637423e-01,1.503282713898011769e-01
8.219999999999999529e-01,2.170096088567294024e-01,-2.440327633903405791e-01,1.687386830630314971e-01
8.229999999999999538e-01,1.782219906883834581e-01,-2.698189976533085788e-01,1.876363755744480111e-01
8.239999999999999547e-01,1.272037546546914422e-01,-2.819817694662320462e-01,2.026264827502552157e-01
8.249999999999999556e-01,8.021910491908443297e-02,-2.893631669940390783e-01,2.225325038072581418e-01
8.259999999999999565e-01,2.065895627361374540e-03,-3.049578708208321998e-01,2.262002404138837852e-01
8.269999999999999574e-01,-3.685294761812930170e-02,-2.823822851708057136e-01,2.173422203160407795e-01
8.279999999999999583e-01,-9.160402287693635015e-02,-2.707075982912174883e-01,1.912520940910839851e-01
8.289999999999999591e-01,-1.641043880879477501e-01,-2.579084279952151837e-01,1.840814571187476545e-01
8.299999999999999600e-01,-2.046225457024332672e-01,-2.222796669675180248e-01,1.907286247263424994e-01
8.309999999999999609e-01,-2.770628184443321707e-01,-1.988124905882812654e-01,1.848307650814330350e-01
8.319999999999999618e-01,-3.077998425214681921e-01,-1.502503592680864419e-01,1.525495462846555850e-01
8.329999999999999627e-01,-3.416002375284504788e-01,-1.102298855043140902e-01,1.372314229438418576e-01
8.339999999999999636e-01,-3.364300999760366784e-01,-6.611601698021130069e-02,1.098040928392563093e-01
8.349999999999999645e-01,-3.455050210279499434e-01,-1.344101700175114045e-02,5.584122023562587689e-02
8.359999999999999654e-01,-3.362141749691398562e-01,1.892868765137043982e-02,2.130779046793995074e-02
8.369999999999999662e-01,-3.413124885864840530e-01,5.884162548283859706e-02,1.080530337054452610e-02
8.379999999999999671e-01,-3.318513338330359996e-01,1.013823550963187103e-01,-8.097331825728538990e-02
8.389999999999999680e-01,-3.362571211776197444e-01,1.423096162455121105e-01,-9.355889849435886085e-02
8.399999999999999689e-01,-2.777937511738964305e-01,1.882333508972277303e-01,-1.267993593902011218e-01
8.409999999999999698e-01,-2.628891618834477972e-01,2.272615774018664492e-01,-1.465520773201193228e-01
8.419999999999999707e-01,-2.055533709638903139e-01,2.438921992558806262e-01,-1.698086009878398972e-01
8.429999999999999716e-01,-1.680244208195437461e-01,2.582132665231650082e-01,-1.711847604425238700e-01
8.439999999999999725e-01,-1.148778924604630797e-01,3.140651928942723159e-01,-2.053377192377883464e-01
8.449999999999999734e-01,-5.258147186359037745e-02,2.802900961344013675e-01,-1.911109353368161401e-01
8.459999999999999742e-01,2.383768072331699656e-02,3.092403837689916557e-01,-2.079019201319777521e-01
8.469999999999999751e-01,6.424114620989002100e-02,2.961391699858721971e-01,-1.944177513340753782e-01
8.479999999999999760e-01,1.006643562015472060e-01,2.822500818074895612e-01,-1.933990547105147728e-01
8.489999999999999769e-01,1.734869186190305945e-01,2.526394846524013249e-01,-1.714422495161380122e-01
8.499999999999999778e-01,2.405453117272252639e-01,2.124272780955098472e-01,-1.928635051490768526e-01
8.509999999999999787e-01,2.670587271757713377e-01,1.728580664754064133e-01,-1.431865841849339349e-01
8.519999999999999796e-01,3.122507793052586855e-01,1.357168226032606506e-01,-1.443434152022049499e-01
8.529999999999999805e-01,3.484227571853023009e-01,9.038414714151386808e-02,-1.194984426421564494e-01
8.539999999999999813e-01,3.624601834703535252e-01,4.373200948773422331e-02,-6.801423242148824100e-02
8.549999999999999822e-01,3.680807180315030513e-01,-1.946572995643475190e-02,-5.085012368988504200e-02
8.559999999999999831e-01,3.567183173442685096e-01,-8.073365315750480331e-02,-3.010685991826191760e-02
8.569999999999999840e-01,3.628192938975214887e-01,-1.043544263106594844e-01,1.653414577172524630e-02
8.579999999999999849e-01,3.500443251081288842e-01,-1.558504215789297265e-01,3.413038654802345168e-02
8.589999999999999858e-01,2.993840433939917722e-01,-1.938425006378730886e-01,8.052086338078773275e-02
8.599999999999999867e-01,2.872961595142857760e-01,-2.203755362729239997e-01,1.149733520269506509e-01
8.609999999999999876e-01,2.335678503062481037e-01,-2.233249518014268908e-01,1.221583349302554772e-01
8.619999999999999885e-01,2.270703304165530567e-01,-2.725487188916646542e-01,1.541874785236742318e-01
8.629999999999999893e-01,1.584318793782633628e-01,-2.751058702219775220e-01,1.885331786163973733e-01
8.639999999999999902e-01,1.134775679203660348e-01,-2.885366063086785005e-01,2.169669732713222499e-01
8.649999999999999911e-01,3.153979193296398836e-02,-2.865898988234778511e-01,1.993182774334146812e-01
8.659999999999999920e-01,-5.020639982899592624e-02,-3.056919525763939771e-01,2.150254780784601194e-01
8.669999999999999929e-01,-6.636357130744703625e-02,-2.516603239539045300e-01,2.343096508184494831e-01
8.679999999999999938e-01,-1.347465416556898887e-01,-2.654239843744231053e-01,2.168362359137306072e-01
8.689999999999999947e-01,-1.807898896047851200e-01,-2.407929695999747044e-01,2.224950945759491816e-01
8.699999999999999956e-01,-2.195120634457179420e-01,-2.064097357072391115e-01,1.851163304392121067e-01
8.709999999999999964e-01,-2.753887342644812386e-01,-1.423860387661272930e-01,1.885979216452513818e-01
8.719999999999999973e-01,-3.265548337764818121e-01,-1.200004256889401349e-01,1.321614891549333648e-01
8.729999999999999982e-01,-3.328598807973504603e-01,-7.045292778296093072e-02,1.086557249866438035e-01
8.739999999999999991e-01,-3.650281327894351335e-01,-9.366975070669487230e-03,9.225350091134908170e-02
8.750000000000000000e-01,-3.470621194000463317e-01,5.040052880223317572e-02,5.811424044525288768e-02
8.760000000000000009e-01,-3.590649475914204358e-01,6.946511023945815821e-02,3.157583715195821233e-02
8.770000000000000018e-01,-3.564316530808461780e-01,9.960051417721879630e-02,-1.028747703057888464e-02
8.780000000000000027e-01,-3.360676901092504165e-01,1.386169618293755235e-01,-5.968272410829341540e-02
8.790000000000000036e-01,-3.134569722669663938e-01,1.919099908683962741e-01,-9.049378696757506835e-02
8.800000000000000044e-01,-2.806261548537261064e-01,2.233028797023954848e-01,-1.265386333516475004e-01
8.810000000000000053e-01,-2.491066486279621683e-01,2.574144089076257358e-01,-1.526642301699906723e-01
8.820000000000000062e-01,-2.061409151132692075e-01,2.743770092401498495e-01,-1.784537162414928657e-01
8.830000000000000071e-01,-1.254330834084565471e-01,2.884876174952055172e-01,-2.093480547636153155e-01
8.840000000000000080e-01,-6.495206508378723043e-02,3.073051463990945642e-01,-1.922544385720906523e-01
8.850000000000000089e-01,-9.185291997238878223e-03,2.951419885420167311e-01,-2.146982304409018050e-01
8.860000000000000098e-01,4.050113947459472313e-02,2.851999207205070941e-01,-2.315799120681460155e-01
8.870000000000000107e-01,9.055145018516511102e-02,2.624597672818916316e-01,-2.194459650389095351e-01
8.880000000000000115e-01,1.417656459314019513e-01,2.451907860422202490e-01,-2.072719950255485499e-01
8.890000000000000124e-01,2.124614269461154448e-01,1.988002744949947109e-01,-2.048052712702019551e-01
8.900000000000000133e-01,2.907052366879176453e-01,1.824804327026535722e-01,-1.759632402902997772e-01
8.910000000000000142e-01,3.044269462556622452e-01,1.372173497696994038e-01,-1.449202281794495506e-01
8.920000000000000151e-01,3.107393157701199282e-01,1.006045676914120307e-01,-1.338697303974667185e-01
8.930000000000000160e-01,3.168506783246597402e-01,3.323193747757968719e-02,-1.139186585868078444e-01
8.940000000000000169e-01,3.630553926580373791e-01,-4.194130602697175927e-03,-7.383130621945109551e-02
8.950000000000000178e-01,3.651013175566985569e-01,-5.721679098026140331e-02,-5.795488024230341373e-02
8.960000000000000187e-01,3.613946705079220112e-01,-1.264425541253197671e-01,-6.567327940056148783e-03
8.970000000000000195e-01,3.521566057848768971e-01,-1.191694801267786236e-01,4.131770537143349825e-02
8.980000000000000204e-01,3.443515461307837255e-01,-1.724085510054457204e-01,4.612650334026271309e-02
8.990000000000000213e-01,2.891006112146834450e-01,-2.118951494895167098e-01,1.018615741838701100e-01
9.000000000000000222e-01,2.546961875145977716e-01,-2.397958656523206944e-01,1.247220645045180737e-01
9.010000000000000231e-01,2.168543849943526391e-01,-2.880159188406048454e-01,1.567052577067191144e-01
9.020000000000000240e-01,1.972258656892153517e-01,-2.884927892783922809e-01,1.931854735142813639e-01
9.030000000000000249e-01,1.046321696972012660e-01,-2.738945470986177133e-01,1.589724819788616295e-01
9.040000000000000258e-01,5.491437319771727554e-02,-2.719345614043785497e-01,1.841086747423652248e-01
9.050000000000000266e-01,2.685731371861191808e-03,-3.062093471108864873e-01,2.074255989661768218e-01
9.060000000000000275e-01,-6.900931127051654346e-02,-2.880228790625229962e-01,2.239376119947764365e-01
9.070000000000000284e-01,-1.256301663651414047e-01,-2.623399960494284811e-01,2.102077975460215631e-01
9.080000000000000293e-01,-1.761935171697064928e-01,-1.917011364505634974e-01,2.219280010163217076e-01
9.090000000000000302e-01,-2.271270752580346053e-01,-1.833593761700528235e-01,2.027775409162546338e-01
9.100000000000000311e-01,-2.751433740599115163e-01,-1.819726008578172738e-01,1.802496824015183963e-01
9.110000000000000320e-01,-2.816422905484064487e-01,-1.273652569014477876e-01,1.753573042934532533e-01
9.120000000000000329e-01,-3.241136118453695758e-01,-7.024780087691012698e-02,1.303637005834898943e-01
9.130000000000000338e-01,-3.698287498318579281e-01,-6.453267183713773392e-02,1.082602951892499138e-01
9.140000000000000346e-01,-3.801332675171558706e-01,2.103344697278715369e-02,7.858869388689611324e-02
9.150000000000000355e-01,-3.663979395131740646e-01,6.838363489852573862e-02,4.283635007053887556e-02
9.160000000000000364e-01,-3.650562114347249976e-01,1.056501172241968711e-01,2.116627735651876313e-02
9.170000000000000373e-01,-3.377609695809093426e-01,1.539692488068537535e-01,-3.467719819232982503e-02
9.180000000000000382e-01,-3.399719187294135136e-01,2.004587966298025659e-01,-4.051684874234240397e-02
9.190000000000000391e-01,-2.858365350930345827e-01,2.339339572649766219e-01,-1.006301045981057712e-01
9.200000000000000400e-01,-2.832043087127775194e-01,2.678402425540479803e-01,-1.214266504071463276e-01
9.210000000000000409e-01,-2.065381472584840727e-01,2.833523266340117197e-01,-1.567566482272708395e-01
9.220000000000000417e-01,-1.388722750633512304e-01,2.869923098087739377e-01,-1.830375955917590003e-01
9.230000000000000426e-01,-1.031061998845117234e-01,2.831952214588878136e-01,-1.837229999238696454e-01
9.240000000000000435e-01,-4.151774428328154631e-02,2.759525265160158725e-01,-2.000724426666492806e-01
9.250000000000000444e-01,2.032695932539973702e-02,2.743151530042231556e-01,-1.994097552145918384e-01
9.260000000000000453e-01,8.972467361156340193e-02,2.660032771838848342e-01,-2.268397210652323692e-01
9.270000000000000462e-01,1.115037812883901414e-01,2.701104110980275808e-01,-2.305244669467560736e-01
9.280000000000000471e-01,1.821795054326058594e-01,1.973481408144255600e-01,-2.062386022207055025e-01
9.290000000000000480e-01,2.394579667383717470e-01,1.610977099572095672e-01,-2.019141567225036238e-01
9.300000000000000488e-01,2.706907543542578787e-01,1.224607186190111302e-01,-1.673932814052229989e-01
9.310000000000000497e-01,2.954592375685902161e-01,8.402126299630935380e-02,-1.532300450794034652e-01
9.320000000000000506e-01,3.498085424709564406e-01,1.685723702589309037e-02,-1.378168134963099756e-01
9.330000000000000515e-01,3.575867368909951272e-01,1.633521655611646500e-02,-1.063840324811743815e-01
9.340000000000000524e-01,3.645404001136481886e-01,-3.023191772063311272e-02,-8.029894120463265672e-02
9.350000000000000533e-01,3.655254268678620466e-01,-9.329085342022723493e-02,-3.930499847201404662e-02
9.360000000000000542e-01,3.392309331380536919e-01,-1.139921625235842534e-01,-1.439155389171082634e-02
9.370000000000000551e-01,3.331709256422118459e-01,-1.776353034063734571e-01,3.178856076326325858e-02
9.379999999999999449e-01,2.984393896519469402e-01,-2.138560045600175208e-01,9.339177028886339049e-02
9.389999999999999458e-01,2.765484370918854795e-01,-2.553469630263229817e-01,7.510563494800807927e-02
9.399999999999999467e-01,2.252269644474520216e-01,-2.704939543373892641e-01,1.247252164141442327e-01
9.409999999999999476e-01,1.772827346153537653e-01,-2.675546399231099604e-01,1.645208318703559880e-01
9.419999999999999485e-01,1.535796749442340792e-01,-3.037294710772446837e-01,1.758592017858351397e-01
9.429999999999999494e-01,8.254587423176784622e-02,-3.008648968214817088e-01,1.990594040193740255e-01
9.439999999999999503e-01,3.489147848344762576e-02,-2.866677198270607407e-01,2.241540940083981692e-01
9.449999999999999512e-01,-3.925618844591645396e-02,-2.821959728526050593e-01,2.147193354519373043e-01
9.459999999999999520e-01,-9.583690757082490019e-02,-2.512862658842485719e-01,2.281668771251825489e-01
9.469999999999999529e-01,-1.456642089152156705e-01,-2.400675100847594334e-01,2.117368825877324057e-01
9.479999999999999538e-01,-1.997254527448144856e-01,-1.938680223248735734e-01,1.989990487164554067e-01
9.489999999999999547e-01,-2.483381331038042317e-01,-1.484488916407237513e-01,2.008482826737181259e-01
9.499999999999999556e-01,-2.853312059634490749e-01,-1.067740490813634535e-01,1.840997040738582002e-01
9.509999999999999565e-01,-3.143017969345685558e-01,-7.109030903284986602e-02,1.611597982227072623e-01
9.519999999999999574e-01,-3.322856408524771932e-01,-2.300210571500153900e-02,1.509665378354178022e-01
9.529999999999999583e-01,-3.608903272220402303e-01,3.105097931156915875e-02,1.001943065264929572e-01
9.539999999999999591e-01,-3.816794057950965158e-01,8.066491550412728528e-02,5.168500872973585958e-02
9.549999999999999600e-01,-3.413803703432669590e-01,1.022771556932449977e-01,3.013699061427498743e-02
9.559999999999999609e-01,-3.686588448574514287e-01,1.538244336162400694e-01,1.380984783462402840e-03
9.569999999999999618e-01,-3.297991477864518628e-01,2.021429249479707868e-01,-3.551264212331099041e-02
9.579999999999999627e-01,-2.928510299941121664e-01,2.347317671203819622e-01,-8.904903177599553243e-02
9.589999999999999636e-01,-2.530615383271996865e-01,2.529391649472200188e-01,-8.603436637736974757e-02
9.599999999999999645e-01,-2.291265618537799142e-01,2.812404022431906347e-01,-1.121907567344466450e-01
9.609999999999999654e-01,-1.712343278129584978e-01,2.890696161052566104e-01,-1.534468642161065099e-01
9.619999999999999662e-01,-1.369912160861370687e-01,3.127432415362140783e-01,-1.645639532916771675e-01
9.629999999999999671e-01,-7.638394441880166919e-02,2.937804056723462565e-01,-2.089989084720320078e-01
9.639999999999999680e-01,1.146208722991493359e-02,3.003528902387804234e-01,-1.766747243846853999e-01
9.649999999999999689e-01,4.333687992124831551e-02,2.555350760313294667e-01,-2.227737649981175183e-01
9.659999999999999698e-01,1.118080578122856161e-01,2.357056837356007462e-01,-2.196099395554928224e-01
9.669999999999999707e-01,1.491590106984600206e-01,2.013476014996403718e-01,-2.187781891500745757e-01
9.679999999999999716e-01,1.988764795855837431e-01,1.858079873528303283e-01,-2.106368148149919128e-01
9.689999999999999725e-01,2.425069982779791689e-01,1.429452105976765364e-01,-1.583016306691052422e-01
9.699999999999999734e-01,3.103177905953357074e-01,9.535352997606084957e-02,-1.918075505397036917e-01
9.709999999999999742e-01,3.306062845936650341e-01,4.723078622057573506e-02,-1.457580079566074827e-01
9.719999999999999751e-01,3.429521920528996737e-01,1.184221403762578291e-02,-1.127440280376166976e-01
9.729999999999999760e-01,3.634751114612658762e-01,-7.242110381581216838e-02,-9.024089300711178596e-02
9.739999999999999769e-01,3.605344269548358405e-01,-7.221994235710837984e-02,-4.710680867616856560e-02
9.749999999999999778e-01,3.615125055386908537e-01,-1.340320579929537015e-01,-2.378909165129719158e-02
9.759999999999999787e-01,3.463525224509609313e-01,-1.782647923397336631e-01,9.506702169290401697e-03
9.769999999999999796e-01,3.194988335647616085e-01,-2.141863648631473216e-01,2.162433445167331533e-02
9.779999999999999805e-01,3.028985137238441872e-01,-2.251183178810833851e-01,7.659534471498601060e-02
9.789999999999999813e-01,2.521783530286588748e-01,-2.842743519016167064e-01,9.396601266189313906e-02
9.799999999999999822e-01,2.032120435198803976e-01,-2.971797207064479363e-01,1.043844092724627304e-01
9.809999999999999831e-01,1.511805451997584593e-01,-2.820457341142798557e-01,1.398515731547558816e-01
9.819999999999999840e-01,9.788107967044490376e-02,-2.691825827388973913e-01,1.881414251363546231e-01
9.829999999999999849e-01,4.827145817400654848e-02,-2.865895537062101983e-01,1.921829289587051182e-01
9.839999999999999858e-01,1.585878026776061387e-03,-2.715474508897550154e-01,2.078944945254214416e-01
9.849999999999999867e-01,-8.128620758408787450e-02,-2.501960060793745333e-01,2.145326334450534389e-01
9.859999999999999876e-01,-1.332668706295112859e-01,-2.324715545142430895e-01,2.131877682925740758e-01
9.869999999999999885e-01,-1.717963303564580546e-01,-1.903973524410972062e-01,2.121763268141016456e-01
9.879999999999999893e-01,-2.192910160641897699e-01,-1.809708351929487646e-01,2.168224735959352056e-01
9.889999999999999902e-01,-2.591479020551210599e-01,-1.068878848814696358e-01,2.016682519227131487e-01
9.899999999999999911e-01,-3.030261234489562971e-01,-6.980303404926030408e-02,1.829719751583635257e-01
9.909999999999999920e-01,-3.281343163764786630e-01,-4.076284326995567586e-02,1.375219874987533564e-01
9.919999999999999929e-01,-3.689593824701706271e-01,5.485961816130491275e-02,1.371681352367708773e-01
9.929999999999999938e-01,-3.739003075314744073e-01,6.646538906511624545e-02,7.797087898205068424e-02
9.939999999999999947e-01,-3.851610942852774500e-01,1.301475862781517889e-01,7.484245342456331829e-02
9.949999999999999956e-01,-3.597531707040517723e-01,1.647753183554897527e-01,1.664124527202707343e-02
9.959999999999999964e-01,-3.634694779772445483e-01,1.775998806757489445e-01,-3.242970458477563607e-03
9.969999999999999973e-01,-3.155407769845076649e-01,2.178435689060729819e-01,-5.181745161151198736e-02
9.979999999999999982e-01,-2.899147377894914501e-01,2.470557911455485978e-01,-4.567848557179367275e-02
9.989999999999999991e-01,-2.413691450396401039e-01,2.974945827815032029e-01,-1.246748136057169581e-01
1.000000000000000000e+00,-1.767327366139168632e-01,2.925118087374066755e-01,-1.498318261709616073e-01
1.000999999999999890e+00,-1.620282902445989992e-01,2.689336189050561265e-01,-1.644665964605994124e-01
1.002000000000000002e+00,-7.619411245559284951e-02,2.895476310737918335e-01,-1.974915185778055304e-01
1.002999999999999892e+00,-2.838250523890501961e-02,2.952432998831401312e-01,-1.909365362233119423e-01
1.004000000000000004e+00,1.617189938500627686e-02,2.626226713729067352e-01,-2.094006283204626062e-01
1.004999999999999893e+00,1.047101979191216864e-01,2.540963413907034729e-01,-2.049310256428817090e-01
1.006000000000000005e+00,1.197064604626223994e-01,1.963928684559762550e-01,-2.165807943172123884e-01
1.006999999999999895e+00,1.897338348969995203e-01,1.834682210969575400e-01,-2.090690667449451035e-01
1.008000000000000007e+00,2.360143577081147137e-01,1.456015789277833594e-01,-2.020255514790959828e-01
1.008999999999999897e+00,2.706427270533398599e-01,7.662844672311257266e-02,-1.703648455732308942e-01
1.010000000000000009e+00,3.123045161812881831e-01,5.987029928089061814e-02,-1.700774687098811355e-01
1.010999999999999899e+00,3.231570967371455994e-01,-5.678259784923411595e-03,-1.276309946483591695e-01
1.012000000000000011e+00,3.518186774803725991e-01,-3.967508838032924451e-02,-1.086393547995033321e-01
1.012999999999999901e+00,3.486979240637484989e-01,-9.740458256004706772e-02,-9.168362772754012902e-02
1.014000000000000012e+00,3.723613196576689433e-01,-1.354269414710158881e-01,-2.835767506345375152e-02
1.014999999999999902e+00,3.500447781219199195e-01,-1.493820993722226320e-01,-4.326010339211151280e-03
1.016000000000000014e+00,3.488983363315113495e-01,-2.268209252184660851e-01,2.059014573662816538e-02
1.016999999999999904e+00,2.856172263578167225e-01,-2.342771786415210888e-01,2.939120509388216257e-02
1.018000000000000016e+00,2.598070536302332645e-01,-2.784348803432061259e-01,5.553853551032985475e-02
1.018999999999999906e+00,2.368899996091105298e-01,-2.663212524688079452e-01,1.205490807928324970e-01
1.020000000000000018e+00,1.620555501455658853e-01,-2.803510953902549896e-01,1.387087636866011497e-01
1.020999999999999908e+00,1.473777079529131895e-01,-2.980313304946918818e-01,1.417915139511178590e-01
1.022000000000000020e+00,6.973848531904343340e-02,-2.626490917638160671e-01,1.744341113045981828e-01
1.022999999999999909e+00,1.942669124848021844e-02,-2.783529140964109971e-01,2.066095329490026389e-01
1.024000000000000021e+00,-4.361194246039418188e-02,-2.651596331586616451e-01,2.102126046038941820e-01
1.024999999999999911e+00,-1.184781868928464349e-01,-2.205666426937492042e-01,2.168865262336378552e-01
1.026000000000000023e+00,-1.775026994355893006e-01,-1.836160467700183596e-01,2.180815012756567584e-01
1.026999999999999913e+00,-1.965583871328608900e-01,-1.410144629147989659e-01,2.033247435228682787e-01
1.028000000000000025e+00,-2.713328430092341037e-01,-1.352260647985244479e-01,2.106568719128692480e-01
1.028999999999999915e+00,-3.052186025416966375e-01,-5.467535910610794164e-02,1.801558951741862868e-01
1.030000000000000027e+00,-3.140792555064696456e-01,-1.568429024781688164e-02,1.682398255518060548e-01
1.030999999999999917e+00,-3.214567602454115880e-01,2.511364796202586111e-02,1.400758498738612912e-01
1.032000000000000028e+00,-3.399820994898805626e-01,7.408289481569535484e-02,1.305432584058274503e-01
1.032999999999999918e+00,-3.957089580172629684e-01,1.264634644967229105e-01,6.772444040116037955e-02
1.034000000000000030e+00,-3.734638661752595623e-01,1.473719532550723244e-01,6.394440387593455788e-02
1.034999999999999920e+00,-3.611525435507175752e-01,2.208689219591520037e-01,1.760907257531775169e-02
1.036000000000000032e+00,-3.277366760558418357e-01,2.165885720574200479e-01,-1.077030464060154194e-02
1.036999999999999922e+00,-3.019768713753544498e-01,2.679805549797247277e-01,-4.188596119488124242e-02
1.038000000000000034e+00,-2.507030810862616033e-01,2.707329307396370011e-01,-1.027736102361727633e-01
1.038999999999999924e+00,-1.965415123141322495e-01,2.655424213756774066e-01,-1.149971434146271482e-01
1.040000000000000036e+00,-1.654864576977560231e-01,3.029036057094341983e-01,-1.423735410025089576e-01
1.040999999999999925e+00,-1.177826146400663687e-01,2.755703626665278461e-01,-1.601819590471325605e-01
1.042000000000000037e+00,-5.774889397837913718e-02,2.742155315194706455e-01,-1.762677101587692696e-01
1.042999999999999927e+00,2.707698612117624345e-02,2.861486985232124525e-01,-1.775690030861074575e-01
1.044000000000000039e+00,4.948681929741879232e-02,2.632495598886087640e-01,-2.270740825832544552e-01
1.044999999999999929e+00,1.276825312801392331e-01,2.021086913152238818e-01,-2.075927359744977885e-01
1.046000000000000041e+00,1.771885325243865439e-01,1.826576676356677642e-01,-2.117358472757266130e-01
1.046999999999999931e+00,2.227982906994007140e-01,1.205367763731910041e-01,-2.004659449635255997e-01
1.048000000000000043e+00,2.672230984035353085e-01,9.285523957261039574e-02,-2.091704761624374465e-01
1.048999999999999932e+00,3.011426631401525889e-01,2.923496692155517010e-02,-1.938047520308005534e-01
1.050000000000000044e+00,3.314027125034787469e-01,6.374756978822739527e-03,-1.785418339104323515e-01
1.050999999999999934e+00,3.803896187588902689e-01,-2.995346395090422997e-02,-1.379705083220143791e-01
1.052000000000000046e+00,3.700664785187280925e-01,-1.030925394822640589e-01,-1.154240033357706308e-01
1.052999999999999936e+00,3.494319458789641453e-01,-1.095988593734176370e-01,-1.083220485097438623e-01
1.054000000000000048e+00,3.654232841073300486e-01,-1.516981201703958559e-01,-5.932303044266871994e-02
1.054999999999999938e+00,3.554333125597022303e-01,-2.153249243903145316e-01,-1.672451630803607195e-03
1.056000000000000050e+00,3.187746118811464191e-01,-2.273219787731263486e-01,2.361024557216351988e-02
1.056999999999999940e+00,3.000487473557916784e-01,-2.635363121842822509e-01,6.069426369459038351e-02
1.058000000000000052e+00,2.537711131331633063e-01,-2.779597485537440016e-01,7.383285890117989581e-02
1.058999999999999941e+00,1.778072391796376162e-01,-2.850214991308598900e-01,9.494665802154909906e-02
1.060000000000000053e+00,1.634773412193560593e-01,-2.956219495162075162e-01,1.589675450429537673e-01
1.060999999999999943e+00,9.513115211188216680e-02,-3.043655634102181429e-01,1.631486485060107405e-01
1.062000000000000055e+00,2.090717100978424850e-02,-2.728341407931158535e-01,1.998743996464098782e-01
1.062999999999999945e+00,-5.000089941374721153e-02,-2.580656873284346009e-01,1.829356321188925216e-01
1.064000000000000057e+00,-7.761809608739417277e-02,-2.213452266080256359e-01,2.146416711208010142e-01
1.064999999999999947e+00,-1.416503928644832211e-01,-1.970049514079798836e-01,2.282616394124880876e-01
1.066000000000000059e+00,-1.906488018443233678e-01,-1.671313247840423566e-01,2.067735061800582141e-01
1.066999999999999948e+00,-2.583097615870666441e-01,-1.084650393035640897e-01,2.385039770305101003e-01
1.068000000000000060e+00,-2.825961969923739270e-01,-5.862417920491876794e-02,2.309722198267020465e-01
1.068999999999999950e+00,-3.025684186801841924e-01,-1.444090941439350739e-02,1.765906303934282329e-01
1.070000000000000062e+00,-3.555254916759781336e-01,4.136125436468972988e-03,1.699547071470011161e-01
1.070999999999999952e+00,-3.450935930383085548e-01,7.517407196608449915e-02,1.665649171569571207e-01
1.072000000000000064e+00,-3.643129082485405679e-01,1.092705020227729695e-01,1.256130825755889246e-01
1.072999999999999954e+00,-3.519155857417046174e-01,1.573710409917874753e-01,7.801380844873677389e-02
1.074000000000000066e+00,-3.468737735881891049e-01,1.980226024221763137e-01,3.797140152581138239e-02
1.074999999999999956e+00,-3.279189310868011464e-01,2.421142216330638142e-01,2.177037252939672748e-02
1.076000000000000068e+00,-3.237304258382523448e-01,2.527759251877408908e-01,-8.059800703912815834e-03
1.076999999999999957e+00,-2.837999501950166925e-01,2.844468144493569883e-01,-6.934522015362849789e-02
1.078000000000000069e+00,-2.074970106564504313e-01,2.547073949514780389e-01,-6.092583001909957635e-02
1.078999999999999959e+00,-1.845140380364297672e-01,2.794928093692507498e-01,-1.133644361329013556e-01
1.080000000000000071e+00,-1.422454533730965198e-01,3.184063315496116209e-01,-1.217270316203095115e-01
1.080999999999999961e+00,-6.880219208040293244e-02,2.872144260953788941e-01,-1.539025976309623123e-01
1.082000000000000073e+00,-2.521004128301965880e-02,2.511799404743744191e-01,-1.865772051456201786e-01
1.082999999999999963e+00,4.598975794747018481e-02,2.194490228056272252e-01,-2.128819738581195498e-01
1.084000000000000075e+00,1.106559704031415403e-01,2.071924443112828640e-01,-2.133070558461730437e-01
1.084999999999999964e+00,1.369776130315943086e-01,1.677977979028011934e-01,-2.038500613164587194e-01
1.086000000000000076e+00,1.861743347083152089e-01,1.333373068123149818e-01,-2.245200413473482093e-01
1.086999999999999966e+00,2.435174398371268700e-01,9.166099532734962863e-02,-2.163196599163039191e-01
1.088000000000000078e+00,2.709949282258446446e-01,2.770076087810610654e-02,-2.019335728308780109e-01
1.088999999999999968e+00,3.464231204568153366e-01,1.805744770746051456e-02,-1.803177561261439243e-01
1.090000000000000080e+00,3.440470060478840741e-01,-3.719052565851575787e-02,-1.610412614321891922e-01
1.090999999999999970e+00,3.639864847383883495e-01,-9.928245670694521574e-02,-1.581254761706772927e-01
1.092000000000000082e+00,3.644362793857695570e-01,-1.441634548290638695e-01,-1.000089615648696167e-01
1.092999999999999972e+00,3.792456405545076570e-01,-1.927010693847860667e-01,-7.654775681418968247e-02
1.094000000000000083e+00,3.590049226916665615e-01,-2.194045012702763864e-01,-4.446091479600453034e-02
1.094999999999999973e+00,3.456335602368513782e-01,-2.510749059388155957e-01,-5.586176895556663538e-03
1.096000000000000085e+00,2.855622736351771662e-01,-2.563524323414146933e-01,1.787757264022724751e-02
1.096999999999999975e+00,2.731246658212623246e-01,-2.683584953848408006e-01,4.332412548152880100e-02
1.098000000000000087e+00,2.044283140561431455e-01,-2.663068583087319641e-01,9.858738246534354266e-02
1.098999999999999977e+00,1.710877347180021213e-01,-3.003341026378605338e-01,1.462279438826459832e-01
1.100000000000000089e+00,1.232391377923227199e-01,-2.870079411807134884e-01,1.502912516136862275e-01
1.100999999999999979e+00,4.449577608076243918e-02,-2.640209364626862065e-01,1.879746336740172885e-01
1.102000000000000091e+00,-1.893325371142534283e-02,-2.734239269706754683e-01,1.900602385529091554e-01
1.102999999999999980e+00,-6.436098266682124813e-02,-2.150314560179047152e-01,2.021067528001307123e-01
1.104000000000000092e+00,-1.220704723480495468e-01,-2.058278171049481298e-01,2.088863933803265793e-01
1.104999999999999982e+00,-1.641794298412571629e-01,-1.358664481037465677e-01,2.362923954895373990e-01
1.106000000000000094e+00,-2.222638029034096352e-01,-1.220324512000397349e-01,2.119817356217056914e-01
1.106999999999999984e+00,-2.595961036803977606e-01,-6.837967198929981172e-02,1.927315983767514673e-01
1.108000000000000096e+00,-2.980275160066939155e-01,-3.555843621307716584e-02,1.763440996298800412e-01
1.108999999999999986e+00,-3.240839729199255781e-01,1.063092927279123308e-02,1.734870437944477928e-01
1.110000000000000098e+00,-3.556315730842848910e-01,4.387653070655563037e-02,1.862539064290060775e-01
1.110999999999999988e+00,-3.954482203815412045e-01,1.025561017820878357e-01,1.342533559919517061e-01
1.112000000000000099e+00,-3.764481247576770828e-01,1.633213752920748274e-01,1.083927011178303090e-01
1.112999999999999989e+00,-3.366821639977766734e-01,2.047586846890922796e-01,1.073982972160185539e-01
1.114000000000000101e+00,-3.386804119698417770e-01,2.179035613714904729e-01,3.079323977364581758e-02
1.114999999999999991e+00,-3.114975977627605364e-01,2.292020608272013205e-01,1.281331491205949663e-02
1.116000000000000103e+00,-2.765103392808951344e-01,2.727583683162386197e-01,-3.919567561894430480e-02
1.116999999999999993e+00,-2.388164452596134857e-01,2.816607580149587675e-01,-3.895458278033057248e-02
1.118000000000000105e+00,-1.928642462529467361e-01,3.107760930954871492e-01,-8.038467328505011222e-02
1.118999999999999995e+00,-1.812493000088530037e-01,2.933576955009499776e-01,-1.127347515056298793e-01
1.120000000000000107e+00,-8.742490728203490546e-02,2.658321820214259446e-01,-1.456195173324863756e-01
1.120999999999999996e+00,-5.311491232828156883e-02,2.826696020625633077e-01,-1.472586491109974804e-01
1.122000000000000108e+00,2.568947594995819872e-02,2.598378057640387540e-01,-1.846434111140499990e-01
1.122999999999999998e+00,8.238803533587292505e-02,2.068612667735193755e-01,-1.912828952534637583e-01
1.124000000000000110e+00,1.496980012208903865e-01,1.602598486537103739e-01,-2.027736287100186385e-01
1.125000000000000000e+00,1.820853023563315520e-01,1.491717977459103839e-01,-2.189735829480264351e-01
1.125999999999999890e+00,2.386058173557914774e-01,9.360497339985220100e-02,-2.028667316965518108e-01
1.127000000000000002e+00,2.703037782602280559e-01,5.535680345267562225e-02,-2.151866990393732915e-01
1.127999999999999892e+00,2.961901039597403251e-01,4.940342886867510330e-03,-1.903766237182524801e-01
1.129000000000000004e+00,3.281503615470308111e-01,-4.490425582782958669e-02,-1.811347441572558614e-01
1.129999999999999893e+00,3.528823501627597059e-01,-1.093650818780566025e-01,-1.549791297844236027e-01
1.131000000000000005e+00,4.163764820667811284e-01,-1.426640746773437662e-01,-1.417340317476932232e-01
1.131999999999999895e+00,3.751762579437384892e-01,-1.733981480233210692e-01,-1.104456712585234063e-01
1.133000000000000007e+00,3.595856573798316691e-01,-1.992729489881371885e-01,-5.832456509231614961e-02
1.133999999999999897e+00,3.387213333478648614e-01,-2.543924100180917081e-01,-1.294786707691792521e-02
1.135000000000000009e+00,2.903133446424809860e-01,-2.374672068536005931e-01,-6.679934541153548407e-03
1.135999999999999899e+00,2.837846014494136981e-01,-2.802266322877954297e-01,5.921983180514783784e-02
1.137000000000000011e+00,2.260060433661699730e-01,-2.933925505737075001e-01,4.330031380319891016e-02
1.137999999999999901e+00,2.008969533353951453e-01,-2.913478695262327056e-01,9.278986042471668028e-02
1.139000000000000012e+00,1.256037328526803942e-01,-2.945074774989249189e-01,1.263336431913290314e-01
1.139999999999999902e+00,7.361026871668246985e-02,-2.860414897618564489e-01,1.546419917346709139e-01
1.141000000000000014e+00,1.566384291411322682e-02,-2.483958925841139587e-01,1.783900587533570892e-01
1.141999999999999904e+00,-5.292014073126124346e-02,-2.217714830006643212e-01,2.024023155195985579e-01
1.143000000000000016e+00,-7.223047363581382163e-02,-1.761861617290186033e-01,2.372295824608813275e-01
1.143999999999999906e+00,-1.480019329499973058e-01,-1.684963383038434737e-01,2.014744609143704623e-01
1.145000000000000018e+00,-1.993219010652340917e-01,-1.261789183129950476e-01,2.391604028320991338e-01
1.145999999999999908e+00,-2.362213310572580105e-01,-7.829365183617426061e-02,1.894649251135169798e-01
1.147000000000000020e+00,-3.100622635677992567e-01,-2.711376416027440339e-02,2.043907503133544079e-01
1.147999999999999909e+00,-3.218936945080507206e-01,2.882985981769935549e-03,2.053002676158578177e-01
1.149000000000000021e+00,-3.300700556109006367e-01,5.956115523405625112e-02,1.875565750808502741e-01
1.149999999999999911e+00,-3.534221211658051254e-01,1.247192905041724503e-01,1.728611847367814425e-01
1.151000000000000023e+00,-3.497559128038221776e-01,1.470702523830580699e-01,1.426845749332401325e-01
1.151999999999999913e+00,-3.610401942302436384e-01,1.615603591204148315e-01,9.697985728822605678e-02
1.153000000000000025e+00,-3.712780303727030717e-01,2.061935223745406942e-01,7.681475405180186733e-02
1.153999999999999915e+00,-3.242043204452012550e-01,2.302253630820831343e-01,2.230571947107774788e-02
1.155000000000000027e+00,-3.094944118219172813e-01,2.674437830664839755e-01,1.362195265350993258e-04
1.155999999999999917e+00,-2.797419055367920682e-01,2.838930787296097824e-01,-4.379437164797839177e-02
1.157000000000000028e+00,-2.325890840522861214e-01,3.090708479943051756e-01,-7.610937697386230272e-02
1.157999999999999918e+00,-1.667987625354888370e-01,2.718207297273318446e-01,-7.104407058303359446e-02
1.159000000000000030e+00,-1.150076103616931716e-01,2.745295648453929815e-01,-1.347682504681707027e-01
1.159999999999999920e+00,-6.133085339942555975e-02,2.880288500842022592e-01,-1.700790805068282396e-01
1.161000000000000032e+00,-1.062018813134581879e-02,2.538827174812057774e-01,-1.886142109437392855e-01
1.161999999999999922e+00,5.788290392985977195e-02,2.009067783024093556e-01,-1.996430110411043235e-01
1.163000000000000034e+00,1.144643059353994963e-01,1.946389261577367302e-01,-1.706275400249947227e-01
1.163999999999999924e+00,1.560106747443514019e-01,1.308606257900841729e-01,-2.050585756954850236e-01
1.165000000000000036e+00,2.205850618515239614e-01,7.581413339894495229e-02,-1.981204675860091524e-01
1.165999999999999925e+00,2.714285891424632613e-01,7.908924108353826421e-02,-2.013539197990335261e-01
1.167000000000000037e+00,3.161679539272047035e-01,1.282824679482391129e-02,-1.996850184920666293e-01
1.167999999999999927e+00,2.944867160525303507e-01,-5.604482501801154315e-02,-2.236838697381728913e-01
1.169000000000000039e+00,3.565137323614364084e-01,-8.407949878579143443e-02,-1.551786237073775887e-01
1.169999999999999929e+00,3.564643261531432739e-01,-1.387933737028954895e-01,-1.733975362860230018e-01
1.171000000000000041e+00,3.417703141798123512e-01,-1.762949731062403713e-01,-1.151360762071982624e-01
1.171999999999999931e+00,3.471157286909019590e-01,-2.046217299678878554e-01,-1.104722460541818635e-01
1.173000000000000043e+00,3.553945350745412179e-01,-2.343688406124419532e-01,-5.459583406908904285e-02
1.173999999999999932e+00,3.174347742341715461e-01,-2.478824362518851909e-01,-1.965787573077454331e-02
1.175000000000000044e+00,2.707297998026803043e-01,-2.887446704126289121e-01,1.026877755368334547e-02
1.175999999999999934e+00,2.544071919208022448e-01,-2.973631940809948748e-01,3.405174770635840953e-02
1.177000000000000046e+00,2.042407273121458477e-01,-3.032863285919440988e-01,6.285705168631310069e-02
1.177999999999999936e+00,1.300974534817703199e-01,-2.878739993309221701e-01,1.051321641398400425e-01
1.179000000000000048e+00,1.110023947490255680e-01,-2.658433694831618954e-01,1.479724137853916377e-01
1.179999999999999938e+00,4.310427306031319739e-02,-2.509579768723089743e-01,1.597585125706020015e-01
