time,acc_x,acc_y,acc_z
0.000000000000000000e+00,-1.277358908029598006e-01,-1.089871151615159350e-01,-2.545548194568630213e-02
1.000000000000000021e-03,-1.920989395082256246e-01,-1.335199631244360363e-01,-1.009041572654919144e-01
2.000000000000000042e-03,-1.921903905994005735e-01,-1.009147593726954506e-01,-1.270774507491842231e-01
3.000000000000000062e-03,-1.523947640759818478e-01,-6.527099778285620768e-02,-1.366800349885911592e-01
4.000000000000000083e-03,-7.992714745275428245e-02,-7.303667176331534241e-03,-1.023374795863928183e-01
5.000000000000000104e-03,1.164997085291884053e-02,8.606096320104922315e-02,-5.386367552585476226e-02
6.000000000000000125e-03,1.252874511211201913e-01,1.454451987184423589e-01,2.037228751151727926e-02
7.000000000000000146e-03,2.174862560790215005e-01,2.094210596763552701e-01,9.838579380880826952e-02
8.000000000000000167e-03,2.622062497717908003e-01,1.724560385157516695e-01,1.557102371106688365e-01
8.999999999999999320e-03,2.423173473136278899e-01,1.364034239507460056e-01,1.734746455911490848e-01
1.000000000000000021e-02,1.445800563336807620e-01,2.159902033799469129e-02,1.585883245129296737e-01
1.099999999999999936e-02,3.537741583343771007e-02,-7.370681441845704229e-02,8.577785271398712108e-02
1.200000000000000025e-02,-1.227649426186963183e-01,-1.665720811587978745e-01,9.707869981741158033e-03
1.299999999999999940e-02,-2.460432870311284048e-01,-2.013861535203963771e-01,-9.775387738846921803e-02
1.400000000000000029e-02,-3.176464757867716315e-01,-2.286986983307986443e-01,-1.545954376177295364e-01
1.499999999999999944e-02,-2.795513379760458106e-01,-1.584936942772876556e-01,-1.976899402758983126e-01
1.600000000000000033e-02,-1.986406132529341950e-01,-6.045248702758079101e-02,-1.719484827085684397e-01
1.700000000000000122e-02,-6.373022739235356671e-02,5.105874859365760327e-02,-1.182019073979818924e-01
1.799999999999999864e-02,9.361308923004378613e-02,1.752561895898725741e-01,-3.894676248743410979e-02
1.899999999999999953e-02,2.338741451062219534e-01,2.511202539378791232e-01,5.063902825295416715e-02
2.000000000000000042e-02,3.203797379277190105e-01,2.396076139667163152e-01,1.638874297450907125e-01
2.100000000000000130e-02,3.231711132225963401e-01,2.063514494423060730e-01,1.897701491054730183e-01
2.199999999999999872e-02,2.413258919910571954e-01,9.045073194160868635e-02,1.991180387435074750e-01
2.299999999999999961e-02,9.337332211284973815e-02,-4.191927268548277519e-02,1.464104569116192467e-01
2.400000000000000050e-02,-6.528234884081816902e-02,-1.647037902612476234e-01,6.410173649932567053e-02
2.500000000000000139e-02,-2.114236313325996985e-01,-2.581809764636450732e-01,-3.867396468211468236e-02
2.599999999999999881e-02,-3.218155730653650126e-01,-2.578173233065578218e-01,-1.212873168940418467e-01
2.699999999999999969e-02,-3.291246846225105438e-01,-2.279661447776843430e-01,-1.884201004420608394e-01
2.800000000000000058e-02,-2.613259239882134155e-01,-1.032127959860848210e-01,-2.114757259057556682e-01
2.900000000000000147e-02,-1.503350433061688973e-01,3.177398458482305621e-02,-1.624769143035788843e-01
2.999999999999999889e-02,3.887718978198820285e-02,1.374871786344213920e-01,-9.317278032861750492e-02
3.099999999999999978e-02,1.826201214864134059e-01,2.399284829589968526e-01,4.230992593234258851e-03
3.200000000000000067e-02,2.761786547262211067e-01,2.521601634805261671e-01,9.478663506109323567e-02
3.300000000000000155e-02,3.106334223013039741e-01,2.203540837803402153e-01,1.650924269520958054e-01
3.400000000000000244e-02,2.748290120671109671e-01,1.087137824371407352e-01,1.785390893895182352e-01
3.500000000000000333e-02,1.557137701194189761e-01,-4.264249543843951114e-03,1.635879133980750466e-01
3.599999999999999728e-02,1.715279342712690584e-03,-1.236484254043288683e-01,8.309189048605057637e-02
3.699999999999999817e-02,-1.320530892899707542e-01,-2.221539048007066253e-01,2.591308291046500335e-03
3.799999999999999906e-02,-2.562096837923250048e-01,-2.393564300206856288e-01,-5.729773575100829963e-02
3.899999999999999994e-02,-2.676087971433993018e-01,-2.056120622423379674e-01,-1.219746375574825292e-01
4.000000000000000083e-02,-2.507097427052270566e-01,-1.248334527774737496e-01,-1.531910843751868034e-01
4.100000000000000172e-02,-1.730110521563151538e-01,-2.613498272676180803e-02,-1.386350305046392672e-01
4.200000000000000261e-02,-5.440491640701335813e-02,7.117928668537200354e-02,-1.118507677281027346e-01
4.299999999999999656e-02,7.773458417999946912e-02,1.780174706424751674e-01,-2.400776405734589974e-02
4.399999999999999745e-02,1.851953571317476455e-01,2.025328104129434925e-01,1.592390916447125604e-02
4.499999999999999833e-02,2.194002958843742079e-01,1.746682732586167242e-01,7.124387088376175903e-02
4.599999999999999922e-02,1.971940871335415846e-01,1.296849609871409126e-01,1.134126033118598442e-01
4.700000000000000011e-02,1.546221197808673176e-01,5.110106220654964115e-02,1.212784417491333533e-01
4.800000000000000100e-02,6.779907202655947873e-02,-4.646465068192601189e-02,9.500201256065630984e-02
4.900000000000000189e-02,-1.954567114250402998e-02,-1.219638939534843508e-01,4.801662337839629480e-02
5.000000000000000278e-02,-9.344105083985244919e-02,-1.497876977936560827e-01,1.999900514085763137e-02
5.099999999999999672e-02,-1.478134186404838901e-01,-1.367513839658119623e-01,-4.098269423310679782e-02
5.199999999999999761e-02,-1.591609792795097011e-01,-1.003141860266872631e-01,-6.974847255123745038e-02
5.299999999999999850e-02,-1.302572962523317612e-01,-4.931571311216786935e-02,-6.310485143833681476e-02
5.399999999999999939e-02,-9.431398639631335956e-02,5.674042066276708748e-03,-5.981920399980041048e-02
5.500000000000000028e-02,-2.881160414499704669e-02,7.139350678392845928e-02,-5.044585638087549506e-02
5.600000000000000117e-02,2.559423863159947937e-02,1.005116612251074348e-01,-3.715112761400148761e-02
5.700000000000000205e-02,6.122252058149219023e-02,1.108102061038306746e-01,-1.264978486945729681e-02
5.800000000000000294e-02,9.521996347896667656e-02,7.957778403166225478e-02,5.931787362043151532e-03
5.899999999999999689e-02,6.327810918993354017e-02,5.358639549252378065e-02,1.775187919893467942e-02
5.999999999999999778e-02,7.373535743417979071e-02,1.951029662517066166e-02,1.903394761601157753e-02
6.099999999999999867e-02,7.006372119095818918e-02,-4.966045082129416643e-03,3.938573932676426442e-02
6.199999999999999956e-02,4.655884400497296155e-02,-1.792339517977910995e-02,5.140645134979521941e-02
6.300000000000000044e-02,-8.502815624798508443e-03,-3.899170572114697003e-02,4.232946562669318707e-02
6.400000000000000133e-02,-4.044345416033672327e-03,-5.120765469748844029e-02,5.322926405308508330e-02
6.500000000000000222e-02,-3.474087668109082649e-02,-4.374800741079758887e-02,2.761502941868549874e-02
6.600000000000000311e-02,-4.355631380353341964e-02,-6.004646700842969365e-02,2.122419979680159954e-02
6.700000000000000400e-02,-8.477402473577766440e-02,-5.624120015667719713e-02,-1.329977273658488994e-02
6.800000000000000488e-02,-9.875977028860326301e-02,-3.799635168907762595e-02,-3.676358380629000944e-02
6.900000000000000577e-02,-1.100899641656100381e-01,-2.963985772163349117e-02,-8.284694297191014245e-02
7.000000000000000666e-02,-9.886038680360938191e-02,-3.100402730314939586e-05,-9.421235920949588838e-02
7.099999999999999367e-02,-5.216528479079018260e-02,3.976413331192241857e-02,-9.374933899970651352e-02
7.199999999999999456e-02,6.790600955748291208e-03,7.820834230574533197e-02,-4.409040285288313987e-02
7.299999999999999545e-02,9.726286419148348628e-02,1.034739435763872006e-01,-3.637574440599725817e-02
7.399999999999999634e-02,1.479523574246014161e-01,1.139901244868367913e-01,2.121798035940143309e-02
7.499999999999999722e-02,1.628121335247404711e-01,9.385518520173896651e-02,8.992283696326919262e-02
7.599999999999999811e-02,1.821578935612204464e-01,4.611712774854607316e-02,1.239814925183532340e-01
7.699999999999999900e-02,1.282493876769192909e-01,-2.548538817377157470e-02,1.369493927756740004e-01
7.799999999999999989e-02,1.692645727414670079e-02,-1.025889473979738481e-01,1.151233909035544872e-01
7.900000000000000078e-02,-7.654668675019474233e-02,-1.551911599220434923e-01,5.594523111303001395e-02
8.000000000000000167e-02,-1.876903272826954405e-01,-1.751976855310447834e-01,-3.045110442557264884e-03
8.100000000000000255e-02,-2.512780324777156293e-01,-1.667687730038707461e-01,-7.376270985645896894e-02
8.200000000000000344e-02,-2.358904619412201253e-01,-9.412437071518274523e-02,-1.313935569750385446e-01
8.300000000000000433e-02,-1.865589200042759854e-01,3.690480144177847501e-03,-1.609136981500849384e-01
8.400000000000000522e-02,-8.970316092725244550e-02,9.190904581988409983e-02,-1.467085556699934679e-01
8.500000000000000611e-02,5.607253159121561303e-02,1.793699533887058439e-01,-1.101889840524984676e-01
8.599999999999999312e-02,1.947391485420876533e-01,2.181806105168050125e-01,-3.158179957700371632e-02
8.699999999999999400e-02,2.687727957739754481e-01,1.960421616236366904e-01,7.084880478624698552e-02
8.799999999999999489e-02,2.938502827796247163e-01,1.174349871835457665e-01,1.347274979232016834e-01
8.899999999999999578e-02,2.423752436097556251e-01,1.579390678746071114e-02,1.937891492217559963e-01
8.999999999999999667e-02,1.322463527098102498e-01,-9.114629965695701663e-02,1.756712599580022571e-01
9.099999999999999756e-02,-3.689434067530539263e-02,-2.175615486610834870e-01,1.286463609767736493e-01
9.199999999999999845e-02,-1.792218612944369571e-01,-2.517781739737732227e-01,5.773642519978212234e-02
9.299999999999999933e-02,-2.796141215748751407e-01,-2.528441824319768161e-01,-5.144236398469718974e-02
9.400000000000000022e-02,-3.189451767942821925e-01,-1.694165711462295443e-01,-1.319126291968227005e-01
9.500000000000000111e-02,-2.864072774997406534e-01,-3.643832110295785326e-02,-1.815365573033492219e-01
9.600000000000000200e-02,-1.730095941970148099e-01,9.021613747267465122e-02,-2.079579723047036421e-01
9.700000000000000289e-02,-1.118141226503867498e-02,2.063557987787838777e-01,-1.638846306526793306e-01
9.800000000000000377e-02,1.436774142578142177e-01,2.512678729642665587e-01,-6.652715256792333942e-02
9.900000000000000466e-02,2.763671565531444774e-01,2.577440756943891742e-01,2.665631486999469821e-02
1.000000000000000056e-01,3.374641424529747913e-01,1.838796075875112901e-01,1.174389249437583632e-01
1.010000000000000064e-01,3.079076713675038546e-01,6.593416841229558789e-02,1.908576860924920404e-01
1.019999999999999934e-01,2.131606109802141324e-01,-7.895701345114508607e-02,2.119925857193592222e-01
1.029999999999999943e-01,5.387618007044769203e-02,-1.935528886259275938e-01,1.725182683955471252e-01
1.039999999999999952e-01,-1.311195894082780034e-01,-2.458048536457317357e-01,1.197990452916135734e-01
1.049999999999999961e-01,-2.713212548318661432e-01,-2.498303129748905838e-01,6.471971559611368720e-04
1.059999999999999970e-01,-3.106252372984728560e-01,-2.034070727261532430e-01,-7.309016976849253000e-02
1.069999999999999979e-01,-3.008609173474978693e-01,-8.429018111061174767e-02,-1.439097642728434934e-01
1.079999999999999988e-01,-2.243610437951726877e-01,4.161232622369655937e-02,-1.850849199536986345e-01
1.089999999999999997e-01,-1.039632447436400209e-01,1.501550042912045690e-01,-1.699930193167877024e-01
1.100000000000000006e-01,9.517227485609659754e-02,2.264029484507297241e-01,-1.132696653849914747e-01
1.110000000000000014e-01,1.972790873018586966e-01,2.338465743211806946e-01,-3.296968227766656351e-02
1.120000000000000023e-01,2.670083236349189981e-01,2.017892117545420638e-01,5.359337938586371253e-02
1.130000000000000032e-01,3.001128102419002297e-01,1.025490840536285725e-01,1.131211124972303778e-01
1.140000000000000041e-01,2.285382068357383056e-01,-1.387723341467800818e-02,1.571872369760549115e-01
1.150000000000000050e-01,1.161104378625883726e-01,-1.174341554803559340e-01,1.610782511488048352e-01
1.160000000000000059e-01,-2.522464482925490178e-02,-2.105393391573907036e-01,1.195428466933004669e-01
1.170000000000000068e-01,-1.501186853175876801e-01,-2.135035647397421632e-01,4.326194135532220042e-02
1.179999999999999938e-01,-2.201721956608737318e-01,-1.819199882498497012e-01,-2.112900359954905660e-02
1.189999999999999947e-01,-2.322373652169221203e-01,-9.738390270606532562e-02,-8.854310620006629329e-02
1.199999999999999956e-01,-2.026569953000625368e-01,3.532225439566687251e-03,-1.136100432845801866e-01
1.209999999999999964e-01,-1.132985805279120989e-01,8.673374364261372815e-02,-1.223505385884181978e-01
1.219999999999999973e-01,-1.369663331032012522e-02,1.477730019824535224e-01,-1.098604246219661990e-01
1.229999999999999982e-01,7.415790220665478827e-02,1.717452197840145800e-01,-6.131668244801369294e-02
1.239999999999999991e-01,1.478183192388141942e-01,1.502002915302009523e-01,-1.452297256636443136e-02
1.250000000000000000e-01,1.736356704637043447e-01,1.111085438483492144e-01,3.859056526228561712e-02
1.260000000000000009e-01,1.510053095235387444e-01,4.606656113884921577e-02,5.339764878168475754e-02
1.270000000000000018e-01,1.104269018220822018e-01,-4.138363759433147382e-02,7.992042535675271397e-02
1.280000000000000027e-01,3.236735944398703990e-02,-7.871322283042937740e-02,9.014986717165281160e-02
1.290000000000000036e-01,-3.109998423476197441e-02,-1.026640121782080722e-01,4.250450153614878518e-02
1.300000000000000044e-01,-7.020749697373090958e-02,-9.765291248006810476e-02,2.969038369847737738e-02
1.310000000000000053e-01,-8.038723086369098381e-02,-8.515068089667647555e-02,9.104847892196683834e-03
1.320000000000000062e-01,-9.113427076857127940e-02,-5.443722057225348909e-02,-2.373696674681409838e-02
1.330000000000000071e-01,-8.757581707398230664e-02,-1.816839122100268045e-02,-3.241834867154474303e-02
1.340000000000000080e-01,-6.079031287329973721e-02,2.376016553041115226e-02,-2.947739526960781523e-02
1.350000000000000089e-01,-2.848589432434762286e-02,2.434767542049324704e-02,-3.878044734361684592e-02
1.360000000000000098e-01,-2.175279901856020173e-02,4.223134405724583013e-02,-5.161183369868078963e-02
1.370000000000000107e-01,1.560693000396811423e-03,6.214460329462542787e-02,-2.712600505567027906e-02
1.380000000000000115e-01,1.560295091858124664e-02,3.382840025958712415e-02,-4.335304319199351220e-02
1.390000000000000124e-01,6.303710474847745715e-02,3.855802444556518521e-02,-2.115137429559424756e-02
1.400000000000000133e-01,5.854343527299173122e-02,2.713830379009793403e-02,-5.905368000688419189e-03
1.409999999999999865e-01,8.046665536187534717e-02,1.875960448876466333e-02,1.379682093302540130e-02
1.419999999999999873e-01,9.616309641412448816e-02,-1.210308376289233876e-04,3.280526931961127990e-02
1.429999999999999882e-01,8.197369954700613193e-02,-2.150782960324837401e-02,5.356997522003396905e-02
1.439999999999999891e-01,4.973835033733534083e-02,-5.527532325458120455e-02,8.705707213343612250e-02
1.449999999999999900e-01,-2.607771737063965464e-03,-8.100893684875527800e-02,7.630767363439648621e-02
1.459999999999999909e-01,-5.172469669288642935e-02,-1.085013936670876505e-01,5.757435498078413566e-02
1.469999999999999918e-01,-1.154131888592970501e-01,-9.562664664026844508e-02,3.011397502930631895e-02
1.479999999999999927e-01,-1.630262869090805533e-01,-6.188471607688535853e-02,-2.501737804766057324e-02
1.489999999999999936e-01,-1.544196373785717002e-01,-1.229863474805923534e-02,-7.654765183149120356e-02
1.499999999999999944e-01,-1.509546754654489675e-01,5.941868931981379026e-02,-1.257219557572701596e-01
1.509999999999999953e-01,-6.419814254763228645e-02,9.575446083888251858e-02,-1.207296037997071525e-01
1.519999999999999962e-01,3.698912702082614995e-02,1.521854950928618888e-01,-9.650094007990765721e-02
1.529999999999999971e-01,1.336557509773173003e-01,1.509412510315266964e-01,-6.116031478687569689e-02
1.539999999999999980e-01,2.232157760075882957e-01,1.138642420717367876e-01,7.173169786509300469e-03
1.549999999999999989e-01,2.303556382287444415e-01,6.152270076346704614e-02,6.060561175538508455e-02
1.559999999999999998e-01,1.983664942287069743e-01,-3.145261555261166103e-02,1.210871975468156420e-01
1.570000000000000007e-01,1.230298327841599371e-01,-1.208233847322444376e-01,1.590116795401079475e-01
1.580000000000000016e-01,1.105399779942143647e-02,-2.013246008416782196e-01,1.664597068981296391e-01
1.590000000000000024e-01,-1.239405122747084254e-01,-2.048823094093542574e-01,1.068741896771262107e-01
1.600000000000000033e-01,-2.326579899311198851e-01,-1.790661162742708812e-01,3.460249845122500417e-02
1.610000000000000042e-01,-2.998897778116959567e-01,-1.045622164970217982e-01,-5.191181268810007854e-02
1.620000000000000051e-01,-2.853367570085562077e-01,2.097204724958386113e-02,-1.224823146644451327e-01
1.630000000000000060e-01,-1.765009970509227311e-01,1.377049720960460966e-01,-1.918445619947355962e-01
1.640000000000000069e-01,-5.559478004340619173e-02,2.088306025386256204e-01,-1.795319523136377216e-01
1.650000000000000078e-01,1.109411133444283548e-01,2.458599255554044793e-01,-1.391100823046853008e-01
1.660000000000000087e-01,2.319488242434248615e-01,2.193913887648152594e-01,-7.620691909950366716e-02
1.670000000000000095e-01,3.028958370873043315e-01,1.296511896259943675e-01,4.192536302861771258e-02
1.680000000000000104e-01,3.005583140474540893e-01,2.250188009344061130e-02,1.218989080950811515e-01
1.690000000000000113e-01,2.273528925810236745e-01,-1.247475602153033242e-01,1.911988278345523595e-01
1.700000000000000122e-01,1.001525567944447082e-01,-2.124212679058422870e-01,1.826640941100629578e-01
1.710000000000000131e-01,-9.831210515301366804e-02,-2.684116339917875793e-01,1.746893791149638775e-01
1.719999999999999862e-01,-2.380260894099364977e-01,-2.448109516425946153e-01,1.015036501905230010e-01
1.729999999999999871e-01,-3.249789714614353398e-01,-1.708297261180015958e-01,-1.181528877538166530e-02
1.739999999999999880e-01,-3.334091471378498595e-01,-2.523631773363917141e-02,-1.103658226715741042e-01
1.749999999999999889e-01,-2.466073942546498365e-01,1.047358354390644231e-01,-1.704115218213385630e-01
1.759999999999999898e-01,-1.136543310152412917e-01,2.215771000513071243e-01,-2.000078869046174324e-01
1.769999999999999907e-01,4.555778082743112967e-02,2.635812890709062217e-01,-1.810259711294651130e-01
1.779999999999999916e-01,2.092502640842675010e-01,2.416013066775798135e-01,-1.350991206625239693e-01
1.789999999999999925e-01,3.003986710903104873e-01,1.738355584833865264e-01,-2.223766181557303157e-02
1.799999999999999933e-01,3.412547895997027902e-01,4.815364320847786983e-02,6.729959539891872122e-02
1.809999999999999942e-01,2.721332038529870045e-01,-8.605140536515742955e-02,1.504387863923235535e-01
1.819999999999999951e-01,1.449789856336237137e-01,-1.912553529343072600e-01,1.828869624619906264e-01
1.829999999999999960e-01,2.472154665528467684e-03,-2.466367754518004884e-01,1.690593147060081847e-01
1.839999999999999969e-01,-1.655218192324657001e-01,-2.442563331730932819e-01,1.400000622651134952e-01
1.849999999999999978e-01,-2.548766990099792240e-01,-1.776116281051573487e-01,4.889072759216549213e-02
1.859999999999999987e-01,-3.137151953363666590e-01,-7.018147498313297150e-02,-3.420828453174586115e-02
1.869999999999999996e-01,-2.460284616298210325e-01,3.653991060708223354e-02,-1.136356976231682747e-01
1.880000000000000004e-01,-1.495472446345656181e-01,1.594947889158413734e-01,-1.437868164864826159e-01
1.890000000000000013e-01,-3.769347236778772953e-02,2.198360447785780714e-01,-1.683708796798381035e-01
1.900000000000000022e-01,1.017844999214458090e-01,2.063723063206413522e-01,-1.263653910093482657e-01
1.910000000000000031e-01,2.035200062011614519e-01,1.688273263094942078e-01,-6.913420525907784664e-02
1.920000000000000040e-01,2.606069257812429485e-01,8.272971215036230286e-02,2.937920423101269413e-03
1.930000000000000049e-01,2.327106668255783384e-01,-1.570013352915180030e-02,7.239834958769396367e-02
1.940000000000000058e-01,1.695212714814778587e-01,-1.137997348406430825e-01,1.070814802963776929e-01
1.950000000000000067e-01,5.794156559795929362e-02,-1.501342838933775181e-01,1.179774580998547290e-01
1.960000000000000075e-01,-4.852807908374646984e-02,-1.842332238706391179e-01,1.090852656661163156e-01
1.970000000000000084e-01,-1.336777683341906220e-01,-1.337086859555765284e-01,8.325224469644224023e-02
1.980000000000000093e-01,-1.721724583555528099e-01,-7.529727993099707972e-02,5.902152448030406964e-03
1.990000000000000102e-01,-1.793491611360217008e-01,8.452453150494392302e-04,-3.739738749626116132e-02
2.000000000000000111e-01,-1.377365830112443068e-01,5.590830084884058221e-02,-7.475504783068236125e-02
2.010000000000000120e-01,-7.807446237941920164e-02,1.202416882455367014e-01,-9.017218760733773653e-02
2.020000000000000129e-01,-6.355559203831041663e-03,1.194920199950596645e-01,-8.841867275764066225e-02
2.030000000000000138e-01,6.959454850514570912e-02,1.051883193390845544e-01,-6.010553195888401062e-02
2.039999999999999869e-01,1.169643360894834366e-01,6.689555925895386557e-02,-2.883048889344124247e-02
2.049999999999999878e-01,1.268283322014184256e-01,3.289986335577856080e-02,6.123512265492560454e-04
2.059999999999999887e-01,1.029946332989014751e-01,-1.238035201464450334e-03,2.470593382909602384e-02
2.069999999999999896e-01,8.160289577050416909e-02,-3.254154820373221513e-02,3.396764071470272095e-02
2.079999999999999905e-01,3.994951340755555774e-02,-6.247701249267731405e-02,4.194229933808614474e-02
2.089999999999999913e-01,5.453782635038996983e-03,-4.363238732596088493e-02,4.849916588787146071e-02
2.099999999999999922e-01,-1.532908661424770176e-02,-5.230485305833811049e-02,4.988184453900861015e-02
2.109999999999999931e-01,-3.207228474372994520e-02,-5.054582126163432304e-02,3.882486620685508122e-02
2.119999999999999940e-01,-5.058103956437861454e-02,-4.331310489974509598e-02,3.020564237444069156e-02
2.129999999999999949e-01,-5.197889765082119168e-02,-2.124248203197529397e-02,2.910928621548957221e-02
2.139999999999999958e-01,-7.114489119346581458e-02,-2.489454462350676120e-02,9.974016983375865592e-03
2.149999999999999967e-01,-8.276217769501299781e-02,1.816540847978967074e-02,-3.364988910322695009e-02
2.159999999999999976e-01,-7.960432372524534061e-02,3.123410571717824546e-02,-1.389031726193322783e-02
2.169999999999999984e-01,-5.337139380547419737e-02,6.435783190109721497e-02,-5.663853317806061966e-02
2.179999999999999993e-01,-2.548220273766813038e-02,9.123122934012455054e-02,-6.253531741278091360e-02
2.190000000000000002e-01,3.818801556986377993e-02,8.867672273820245699e-02,-8.506866336970891895e-02
2.200000000000000011e-01,9.020803961121692804e-02,7.970410886370109249e-02,-5.825375995305930032e-02
2.210000000000000020e-01,1.301930703595827743e-01,4.668933087177697117e-02,-2.494132538530688739e-02
2.220000000000000029e-01,1.605912252703371734e-01,-2.107768847059640974e-02,1.171221273198361397e-02
2.230000000000000038e-01,1.282089742427134638e-01,-4.596714448454580770e-02,6.978934097531291902e-02
2.240000000000000047e-01,1.002817319297172050e-01,-1.162074783484735863e-01,7.270067258222430440e-02
2.250000000000000056e-01,7.493508694879051288e-03,-1.559578791398950892e-01,1.186552236532112253e-01
2.260000000000000064e-01,-8.737935945513694569e-02,-1.310489558939930410e-01,1.194716107935311633e-01
2.270000000000000073e-01,-1.778838776259047683e-01,-8.637383719814178962e-02,6.391756435616108289e-02
2.280000000000000082e-01,-2.220165606705280514e-01,-2.563092857676015773e-02,1.153670202725035846e-03
2.290000000000000091e-01,-2.169035911188217924e-01,7.021390483118282455e-02,-5.141107446512267753e-02
2.300000000000000100e-01,-1.439996959346972472e-01,1.494794629815297260e-01,-1.196180020375630509e-01
2.310000000000000109e-01,-6.060290121692891996e-02,2.037221338477972488e-01,-1.468486503388010955e-01
2.320000000000000118e-01,6.625481841599317745e-02,2.030127404822493209e-01,-1.628281149994213473e-01
2.330000000000000127e-01,1.827172102890991801e-01,1.371467488744702867e-01,-1.182261719377592502e-01
2.340000000000000135e-01,2.674116129049788904e-01,7.223614903207584148e-02,-4.384171179217555975e-02
2.349999999999999867e-01,2.853644430035423007e-01,-5.557843345072525226e-02,3.716630618902237032e-02
2.359999999999999876e-01,2.170803836948806409e-01,-1.466347452103529958e-01,1.153803894173228012e-01
2.369999999999999885e-01,1.081430545994353509e-01,-2.164204188292392361e-01,1.520767881425715840e-01
2.379999999999999893e-01,-5.524352232659095197e-02,-2.381747771530894342e-01,1.859755398102959367e-01
2.389999999999999902e-01,-1.845546343898346875e-01,-1.807711984704870878e-01,1.490683338391282642e-01
2.399999999999999911e-01,-2.894065146836064528e-01,-1.036526918799860336e-01,7.248264533659477815e-02
2.409999999999999920e-01,-3.166766209201929416e-01,3.214509722311131856e-02,-2.892857682339521758e-02
2.419999999999999929e-01,-2.725784241928941309e-01,1.459231644849031950e-01,-1.102888262634879324e-01
2.429999999999999938e-01,-1.585118080555825149e-01,2.317263376095539673e-01,-1.815162576328814559e-01
2.439999999999999947e-01,7.037781228183306349e-03,2.743205046371370859e-01,-1.980236747850183388e-01
2.449999999999999956e-01,1.653037990320144757e-01,2.217614048256543458e-01,-1.813132923262189000e-01
2.459999999999999964e-01,2.906036924703913615e-01,1.202981385664875918e-01,-1.158313876207846121e-01
2.469999999999999973e-01,3.382090290579306546e-01,-2.980772253563350026e-03,-1.630361881815734978e-02
2.479999999999999982e-01,3.036930747775166139e-01,-1.318072041176170661e-01,8.913029560150699526e-02
2.489999999999999991e-01,1.877827716743916409e-01,-2.453911375710685350e-01,1.508399522826465167e-01
2.500000000000000000e-01,3.486502883193259850e-02,-2.722233990252651004e-01,2.042343936502569735e-01
2.510000000000000009e-01,-1.409899169470701652e-01,-2.428911027207397710e-01,1.804368063338530892e-01
2.520000000000000018e-01,-2.850702960235094174e-01,-1.436809095854874596e-01,1.260265527806402330e-01
2.530000000000000027e-01,-3.228620255991266896e-01,-1.878040491260913464e-02,4.795934730644978161e-02
2.540000000000000036e-01,-3.187742283802144083e-01,1.070342167615602053e-01,-5.398818019083750225e-02
2.550000000000000044e-01,-2.127928289305894560e-01,2.058415675067656048e-01,-1.431073227003747672e-01
2.560000000000000053e-01,-6.043108279596110660e-02,2.570350787732915143e-01,-1.775451203730047389e-01
2.570000000000000062e-01,8.858769595724702572e-02,2.457965612852642534e-01,-1.849045374309391532e-01
2.580000000000000071e-01,2.337850432897150832e-01,1.492323837096160288e-01,-1.568945697211965862e-01
2.590000000000000080e-01,2.997172698318054107e-01,4.239857821593338155e-02,-6.297835887994272797e-02
2.600000000000000089e-01,2.956001154304559453e-01,-8.069600658784385760e-02,1.286000392116036332e-02
2.610000000000000098e-01,2.233307589678806548e-01,-1.805906919386693621e-01,1.009401470335978962e-01
2.620000000000000107e-01,9.088394138199046290e-02,-2.333393507207945083e-01,1.518139322496451227e-01
2.630000000000000115e-01,-5.194037191985342861e-02,-2.196837217691267330e-01,1.650800301413936355e-01
2.640000000000000124e-01,-1.785310290233755037e-01,-1.543237701862691102e-01,1.450124206248785130e-01
2.650000000000000133e-01,-2.435812912696776744e-01,-5.348141174465623204e-02,8.216436639938352882e-02
2.660000000000000142e-01,-2.664108460731171579e-01,5.123742189649423823e-02,-7.665115539382721770e-03
2.670000000000000151e-01,-1.963475380836984252e-01,1.464919312655917627e-01,-7.413106567880850539e-02
2.680000000000000160e-01,-9.980442414863417711e-02,1.767326600025010963e-01,-1.080392620328970432e-01
2.690000000000000169e-01,1.480074962302584292e-02,1.886312239892183051e-01,-1.400750639469863223e-01
2.700000000000000178e-01,1.003163294807199318e-01,1.317542610933628011e-01,-1.320217751982591392e-01
2.710000000000000187e-01,1.721896066342550879e-01,6.930151820174305921e-02,-7.958898619640056293e-02
2.720000000000000195e-01,2.032971686351588425e-01,-1.153059965614620930e-02,-3.199813812361012449e-02
2.730000000000000204e-01,1.703738034642681143e-01,-6.823750135541530037e-02,3.857278420849467176e-02
2.740000000000000213e-01,1.091564485299676979e-01,-1.229214646321964283e-01,7.015780526195897204e-02
2.750000000000000222e-01,2.099596715356583446e-02,-1.324539545253585471e-01,9.226950854064461249e-02
2.760000000000000231e-01,-4.037713694382363827e-02,-1.112605789858215205e-01,1.031346416823791523e-01
2.770000000000000240e-01,-9.952217045866751377e-02,-5.923195542576431549e-02,8.005436339720306549e-02
2.780000000000000249e-01,-1.187000000117434811e-01,-2.211522767118904997e-02,3.797727636625843062e-02
2.790000000000000258e-01,-9.506459276719805840e-02,4.031465955156007114e-02,1.179889438679258828e-02
2.800000000000000266e-01,-8.408907726493680679e-02,6.197715650082783606e-02,-2.484957508487112277e-02
2.810000000000000275e-01,-7.219262746660062846e-02,7.816540743654866452e-02,-4.460083216014899127e-02
2.819999999999999729e-01,-1.838531835802672404e-02,6.689527337836385923e-02,-5.839118551649405409e-02
2.829999999999999738e-01,2.700303122198451436e-02,6.163655469614490179e-02,-5.957364235447087930e-02
2.839999999999999747e-01,4.200794195787624363e-02,4.982307192228533493e-02,-3.754133437774215265e-02
2.849999999999999756e-01,6.625149454983954300e-02,1.249792158732109838e-02,-3.279074055971901297e-02
2.859999999999999765e-01,5.659538690974393743e-02,-3.225375832979443611e-03,-3.263172274209644175e-02
2.869999999999999774e-01,5.920710009986306782e-02,-4.808907541639785934e-04,9.669084339219051819e-03
2.879999999999999782e-01,4.599204848546469687e-02,-1.944230237405186745e-02,1.842224389822794475e-02
2.889999999999999791e-01,5.943146804005548095e-02,-3.697259516911826499e-02,1.820248109695064495e-02
2.899999999999999800e-01,4.584818428533884993e-02,-8.058861186636863405e-02,3.822373057074467811e-02
2.909999999999999809e-01,2.423643294158140532e-02,-8.046285131226299514e-02,5.942835752224352036e-02
2.919999999999999818e-01,-2.349160818213211210e-02,-7.088948933151424658e-02,4.919414770598097564e-02
2.929999999999999827e-01,-8.223120667179058263e-02,-5.585983753946065916e-02,7.136538163804406754e-02
2.939999999999999836e-01,-1.050540246139139849e-01,-4.635046748911338804e-02,4.185397394902635321e-02
2.949999999999999845e-01,-1.319091299321140942e-01,9.821075972222615205e-03,2.492327430380558359e-02
2.959999999999999853e-01,-1.345371639287938903e-01,6.003716884366171874e-02,-5.792023723958334563e-03
2.969999999999999862e-01,-9.123381950905533333e-02,1.124861486880618655e-01,-5.814517353095608604e-02
2.979999999999999871e-01,-4.350693837933933966e-02,1.577638790458190943e-01,-9.603908432106363080e-02
2.989999999999999880e-01,5.278943534257613673e-02,1.222760677425537151e-01,-1.035458383049905340e-01
2.999999999999999889e-01,1.275992221459938680e-01,8.123541945759867045e-02,-9.240019867060303427e-02
3.009999999999999898e-01,1.912370066512227018e-01,-4.467892402941239620e-03,-6.725468097181225291e-02
3.019999999999999907e-01,2.077969125112681115e-01,-7.915129260289401059e-02,-3.026035973071188045e-02
3.029999999999999916e-01,1.833423626098482639e-01,-1.580973606573727042e-01,3.606923305823978021e-02
3.039999999999999925e-01,9.127133814396315437e-02,-1.899840714894505123e-01,1.021338959889945969e-01
3.049999999999999933e-01,-2.029522839038767901e-02,-1.729011409105160879e-01,1.264665160921435993e-01
3.059999999999999942e-01,-1.348966822805009735e-01,-1.316480013012620853e-01,1.372940870628494292e-01
3.069999999999999951e-01,-2.282380863763480427e-01,-3.708940862658242910e-02,1.196217946783311725e-01
3.079999999999999960e-01,-2.682197335299167373e-01,7.350969353553173102e-02,6.315093998883157533e-02
3.089999999999999969e-01,-2.425195353751105065e-01,1.645565885475965551e-01,-2.794443802405037133e-02
3.099999999999999978e-01,-1.544897945831616992e-01,2.285948746580156454e-01,-1.018808755559498375e-01
3.109999999999999987e-01,-6.632797755408282106e-03,2.323125323476898374e-01,-1.432804887574545272e-01
3.119999999999999996e-01,1.204574622538378131e-01,1.736942660031802477e-01,-1.724052871986531399e-01
3.130000000000000004e-01,2.522200635326708462e-01,5.739732642346666996e-02,-1.412336179615198417e-01
3.140000000000000013e-01,3.077434141256683020e-01,-6.355985607348489663e-02,-8.703520250478553877e-02
3.150000000000000022e-01,2.913622113407263736e-01,-1.689370432609555439e-01,-4.967744822702984363e-03
3.160000000000000031e-01,2.092007578248572530e-01,-2.528187183952717021e-01,8.083146114570047280e-02
3.170000000000000040e-01,6.711604119481065500e-02,-2.647297687887715800e-01,1.605827815720999585e-01
3.180000000000000049e-01,-1.176253160737776027e-01,-1.993301229124651019e-01,1.885099557629585643e-01
3.190000000000000058e-01,-2.563073299633047419e-01,-9.080169639711213603e-02,1.824776995648639821e-01
3.200000000000000067e-01,-3.198635487097576946e-01,4.857041602389043644e-02,1.414933231840125871e-01
3.210000000000000075e-01,-3.346675993802860072e-01,1.767582180491565902e-01,3.642782705534529375e-02
3.220000000000000084e-01,-2.433017273943051950e-01,2.552204900469962623e-01,-6.067658074555187797e-02
3.230000000000000093e-01,-1.088484980030935967e-01,2.552274178469724486e-01,-1.452414539841220542e-01
3.240000000000000102e-01,6.488700518236879822e-02,2.050818133896193662e-01,-2.025506331221731959e-01
3.250000000000000111e-01,2.339425130606908321e-01,1.070046473108921675e-01,-1.937536683045119890e-01
3.260000000000000120e-01,3.166492166234015082e-01,-3.549805022259340526e-02,-1.430270828806342320e-01
3.270000000000000129e-01,3.244417999004444164e-01,-1.531384318056850935e-01,-5.815767471260886029e-02
3.280000000000000138e-01,2.767394434571933681e-01,-2.236634322061639424e-01,2.213620173364471908e-02
3.290000000000000147e-01,1.314135727185887503e-01,-2.671671842003334740e-01,1.313207951100513748e-01
3.300000000000000155e-01,-3.960579650078618202e-02,-2.228904812672260483e-01,1.855353326063011454e-01
3.310000000000000164e-01,-1.876369145037935782e-01,-1.279926566696765744e-01,1.973308991320547601e-01
3.320000000000000173e-01,-2.630622739729008286e-01,-6.829839586296079269e-03,1.622358003666841408e-01
3.330000000000000182e-01,-3.027983158953915233e-01,1.131185038118297792e-01,8.988694065520298759e-02
3.340000000000000191e-01,-2.804332704550997479e-01,2.097159850922855340e-01,4.777718303279230964e-03
3.350000000000000200e-01,-1.462859371253288354e-01,2.395736995150893889e-01,-9.434238393454906502e-02
3.360000000000000209e-01,-1.041879276479625374e-02,2.165382616020386786e-01,-1.495742339010712463e-01
3.370000000000000218e-01,1.312183737860578847e-01,1.403573698875938969e-01,-1.826380268455740086e-01
3.380000000000000226e-01,2.376196940283035464e-01,1.498282188112436998e-02,-1.566564815138302424e-01
3.390000000000000235e-01,2.585632761527948964e-01,-7.485445101559294601e-02,-9.789531431341556844e-02
3.400000000000000244e-01,2.525058504981093077e-01,-1.744112600075871378e-01,-1.493058640751153583e-02
3.410000000000000253e-01,1.421406321623569502e-01,-1.968414584564211200e-01,6.807089253967020526e-02
3.420000000000000262e-01,3.765558881856610057e-02,-1.742481804646303090e-01,1.184128452131105458e-01
3.430000000000000271e-01,-7.206859660319860084e-02,-1.266450349002616882e-01,1.486912682345598868e-01
3.439999999999999725e-01,-1.740055131368944408e-01,-3.920430937998912319e-02,1.453720344944901266e-01
3.449999999999999734e-01,-2.080533687273922461e-01,3.240675803092545743e-02,9.818775911226639008e-02
3.459999999999999742e-01,-1.953133533719541293e-01,1.120590715392793951e-01,3.877170570902613300e-02
3.469999999999999751e-01,-1.467459752479612911e-01,1.517838734972658254e-01,-2.505728367220224836e-02
3.479999999999999760e-01,-5.918486763462416783e-02,1.408633067826725593e-01,-6.964685825543724673e-02
3.489999999999999769e-01,3.394190604499226771e-02,1.015231462348029912e-01,-9.329628018274695178e-02
3.499999999999999778e-01,9.178109680961160644e-02,5.321448937329206069e-02,-1.116276099528067944e-01
3.509999999999999787e-01,1.278752173132506886e-01,-1.096107764901869085e-02,-8.545564275368816576e-02
3.519999999999999796e-01,1.285821511876809875e-01,-4.486795326985926896e-02,-5.125396399180739970e-02
3.529999999999999805e-01,1.042407447726914210e-01,-7.051679657718222527e-02,-7.010382596097017131e-03
3.539999999999999813e-01,9.111973793576075287e-02,-7.503582284383891743e-02,2.527770752986301106e-02
3.549999999999999822e-01,3.660593700250174692e-02,-8.205731830386676917e-02,5.669143185912590976e-02
3.559999999999999831e-01,-1.664317680896557766e-02,-4.883686308025590034e-02,5.797283914470413579e-02
3.569999999999999840e-01,-4.037626539195758590e-02,-2.999519001950220337e-02,5.129591059128899705e-02
3.579999999999999849e-01,-6.234237101822748955e-02,-1.127069441992137842e-02,3.634056713197857114e-02
3.589999999999999858e-01,-7.286134148796118148e-02,1.761018134638979091e-02,3.090835242523046200e-02
3.599999999999999867e-01,-5.969817729110486748e-02,1.928029412185934197e-02,1.662370495026398512e-02
3.609999999999999876e-01,-6.649034218129730445e-02,4.881534018372184897e-02,-1.393876602914644047e-03
3.619999999999999885e-01,-4.455952529972686399e-02,4.905599230402848954e-02,-9.033200922424997406e-03
3.629999999999999893e-01,-5.290846888165283424e-02,6.632012869572027902e-02,-1.252329591212298157e-02
3.639999999999999902e-01,-1.986152519387050785e-02,6.081922590707438542e-02,-3.269276605718163947e-02
3.649999999999999911e-01,9.988961555935984074e-03,7.206293454039966462e-02,-3.894456762816684431e-02
3.659999999999999920e-01,4.324593131443518063e-02,3.969806141731958837e-02,-4.355254603314703821e-02
3.669999999999999929e-01,7.160988169307573592e-02,-8.032867888068555284e-03,-4.809682944226111728e-02
3.679999999999999938e-01,1.067302157273964242e-01,-3.813679650026029211e-02,-3.997456133577726584e-02
3.689999999999999947e-01,1.322494623191678431e-01,-7.071705597523374187e-02,-1.770875175926974257e-02
3.699999999999999956e-01,1.063578032489645303e-01,-1.331589002848015402e-01,-3.060680492701804787e-03
3.709999999999999964e-01,4.766508232734801426e-02,-1.340324550453307062e-01,2.769231092209831213e-02
3.719999999999999973e-01,-7.774595693784530290e-03,-8.733825199410426288e-02,7.123392798387322145e-02
3.729999999999999982e-01,-8.241593853922768442e-02,-4.454473372215363852e-02,8.168779815295941493e-02
3.739999999999999991e-01,-1.532362261658613278e-01,2.170378425791880811e-02,9.774297868689518776e-02
3.750000000000000000e-01,-1.832533263505949916e-01,9.261063325747756481e-02,5.699648980378287794e-02
3.760000000000000009e-01,-1.854091681044943707e-01,1.717426692925031195e-01,1.903406960713394103e-02
3.770000000000000018e-01,-1.365855614299820997e-01,1.679213307451587756e-01,-3.706463107292839315e-02
3.780000000000000027e-01,-3.729420373640001535e-02,1.700683570853334936e-01,-6.802929785888195413e-02
3.790000000000000036e-01,9.862208228900863627e-02,9.771846175807478996e-02,-1.361336257865564392e-01
3.800000000000000044e-01,1.822818445905690088e-01,5.495119324151289709e-04,-1.301456052576194233e-01
3.810000000000000053e-01,2.373276367647786933e-01,-1.101458106639650603e-01,-1.172852383091343154e-01
3.820000000000000062e-01,2.524174073845362187e-01,-1.885305260167568220e-01,-6.306225517748983989e-02
3.830000000000000071e-01,1.962213920027417180e-01,-2.129195033692176386e-01,4.436505398058216039e-03
3.840000000000000080e-01,9.006156075748122936e-02,-2.000641513655191939e-01,8.514159180456930265e-02
3.850000000000000089e-01,-5.756156425356027256e-02,-1.369436964398220158e-01,1.362412472160934307e-01
3.860000000000000098e-01,-1.890530239760054021e-01,-2.654053711432617993e-02,1.645591533184467825e-01
3.870000000000000107e-01,-2.880744657555437960e-01,1.017471421620092936e-01,1.653207562593956015e-01
3.880000000000000115e-01,-3.019838970278884149e-01,2.053509666662238775e-01,9.145118133891078083e-02
3.890000000000000124e-01,-2.345402106297463929e-01,2.684220769742202695e-01,6.821814589191795009e-03
3.900000000000000133e-01,-1.201944923904646745e-01,2.391354855147544423e-01,-6.858742743970308586e-02
3.910000000000000142e-01,3.006968032545605934e-02,1.645225444558250927e-01,-1.317925482407217019e-01
3.920000000000000151e-01,1.909274768334318917e-01,4.955735582543766699e-02,-2.008152577743572420e-01
3.930000000000000160e-01,2.873828633506592678e-01,-9.104258752148684797e-02,-1.728549941774407406e-01
3.940000000000000169e-01,3.260786471659046781e-01,-2.013080327498578403e-01,-1.432673709372099535e-01
3.950000000000000178e-01,2.913863052481853178e-01,-2.626467452553814530e-01,-5.546328171127384854e-02
3.960000000000000187e-01,1.774824791456244555e-01,-2.656824015661608529e-01,5.919238751360074435e-02
3.970000000000000195e-01,1.808715327149164331e-02,-1.952600579964544891e-01,1.284768882767834963e-01
3.980000000000000204e-01,-1.574355249190708961e-01,-8.426548548172509145e-02,1.912836113745659539e-01
3.990000000000000213e-01,-2.894119961374172489e-01,6.301419081173273429e-02,1.927987187688269266e-01
4.000000000000000222e-01,-3.398531053680086123e-01,1.933784744552159707e-01,1.610177019617295147e-01
4.010000000000000231e-01,-2.942639746465003925e-01,2.446211867123267714e-01,7.809476374285605205e-02
4.020000000000000240e-01,-2.063743126687423157e-01,2.562841819729014814e-01,-2.828751560904166351e-02
4.030000000000000249e-01,-4.643866193049033669e-02,1.847759110057585197e-01,-1.105994791086247764e-01
4.040000000000000258e-01,1.035682647225580205e-01,1.093210039549788598e-01,-1.762850929403369793e-01
4.050000000000000266e-01,2.514963509679834508e-01,-4.061544158756311834e-02,-1.904104757158069372e-01
4.060000000000000275e-01,3.052200179867474716e-01,-1.615153835281016859e-01,-1.784759513657155905e-01
4.069999999999999729e-01,3.111799548587849129e-01,-2.315936432595640804e-01,-9.697752975441181755e-02
4.079999999999999738e-01,2.248891131701520885e-01,-2.397399207391179565e-01,-1.706887699044790097e-02
4.089999999999999747e-01,9.155937450489311236e-02,-1.941238563876445111e-01,8.277461678777478515e-02
4.099999999999999756e-01,-8.549941933935899241e-02,-9.574145812696535640e-02,1.451532315949840002e-01
4.109999999999999765e-01,-1.965032729600227901e-01,1.173540478847227668e-02,1.726636968221290924e-01
4.119999999999999774e-01,-2.696601172430654336e-01,1.189190664017845678e-01,1.761454403060324636e-01
4.129999999999999782e-01,-2.781960822035993708e-01,1.790969406505283357e-01,1.264052430292449125e-01
4.139999999999999791e-01,-2.083354788080202247e-01,1.993006263269279377e-01,3.498648578766606898e-02
4.149999999999999800e-01,-9.279832771163556981e-02,1.678504327206795099e-01,-5.902664502083924958e-02
4.159999999999999809e-01,3.189039280522718706e-02,1.061114934335962851e-01,-1.176371223439957731e-01
4.169999999999999818e-01,1.410204137127533675e-01,5.426930727677791236e-03,-1.488376084221443851e-01
4.179999999999999827e-01,2.017061107045672319e-01,-7.075377759792701726e-02,-1.369003416826316266e-01
4.189999999999999836e-01,2.313348889093831684e-01,-1.389676927775425341e-01,-1.055746952593623889e-01
4.199999999999999845e-01,1.956744972165492258e-01,-1.464292581099196355e-01,-5.728930712304038109e-02
4.209999999999999853e-01,1.029821601131157144e-01,-1.531254830658772270e-01,9.628243526121613161e-03
4.219999999999999862e-01,9.845799080841781750e-03,-8.796702018870417028e-02,7.142038254718144352e-02
4.229999999999999871e-01,-8.165842344840786027e-02,-3.090159750416752310e-02,1.084238386162039852e-01
4.239999999999999880e-01,-1.254831232981762357e-01,4.002348422596353761e-02,1.073204934077052752e-01
4.249999999999999889e-01,-1.472479480977845756e-01,8.402686362590586211e-02,7.504739377711426573e-02
4.259999999999999898e-01,-1.427965660861354180e-01,9.301604950475084177e-02,5.591792334581039553e-02
4.269999999999999907e-01,-9.898300976406469720e-02,8.883667451564185302e-02,-4.041653867289636895e-03
4.279999999999999916e-01,-4.484435798295394182e-02,6.903988319782720928e-02,-2.401991328536080481e-02
4.289999999999999925e-01,-4.688760795591081013e-03,4.879081172606360151e-02,-5.830339257853739410e-02
4.299999999999999933e-01,4.326175011469061277e-02,1.412219724188457266e-02,-6.054248800634577654e-02
4.309999999999999942e-01,8.057205865161369551e-02,-1.530281657636701868e-02,-6.822542355768569655e-02
4.319999999999999951e-01,7.693293911558840570e-02,-1.425164431849608969e-02,-5.445977196604523396e-02
4.329999999999999960e-01,8.563416064405129924e-02,-4.920699264315253618e-02,-2.963358288563125442e-02
4.339999999999999969e-01,6.611806854034298075e-02,-4.166329999511655252e-02,-2.038747564949476912e-02
4.349999999999999978e-01,4.540066920681080226e-02,-3.139636824152274713e-02,2.042169180707536710e-02
4.359999999999999987e-01,2.023919219205468079e-02,-6.304552485329663336e-02,2.108351522601054073e-02
4.369999999999999996e-01,2.538454688316696753e-02,-5.095286412197406328e-02,3.896453580729500321e-02
4.380000000000000004e-01,3.022305948770671272e-03,-3.621118349094543803e-02,3.808513779558504037e-02
4.390000000000000013e-01,-3.623131539171507709e-02,-2.613415086070500562e-02,4.154601724710965671e-02
4.400000000000000022e-01,-6.729223971727081588e-02,1.143187958122348323e-02,4.206469253558889343e-02
4.410000000000000031e-01,-9.726402030149336464e-02,6.372208346173453830e-02,3.471385773710358724e-02
4.420000000000000040e-01,-1.051226876789085607e-01,9.253825036168636387e-02,3.856153125272165222e-02
4.430000000000000049e-01,-9.709397359608117062e-02,1.055114273411097703e-01,3.404568326964601405e-02
4.440000000000000058e-01,-5.045653801614705114e-02,9.778027185935758703e-02,-7.925250408422828546e-03
4.450000000000000067e-01,-6.939767646504294007e-03,8.159681504918965544e-02,-4.201195018561726391e-02
4.460000000000000075e-01,6.198166542137702184e-02,3.226823281728884857e-02,-4.916413160371749247e-02
4.470000000000000084e-01,1.265625429219616460e-01,-4.106182951610830301e-02,-7.375910398701622517e-02
4.480000000000000093e-01,1.717904212480923232e-01,-1.119488156666366280e-01,-1.039440804073351182e-01
4.490000000000000102e-01,1.715730580882638967e-01,-1.594790194749519385e-01,-6.296938768766634220e-02
4.500000000000000111e-01,1.312625600617285948e-01,-1.714089667019986496e-01,-2.730074701563560413e-02
4.510000000000000120e-01,7.887421530038382644e-02,-1.334266319772179910e-01,8.721573595994550412e-03
4.520000000000000129e-01,-4.372487822105444732e-02,-6.318050505236835757e-02,7.009957255658658126e-02
4.530000000000000138e-01,-1.379392367724034951e-01,2.559104656943096689e-02,1.025275660344993067e-01
4.540000000000000147e-01,-2.114940735876243150e-01,1.247578511317296718e-01,1.247057386756600661e-01
4.550000000000000155e-01,-2.410569644651792687e-01,2.042363756766118199e-01,1.244732826265854964e-01
4.560000000000000164e-01,-2.178036837171508644e-01,2.077831953870054316e-01,8.755042387326424091e-02
4.570000000000000173e-01,-1.315219272922208693e-01,2.027392155230305637e-01,2.840818431558152658e-03
4.580000000000000182e-01,-1.560999284443119863e-03,9.200460767791228400e-02,-6.613821601502478664e-02
4.590000000000000191e-01,1.428983207914294729e-01,-3.443965645225568616e-05,-1.318208471678812832e-01
4.600000000000000200e-01,2.390244611452996548e-01,-1.233828451590470859e-01,-1.599455840474832136e-01
4.610000000000000209e-01,2.864175367139529804e-01,-2.135747180042159854e-01,-1.646425146532424222e-01
4.620000000000000218e-01,2.757502642695015549e-01,-2.499375616049882010e-01,-1.047649541757843666e-01
4.630000000000000226e-01,1.786762801763929487e-01,-2.209529150806031073e-01,-2.811815963394752663e-02
4.640000000000000235e-01,3.517048881383219583e-02,-1.427291626864700402e-01,4.323129016561048227e-02
4.650000000000000244e-01,-9.560399039681738431e-02,-1.780158994832038363e-02,1.157730727847379737e-01
4.660000000000000253e-01,-2.681611372927543147e-01,1.230802333864237791e-01,1.809819889568921036e-01
4.670000000000000262e-01,-3.235691178316159045e-01,2.106135388818361209e-01,1.719722491755252824e-01
4.680000000000000271e-01,-3.067252460441325934e-01,2.691712957590582933e-01,1.283590975160702197e-01
4.689999999999999725e-01,-2.261810515833115598e-01,2.465476926461453722e-01,6.299267730930063758e-02
4.699999999999999734e-01,-7.884060805446327369e-02,1.632226638176270672e-01,-2.287730089298603900e-02
4.709999999999999742e-01,8.294076023949562004e-02,2.935471860589877052e-02,-1.436550418735382528e-01
4.719999999999999751e-01,2.172269195000980924e-01,-1.099963145869934517e-01,-1.832260890495674976e-01
4.729999999999999760e-01,3.128636632106259752e-01,-1.988590403564007292e-01,-2.141604982029381432e-01
4.739999999999999769e-01,3.333488902726263747e-01,-2.752167011787015061e-01,-1.578214856345007966e-01
4.749999999999999778e-01,2.508005850405166104e-01,-2.512223554406531334e-01,-9.195493982532397526e-02
4.759999999999999787e-01,1.229539044189563030e-01,-1.791750296440221546e-01,-8.731617967670517177e-03
4.769999999999999796e-01,-5.400599379121533150e-02,-4.883935595311830746e-02,9.981263090107042601e-02
4.779999999999999805e-01,-1.975787080052806288e-01,9.231787271129256178e-02,1.622918883218045227e-01
4.789999999999999813e-01,-3.023406558687802281e-01,1.928443371234904724e-01,2.033292121637193250e-01
4.799999999999999822e-01,-3.304696759835642483e-01,2.546400564189810201e-01,1.971455642472158265e-01
4.809999999999999831e-01,-2.573170424012543034e-01,2.311593731160313248e-01,1.313697549895533612e-01
4.819999999999999840e-01,-1.411622139230906403e-01,1.741409510738301525e-01,2.313138143375540606e-02
4.829999999999999849e-01,7.780948630758599202e-03,5.868218520422482237e-02,-5.741956071341508538e-02
4.839999999999999858e-01,1.534254487745586593e-01,-5.570492343593552026e-02,-1.355805124212890456e-01
4.849999999999999867e-01,2.712506118112771314e-01,-1.452324319149631004e-01,-1.746448056134228821e-01
4.859999999999999876e-01,2.987538781361810392e-01,-2.129544948795434878e-01,-1.668881568451947572e-01
4.869999999999999885e-01,2.609118782122092917e-01,-2.117810451096748536e-01,-1.359721503481927107e-01
4.879999999999999893e-01,1.619293979203581535e-01,-1.739417497748650121e-01,-4.644936746841054481e-02
4.889999999999999902e-01,2.845560544506855680e-02,-8.223513493174029743e-02,4.255999068399164004e-02
4.899999999999999911e-01,-1.016610659949171436e-01,2.053962458147436457e-02,1.103531777269339542e-01
4.909999999999999920e-01,-2.115563660880075136e-01,1.065064408119430067e-01,1.487460014314874457e-01
4.919999999999999929e-01,-2.426149147120244820e-01,1.446448089796290304e-01,1.741934297584036284e-01
4.929999999999999938e-01,-2.290547990176396709e-01,1.643964303010426176e-01,1.258163596158013431e-01
4.939999999999999947e-01,-1.442850030648292758e-01,1.200799368116664267e-01,6.892387632146347587e-02
4.949999999999999956e-01,-6.177753858145725030e-02,7.513842734254011502e-02,-6.802095070344833447e-03
4.959999999999999964e-01,4.146911300873214884e-02,1.045940112984988790e-02,-7.994225454672086728e-02
4.969999999999999973e-01,1.346859003636851904e-01,-4.631750006715212170e-02,-1.009238111961784090e-01
4.979999999999999982e-01,1.563078271506710692e-01,-1.011228955507485344e-01,-1.244778353811165639e-01
4.989999999999999991e-01,1.778618864471877281e-01,-1.241431837973250990e-01,-1.193166602180184693e-01
5.000000000000000000e-01,1.341389828837613318e-01,-9.758674205568965143e-02,-6.363614470304941595e-02
5.010000000000000009e-01,7.062682981180636033e-02,-7.497748205531773458e-02,-2.876884396757936960e-02
5.020000000000000018e-01,2.473304300515374865e-02,-2.870786314508888895e-02,2.361918182033159383e-02
5.030000000000000027e-01,-4.349918539017194608e-02,-9.183275622025350790e-03,4.303446367545105122e-02
5.040000000000000036e-01,-8.240232132857243375e-02,3.782620205859501400e-02,8.123088205382907045e-02
5.050000000000000044e-01,-1.107497812072464616e-01,5.426388357877064139e-02,6.796877802106106314e-02
5.060000000000000053e-01,-9.276318161483629310e-02,4.909087839556742355e-02,6.788839995165263375e-02
5.070000000000000062e-01,-7.074530915441566703e-02,5.656906024775432834e-02,4.722592279115594982e-02
5.080000000000000071e-01,-6.408621196099456574e-02,5.237893625952491639e-02,5.504038222161601775e-03
5.090000000000000080e-01,-2.786647421168999411e-02,5.078796065664363535e-02,-1.670190045631734024e-02
5.100000000000000089e-01,5.656396400767812332e-03,3.109940916673501615e-02,-3.821934582483414722e-02
5.110000000000000098e-01,2.281626067680464845e-02,3.182791887061913599e-02,-4.199001833895885105e-02
5.120000000000000107e-01,2.518046028401697486e-02,-4.622050041156711662e-04,-4.206920744331384132e-02
5.130000000000000115e-01,4.150145042072888452e-02,-2.180986960168175906e-02,-5.279953127328305962e-02
5.140000000000000124e-01,7.128395885657509701e-02,-5.578822843780508606e-02,-4.266647222119297062e-02
5.150000000000000133e-01,8.136070089582679576e-02,-8.150563332323365606e-02,-2.745367915648608270e-02
5.160000000000000142e-01,7.871119732768122601e-02,-1.044852136769238299e-01,-4.492571362650718547e-02
5.170000000000000151e-01,6.277163135229825441e-02,-1.067271324335454658e-01,-1.485096686438229854e-02
5.180000000000000160e-01,1.003194068050821189e-02,-5.284080475917778130e-02,9.468396428216856522e-03
5.190000000000000169e-01,-3.005694183882241452e-02,-7.416209787260736631e-03,2.752312146376739363e-02
5.200000000000000178e-01,-1.044628766173124473e-01,7.270002430338398658e-02,5.663556216091992362e-02
5.210000000000000187e-01,-1.433783009415027787e-01,1.252568856376380657e-01,7.368108401435224941e-02
5.220000000000000195e-01,-1.585374792224099327e-01,1.438663061783592156e-01,7.457116920011244710e-02
5.230000000000000204e-01,-1.545467550662712464e-01,1.587570973581378664e-01,5.404398500093110513e-02
5.240000000000000213e-01,-1.004682906470928394e-01,1.109202359752266553e-01,2.967630751918125948e-02
5.250000000000000222e-01,-3.030531782133749630e-02,3.975402863468174147e-02,-1.272024348904008881e-02
5.260000000000000231e-01,7.312722457300757650e-02,-7.194960482792416012e-02,-5.773207860693909538e-02
5.270000000000000240e-01,1.687698350511509515e-01,-1.433385443339575682e-01,-9.348509537904406419e-02
5.280000000000000249e-01,2.171669809063648815e-01,-1.841538426912550375e-01,-1.156320090035986570e-01
5.290000000000000258e-01,2.385395643211295491e-01,-1.980820605579289018e-01,-1.028649948760054084e-01
5.300000000000000266e-01,1.612403390953630333e-01,-1.425380852292927325e-01,-8.377309939196879440e-02
5.310000000000000275e-01,5.836726905763239825e-02,-5.826572146817064757e-02,-2.216678438044470539e-02
5.320000000000000284e-01,-6.284071417711661889e-02,4.765497313449866545e-02,6.606053725456045855e-02
5.330000000000000293e-01,-1.876161821197093182e-01,1.538077650064356428e-01,1.168100254161553997e-01
5.340000000000000302e-01,-2.687641989596893932e-01,2.327620135142231816e-01,1.401293747434287640e-01
5.350000000000000311e-01,-2.923918240438281302e-01,2.395612705065068571e-01,1.444093519873237697e-01
5.360000000000000320e-01,-2.199737924527871979e-01,2.169772281611983822e-01,1.260940996626387645e-01
5.370000000000000329e-01,-9.746360959300955085e-02,1.058358632622099227e-01,4.316350705188886500e-02
5.380000000000000338e-01,5.705112425627781314e-02,-1.995058623722398283e-02,-3.025816939729768923e-02
5.390000000000000346e-01,1.915059900270925930e-01,-1.444859991632646001e-01,-1.187231244109593631e-01
5.400000000000000355e-01,2.996245759775824635e-01,-2.421507809111930476e-01,-1.717270731198264899e-01
5.410000000000000364e-01,3.217425556568152545e-01,-2.713393405505256095e-01,-1.830814180617914844e-01
5.420000000000000373e-01,2.725306924207046011e-01,-2.261092433399559398e-01,-1.548014980653469042e-01
5.430000000000000382e-01,1.488980961222442223e-01,-1.173047284356633080e-01,-7.195112464101799388e-02
5.440000000000000391e-01,-2.218539163677157519e-02,6.211157288317140264e-03,1.058301905483923291e-02
5.450000000000000400e-01,-1.769132217060244427e-01,1.313904390122454247e-01,1.011668680782779883e-01
5.460000000000000409e-01,-2.936965203846682027e-01,2.425274132478297262e-01,1.735128148990494890e-01
5.470000000000000417e-01,-3.401706815886845758e-01,2.791767668474094966e-01,1.946790001443226281e-01
5.480000000000000426e-01,-3.097271392274718593e-01,2.407555229465825897e-01,1.897393004554953910e-01
5.490000000000000435e-01,-1.839187596376195277e-01,1.445402310068643892e-01,1.007788881699398648e-01
5.500000000000000444e-01,-2.344024764568539143e-02,1.334397861580028689e-02,2.292781237439000738e-02
5.510000000000000453e-01,1.486583463659885695e-01,-1.088337754002886432e-01,-6.709859553282500333e-02
5.520000000000000462e-01,2.664526697948479406e-01,-2.120247893991281662e-01,-1.619955301862562591e-01
5.530000000000000471e-01,3.288963590930807923e-01,-2.539580449707631860e-01,-2.047305600565942352e-01
5.540000000000000480e-01,3.095498320913442347e-01,-2.369836526397397225e-01,-1.930671396808154860e-01
5.550000000000000488e-01,1.947744798720840165e-01,-1.497955395915039900e-01,-1.480029038642955153e-01
5.560000000000000497e-01,6.504430618142313658e-02,-3.686756315721592681e-02,-4.821009027857516699e-02
5.570000000000000506e-01,-9.372489726236797603e-02,8.154013126982981308e-02,6.601359315251084658e-02
5.580000000000000515e-01,-2.199501081705939054e-01,1.766023121320821621e-01,1.283711188789627700e-01
5.590000000000000524e-01,-2.990656438646667192e-01,2.223080275139224238e-01,1.895648894333526457e-01
5.600000000000000533e-01,-3.036001496819822898e-01,2.250783137714717219e-01,1.879057084953169865e-01
5.610000000000000542e-01,-2.070994346725510138e-01,1.462138979759228796e-01,1.522969180276317058e-01
5.620000000000000551e-01,-1.037210046140014524e-01,4.250846450661228959e-02,6.485603506289565334e-02
5.629999999999999449e-01,6.340795770249084418e-02,-5.000535279412451906e-02,-1.746335652805888761e-02
5.639999999999999458e-01,1.704523074360243529e-01,-1.195578120850109699e-01,-9.932811567934352048e-02
5.649999999999999467e-01,2.384116266295916442e-01,-1.752713920074797926e-01,-1.513977804016191087e-01
5.659999999999999476e-01,2.500799006204521002e-01,-1.830200360293185446e-01,-1.599852777329628661e-01
5.669999999999999485e-01,1.825118991707780358e-01,-1.294149347212865120e-01,-1.583953279457796237e-01
5.679999999999999494e-01,1.090779701381907468e-01,-6.091904499868597278e-02,-9.464400350466539713e-02
5.689999999999999503e-01,-1.528902742904970045e-02,4.560586502569018673e-03,-6.171542569843892038e-03
5.699999999999999512e-01,-8.937257321791999831e-02,8.311031673190009961e-02,6.245891503320095961e-02
5.709999999999999520e-01,-1.839361516716283285e-01,1.082371770825576313e-01,1.082615179219945795e-01
5.719999999999999529e-01,-1.777915263161693737e-01,1.137413463621461396e-01,1.243123279432237493e-01
5.729999999999999538e-01,-1.630460485901636114e-01,8.409737223341516577e-02,1.121602435787151103e-01
5.739999999999999547e-01,-1.193902933887291268e-01,7.851088403963182860e-02,8.679565031967868827e-02
5.749999999999999556e-01,-3.286372611098849900e-02,2.584874607675902158e-02,3.994649832094542691e-02
5.759999999999999565e-01,4.465757790560685031e-02,-2.021133607351705344e-02,-1.504783220200346140e-02
5.769999999999999574e-01,9.376338183665514081e-02,-5.386829436550607392e-02,-7.005707884305543975e-02
5.779999999999999583e-01,1.275835515395069286e-01,-5.420194973744082989e-02,-9.930438890935051888e-02
5.789999999999999591e-01,1.097815313352184796e-01,-6.936410058783823440e-02,-9.396964314882078062e-02
5.799999999999999600e-01,9.091175584708481583e-02,-5.670805442188512485e-02,-6.998439720873048109e-02
5.809999999999999609e-01,4.954410076436523841e-02,-5.251390937875883430e-02,-3.957452365065756983e-02
5.819999999999999618e-01,3.072888176002486899e-02,-3.496211037668910809e-02,-4.713090867081388968e-03
5.829999999999999627e-01,-9.663416172538843649e-03,-2.588013052388044369e-02,2.885058550474922656e-02
5.839999999999999636e-01,-3.719957561593762591e-02,2.772091375300153766e-03,4.087460749960797335e-02
5.849999999999999645e-01,-4.100200772136090160e-02,2.396060485448724131e-02,4.922703951302789815e-02
5.859999999999999654e-01,-3.672187836105837710e-02,4.081848680062331175e-02,4.416147437954600491e-02
5.869999999999999662e-01,-5.846287742856353525e-02,6.440047839348814196e-02,3.781270337156909800e-02
5.879999999999999671e-01,-7.085421499481311947e-02,8.212749102676893120e-02,2.764757700000773644e-02
5.889999999999999680e-01,-5.379981995317555804e-02,9.297714610103827160e-02,3.217116939807782017e-02
5.899999999999999689e-01,-5.247033085750823361e-02,7.036224908876534401e-02,1.425222361629820134e-03
5.909999999999999698e-01,-3.055111490374350786e-02,4.746587557235296823e-02,8.958119361090881652e-03
5.919999999999999707e-01,1.085806783554538017e-02,-1.537637432932692158e-02,-2.832783158143405491e-02
5.929999999999999716e-01,6.316666658491570940e-02,-8.389328498471217144e-02,-2.573713654566568004e-02
5.939999999999999725e-01,1.102720159495795688e-01,-1.214974461413235729e-01,-4.823968199794847339e-02
5.949999999999999734e-01,1.398182339384334838e-01,-1.444371932449516893e-01,-6.587031901219002339e-02
5.959999999999999742e-01,1.377167293570912276e-01,-1.418605626900567296e-01,-7.035458259516615132e-02
5.969999999999999751e-01,1.040477199468965303e-01,-8.417872972859931358e-02,-5.646095160920448774e-02
5.979999999999999760e-01,3.788796440646416408e-02,-1.469309417942511568e-02,-3.806898071367753600e-02
5.989999999999999769e-01,-4.261040096187681397e-02,8.914850808799472393e-02,7.586199409971074517e-03
5.999999999999999778e-01,-1.328477959171794343e-01,1.492973093056437217e-01,4.663945550287133118e-02
6.009999999999999787e-01,-2.093501422092879094e-01,2.024989612443954257e-01,9.552216840704286227e-02
6.019999999999999796e-01,-2.308109479947788312e-01,1.929918157949695456e-01,1.158096603371950029e-01
6.029999999999999805e-01,-1.723516484631189005e-01,1.250187564198965984e-01,9.974789842457436329e-02
6.039999999999999813e-01,-9.238689546985390244e-02,3.139831901339244780e-02,7.401621145528428092e-02
6.049999999999999822e-01,1.081424971155476276e-02,-8.267352354720287899e-02,3.363385842891133959e-02
6.059999999999999831e-01,1.361405263294689361e-01,-1.712592122270112094e-01,-3.819312891741725308e-02
6.069999999999999840e-01,2.294070628837826809e-01,-2.364139431912399558e-01,-1.126514362961486687e-01
6.079999999999999849e-01,2.850932000745989847e-01,-2.332442249435550952e-01,-1.496259689219780753e-01
6.089999999999999858e-01,2.513417297321208221e-01,-1.810942234893285485e-01,-1.504390495278759288e-01
6.099999999999999867e-01,1.432156769269591068e-01,-5.316679640498683107e-02,-1.220890054730256746e-01
6.109999999999999876e-01,1.154430247437995133e-02,6.414130739395873526e-02,-7.275836773372693078e-02
6.119999999999999885e-01,-1.249338240213419826e-01,1.863116058496089300e-01,2.607367211315518574e-02
6.129999999999999893e-01,-2.319623133602863596e-01,2.550014015926447830e-01,6.938028438488445804e-02
6.139999999999999902e-01,-3.036714510584196947e-01,2.559260127984413491e-01,1.584445393044501826e-01
6.149999999999999911e-01,-2.945046567381219838e-01,1.861483064769079987e-01,1.852154251301972587e-01
6.159999999999999920e-01,-2.009702105465065447e-01,8.221617017510772507e-02,1.492169066688489032e-01
6.169999999999999929e-01,-6.442518878772790503e-02,-4.061005041215317440e-02,9.998268062940449119e-02
6.179999999999999938e-01,9.812908005639621456e-02,-1.708767843650726981e-01,1.806024380805766258e-02
6.189999999999999947e-01,2.553596782869548831e-01,-2.511605691848129984e-01,-8.720567193217519664e-02
6.199999999999999956e-01,3.238093710332216602e-01,-2.682511117094372732e-01,-1.562867232765804137e-01
6.209999999999999964e-01,3.105069787113473034e-01,-2.147709403523874183e-01,-1.980650146860226668e-01
6.219999999999999973e-01,2.612846797992325332e-01,-1.131405006145167064e-01,-1.759064280884492515e-01
6.229999999999999982e-01,1.013627028421487247e-01,1.550865847567893009e-02,-1.374089202154815947e-01
6.239999999999999991e-01,-8.072874141320883490e-02,1.420654429630824056e-01,-3.405819099368557340e-02
6.250000000000000000e-01,-2.336778049616446140e-01,2.336106352140388809e-01,4.864809295583770454e-02
6.260000000000000009e-01,-3.141195020172816710e-01,2.774714744872913696e-01,1.694334501736856069e-01
6.270000000000000018e-01,-3.326413597461620464e-01,2.094646296674052277e-01,1.876331262621029894e-01
6.280000000000000027e-01,-2.656881273866603110e-01,1.211258112858318581e-01,1.868468673653444212e-01
6.290000000000000036e-01,-1.282557016158636931e-01,1.023483250743946818e-02,1.578897131254006769e-01
6.300000000000000044e-01,2.557404701354290197e-02,-1.000757710449336896e-01,8.364217042838856253e-02
6.310000000000000053e-01,1.904766081266059119e-01,-1.877910935688092697e-01,-3.215469375308769445e-02
6.320000000000000062e-01,2.821547996172478756e-01,-2.369641448891243729e-01,-1.033584004782789334e-01
6.330000000000000071e-01,3.104576419659786368e-01,-2.207198216973131899e-01,-1.825937419140254148e-01
6.340000000000000080e-01,2.505739024753250721e-01,-1.249153021502553279e-01,-1.859369284093295993e-01
6.350000000000000089e-01,1.492090689591784036e-01,-9.031448413136699410e-03,-1.718579836908628589e-01
6.360000000000000098e-01,5.073755221216874785e-03,8.585613138568010116e-02,-8.226992893104201343e-02
6.370000000000000107e-01,-1.307674418189615495e-01,1.671787183687920009e-01,6.100139452733866971e-03
6.380000000000000115e-01,-2.316341092120024481e-01,2.069772650314272155e-01,1.062233311979245837e-01
6.390000000000000124e-01,-2.722115916960905491e-01,1.839468853966229056e-01,1.479848756333780602e-01
6.400000000000000133e-01,-2.361374022667560302e-01,1.134075761475564215e-01,1.855858131351501017e-01
6.410000000000000142e-01,-1.458559998840748273e-01,3.743309099074117186e-02,1.513721964620734495e-01
6.420000000000000151e-01,-3.232384973139470347e-02,-3.984410069046056407e-02,1.083308095493506484e-01
6.430000000000000160e-01,5.518306921476328480e-02,-9.389618327537044284e-02,1.784020379149247812e-02
6.440000000000000169e-01,1.737767624706779701e-01,-1.337332988344598628e-01,-4.612042772267246904e-02
6.450000000000000178e-01,1.972113391313473352e-01,-1.217296925839843336e-01,-1.266847682615997173e-01
6.460000000000000187e-01,2.117794846670120745e-01,-9.364849960226982739e-02,-1.406395274812936580e-01
6.470000000000000195e-01,1.355937626575648702e-01,-4.686052537319855549e-02,-1.175263314192815656e-01
6.480000000000000204e-01,5.983573801366830897e-02,9.159555291145158110e-03,-9.144953205812438035e-02
6.490000000000000213e-01,-2.908489286809990901e-02,5.033582875742118046e-02,-4.153471196987353758e-02
6.500000000000000222e-01,-7.737400717479513135e-02,7.640418884470852323e-02,2.812360872209444113e-02
6.510000000000000231e-01,-1.221168020255479214e-01,7.429783945010219603e-02,6.056932098354345789e-02
6.520000000000000240e-01,-1.390208491432021742e-01,6.464388683936922453e-02,1.043732361227465016e-01
6.530000000000000249e-01,-1.185230801685085433e-01,5.358606727529650199e-02,1.078829960537073251e-01
6.540000000000000258e-01,-7.478865632207983005e-02,3.940679127187444314e-02,8.454264287442521397e-02
6.550000000000000266e-01,-2.600898056525646068e-02,1.791270516985981817e-02,3.769973102924104730e-02
6.560000000000000275e-01,-5.621170775123953724e-03,-1.422848149209579409e-02,2.152074466051128246e-02
6.570000000000000284e-01,3.109436087919298375e-02,-2.352401211503925109e-03,-1.728340979744981756e-02
6.580000000000000293e-01,5.393319556237578111e-02,-2.038747395982567351e-02,-4.728267592903767635e-02
6.590000000000000302e-01,5.939592663894623092e-02,-4.391768114901042908e-02,-6.177587777223633031e-02
6.600000000000000311e-01,7.268341628002782107e-02,-6.236033885716637387e-02,-4.167502714266946295e-02
6.610000000000000320e-01,5.673205124488341772e-02,-6.037521584516031964e-02,-3.883243344149319570e-02
6.620000000000000329e-01,5.125280610464531816e-02,-7.775746053308039973e-02,-4.265286255741257415e-02
6.630000000000000338e-01,4.658658056443728407e-02,-3.874857112639586848e-02,-1.623113116584448332e-02
6.640000000000000346e-01,3.619409446473087488e-02,-3.674690149459604836e-03,-1.141141028337068312e-02
6.650000000000000355e-01,-1.082015412809788843e-02,4.931016875147159473e-02,7.068071195568898304e-03
6.660000000000000364e-01,-4.526931417390832324e-02,1.062767224042531350e-01,8.806682797483455713e-03
6.670000000000000373e-01,-7.803397790957843083e-02,1.300826069541602403e-01,3.389387631500160453e-02
6.680000000000000382e-01,-1.178415191393821365e-01,1.227760588500477618e-01,5.027861312424931894e-02
6.690000000000000391e-01,-1.109196992617382388e-01,1.029570805553815666e-01,5.503078387444808317e-02
6.700000000000000400e-01,-1.221101675819345339e-01,5.792657941412614891e-02,6.269170591996474362e-02
6.710000000000000409e-01,-7.147971432801930591e-02,-2.117146077320555472e-02,2.760967845648539670e-02
6.720000000000000417e-01,1.955915187103544547e-02,-1.077341031274789973e-01,1.557365518748803600e-02
6.730000000000000426e-01,8.859690566043638971e-02,-1.724740536138956726e-01,-1.259966711828331906e-02
6.740000000000000435e-01,1.654004363347778006e-01,-2.026862367039774793e-01,-5.158110977601498143e-02
6.750000000000000444e-01,1.908910531548276002e-01,-1.776178502884916688e-01,-8.556324205649561143e-02
6.760000000000000453e-01,1.998867423461525294e-01,-1.043528664042108339e-01,-1.078437793834424452e-01
6.770000000000000462e-01,1.404518860866705299e-01,-9.233090667233300949e-03,-1.136775022349892084e-01
6.780000000000000471e-01,2.820903148744024688e-02,1.069730814648877093e-01,-8.065616164108328767e-02
6.790000000000000480e-01,-8.368477747617435181e-02,1.882037257391938889e-01,-4.557572115245782374e-02
6.800000000000000488e-01,-2.014457101199107758e-01,2.201511878668185596e-01,3.979139560961802990e-02
6.810000000000000497e-01,-2.535228521013397907e-01,2.056908360684490678e-01,9.240087184801222542e-02
6.820000000000000506e-01,-2.681261212107589609e-01,1.384252630805096751e-01,1.461608950590091160e-01
6.830000000000000515e-01,-1.980793166066681932e-01,1.889629045455897341e-02,1.505174008026201604e-01
6.840000000000000524e-01,-7.408876964026560319e-02,-8.655985787906869677e-02,1.210714220102919320e-01
6.850000000000000533e-01,5.786343619135247279e-02,-2.061489583940529224e-01,6.095606952753324786e-02
6.860000000000000542e-01,1.916127177313349805e-01,-2.442730686809036211e-01,-1.056669207013332529e-02
6.870000000000000551e-01,2.712804377202723272e-01,-2.377592324313166638e-01,-8.462094850867715734e-02
6.879999999999999449e-01,3.130969948664319991e-01,-1.695317791012503350e-01,-1.487049616235019966e-01
6.889999999999999458e-01,2.475469676579954148e-01,-6.129058327155618990e-02,-1.791163580706926772e-01
6.899999999999999467e-01,1.179316535077753886e-01,7.532755496222921787e-02,-1.556236025531949341e-01
6.909999999999999476e-01,-2.465182004464677723e-02,2.001368106009887848e-01,-1.166518304477201645e-01
6.919999999999999485e-01,-1.828388181991873473e-01,2.618746072262848612e-01,-2.019682406464371957e-02
6.929999999999999494e-01,-2.976468213991405043e-01,2.620526512473365655e-01,7.602289529703600002e-02
6.939999999999999503e-01,-3.282090160302610360e-01,2.009240300185732297e-01,1.449425541983357379e-01
6.949999999999999512e-01,-2.685759526279725140e-01,6.801300220873383873e-02,1.979875406733799803e-01
6.959999999999999520e-01,-1.748490491661579549e-01,-6.721856215916804933e-02,1.954588024654364542e-01
6.969999999999999529e-01,3.576424760321998426e-03,-1.657686774616280723e-01,1.342921820444566705e-01
6.979999999999999538e-01,1.602093358987733696e-01,-2.561753939954856119e-01,5.445975993830507594e-02
6.989999999999999547e-01,2.861636498146482577e-01,-2.608192972774393548e-01,-4.383680871848191080e-02
6.999999999999999556e-01,3.303350930906814864e-01,-1.857525728689527755e-01,-1.306735986248650505e-01
7.009999999999999565e-01,3.072077731092807129e-01,-9.055557252954972436e-02,-1.855243468992297806e-01
7.019999999999999574e-01,2.041349947835775780e-01,2.924970649982848794e-02,-2.120634950483984149e-01
7.029999999999999583e-01,4.338505383054135078e-02,1.434989963059508933e-01,-1.854811964967076621e-01
7.039999999999999591e-01,-1.094685963632305442e-01,2.253006919608898651e-01,-8.908911836526201000e-02
7.049999999999999600e-01,-2.553028080785083032e-01,2.246661338518587403e-01,1.147539817430171492e-02
7.059999999999999609e-01,-3.202379728418591753e-01,2.060649173271717205e-01,1.112642885040105722e-01
7.069999999999999618e-01,-2.852502052916203734e-01,1.084031955277449527e-01,1.793252911631081914e-01
7.079999999999999627e-01,-2.091303735257618868e-01,-8.829681287184093378e-04,1.987709273558996292e-01
7.089999999999999636e-01,-7.579587470646835523e-02,-1.131353725973075347e-01,1.776778340500956566e-01
7.099999999999999645e-01,7.519164488004913272e-02,-1.806400271763326792e-01,1.036285966704837691e-01
7.109999999999999654e-01,2.084288448820112993e-01,-1.868404383829004312e-01,8.617341338644295481e-03
7.119999999999999662e-01,2.656251334260558705e-01,-1.671755722955576284e-01,-7.865500891424895280e-02
7.129999999999999671e-01,2.581057799483643667e-01,-9.734128959426543992e-02,-1.372011778948118155e-01
7.139999999999999680e-01,1.999524213588113886e-01,-2.534998607082333301e-03,-1.758223538462665991e-01
7.149999999999999689e-01,7.921457044307012030e-02,7.884951103157127050e-02,-1.832830584902219451e-01
7.159999999999999698e-01,-3.153990059181063094e-02,1.102619490272125496e-01,-1.158489235808595197e-01
7.169999999999999707e-01,-1.313280588398584026e-01,1.538959205021457888e-01,-3.705449344268928191e-02
7.179999999999999716e-01,-1.979718416149064131e-01,1.486721602682420373e-01,5.552708648172032663e-02
7.189999999999999725e-01,-2.217206089728864515e-01,7.781691500892073954e-02,1.001964413035497242e-01
7.199999999999999734e-01,-1.641549195415219209e-01,2.130653594824112596e-02,1.440493532904139895e-01
7.209999999999999742e-01,-1.049600826978881740e-01,-3.302058543809928415e-02,1.353613090933154517e-01
7.219999999999999751e-01,-1.439828279651284883e-02,-6.525715301615525599e-02,1.188504144285441599e-01
7.229999999999999760e-01,6.138040973373880965e-02,-9.615105532731545168e-02,4.961198728925830109e-02
7.239999999999999769e-01,1.104166136994911424e-01,-9.119027824174141816e-02,-3.215710172279390069e-03
7.249999999999999778e-01,1.364820409840583615e-01,-6.243779182653121790e-02,-5.915376503104780720e-02
7.259999999999999787e-01,1.351167370463735307e-01,-4.580336233650676020e-02,-9.643329995595942283e-02
7.269999999999999796e-01,1.036373953072367293e-01,-2.983776723368412181e-02,-9.462950106797994587e-02
7.279999999999999805e-01,4.737764144434314373e-02,1.960602131400835345e-05,-9.895936416337977604e-02
7.289999999999999813e-01,-1.136531907085053250e-02,1.435519602202473682e-02,-6.459079358899899592e-02
7.299999999999999822e-01,-4.095440866382413919e-02,2.086727094585008949e-02,-1.599222184997606613e-02
7.309999999999999831e-01,-6.897391799044014227e-02,2.740628790091788336e-02,1.292300746213185386e-02
7.319999999999999840e-01,-6.480702037119005776e-02,4.675897834515111567e-02,6.498572864605922650e-02
7.329999999999999849e-01,-8.116158133899359362e-02,5.173423243263951254e-02,6.043299918999762987e-02
7.339999999999999858e-01,-7.271238943504798602e-02,6.199984575855729818e-02,6.568930800751347776e-02
7.349999999999999867e-01,-6.216280670872328246e-02,5.986928818246402967e-02,4.101153321093591736e-02
7.359999999999999876e-01,-4.150427236487697069e-02,8.794674476484900735e-03,3.450765146583927717e-02
7.369999999999999885e-01,-1.973445329136942067e-02,-8.582263437166521430e-03,1.144364050540874235e-02
7.379999999999999893e-01,2.696280141245587306e-02,-3.950278857554818945e-02,-7.861745527163817651e-03
7.389999999999999902e-01,2.655935116167267018e-02,-8.615109864364561831e-02,-1.808041012340790357e-02
7.399999999999999911e-01,7.119849726687449420e-02,-1.108040308694130255e-01,-1.517599332865210426e-02
7.409999999999999920e-01,1.087196179918893113e-01,-1.179425028929252384e-01,-2.972604495615165446e-02
7.419999999999999929e-01,1.189402097862621577e-01,-8.575287793447740337e-02,-3.778442166299471328e-02
7.429999999999999938e-01,9.704714160564295589e-02,-3.746412075185912710e-02,-4.253168068001399182e-02
7.439999999999999947e-01,7.985684156583261473e-02,2.715308395520496867e-02,-5.087223254229429614e-02
7.449999999999999956e-01,2.113072995218251079e-02,1.110299943491111774e-01,-4.093347103569090067e-02
7.459999999999999964e-01,-6.273511943596557505e-02,1.533796667763281940e-01,-2.311828157907672848e-02
7.469999999999999973e-01,-1.241351501547253433e-01,1.655012219326546241e-01,7.046934865736528830e-03
7.479999999999999982e-01,-1.907448034732049935e-01,1.581210034378249529e-01,2.595713262753354678e-02
7.489999999999999991e-01,-1.949114575700275909e-01,8.181635172666272549e-02,6.717701469472059372e-02
7.500000000000000000e-01,-1.594759282729736882e-01,-2.389220605029580488e-02,8.976805306536501938e-02
7.510000000000000009e-01,-6.413441150607332442e-02,-1.322352584227018957e-01,8.692834762514428659e-02
7.520000000000000018e-01,3.513539629391655705e-02,-1.878571954516191356e-01,8.848183432438418150e-02
7.530000000000000027e-01,1.431303117193089836e-01,-2.392427401643636986e-01,2.928617936715070813e-02
7.540000000000000036e-01,2.242387539477075087e-01,-1.895409742349127014e-01,-2.907851539458072756e-03
7.550000000000000044e-01,2.446500486227915494e-01,-1.074893732011507202e-01,-7.821097399433118991e-02
7.560000000000000053e-01,2.067532255857948698e-01,9.137995211997495398e-03,-1.267047203330414207e-01
7.570000000000000062e-01,1.291180704196990547e-01,1.318941351189363842e-01,-1.392602305656948092e-01
7.580000000000000071e-01,-2.393428132555610113e-03,2.309368759165770224e-01,-1.191756133851255839e-01
7.590000000000000080e-01,-1.427012744576331704e-01,2.528283857482336305e-01,-6.710430702394652724e-02
7.600000000000000089e-01,-2.493093798194961075e-01,2.353202579162973762e-01,-1.469086256541341472e-02
7.610000000000000098e-01,-2.968186878404742712e-01,1.505930956300105539e-01,6.131387717786059705e-02
7.620000000000000107e-01,-2.864252520843212912e-01,3.134084797776927334e-02,1.241027419504026896e-01
7.630000000000000115e-01,-1.873147042718420752e-01,-1.036370462976541756e-01,1.740055898188760664e-01
7.640000000000000124e-01,-2.664742362204347570e-02,-2.173570968968783768e-01,1.603665472763580735e-01
7.650000000000000133e-01,1.178443476384189725e-01,-2.712427638879265634e-01,1.074936241461285358e-01
7.660000000000000142e-01,2.641393951250938232e-01,-2.507260073708791892e-01,3.046061305164322885e-02
7.670000000000000151e-01,3.162310746642393311e-01,-1.678088179817222025e-01,-6.084410033441316895e-02
7.680000000000000160e-01,3.127133229838425232e-01,-3.488049457468402059e-02,-1.495151632609324210e-01
7.690000000000000169e-01,2.318764343934011651e-01,9.356236017935724847e-02,-1.768895370798302946e-01
7.700000000000000178e-01,7.925154987144421292e-02,2.094772346328649670e-01,-1.862322217317940731e-01
7.710000000000000187e-01,-7.351559450522478223e-02,2.689161448413595057e-01,-1.471319628430304283e-01
7.720000000000000195e-01,-2.308904671073686021e-01,2.475427424722797809e-01,-6.748223642368175734e-02
7.730000000000000204e-01,-3.207758856458489682e-01,1.824073187618199532e-01,3.036387567534073323e-02
7.740000000000000213e-01,-3.226256182181982402e-01,5.487803199461364217e-02,1.075675086651980972e-01
7.750000000000000222e-01,-2.563775853106655123e-01,-8.025656075021241065e-02,1.769493224863019631e-01
7.760000000000000231e-01,-1.009467683075867678e-01,-1.790071576908284501e-01,1.937194912377820932e-01
7.770000000000000240e-01,5.134629559022534789e-02,-2.523934605579831181e-01,1.776094580300893455e-01
7.780000000000000249e-01,2.035671372385664257e-01,-2.444061237313027990e-01,1.064121515721590527e-01
7.790000000000000258e-01,2.999594363724698565e-01,-1.794998450086089659e-01,4.413924498757614695e-03
7.800000000000000266e-01,3.309297219033461301e-01,-6.508066749170035581e-02,-1.028765015678655276e-01
7.810000000000000275e-01,2.681636318042681100e-01,4.262476690653228817e-02,-1.650601103526607438e-01
7.820000000000000284e-01,1.209848746108793949e-01,1.461999207467619133e-01,-1.964509489034700906e-01
7.830000000000000293e-01,-1.426135306835090572e-02,2.028046179741895827e-01,-1.740475861575903060e-01
7.840000000000000302e-01,-1.587037106210840154e-01,2.084672911899755898e-01,-1.193853925403853128e-01
7.850000000000000311e-01,-2.609835412744057614e-01,1.689408810304913189e-01,-5.214463507486417210e-02
7.860000000000000320e-01,-2.826689515797026764e-01,8.307910970921181248e-02,6.285156505539594984e-02
7.870000000000000329e-01,-2.568921948096410945e-01,-1.782480218909231889e-02,1.399371705354164885e-01
7.880000000000000338e-01,-1.445589382502781850e-01,-1.136068279772767392e-01,2.004511717983709362e-01
7.890000000000000346e-01,-1.403659183123839166e-02,-1.543247374919601289e-01,1.841294138210765596e-01
7.900000000000000355e-01,1.075826148299804524e-01,-1.574325239497423312e-01,1.269830785381355354e-01
7.910000000000000364e-01,1.860214355058694702e-01,-1.373573395915250739e-01,5.413233190346830592e-02
7.920000000000000373e-01,2.224139681570626303e-01,-9.795319942140395808e-02,-3.167611275229618994e-02
7.930000000000000382e-01,2.119204993677231419e-01,-1.993976207160481212e-02,-1.091271197087133604e-01
7.940000000000000391e-01,1.541738743863970140e-01,4.613285580884309012e-02,-1.325320204761107623e-01
7.950000000000000400e-01,4.453871443493212512e-02,8.141144171658187823e-02,-1.603927207625676088e-01
7.960000000000000409e-01,-3.537118614513928144e-02,1.122054496351995584e-01,-1.297596827054619539e-01
7.970000000000000417e-01,-1.089034045731183675e-01,9.265688552146265911e-02,-7.674978368322575573e-02
7.980000000000000426e-01,-1.637608349502285010e-01,5.766061470392006699e-02,7.966475717024332909e-03
7.990000000000000435e-01,-1.387783876454961318e-01,3.352123170597821195e-02,7.682074927946870579e-02
8.000000000000000444e-01,-1.237017290299079197e-01,-6.794389940579307653e-03,1.101815282791571843e-01
8.010000000000000453e-01,-7.590954133009253368e-02,-3.151330876342148951e-02,1.214579043077720355e-01
8.020000000000000462e-01,1.358033858669696571e-03,-3.319497904068720306e-02,1.145359934641976968e-01
8.030000000000000471e-01,2.812525529305599792e-02,-4.265924061532252315e-02,5.044925658135475388e-02
8.040000000000000480e-01,8.898956582102351964e-02,-6.140059654165507669e-02,2.922894089450798344e-02
8.050000000000000488e-01,9.215420082161705773e-02,-4.187603093142918537e-02,-6.409872363186616684e-03
8.060000000000000497e-01,7.235642019811125425e-02,-4.973527911788271777e-02,-5.779611716884199696e-02
8.070000000000000506e-01,5.911541850507068957e-02,-4.283860700282493550e-02,-5.955555087989600205e-02
8.080000000000000515e-01,4.295964052698804381e-02,-3.940373330751226200e-02,-9.081427762518726188e-02
8.090000000000000524e-01,3.292379330749627131e-02,-4.812197135859829292e-03,-6.009190813336497822e-02
8.100000000000000533e-01,7.819776172267580913e-03,1.696155835577900159e-02,-2.576014937516945408e-02
8.110000000000000542e-01,-1.186172878636523181e-02,6.064179678322091649e-02,-7.794344599106851727e-03
8.120000000000000551e-01,-2.158446963551410858e-02,8.573487238094866514e-02,1.363987376985059154e-02
8.129999999999999449e-01,-6.086390072183118366e-02,1.096815066099394720e-01,3.199551431633967241e-02
8.139999999999999458e-01,-7.523453065031905640e-02,1.044919973533108698e-01,2.623660990416153832e-02
8.149999999999999467e-01,-1.113111041724025585e-01,5.064551244462838636e-02,4.394541065283769088e-02
8.159999999999999476e-01,-9.313139801853219379e-02,2.136929168274471699e-02,4.100399536172889131e-02
8.169999999999999485e-01,-8.064235405220962494e-02,-7.650652482436121060e-02,5.613865513269189478e-02
8.179999999999999494e-01,-3.640897146008035407e-02,-1.165336552932591668e-01,4.247240598475351958e-02
8.189999999999999503e-01,7.337312794801820193e-03,-1.605368245217394518e-01,3.671387005323482194e-02
8.199999999999999512e-01,8.006409228090692609e-02,-1.522267839405974377e-01,2.095013705670035684e-02
8.209999999999999520e-01,1.460652952089960543e-01,-1.414008942440823369e-01,4.395524590692372231e-03
8.219999999999999529e-01,1.752555348182577855e-01,-2.739400100833985080e-02,-2.764249290067750248e-02
8.229999999999999538e-01,1.606859317318194702e-01,4.150595991535410006e-02,-5.975900628982112189e-02
8.239999999999999547e-01,9.533678048085890422e-02,1.379522820144966910e-01,-7.639104774699821687e-02
8.249999999999999556e-01,1.591211077648844313e-02,1.988741664662647401e-01,-8.146535026917699207e-02
8.259999999999999565e-01,-8.739264726399761929e-02,2.111102135924093903e-01,-7.451645449311287972e-02
8.269999999999999574e-01,-1.767473360115958680e-01,1.653981073712684768e-01,-1.610185986655367565e-02
8.279999999999999583e-01,-2.382265618796324536e-01,6.711701036633579975e-02,-1.370740033189425319e-02
8.289999999999999591e-01,-2.287334357048778355e-01,-3.207451397042729996e-02,5.729538324055484522e-02
8.299999999999999600e-01,-1.736324176152130305e-01,-1.475919503837812286e-01,1.056834081729360469e-01
8.309999999999999609e-01,-5.918672921603646692e-02,-2.216588660080447415e-01,1.240424743142225783e-01
8.319999999999999618e-01,7.508900519299206711e-02,-2.480683390337496685e-01,1.151221613329887206e-01
8.329999999999999627e-01,1.844233009364976139e-01,-1.957447160971096944e-01,7.579690038404163221e-02
8.339999999999999636e-01,2.667438501960958663e-01,-8.755384509136801552e-02,3.330217301631798604e-02
8.349999999999999645e-01,2.882973506633146332e-01,3.738513325434723866e-02,-4.133019390735461623e-02
8.359999999999999654e-01,2.127603851079765962e-01,1.657642150970143613e-01,-1.140827989283894894e-01
8.369999999999999662e-01,9.860349942429834369e-02,2.508475279273601477e-01,-1.553385800753797064e-01
8.379999999999999671e-01,-3.153440578967746377e-02,2.609240950309206775e-01,-1.573984705364881997e-01
8.389999999999999680e-01,-1.960810805306829607e-01,2.255591102256787883e-01,-1.069652366130253440e-01
8.399999999999999689e-01,-2.885362466149911098e-01,1.409937662204651942e-01,-4.989552291372630066e-02
8.409999999999999698e-01,-3.189197301483864266e-01,-6.397325887773947818e-03,3.070880735147949250e-02
8.419999999999999707e-01,-2.602656414380982164e-01,-1.319466082578132915e-01,1.296877255452257016e-01
8.429999999999999716e-01,-1.514446943287568459e-01,-2.408853967192737255e-01,1.805887633086598054e-01
8.439999999999999725e-01,1.622177603963536122e-02,-2.749734357951449937e-01,1.794488564585411117e-01
8.449999999999999734e-01,1.549554239581410198e-01,-2.423580776942238779e-01,1.489343015407341986e-01
8.459999999999999742e-01,2.915693413002980461e-01,-1.432998391525238668e-01,8.659262989619180562e-02
8.469999999999999751e-01,3.347437525913455891e-01,-1.978673118867926850e-02,6.117637540561034508e-04
8.479999999999999760e-01,2.977940703369000852e-01,1.099530742745791351e-01,-9.282140914631410722e-02
8.489999999999999769e-01,1.820453952201593895e-01,2.156084361780525871e-01,-1.677811252657776808e-01
8.499999999999999778e-01,2.286686073565248264e-02,2.382635290620592483e-01,-1.842442360176690941e-01
8.509999999999999787e-01,-1.443726644387439140e-01,2.185712818081786690e-01,-1.848157190661806337e-01
8.519999999999999796e-01,-2.863387838694108622e-01,1.702933065098159171e-01,-1.092402916875523378e-01
8.529999999999999805e-01,-3.243344872771361520e-01,2.696476820796893034e-02,-2.162889629566464370e-02
8.539999999999999813e-01,-2.916622451714502295e-01,-7.895241324627755297e-02,8.765323378793163367e-02
8.549999999999999822e-01,-1.981366090817980596e-01,-1.693475455600859658e-01,1.635758351854021131e-01
8.559999999999999831e-01,-6.517987602471657371e-02,-2.124342923275524819e-01,1.948497702899296691e-01
8.569999999999999840e-01,9.504864067647460224e-02,-2.003938639451613157e-01,1.994615917123359894e-01
8.579999999999999849e-01,2.055394629697769870e-01,-1.474564511524483756e-01,1.392800840213489488e-01
8.589999999999999858e-01,2.876634510857707938e-01,-5.127873723962186187e-02,4.211171751674908786e-02
8.599999999999999867e-01,2.919313417040323433e-01,3.370740149302820649e-02,-6.005702037103116675e-02
8.609999999999999876e-01,2.053704243050667455e-01,1.238952942435074395e-01,-1.356766575202985325e-01
8.619999999999999885e-01,8.193718349818998603e-02,1.671131425680603133e-01,-1.787686002575896160e-01
8.629999999999999893e-01,-5.067895892880448089e-02,1.660807567756531766e-01,-1.778458085594371851e-01
8.639999999999999902e-01,-1.573379478610869298e-01,1.187977805599169934e-01,-1.403860901074285850e-01
8.649999999999999911e-01,-2.252192127855457693e-01,7.290533321470107908e-02,-6.674747613836976012e-02
8.659999999999999920e-01,-2.387427248563866733e-01,-5.576667925292459402e-03,3.135300208861575844e-02
8.669999999999999929e-01,-1.787737971569701989e-01,-7.346873483900270840e-02,1.112536185751129975e-01
8.679999999999999938e-01,-9.300953006710990789e-02,-1.094488095080069084e-01,1.581649072202157003e-01
8.689999999999999947e-01,6.809293916565617791e-03,-1.144745758483147052e-01,1.514742485368695546e-01
8.699999999999999956e-01,1.111275692257949477e-01,-9.310512199004884748e-02,1.263380340683219472e-01
8.709999999999999964e-01,1.561736809629478695e-01,-6.131829233738119583e-02,8.107665372698980022e-02
8.719999999999999973e-01,1.861853674595007058e-01,-1.232255456627303833e-02,5.020119918669802526e-03
8.729999999999999982e-01,1.553444355164099455e-01,2.265992492794335900e-02,-5.408197571375665536e-02
8.739999999999999991e-01,9.777234959658631652e-02,3.772164690868860804e-02,-9.302255272654046114e-02
8.750000000000000000e-01,1.591111215197121495e-02,3.734442143143122672e-02,-1.216813529145586714e-01
8.760000000000000009e-01,-3.755389040483224361e-02,4.994753514947781331e-02,-1.273245386632195775e-01
8.770000000000000018e-01,-7.925982723090489734e-02,4.957595938092600879e-02,-7.315966351866189099e-02
8.780000000000000027e-01,-9.850184099744549449e-02,4.225076972073382731e-02,-2.724974048979167396e-02
8.790000000000000036e-01,-9.669653921528921503e-02,3.688891230331760307e-02,3.141131936928751034e-02
8.800000000000000044e-01,-6.909767745374514880e-02,3.844866726470354268e-02,6.403011794413368540e-02
8.810000000000000053e-01,-7.371799703184064856e-02,1.947418885645225625e-02,8.451547850900344161e-02
8.820000000000000062e-01,-2.568327716053470447e-02,9.221251924820254853e-03,9.422591452176033722e-02
8.830000000000000071e-01,4.969359369260032723e-03,-4.275329409020060811e-02,6.249929052611288144e-02
8.840000000000000080e-01,-1.061360581182863461e-03,-6.947504793319470018e-02,4.253849478304583265e-02
8.850000000000000089e-01,3.485057201584903369e-02,-8.223815577848736513e-02,8.867704829016449797e-03
8.860000000000000098e-01,6.867878915413069829e-02,-1.103222035213807933e-01,-1.543215522625010667e-02
8.870000000000000107e-01,6.228041737212699352e-02,-6.883666252467635083e-02,-2.502357848959358214e-02
8.880000000000000115e-01,8.229029213427339895e-02,-4.044752248856629123e-02,-3.957612752911653098e-02
8.890000000000000124e-01,1.046737440788800544e-01,7.936987962969599408e-03,-4.432649936272653468e-02
8.900000000000000133e-01,7.183824760680554422e-02,7.519666745516448425e-02,-5.883690798048007986e-02
8.910000000000000142e-01,5.290938372373658188e-02,1.257808390656247055e-01,-3.672799336576148405e-02
8.920000000000000151e-01,-4.883113115261046057e-03,1.464957754432733572e-01,-4.206626537478713734e-02
8.930000000000000160e-01,-7.266869151983726405e-02,1.447188608664322362e-01,-1.402368751375702993e-02
8.940000000000000169e-01,-1.170272685231645154e-01,9.636407982619257795e-02,-1.375580775517008629e-02
8.950000000000000178e-01,-1.526394970299739529e-01,1.834968352224053412e-02,-1.164684996007344167e-02
8.960000000000000187e-01,-1.429570501804698357e-01,-7.754742121114058251e-02,1.945028210146106107e-02
8.970000000000000195e-01,-1.254587254946844810e-01,-1.603629754556119558e-01,4.498239639168546966e-02
8.980000000000000204e-01,-5.028224791056135068e-02,-2.130750674659759036e-01,7.066315168510908795e-02
8.990000000000000213e-01,3.859339264628167121e-02,-1.811614493495928568e-01,6.823599771249728996e-02
9.000000000000000222e-01,1.498582445935612295e-01,-1.422260988370492030e-01,6.147988002129756158e-02
9.010000000000000231e-01,2.076211817741626942e-01,-3.809406795305153581e-02,3.888923464495195464e-02
9.020000000000000240e-01,2.427024502548705553e-01,7.595494672341385201e-02,8.043258864749455814e-04
9.030000000000000249e-01,1.916985060692928400e-01,1.665989906198873660e-01,-4.898638965936100848e-02
9.040000000000000258e-01,1.184846989065339445e-01,2.362706985256657344e-01,-8.028264581577645997e-02
9.050000000000000266e-01,-1.391476709370860661e-02,2.154910719056677415e-01,-1.216670956989518854e-01
9.060000000000000275e-01,-1.450868038765200374e-01,1.725549362264407471e-01,-1.157696487973608190e-01
9.070000000000000284e-01,-2.410266968152828815e-01,6.739726350352583106e-02,-8.522731063554982167e-02
9.080000000000000293e-01,-2.811933109976261225e-01,-7.015393071371806011e-02,-1.793346302157352093e-02
9.090000000000000302e-01,-2.515388654285095060e-01,-1.767680481348554433e-01,5.102800150124448680e-02
9.100000000000000311e-01,-1.523064080644905005e-01,-2.378115168598652351e-01,1.058726370052646137e-01
9.110000000000000320e-01,-1.028050780199050128e-02,-2.713932262791659000e-01,1.483979675114668606e-01
9.120000000000000329e-01,1.376930534755278768e-01,-2.130569191160891496e-01,1.469981128595680420e-01
9.130000000000000338e-01,2.632707713431692853e-01,-8.700161626106399371e-02,1.293188347094777757e-01
9.140000000000000346e-01,3.052316074267313328e-01,4.765153049151221037e-02,6.494736699458741880e-02
9.150000000000000355e-01,2.936213599586191547e-01,1.481829859879609523e-01,-1.916638336802904338e-02
9.160000000000000364e-01,1.921766088511409343e-01,2.444206489629714707e-01,-8.964545046187351318e-02
9.170000000000000373e-01,5.527481910031806223e-02,2.615932386122091780e-01,-1.639535388412800276e-01
9.180000000000000382e-01,-1.003890422339181882e-01,2.123672671487476793e-01,-1.664443347377141669e-01
9.190000000000000391e-01,-2.451850826349742662e-01,1.027320140616272831e-01,-1.583888366034449657e-01
9.200000000000000400e-01,-3.109989346801588783e-01,-2.470286522489024278e-02,-1.100181517616239113e-01
9.210000000000000409e-01,-3.282750960513368121e-01,-1.384838803964036913e-01,4.433839844536541577e-03
9.220000000000000417e-01,-2.413190445003863815e-01,-2.267969739750654301e-01,9.193943994703603073e-02
9.230000000000000426e-01,-9.202023504846661150e-02,-2.633774749490646050e-01,1.680287306160608563e-01
9.240000000000000435e-01,5.789051651100274309e-02,-2.297502076339340560e-01,1.885737814178719829e-01
9.250000000000000444e-01,2.245548837555798871e-01,-1.283623434019968701e-01,1.903236660034212657e-01
9.260000000000000453e-01,3.031029654859395683e-01,9.562301667097053643e-04,1.240504404325022819e-01
9.270000000000000462e-01,3.190292171515300423e-01,9.837400111150394755e-02,3.632095674546254038e-02
9.280000000000000471e-01,2.653637011670653689e-01,2.058598666773382713e-01,-6.893168030745093489e-02
9.290000000000000480e-01,1.251902096824353272e-01,2.249507834041803156e-01,-1.324061298582687174e-01
9.300000000000000488e-01,-3.465219623607610627e-02,1.987419489080015367e-01,-1.956111828047633894e-01
9.310000000000000497e-01,-1.772830758479865820e-01,1.235862074524559373e-01,-2.011326580590744595e-01
9.320000000000000506e-01,-2.629778537210807898e-01,2.698519252970970131e-02,-1.628961305099677626e-01
9.330000000000000515e-01,-3.024484006945297176e-01,-8.463319345236754165e-02,-5.769414655999322711e-02
9.340000000000000524e-01,-2.503228108792012740e-01,-1.414251426581812632e-01,2.098477615712607269e-02
9.350000000000000533e-01,-1.567880199035112110e-01,-1.966973702285770564e-01,1.241394723345674023e-01
9.360000000000000542e-01,-8.225458598830196963e-03,-1.591411147528314085e-01,1.885579639742952784e-01
9.370000000000000551e-01,1.164492639513492467e-01,-1.205870032764439076e-01,1.911664323486370887e-01
9.379999999999999449e-01,2.134599111973993768e-01,-3.342774133561130651e-02,1.528729730696011813e-01
9.389999999999999458e-01,2.486180586250359703e-01,5.296906425225569870e-02,7.357577004357548911e-02
9.399999999999999467e-01,2.313792013796378833e-01,1.045204917925755955e-01,-3.900252731988759856e-03
9.409999999999999476e-01,1.373451160456441444e-01,1.379009849715858993e-01,-1.017102936872916058e-01
9.419999999999999485e-01,3.403731830353218246e-02,1.303156292364101576e-01,-1.286856051248385646e-01
9.429999999999999494e-01,-8.199262389374363524e-02,7.924143301542035944e-02,-1.799962761961340918e-01
9.439999999999999503e-01,-1.549039424862265479e-01,4.214035128948234732e-02,-1.393165783606827857e-01
9.449999999999999512e-01,-1.888019529029991428e-01,4.922289615451417091e-03,-9.314956089244755266e-02
9.459999999999999520e-01,-1.830096110732992443e-01,-3.474871894676354739e-02,-2.205650602094318125e-02
9.469999999999999529e-01,-1.267116058321256233e-01,-6.378814839808912007e-02,5.171538028925536101e-02
9.479999999999999538e-01,-6.174994800736254008e-02,-6.239684934945167322e-02,9.646810811313240308e-02
9.489999999999999547e-01,8.649903397504469030e-03,-6.521786576636720567e-02,1.328387808783142721e-01
9.499999999999999556e-01,7.728539827905248072e-02,-5.238999245053853338e-02,1.360621376908941471e-01
9.509999999999999565e-01,1.175649544984936484e-01,-5.004879371368901875e-02,9.366957270732756413e-02
9.519999999999999574e-01,1.250185347794753876e-01,-3.496687758879229307e-02,4.660697300868268250e-02
9.529999999999999583e-01,8.803021052936883806e-02,-1.323095968087856407e-02,-1.334363068724639043e-02
9.539999999999999591e-01,5.039483581342932977e-02,8.314670228978740182e-03,-6.784812336757473084e-02
9.549999999999999600e-01,2.484359556527340404e-02,2.692937714002182487e-02,-8.032162473207850317e-02
9.559999999999999609e-01,-3.017615112762547964e-03,5.817799533999754025e-02,-8.015886213696730989e-02
9.569999999999999618e-01,-2.432036204617733094e-02,6.653206458881465168e-02,-7.489762512487439794e-02
9.579999999999999627e-01,-3.814163044711139233e-02,8.616582273252273994e-02,-5.449406163198930453e-02
9.589999999999999636e-01,-5.141557363346629245e-02,8.813497425647963401e-02,-2.198229419178867119e-02
9.599999999999999645e-01,-5.003490868465920033e-02,6.415782674365505533e-02,8.404881748018677712e-03
9.609999999999999654e-01,-6.355811497438150492e-02,2.312116390363989568e-02,3.669903664641258750e-02
9.619999999999999662e-01,-6.505317601539314931e-02,-4.315273455523969959e-02,5.590691101792694129e-02
9.629999999999999671e-01,-7.070553038062321605e-02,-9.527512518413812359e-02,4.192028683558756547e-02
9.639999999999999680e-01,-4.187548041583157715e-02,-1.244502999495726708e-01,4.967202974057011861e-02
9.649999999999999689e-01,-1.487318487807844265e-02,-1.270301505516229501e-01,3.493068542294661821e-02
9.659999999999999698e-01,4.371203587460437134e-02,-1.339222869527578186e-01,8.687209342406333745e-03
9.669999999999999707e-01,7.362841564897291968e-02,-6.447409747041962791e-02,8.926850767517674479e-03
9.679999999999999716e-01,1.346550389838841455e-01,1.597791108045275299e-02,1.591223122303769139e-02
9.689999999999999725e-01,1.387671887917353852e-01,1.153458681836360411e-01,-1.852624303482352380e-02
9.699999999999999734e-01,1.188074481712023955e-01,1.684028622189901181e-01,-1.850412902273373267e-02
9.709999999999999742e-01,8.098017502503052079e-02,2.129422143983680515e-01,-5.422481520381750020e-02
9.719999999999999751e-01,-1.215172154512130648e-02,1.700309769654297642e-01,-6.581633265854200388e-02
9.729999999999999760e-01,-9.785887285899723398e-02,1.092523048333411406e-01,-5.189354461091860021e-02
9.739999999999999769e-01,-1.702554386000959263e-01,1.754991818267306880e-02,-6.292508112538330867e-02
9.749999999999999778e-01,-2.057138580167865161e-01,-9.846965970069698759e-02,-4.200023466245043219e-02
9.759999999999999787e-01,-2.089931225576701634e-01,-1.926690544110911674e-01,-9.454808143017395111e-03
9.769999999999999796e-01,-1.397235194749505693e-01,-2.390623056832916760e-01,3.836604502729191318e-02
9.779999999999999805e-01,-4.127247352234474087e-02,-2.258973106988560742e-01,8.127210856823635643e-02
9.789999999999999813e-01,8.935972869668268315e-02,-1.447095405452663297e-01,1.126732180940686195e-01
9.799999999999999822e-01,1.954974486077131479e-01,-1.373474329568204200e-02,1.041401919926866482e-01
9.809999999999999831e-01,2.691467724449459475e-01,9.542335728060977185e-02,8.008003356201036371e-02
9.819999999999999840e-01,2.587724980554574894e-01,2.100713839521231308e-01,4.429275165690990668e-02
9.829999999999999849e-01,2.004328737498757840e-01,2.395207215656327826e-01,-2.647190724115919963e-02
9.839999999999999858e-01,9.251363305325495390e-02,2.644385754930384524e-01,-8.424306142376289386e-02
9.849999999999999867e-01,-6.084338639553917016e-02,1.737449062457238347e-01,-1.174586848679710083e-01
9.859999999999999876e-01,-1.982251199754351823e-01,6.234028282221611150e-02,-1.425379986967617030e-01
9.869999999999999885e-01,-2.943531645693556187e-01,-7.312979804118339977e-02,-1.371906398296962315e-01
9.879999999999999893e-01,-3.206266145041710147e-01,-1.857706797368872120e-01,-8.605159164219741696e-02
9.889999999999999902e-01,-2.374584028846505324e-01,-2.647138729964489956e-01,2.906274900409870285e-03
9.899999999999999911e-01,-1.159295448218048419e-01,-2.674036582094208025e-01,8.396495560025996063e-02
9.909999999999999920e-01,3.533420476211668326e-02,-1.873779302188965934e-01,1.490435763343710418e-01
9.919999999999999929e-01,1.938510927021384056e-01,-7.976202628805084682e-02,1.711007673774229687e-01
9.929999999999999938e-01,3.094095822274383067e-01,6.819215533954066377e-02,1.644155674753081942e-01
9.939999999999999947e-01,3.359771395013964601e-01,1.819090371872587597e-01,1.018598199045656627e-01
9.949999999999999956e-01,2.843429357094609533e-01,2.447903007066228875e-01,3.315941651196883250e-02
9.959999999999999964e-01,1.500939549118638083e-01,2.540055609344281096e-01,-7.434578579027277534e-02
9.969999999999999973e-01,1.522656623080013462e-02,1.997991458028506306e-01,-1.426772664423369141e-01
9.979999999999999982e-01,-1.479832088780714816e-01,8.811962156867718388e-02,-1.985614459008033794e-01
9.989999999999999991e-01,-2.839086934920139194e-01,-2.670265875245848158e-02,-1.818888382045273922e-01
1.000000000000000000e+00,-3.366863741479947381e-01,-1.531280052800027269e-01,-1.564710735556858467e-01
1.000999999999999890e+00,-2.781970716543973321e-01,-2.208442516016984047e-01,-4.891261935784395332e-02
1.002000000000000002e+00,-1.841933750028066641e-01,-2.278125114727659328e-01,3.714055730491757495e-02
1.002999999999999892e+00,-3.814772707716099914e-02,-1.945455180904465120e-01,1.466106568281208555e-01
1.004000000000000004e+00,1.225552284103239575e-01,-1.131694441856052891e-01,1.942533806093888482e-01
1.004999999999999893e+00,2.476287523335340135e-01,6.753218362943451403e-03,1.933504296996444993e-01
1.006000000000000005e+00,2.943173279299025613e-01,9.829596680785553098e-02,1.606603390393375463e-01
1.006999999999999895e+00,2.801109695465029414e-01,1.733936476449291775e-01,7.547759693742438214e-02
1.008000000000000007e+00,2.026228173380201780e-01,1.970623937811979975e-01,-9.123049285787002832e-03
1.008999999999999897e+00,7.749761323856119155e-02,1.649441622285401643e-01,-1.137323312695425886e-01
1.010000000000000009e+00,-7.365571393864511762e-02,8.562656636035248514e-02,-1.699853807066160072e-01
1.010999999999999899e+00,-1.935346536301166542e-01,7.153231210815505156e-03,-1.890444677173619692e-01
1.012000000000000011e+00,-2.580294899236319495e-01,-6.363218843459376994e-02,-1.741917644908356211e-01
1.012999999999999901e+00,-2.508524059381748716e-01,-1.228280705103046433e-01,-8.527927865998899404e-02
1.014000000000000012e+00,-1.884346621327173676e-01,-1.411771674702043400e-01,-1.431943236446754468e-02
1.014999999999999902e+00,-8.929379018410880942e-02,-1.242279248752647253e-01,7.852844919617366082e-02
1.016000000000000014e+00,2.462693580140351904e-02,-8.853937305559932136e-02,1.391623390264005444e-01
1.016999999999999904e+00,1.257657449182887910e-01,-2.565045054421519199e-02,1.733288747770867222e-01
1.018000000000000016e+00,1.994809746748096579e-01,5.110606483890714133e-03,1.622735400498147851e-01
1.018999999999999906e+00,2.134426339875856171e-01,7.120699658946141875e-02,1.155820362269083384e-01
1.020000000000000018e+00,1.772950659206007362e-01,7.428991852900371229e-02,2.356502304980920282e-02
1.020999999999999908e+00,9.592595515836899178e-02,8.047910637426339275e-02,-3.404860212568944916e-02
1.022000000000000020e+00,6.319862337280410074e-03,6.657905926644469563e-02,-1.019415165135904994e-01
1.022999999999999909e+00,-6.931976161831657213e-02,4.382054816282476145e-02,-1.428795684011437139e-01
1.024000000000000021e+00,-1.137175005076030421e-01,1.502160440443959209e-02,-1.439356028156438261e-01
1.024999999999999911e+00,-1.134356823887648913e-01,6.349890427058417670e-03,-1.110321538175775280e-01
1.026000000000000023e+00,-1.210679068314518270e-01,-4.210189367245690054e-03,-5.764316758600829260e-02
1.026999999999999913e+00,-9.677088976851673519e-02,-2.325192189645193183e-02,1.565708598639532073e-02
1.028000000000000025e+00,-3.510761869038424299e-02,-3.537582291267956508e-02,6.091736834340492901e-02
1.028999999999999915e+00,-9.139448869383587359e-03,-6.070956017952646583e-02,1.026390489704946535e-01
1.030000000000000027e+00,1.901143689903763909e-02,-6.382119234967205401e-02,8.812679922566833690e-02
1.030999999999999917e+00,5.840452257408118575e-02,-6.963252525172543284e-02,7.055953230552941546e-02
1.032000000000000028e+00,5.953886238223004418e-02,-7.567569360424707126e-02,5.113198066637366507e-02
1.032999999999999918e+00,7.007505256189870690e-02,-4.009751822971407281e-02,1.577719930818605870e-02
1.034000000000000030e+00,6.141019088167922607e-02,4.848894231278076845e-03,-2.797879083460770924e-02
1.034999999999999920e+00,6.148327578554842188e-02,3.815454032819730334e-02,-5.322469062129429884e-02
1.036000000000000032e+00,4.743713597490693129e-02,1.093183013526378422e-01,-5.902185226098764781e-02
1.036999999999999922e+00,4.299676175877809037e-02,1.299069632743732328e-01,-4.776962385884243878e-02
1.038000000000000034e+00,1.597306966125881453e-02,1.294035567837641121e-01,-4.202692376074639719e-02
1.038999999999999924e+00,-2.996488507647721705e-02,9.048202635914986969e-02,-1.928422043463374688e-02
1.040000000000000036e+00,-6.547176332161637469e-02,2.478433109724002478e-02,-2.269602542945689874e-02
1.040999999999999925e+00,-9.830566256815974346e-02,-4.073047907271962892e-02,-1.973290030662483083e-02
1.042000000000000037e+00,-1.323235193189215286e-01,-1.190591308422765532e-01,-4.637688559962934581e-03
1.042999999999999927e+00,-1.165978163839067050e-01,-1.786674142114616226e-01,2.386939177768121825e-02
1.044000000000000039e+00,-8.762105196393174533e-02,-1.904683037717889993e-01,1.687548299125081475e-02
1.044999999999999929e+00,-2.405374969955897946e-02,-1.366603490872182192e-01,4.272811245840942712e-02
1.046000000000000041e+00,6.060320386691608191e-02,-8.158392669293670907e-02,6.171989680079988799e-02
1.046999999999999931e+00,1.238520581777290130e-01,1.735217313142466133e-02,5.172678494973361601e-02
1.048000000000000043e+00,1.889212587626497020e-01,1.287576114127959581e-01,4.215498181099638919e-02
1.048999999999999932e+00,1.981337567565175928e-01,2.171437738161540176e-01,2.859179952539207120e-02
1.050000000000000044e+00,1.544623537067624786e-01,2.190518212954281341e-01,1.261368703243974029e-02
1.050999999999999934e+00,7.497223249716870874e-02,1.819869866244943624e-01,-2.577895469520070232e-02
1.052000000000000046e+00,-5.048478258961097004e-02,1.161161072617072215e-01,-6.473094090170201931e-02
1.052999999999999936e+00,-1.482351106974922894e-01,-7.764765369141806393e-03,-9.953387602436375436e-02
1.054000000000000048e+00,-2.287327091286480985e-01,-1.307366035810389460e-01,-8.470365243945647549e-02
1.054999999999999938e+00,-2.739666031440727845e-01,-2.258760722801740339e-01,-8.560250107288566723e-02
1.056000000000000050e+00,-2.161629045511933023e-01,-2.716130705890839603e-01,-3.647527826828198677e-02
1.056999999999999940e+00,-1.334862001362769612e-01,-2.160464648728102899e-01,1.271712672360809232e-02
1.058000000000000052e+00,-4.549155962497770760e-03,-1.377949460263734605e-01,7.979540345459307238e-02
1.058999999999999941e+00,1.521049044711454412e-01,-1.937534827546742722e-02,1.248335295410460816e-01
1.060000000000000053e+00,2.511449810564296281e-01,9.892515778818081196e-02,1.324909409925121573e-01
1.060999999999999943e+00,3.168558670825724066e-01,2.210649070696121821e-01,1.159243132529906434e-01
1.062000000000000055e+00,2.768975732394297062e-01,2.685108629503070166e-01,8.828525533457907970e-02
1.062999999999999945e+00,1.787800470381698537e-01,2.393271680111619393e-01,2.193842617095812658e-02
1.064000000000000057e+00,2.920077258972396048e-02,1.682889938473290381e-01,-6.815330803370271695e-02
1.064999999999999947e+00,-1.225268925442186407e-01,4.131021951493329264e-02,-1.264239761411597995e-01
1.066000000000000059e+00,-2.513181378694969159e-01,-1.009087875680916846e-01,-1.758355045665007943e-01
1.066999999999999948e+00,-3.267197470310846397e-01,-2.054884244840664564e-01,-1.811193480702232572e-01
1.068000000000000060e+00,-3.103287648766664408e-01,-2.571903314834551035e-01,-1.103756813088687672e-01
1.068999999999999950e+00,-2.191697816799284271e-01,-2.653769113679708136e-01,-4.757524038038589420e-02
1.070000000000000062e+00,-8.877851232861605490e-02,-1.576269590828403844e-01,5.998421950318345852e-02
1.070999999999999952e+00,8.967967884643997245e-02,-6.118862475310329896e-02,1.297678345538690048e-01
1.072000000000000064e+00,2.402216722497289014e-01,7.448507812903321090e-02,1.791521897125162299e-01
1.072999999999999954e+00,3.257276058607628810e-01,1.725970196032090009e-01,1.859306674009610083e-01
1.074000000000000066e+00,3.399029791153010405e-01,2.438866980450279387e-01,1.505405940743828053e-01
1.074999999999999956e+00,2.507331973600819275e-01,2.336134140757459288e-01,7.829959933268702821e-02
1.076000000000000068e+00,1.103743104976431938e-01,1.696331364830186150e-01,-2.811492328965545934e-02
1.076999999999999957e+00,-5.950457047610954731e-02,6.228889440906590358e-02,-1.089694794211675533e-01
1.078000000000000069e+00,-2.008259265042808273e-01,-3.839161148220752995e-02,-1.837151010267761009e-01
1.078999999999999959e+00,-2.927527910351059304e-01,-1.429613427648710466e-01,-1.810932113484510497e-01
1.080000000000000071e+00,-3.286620528823397946e-01,-1.901793695076717527e-01,-1.750331778509574276e-01
1.080999999999999961e+00,-2.529515468442486426e-01,-1.810214477135582145e-01,-9.164945539377079842e-02
1.082000000000000073e+00,-1.297436682406374053e-01,-1.569580287438002431e-01,-2.309551406414970219e-03
1.082999999999999963e+00,6.396011311353964369e-03,-7.849611571586333214e-02,1.076013672002780752e-01
1.084000000000000075e+00,1.457188782779763325e-01,2.542167482614468912e-02,1.771705717575115802e-01
1.084999999999999964e+00,2.518967624585984333e-01,8.742997922753679985e-02,2.003907820778830506e-01
1.086000000000000076e+00,2.832466287305218655e-01,1.371656061905323631e-01,1.833286749924804560e-01
1.086999999999999966e+00,2.459466819597265208e-01,1.508007210714890634e-01,1.105964280985408388e-01
1.088000000000000078e+00,1.533267390646658179e-01,1.290326153140396170e-01,4.031019800053537577e-02
1.088999999999999968e+00,2.866543905292523453e-02,7.410687442949193127e-02,-6.596106497000041313e-02
1.090000000000000080e+00,-1.065082950499211950e-01,2.212802798112062375e-02,-1.293695489195626214e-01
1.090999999999999970e+00,-1.817896019609303582e-01,-1.611459580468679181e-02,-1.741140506840421209e-01
1.092000000000000082e+00,-2.322091251994074790e-01,-7.450638132149561832e-02,-1.715273035110470579e-01
1.092999999999999972e+00,-2.104008060738809804e-01,-8.912269660113159020e-02,-1.178107497502458578e-01
1.094000000000000083e+00,-1.556122949291251778e-01,-9.328363626414797050e-02,-4.343591948605277780e-02
1.094999999999999973e+00,-6.228929054729662879e-02,-7.219742325986604203e-02,3.441440174160793203e-02
1.096000000000000085e+00,2.966700712648635829e-02,-4.304029322087618570e-02,9.575705395110965801e-02
1.096999999999999975e+00,1.099787880300634318e-01,-2.291107805721333095e-03,1.452822589430846079e-01
1.098000000000000087e+00,1.574528406280361614e-01,1.314955155059253922e-02,1.486115145397934045e-01
1.098999999999999977e+00,1.430061695114394626e-01,2.507359517005212576e-02,1.216308540637995178e-01
1.100000000000000089e+00,1.282005627110836821e-01,2.261472066939164763e-02,6.835816717877450654e-02
1.100999999999999979e+00,6.159058704358225111e-02,3.922339985703789111e-02,6.155496621901936950e-03
1.102000000000000091e+00,2.957716656170634312e-03,5.782243957216132851e-02,-5.143276515238295182e-02
1.102999999999999980e+00,-3.949497740606822821e-02,5.102667116930888203e-02,-9.894605666906697294e-02
1.104000000000000092e+00,-6.066055278868523470e-02,5.946907384547717862e-02,-1.063187823238161411e-01
1.104999999999999982e+00,-8.003948584044087711e-02,5.332750225050530285e-02,-9.713716599108780658e-02
1.106000000000000094e+00,-6.070449038829238420e-02,2.349273123787699522e-02,-8.495242570148170413e-02
1.106999999999999984e+00,-5.839698787753418163e-02,-1.759165434523748614e-02,-1.557398601729275897e-02
1.108000000000000096e+00,-5.788747475405574272e-02,-5.636636699580704207e-02,-6.115433557209437425e-03
1.108999999999999986e+00,-4.130636972706366178e-02,-8.653953498749256124e-02,5.463042588455060966e-02
1.110000000000000098e+00,-2.394644588726792603e-02,-1.179742066127977551e-01,6.595049686135688594e-02
1.110999999999999988e+00,4.481438469696717199e-03,-1.089225856713604973e-01,7.218934194425855044e-02
1.112000000000000099e+00,6.740087133008496219e-03,-7.424541670178214092e-02,5.492923276724452630e-02
1.112999999999999989e+00,5.171968537583003511e-02,-1.220335295928494379e-02,2.437026734730213251e-02
1.114000000000000101e+00,8.062247431942791420e-02,5.747801388217328722e-02,8.393680330825475239e-03
1.114999999999999991e+00,9.085568994732531878e-02,1.313487946350434532e-01,-4.096689905878980048e-03
1.116000000000000103e+00,1.246587689732479437e-01,1.813310060547419222e-01,-8.409343886618875219e-03
1.116999999999999993e+00,8.804447952871145844e-02,1.702854790976855437e-01,-2.570875893343715912e-02
1.118000000000000105e+00,3.344735143753850559e-02,1.234240515156249524e-01,-4.767281576107221946e-02
1.118999999999999995e+00,-3.087130108258075503e-02,2.673578031309025230e-02,-4.453318314981708631e-02
1.120000000000000107e+00,-9.677896992327979231e-02,-6.323474653251348609e-02,-3.038305089562125250e-02
1.120999999999999996e+00,-1.541784661245643451e-01,-1.372583508174256284e-01,-5.460502378073307100e-02
1.122000000000000108e+00,-1.841164862682624914e-01,-2.137759647359331328e-01,-2.724882700482742642e-02
1.122999999999999998e+00,-1.751927621847009231e-01,-2.103741211760411511e-01,-1.795589103349405288e-02
1.124000000000000110e+00,-9.874790357104229477e-02,-1.743426144375168352e-01,-5.704582352339560881e-03
1.125000000000000000e+00,-1.230183640060418353e-02,-7.362420839137236162e-02,2.909658366634633453e-02
1.125999999999999890e+00,1.057101664759182713e-01,4.026067775266146259e-02,5.696419779828570951e-02
1.127000000000000002e+00,1.948511107868310943e-01,1.627368532305996096e-01,8.910894860292645214e-02
1.127999999999999892e+00,2.394219836230156995e-01,2.334751918204678034e-01,8.413656143079382976e-02
1.129000000000000004e+00,2.319759362999339880e-01,2.431873472432086736e-01,5.937830652591696151e-02
1.129999999999999893e+00,1.702183007011848770e-01,2.012778153828056749e-01,4.427106097048357641e-02
1.131000000000000005e+00,6.394320004660182521e-02,1.103895089186853751e-01,-5.563755584732884597e-03
1.131999999999999895e+00,-8.519318585544563560e-02,-2.204393908011554118e-02,-7.009532003046482773e-02
1.133000000000000007e+00,-2.043159163466840844e-01,-1.434530040622737090e-01,-1.134684753429322790e-01
1.133999999999999897e+00,-2.879672763249188638e-01,-2.365460631082459131e-01,-1.253422998959699830e-01
1.135000000000000009e+00,-2.809552849741951963e-01,-2.763062777637327883e-01,-1.303416009588506397e-01
1.135999999999999899e+00,-2.196418721851134959e-01,-2.304887465306830474e-01,-9.010641416580981999e-02
1.137000000000000011e+00,-1.032256024046710047e-01,-1.216867454626112399e-01,-2.740462242031482115e-02
1.137999999999999901e+00,6.744920724561551117e-02,-8.407613952318666178e-03,5.496585372216766102e-02
1.139000000000000012e+00,2.193550625708297064e-01,1.323205256963039256e-01,1.198302258628697187e-01
1.139999999999999902e+00,2.948047842333276769e-01,2.231193359257714059e-01,1.711374192024714691e-01
1.141000000000000014e+00,3.259570837689362843e-01,2.675177952682943339e-01,1.573899082499915780e-01
1.141999999999999904e+00,2.674876701384787392e-01,2.203849693587008607e-01,1.325949228773777577e-01
1.143000000000000016e+00,1.454533029614185902e-01,1.411596414034185232e-01,6.154831089557030038e-02
1.143999999999999906e+00,-1.621515109010415517e-04,4.670992206338177126e-03,-1.869401713199501935e-02
1.145000000000000018e+00,-1.568220038253467508e-01,-9.549500835265294085e-02,-1.011355391277470456e-01
1.145999999999999908e+00,-2.879122271344777828e-01,-1.961908607166540919e-01,-1.722053844321336236e-01
1.147000000000000020e+00,-3.321309728178619691e-01,-2.594461426963767248e-01,-1.857509207119552863e-01
1.147999999999999909e+00,-2.913678819547468879e-01,-2.169875455477758841e-01,-1.732842089304508226e-01
1.149000000000000021e+00,-1.789436003189382451e-01,-1.439085003401645024e-01,-9.115711935958110967e-02
1.149999999999999911e+00,-3.012978994115361742e-02,-2.394526583178489473e-02,1.428635159155377567e-02
1.151000000000000023e+00,1.377951290816981922e-01,8.717920167760841166e-02,1.142540163537488634e-01
1.151999999999999913e+00,2.624433392508132568e-01,1.603127083776430817e-01,1.681829641461497493e-01
1.153000000000000025e+00,3.341845007781044652e-01,2.009194051607072762e-01,1.924826233956779820e-01
1.153999999999999915e+00,2.963583639594813968e-01,1.975181987723247379e-01,1.915853167711836502e-01
1.155000000000000027e+00,1.918027884518027915e-01,1.304610925149038703e-01,1.190359688065566746e-01
1.155999999999999917e+00,3.569479908793691397e-02,5.795888494459313506e-02,2.117249369364619313e-02
1.157000000000000028e+00,-8.291800954281265679e-02,-3.687471133262400225e-02,-7.092413855339596562e-02
1.157999999999999918e+00,-2.227868631766515284e-01,-1.225638571628238499e-01,-1.461986306922888057e-01
1.159000000000000030e+00,-2.856058024105044835e-01,-1.600336283070651344e-01,-2.004592465110649757e-01
1.159999999999999920e+00,-2.659581922619170813e-01,-1.623099162569444920e-01,-1.986570157757448218e-01
1.161000000000000032e+00,-1.950158324571014401e-01,-1.197713876810510836e-01,-1.330865010545984883e-01
1.161999999999999922e+00,-7.130581549611106351e-02,-6.256107352962449186e-02,-5.660372735194648536e-02
1.163000000000000034e+00,3.692140365735087359e-02,-2.102194679015428024e-03,4.563951091138302579e-02
1.163999999999999924e+00,1.452298326505135906e-01,6.298494349392018410e-02,1.301458642552624501e-01
1.165000000000000036e+00,2.256216525584207322e-01,8.724088937000779032e-02,1.739226990293991360e-01
1.165999999999999925e+00,2.359260916810887176e-01,1.097552506203437611e-01,1.761101421132388600e-01
1.167000000000000037e+00,1.740025207613906388e-01,9.329700880998340051e-02,1.435958226355390499e-01
1.167999999999999927e+00,8.681114402908557404e-02,5.880883521757422627e-02,7.456097281542141408e-02
1.169000000000000039e+00,-7.312245582186800708e-03,2.388147546285181513e-02,-9.525683728751404775e-03
1.169999999999999929e+00,-8.820757531071907187e-02,-1.030643630037854190e-02,-9.033975538279313822e-02
1.171000000000000041e+00,-1.634324222999706533e-01,-4.489665132059979941e-02,-1.491380413147536110e-01
1.171999999999999931e+00,-1.622511830855027093e-01,-4.754465409287184779e-02,-1.519478835318601451e-01
1.173000000000000043e+00,-1.503420810899035454e-01,-4.457647934581290827e-02,-1.340720934902835670e-01
1.173999999999999932e+00,-9.623526081960474821e-02,-5.282706349691293490e-02,-8.129745835914048424e-02
1.175000000000000044e+00,-2.594157558221483334e-02,-3.456125658379529536e-02,-1.304893116668340118e-02
1.175999999999999934e+00,3.196407541143136966e-02,-4.199883703526775813e-02,5.810633896124955955e-02
1.177000000000000046e+00,7.611832472058231713e-02,-2.485889218313285312e-02,1.012261034302752161e-01
1.177999999999999936e+00,9.059006254307487571e-02,-2.821960620485162302e-02,1.240543873014499782e-01
1.179000000000000048e+00,1.057158541106715116e-01,5.341558652267757758e-03,1.065125339330720428e-01
1.179999999999999938e+00,8.291401859406659358e-02,2.401619317275747317e-02,7.327018782908768790e-02
