time,acc_x,acc_y,acc_z
0.000000000000000000e+00,-1.839695263057689878e-01,-2.554745683528685807e-01,-4.911766352221553361e-02
1.000000000000000021e-03,-3.331661185396242453e-01,-3.285807599360444642e-01,-1.125201330469722816e-01
2.000000000000000042e-03,-3.796727169124400336e-01,-3.241728787603201933e-01,-2.287484104418582298e-01
3.000000000000000062e-03,-3.518161562043993218e-01,-2.574022118234401968e-01,-2.395610832991590666e-01
4.000000000000000083e-03,-3.143457922670559457e-01,-1.953094556820666183e-01,-2.342296386456813873e-01
5.000000000000000104e-03,-2.534008928268392524e-01,-6.266072849444298543e-02,-2.318997046566614595e-01
6.000000000000000125e-03,-1.005345355145228631e-01,8.443768877013139995e-02,-1.310444642951646699e-01
7.000000000000000146e-03,5.167018724970912080e-02,1.809077212580293970e-01,-2.960048489985426037e-02
8.000000000000000167e-03,2.139530822806941790e-01,2.749247111525412457e-01,4.704418671767893190e-02
8.999999999999999320e-03,3.207011258422845512e-01,3.087845713094379274e-01,1.165119917051418014e-01
1.000000000000000021e-02,3.723946445251110071e-01,3.269979862506728896e-01,2.146527842122936958e-01
1.099999999999999936e-02,4.019146126979808997e-01,2.573939121101724847e-01,1.947008845182907066e-01
1.200000000000000025e-02,3.110811191546901666e-01,1.631977271349516201e-01,2.193334386032949890e-01
1.299999999999999940e-02,2.400415599742291295e-01,6.049918642066318825e-02,2.414516590721138001e-01
1.400000000000000029e-02,1.030653855907201766e-01,-4.065230765364151455e-02,1.321840552430172122e-01
1.499999999999999944e-02,-4.453789118654285367e-02,-1.966949631702246959e-01,6.731742210373668767e-02
1.600000000000000033e-02,-1.914147013596406710e-01,-2.483281158144532708e-01,-2.308230617511496108e-02
1.700000000000000122e-02,-3.134173221144968546e-01,-3.225058776382547787e-01,-8.226329574617344265e-02
1.799999999999999864e-02,-3.902046590182735031e-01,-3.093825372234386695e-01,-1.736251174106430151e-01
1.899999999999999953e-02,-3.911402921749465023e-01,-2.406196402443936677e-01,-2.023604762910336530e-01
2.000000000000000042e-02,-3.252267173484906237e-01,-1.556645422632794151e-01,-2.459388031691270571e-01
2.100000000000000130e-02,-2.421508012903243745e-01,-8.381546977932405329e-02,-1.951328794615991846e-01
2.199999999999999872e-02,-1.006279681319802027e-01,5.527140769405543275e-02,-1.673533997075452306e-01
2.299999999999999961e-02,7.408621455637562359e-02,1.912257389392313378e-01,-9.006628884830462922e-02
2.400000000000000050e-02,2.299390145562474341e-01,2.748634915651889665e-01,2.607127990357763214e-02
2.500000000000000139e-02,3.004505595353769709e-01,2.973342416251131270e-01,1.222425462116653871e-01
2.599999999999999881e-02,3.813745463285614923e-01,2.930840245606994854e-01,1.768726504706884528e-01
2.699999999999999969e-02,4.097672102839326480e-01,2.644102067585201166e-01,2.300284472742638031e-01
2.800000000000000058e-02,3.173155450239693032e-01,1.752355725753342863e-01,2.323264612003226870e-01
2.900000000000000147e-02,2.418639268649047658e-01,8.048360247677809054e-02,1.950760017315986694e-01
2.999999999999999889e-02,1.023425526685694947e-01,-3.154391096624986623e-02,1.876614158518464526e-01
3.099999999999999978e-02,-3.784057229236580805e-02,-1.860003272657144990e-01,9.411832150018606402e-02
3.200000000000000067e-02,-1.950387684003336841e-01,-2.752042684875500855e-01,-3.048421072343041657e-03
3.300000000000000155e-02,-3.091237483649262874e-01,-3.162905939037959357e-01,-1.003625544033998618e-01
3.400000000000000244e-02,-3.605891459425596413e-01,-3.027292058816377085e-01,-1.710054844904146665e-01
3.500000000000000333e-02,-3.908500202481892671e-01,-2.700283231251087712e-01,-2.153387776945213383e-01
3.599999999999999728e-02,-3.227465520988953562e-01,-2.018090659407073828e-01,-2.560147771271474859e-01
3.699999999999999817e-02,-2.412909134759411434e-01,-5.722496478021533300e-02,-1.986851323886495713e-01
3.799999999999999906e-02,-1.152018499424202619e-01,4.450307506252601519e-02,-1.730159459337408667e-01
3.899999999999999994e-02,-1.303390518294775431e-02,1.762936834429548738e-01,-1.076601248037114406e-01
4.000000000000000083e-02,1.637208927014347226e-01,2.498141962448771347e-01,-2.766140810078037901e-02
4.100000000000000172e-02,2.751651653415777554e-01,2.905687139169140232e-01,6.118994109206505466e-02
4.200000000000000261e-02,3.501754966634668120e-01,3.351437070685805431e-01,1.718842580142895260e-01
4.299999999999999656e-02,4.034199683760695820e-01,2.285832872769225088e-01,2.061990048968769806e-01
4.399999999999999745e-02,3.385360456962467901e-01,1.971561438097755026e-01,2.299826834921502583e-01
4.499999999999999833e-02,2.819604736976116799e-01,5.365201421668474441e-02,2.488866134913926553e-01
4.599999999999999922e-02,1.480952396862043330e-01,-7.163629253457433343e-02,1.900620812373745860e-01
4.700000000000000011e-02,-3.368353379745636644e-02,-1.717045476595727982e-01,1.062789995801544096e-01
4.800000000000000100e-02,-1.476642825501771061e-01,-2.478642572226970320e-01,5.272530439737584118e-02
4.900000000000000189e-02,-3.000148788900127150e-01,-2.789946799061401306e-01,-6.664194345896419513e-02
5.000000000000000278e-02,-3.617604055665504803e-01,-2.912344749545282552e-01,-1.458608125375991105e-01
5.099999999999999672e-02,-3.844109169847191310e-01,-2.976116826597116627e-01,-2.224241464368900689e-01
5.199999999999999761e-02,-3.570267170972923343e-01,-1.774464445058720752e-01,-2.261376541427858045e-01
5.299999999999999850e-02,-2.376566818817292259e-01,-5.221391517707868468e-02,-2.426078722908169283e-01
5.399999999999999939e-02,-1.695712590046930812e-01,5.827351591701439293e-02,-1.758697628013903558e-01
5.500000000000000028e-02,-6.037299139766084434e-03,1.997680480370867540e-01,-1.356795296448692623e-01
5.600000000000000117e-02,1.221606795283648322e-01,2.767517916737864403e-01,-5.491281960605435414e-02
5.700000000000000205e-02,3.062699370294288403e-01,3.093157796721848762e-01,7.374320758671862319e-02
5.800000000000000294e-02,3.577578297283296460e-01,3.194848893423714586e-01,8.957897283554927537e-02
5.899999999999999689e-02,3.781343146538218014e-01,2.491244148782480183e-01,1.696533463869622504e-01
5.999999999999999778e-02,3.798082738433432026e-01,1.924470590349403043e-01,2.279818512143764464e-01
6.099999999999999867e-02,2.733571719809105294e-01,7.305642635000010598e-02,2.188688828941093567e-01
6.199999999999999956e-02,1.509550983245968314e-01,-4.666713201024919738e-02,2.015940913910223842e-01
6.300000000000000044e-02,-3.167812103085830121e-03,-1.934149173672335131e-01,1.790330035171841527e-01
6.400000000000000133e-02,-1.690293977605022147e-01,-2.677511509062078798e-01,8.248891322236930057e-02
6.500000000000000222e-02,-2.897995165579440591e-01,-3.192286668590006982e-01,1.194858220278408739e-02
6.600000000000000311e-02,-3.486131297334064127e-01,-3.392203725678588078e-01,-1.313992682033923165e-01
6.700000000000000400e-02,-3.688157250855393920e-01,-2.694897693440784781e-01,-2.069403894524689536e-01
6.800000000000000488e-02,-3.564222308236764669e-01,-1.603167824034351652e-01,-2.447035518031022705e-01
6.900000000000000577e-02,-3.011869609374465684e-01,-3.204681538127698154e-02,-2.134968659055933304e-01
7.000000000000000666e-02,-1.368989815525029907e-01,6.503262345715160597e-02,-2.010168119346102400e-01
7.099999999999999367e-02,4.546517730977406996e-03,1.667783755715493144e-01,-1.468054980541624310e-01
7.199999999999999456e-02,1.195286362078349651e-01,2.550356361263152460e-01,-2.449055840081263216e-02
7.299999999999999545e-02,2.787481001686249460e-01,2.916307160717615532e-01,1.300638700535182782e-02
7.399999999999999634e-02,3.497828176880553031e-01,3.018842106000844128e-01,1.313419874521061792e-01
7.499999999999999722e-02,4.123119788900239113e-01,2.626799208992630641e-01,1.915206406630063085e-01
7.599999999999999811e-02,3.504610920776206062e-01,1.712966718387304021e-01,1.929733118732104291e-01
7.699999999999999900e-02,2.956384869910357316e-01,7.246579979241707381e-02,2.354991839363468065e-01
7.799999999999999989e-02,1.723798889496898357e-01,-6.405382151903185606e-02,2.138018062077100545e-01
7.900000000000000078e-02,4.182746248547487139e-02,-1.987271939016000410e-01,1.475683143071703785e-01
8.000000000000000167e-02,-1.608725057620165599e-01,-2.514328848808461969e-01,5.643916588711141158e-02
8.100000000000000255e-02,-2.762957539615805147e-01,-3.295103066299341354e-01,1.164617341217383945e-02
8.200000000000000344e-02,-3.512766042349023676e-01,-2.816775350395859245e-01,-8.069163320072342271e-02
8.300000000000000433e-02,-4.146309646110648006e-01,-2.501994816241920883e-01,-1.509071561410794682e-01
8.400000000000000522e-02,-3.687218442400866936e-01,-1.545556523424079787e-01,-2.017363492289571680e-01
8.500000000000000611e-02,-3.275276113683731616e-01,-5.651211710662860238e-02,-2.388517024537437916e-01
8.599999999999999312e-02,-1.780500938041520709e-01,7.740985083058300742e-02,-2.181494652223939790e-01
8.699999999999999400e-02,-5.567012309056167119e-02,1.751236700963866300e-01,-1.872486278777824864e-01
8.799999999999999489e-02,8.618901797569497591e-02,2.620594164759243450e-01,-1.066155095010332676e-01
8.899999999999999578e-02,2.531493393027803296e-01,2.915963596314951611e-01,-3.587677828412050296e-02
8.999999999999999667e-02,3.314753178813180101e-01,2.846997740578371960e-01,5.633245710847469695e-02
9.099999999999999756e-02,3.771319500718245954e-01,2.728481336229400256e-01,1.470015447862086377e-01
9.199999999999999845e-02,3.649782494400851673e-01,1.684388675101722854e-01,1.963351756681846194e-01
9.299999999999999933e-02,3.134613145017769997e-01,4.547635487412293037e-02,2.314621459828180017e-01
9.400000000000000022e-02,1.868690937319887335e-01,-7.576163393681195624e-02,1.959535112035875049e-01
9.500000000000000111e-02,1.895914451232645626e-02,-1.817517802324150333e-01,2.037035369390860218e-01
9.600000000000000200e-02,-1.060762184743285902e-01,-2.554126977723539804e-01,1.449944266853536445e-01
9.700000000000000289e-02,-2.248906055811202842e-01,-3.480427910004482150e-01,1.917315636731165354e-02
9.800000000000000377e-02,-3.375070565348461393e-01,-2.988237988100526099e-01,-6.701998242017126461e-02
9.900000000000000466e-02,-3.927963844041644781e-01,-2.546012277043150918e-01,-1.424545628487803861e-01
1.000000000000000056e-01,-3.656472794540316373e-01,-1.466948262775703560e-01,-2.150279057030589358e-01
1.010000000000000064e-01,-3.403726687934086059e-01,-3.129936528605287149e-02,-2.612766880602904185e-01
1.019999999999999934e-01,-2.005653060265708276e-01,7.067484039208178637e-02,-2.592868734063228375e-01
1.029999999999999943e-01,-4.256614585038635129e-02,1.948785684223051651e-01,-1.733865925804970176e-01
1.039999999999999952e-01,8.003498682978377188e-02,2.569702963056147427e-01,-1.331103275020439070e-01
1.049999999999999961e-01,2.133445756375916824e-01,2.878460916604476671e-01,-1.067372641781837855e-02
1.059999999999999970e-01,3.415244179080391129e-01,3.102123123232551349e-01,5.629643322521558219e-02
1.069999999999999979e-01,3.791593337482025428e-01,2.527813285239106644e-01,1.226734185944902272e-01
1.079999999999999988e-01,3.873799455695942640e-01,1.598960142310344168e-01,2.090825408238455863e-01
1.089999999999999997e-01,3.122948059162491408e-01,2.247148841295899119e-02,2.604041858203197113e-01
1.100000000000000006e-01,2.034403521171190277e-01,-7.880193524132450555e-02,2.408562087243242833e-01
1.110000000000000014e-01,6.451480811256604664e-02,-1.787097672546368865e-01,1.889176486051412085e-01
1.120000000000000023e-01,-7.941777915289745249e-02,-2.701044506972576364e-01,1.616746827537512143e-01
1.130000000000000032e-01,-2.100695330871208411e-01,-3.009340906844702457e-01,4.778574371505854568e-02
1.140000000000000041e-01,-3.514512446277966995e-01,-3.068392042424861188e-01,-6.240998793269791206e-02
1.150000000000000050e-01,-3.692312909199158000e-01,-2.359830039124541090e-01,-1.315206740953525910e-01
1.160000000000000059e-01,-3.912403421866038067e-01,-1.805669882504383483e-01,-1.610767163601459495e-01
1.170000000000000068e-01,-3.642200487743091353e-01,-4.373568532389172231e-02,-1.963811843312188721e-01
1.179999999999999938e-01,-2.081631319148440629e-01,6.345782172837860502e-02,-2.361158416432457829e-01
1.189999999999999947e-01,-5.446125116361869023e-02,1.743863416979360426e-01,-2.108819232715303804e-01
1.199999999999999956e-01,4.581086443736968883e-02,2.379098639508775426e-01,-1.303170847858393655e-01
1.209999999999999964e-01,2.410123384922375767e-01,2.901240742253292648e-01,-6.246644393417917496e-02
1.219999999999999973e-01,3.224046719644708681e-01,2.858919524041899640e-01,2.498147206545684243e-02
1.229999999999999982e-01,3.824465583974335225e-01,2.541177927198186581e-01,9.679386701780023916e-02
1.239999999999999991e-01,3.743806802287058533e-01,1.649421598358417063e-01,1.785640417923718692e-01
1.250000000000000000e-01,3.113195939545593816e-01,4.680132507407508413e-02,2.332747000666847703e-01
1.260000000000000009e-01,2.210948232398342872e-01,-1.029210259087361967e-01,2.495236423043551421e-01
1.270000000000000018e-01,1.177841475361213613e-01,-2.114044624245781656e-01,2.028859726210967829e-01
1.280000000000000027e-01,-5.817349170463155528e-02,-2.308996430894323104e-01,1.486452839763056921e-01
1.290000000000000036e-01,-2.096245305177566465e-01,-2.992025888722747995e-01,1.008309453277286966e-01
1.300000000000000044e-01,-2.941248701171451096e-01,-3.019361997366569739e-01,1.119557814144772970e-02
1.310000000000000053e-01,-3.581760321449221629e-01,-2.738747858310577321e-01,-7.053257335205470602e-02
1.320000000000000062e-01,-4.300050593074600802e-01,-1.661178596060445545e-01,-1.793014561077236890e-01
1.330000000000000071e-01,-2.857442555858992206e-01,-7.632871939257369898e-02,-2.109614024984775293e-01
1.340000000000000080e-01,-2.269157253889416692e-01,6.979655110955740316e-02,-2.279936424479969137e-01
1.350000000000000089e-01,-9.129787809602925297e-02,1.625206403478931527e-01,-2.023184577267345408e-01
1.360000000000000098e-01,6.981655514759949055e-02,2.564021214868391629e-01,-1.807230729182407181e-01
1.370000000000000107e-01,1.791190427641758121e-01,3.312469679123051236e-01,-7.613800081778630824e-02
1.380000000000000115e-01,2.550148776693302866e-01,2.940514910984433627e-01,-1.369073210152674507e-03
1.390000000000000124e-01,3.813130044775616678e-01,2.808264521865439511e-01,8.240692556686428361e-02
1.400000000000000133e-01,4.164750297045444194e-01,1.800530766620735967e-01,1.588813282378629399e-01
1.409999999999999865e-01,3.388490375035022595e-01,2.290550946863153733e-02,2.119756633886373531e-01
1.419999999999999873e-01,2.568866340920235025e-01,-1.039777341880231964e-01,2.449470026177615056e-01
1.429999999999999882e-01,9.408931197216492681e-02,-2.273514056735468081e-01,2.125730061557677686e-01
1.439999999999999891e-01,-1.706677959087200824e-02,-2.997608855847960774e-01,1.712659554980036081e-01
1.449999999999999900e-01,-1.687292212239901168e-01,-2.988501003826709024e-01,8.138360864135744943e-02
1.459999999999999909e-01,-2.927852337144060679e-01,-2.952084061385317204e-01,3.102724299814253045e-02
1.469999999999999918e-01,-3.620763794293205273e-01,-2.251304775520482915e-01,-9.574888655184654596e-02
1.479999999999999927e-01,-3.870031233309318419e-01,-1.472707304676637297e-01,-1.516357202705087559e-01
1.489999999999999936e-01,-3.454591539818069323e-01,-2.344973887162014187e-02,-2.162142497526309826e-01
1.499999999999999944e-01,-2.682887657777854318e-01,6.636468521780311547e-02,-2.419010398163785047e-01
1.509999999999999953e-01,-7.644324657649873012e-02,1.676329594544464785e-01,-2.270590445682161840e-01
1.519999999999999962e-01,7.338176934822228381e-02,2.583561732683111734e-01,-2.166367775973302712e-01
1.529999999999999971e-01,1.803882563481272461e-01,2.831992109440393257e-01,-1.070693064406379597e-01
1.539999999999999980e-01,2.878973503784618693e-01,3.103183880929873961e-01,-3.112170880720419378e-02
1.549999999999999989e-01,3.614166588184052342e-01,2.401359785447800821e-01,7.396402025920438550e-02
1.559999999999999998e-01,3.715268811876406563e-01,1.617300942119138385e-01,1.707700135021573140e-01
1.570000000000000007e-01,3.566844840274747130e-01,4.883132818726997754e-02,1.961444023858626151e-01
1.580000000000000016e-01,2.775262153304328683e-01,-6.999847852058023456e-02,2.097390854051856268e-01
1.590000000000000024e-01,1.459208233985835323e-01,-1.721565325975461802e-01,2.220747181616432864e-01
1.600000000000000033e-01,5.035099781906871193e-03,-2.615673006046768112e-01,1.767154298665533363e-01
1.610000000000000042e-01,-1.610310738406972308e-01,-3.539651450636037699e-01,1.460046884415237833e-01
1.620000000000000051e-01,-2.633488695027212390e-01,-2.890091487468932074e-01,1.082892254730997462e-02
1.630000000000000060e-01,-3.565138129660593291e-01,-2.577354088973341506e-01,-5.090710562145097512e-02
1.640000000000000069e-01,-3.906535924379347935e-01,-1.656599501697870735e-01,-1.210999131473454865e-01
1.650000000000000078e-01,-3.649946667113077026e-01,-5.138237536014760715e-02,-1.989826034004228694e-01
1.660000000000000087e-01,-2.604554066059522888e-01,6.774947973225850517e-02,-2.357634426045270293e-01
1.670000000000000095e-01,-1.422109409420041215e-01,1.720518268263573070e-01,-2.497398860672772614e-01
1.680000000000000104e-01,1.489480181487995436e-02,2.675895457213833817e-01,-2.197479728320314019e-01
1.690000000000000113e-01,1.251144427625593969e-01,3.210724282712519861e-01,-1.362542740626953297e-01
1.700000000000000122e-01,2.870161746322559271e-01,3.177198516040251053e-01,-5.483522185204776217e-02
1.710000000000000131e-01,3.492664968645594614e-01,2.267589222784536784e-01,1.813027295218749141e-02
1.719999999999999862e-01,3.618020690458478295e-01,1.698259485249092871e-01,1.508587072123649953e-01
1.729999999999999871e-01,3.663278171002364303e-01,1.562003347975377855e-02,1.652268719073002046e-01
1.739999999999999880e-01,2.844546721413133694e-01,-8.824249327579523905e-02,2.402226991245641485e-01
1.749999999999999889e-01,1.287645924024055366e-01,-2.050465250904818515e-01,2.280505428138796808e-01
1.759999999999999898e-01,3.382559390313590736e-02,-2.595986698797356218e-01,2.066713711100786610e-01
1.769999999999999907e-01,-1.641060844133808427e-01,-3.069045737742409630e-01,1.436986835589175449e-01
1.779999999999999916e-01,-2.908080442952789557e-01,-3.126161153152093863e-01,7.870135723604190781e-02
1.789999999999999925e-01,-3.490798235472593047e-01,-2.353749958775443740e-01,-1.519017659818129931e-02
1.799999999999999933e-01,-3.813406618687044669e-01,-1.588274094359405086e-01,-1.164061319935816713e-01
1.809999999999999942e-01,-3.778229052514637254e-01,-4.515314835975622887e-02,-1.790843195783550501e-01
1.819999999999999951e-01,-3.175371479940614639e-01,1.066842484212566777e-01,-2.295100227337413257e-01
1.829999999999999960e-01,-1.945478784458918309e-01,1.882465466679864863e-01,-2.334635564014797826e-01
1.839999999999999969e-01,2.795419683460018123e-02,2.742947967438914558e-01,-1.958962235092928106e-01
1.849999999999999978e-01,1.364808040993991944e-01,3.235744194119810069e-01,-1.566765968092363182e-01
1.859999999999999987e-01,2.476541951538041852e-01,3.105390455751009249e-01,-7.311570382014256908e-02
1.869999999999999996e-01,3.444130718052793028e-01,2.543151539896962299e-01,1.480284187568410917e-02
1.880000000000000004e-01,3.890560671045949492e-01,1.425622623592240346e-01,1.104253543209206406e-01
1.890000000000000013e-01,3.454915953904679204e-01,5.406520689871373991e-02,1.439743640021216298e-01
1.900000000000000022e-01,3.386274889257028797e-01,-1.004741018639895705e-01,2.317217055374102275e-01
1.910000000000000031e-01,1.705082742428008502e-01,-2.126812709701560999e-01,2.588284059610609922e-01
1.920000000000000040e-01,8.094725854323505916e-04,-2.642467433170230806e-01,2.566333297150701354e-01
1.930000000000000049e-01,-1.614579238738524658e-01,-2.826337571302819374e-01,1.762812195926369840e-01
1.940000000000000058e-01,-2.429206027264774470e-01,-2.828415986530626869e-01,1.019086112254278531e-01
1.950000000000000067e-01,-3.450674170901503746e-01,-2.571603838319108659e-01,6.569353474378507828e-03
1.960000000000000075e-01,-3.880918003585154819e-01,-1.529056874085347462e-01,-9.683487126703584080e-02
1.970000000000000084e-01,-3.590610971723755540e-01,-2.694756817802720916e-02,-1.250921363845563794e-01
1.980000000000000093e-01,-3.123428972607292797e-01,7.970182168370584797e-02,-2.329009970909003691e-01
1.990000000000000102e-01,-1.672084620257162091e-01,1.686206973439124124e-01,-2.300806807044972202e-01
2.000000000000000111e-01,-4.567789059694118275e-02,2.808663919068666859e-01,-2.029075954410709259e-01
2.010000000000000120e-01,1.499393563482014635e-01,3.080877418662172906e-01,-1.954696576553225651e-01
2.020000000000000129e-01,2.217405562864960822e-01,3.044336120376246457e-01,-9.850253222859083058e-02
2.030000000000000138e-01,3.375182275829866629e-01,2.152056830460918058e-01,-9.774939133292262494e-03
2.039999999999999869e-01,4.182227014707869395e-01,1.715911556550379080e-01,7.847161850559533636e-02
2.049999999999999878e-01,3.820359407158777643e-01,2.902747523096239554e-02,1.421237970039470055e-01
2.059999999999999887e-01,3.473816351852655471e-01,-8.945001967293607359e-02,2.017373431787629900e-01
2.069999999999999896e-01,1.910923431529225891e-01,-2.043657877902086417e-01,2.319697824198074243e-01
2.079999999999999905e-01,2.669366549975387207e-02,-2.775079402096093939e-01,2.323459355105496060e-01
2.089999999999999913e-01,-9.116642905551851361e-02,-2.924634361696105689e-01,2.095626119647047425e-01
2.099999999999999922e-01,-2.060211607854710580e-01,-3.191417109666588314e-01,1.434693655168369220e-01
2.109999999999999931e-01,-3.314569867346623400e-01,-2.534136661332467844e-01,3.689690792902110272e-02
2.119999999999999940e-01,-3.568914085741429210e-01,-1.609000509330586748e-01,-6.756011621275496981e-02
2.129999999999999949e-01,-3.829535585288373345e-01,-4.583523685060858499e-02,-1.105723847803222470e-01
2.139999999999999958e-01,-3.292245164634085008e-01,8.047504974719102422e-02,-2.285075876585337673e-01
2.149999999999999967e-01,-1.905315981993467023e-01,1.931389716725800121e-01,-2.558035761885314452e-01
2.159999999999999976e-01,-8.308574145368317898e-02,2.245286834628913153e-01,-2.234399884677686909e-01
2.169999999999999984e-01,1.042610843304517115e-01,2.962148072912973440e-01,-2.167728302026076248e-01
2.179999999999999993e-01,2.114821344545290416e-01,3.010117617843307003e-01,-1.463541658983814886e-01
2.190000000000000002e-01,3.156670358911931595e-01,2.467727053504954193e-01,-5.058733436404294626e-02
2.200000000000000011e-01,3.735995189237068526e-01,1.368795520041704850e-01,3.298175228595942587e-02
2.210000000000000020e-01,3.937719612157271620e-01,2.726603414056463087e-02,9.041077348698788041e-02
2.220000000000000029e-01,3.170885931547120506e-01,-7.039819171164332645e-02,2.180333290195869966e-01
2.230000000000000038e-01,1.947817448617408798e-01,-1.827297194378076362e-01,2.448797986375707836e-01
2.240000000000000047e-01,7.369341985679012108e-02,-2.988059646248341639e-01,2.479979147457778976e-01
2.250000000000000056e-01,-7.107814159692409095e-02,-3.156839428797448832e-01,1.938755507027400404e-01
2.260000000000000064e-01,-2.321983259525423338e-01,-2.637560750623921813e-01,1.529814788158070926e-01
2.270000000000000073e-01,-3.164609842277336660e-01,-2.395066926970687293e-01,6.224365880796898370e-02
2.280000000000000082e-01,-4.077767653930391978e-01,-1.358008763257500251e-01,-4.080103133277702271e-02
2.290000000000000091e-01,-3.914099905015444580e-01,-3.844006747819788544e-02,-8.074402926970561389e-02
2.300000000000000100e-01,-3.427554876376140425e-01,8.148019763292513318e-02,-1.836467079635853150e-01
2.310000000000000109e-01,-2.448891504142860776e-01,2.143046548789457328e-01,-2.180743946414979983e-01
2.320000000000000118e-01,-9.245590178779902746e-02,2.880166558025633039e-01,-2.446380968478620022e-01
2.330000000000000127e-01,6.592525826284492685e-02,3.331420368627167616e-01,-2.312647209813614158e-01
2.340000000000000135e-01,2.072125117360052449e-01,3.147728052358646500e-01,-1.455162433170925917e-01
2.349999999999999867e-01,2.861302662969028021e-01,2.686355170033802309e-01,-7.163201352510480124e-02
2.359999999999999876e-01,3.795463770182830876e-01,1.202524780616671396e-01,-3.090227105510281688e-04
2.369999999999999885e-01,3.907617555814889565e-01,3.729048986791530518e-02,6.515372546776689033e-02
2.379999999999999893e-01,3.275677456226241402e-01,-8.513628138105722165e-02,1.799191324101032108e-01
2.389999999999999902e-01,2.295651288379059740e-01,-1.782087446269701170e-01,2.016048426217427747e-01
2.399999999999999911e-01,9.201665536091856168e-02,-2.612403705119466513e-01,2.640359092247360207e-01
2.409999999999999920e-01,-6.867274034976042496e-02,-2.885579823536710831e-01,2.205536702275354977e-01
2.419999999999999929e-01,-2.065385296056223841e-01,-2.853889530458020296e-01,1.861307111130243441e-01
2.429999999999999938e-01,-3.317991879361664176e-01,-2.134981394023064138e-01,9.900667959321872436e-02
2.439999999999999947e-01,-3.814796595357275444e-01,-1.631699072405225215e-01,1.948691063409705229e-02
2.449999999999999956e-01,-3.872457349522279157e-01,-2.431533862664029058e-02,-8.960404819732148418e-02
2.459999999999999964e-01,-3.630253987335844701e-01,6.777358255209180171e-02,-1.630670427109950638e-01
2.469999999999999973e-01,-2.666520273581347023e-01,2.141218880744693298e-01,-2.076290921017314994e-01
2.479999999999999982e-01,-1.032025564419030567e-01,2.487295433010240642e-01,-2.369414470199943945e-01
2.489999999999999991e-01,2.105360404271983121e-02,3.083556769062701375e-01,-2.238843649942881264e-01
2.500000000000000000e-01,1.874529723317903962e-01,3.000217481907293537e-01,-1.908805240827816385e-01
2.510000000000000009e-01,3.107100900981938918e-01,2.564996125040208685e-01,-1.117292042176896566e-01
2.520000000000000018e-01,3.849805272052919669e-01,1.682474311004953371e-01,-2.157797726127625576e-02
2.530000000000000027e-01,3.963802107233868610e-01,2.605715020249650335e-02,8.101315788919784266e-02
2.540000000000000036e-01,3.266579368427792174e-01,-1.086810792404096226e-01,1.319222108969037299e-01
2.550000000000000044e-01,2.315978516126067921e-01,-1.892954290662886563e-01,2.214861151677975926e-01
2.560000000000000053e-01,6.914342992133296062e-02,-2.612706707994255084e-01,2.362492464846922269e-01
2.570000000000000062e-01,-2.671325249943830998e-02,-2.986169078497206697e-01,2.250183897808630262e-01
2.580000000000000071e-01,-1.442405898166706779e-01,-3.035992521665299426e-01,1.678393967431440204e-01
2.590000000000000080e-01,-2.875786793761648252e-01,-2.701243002771320234e-01,9.671123244803959962e-02
2.600000000000000089e-01,-3.509492497279345646e-01,-1.867453282917527768e-01,4.390790928482838501e-02
2.610000000000000098e-01,-3.849618866085727786e-01,-4.871153948289379948e-02,-5.996275686315753056e-02
2.620000000000000107e-01,-3.510096753385757440e-01,9.612469459729318377e-02,-1.498399685691776118e-01
2.630000000000000115e-01,-2.541545871192983919e-01,1.895526228324287688e-01,-1.706256069431614508e-01
2.640000000000000124e-01,-1.303093421549691988e-01,2.952203391522100207e-01,-2.607658821623350942e-01
2.650000000000000133e-01,4.032181001312912239e-02,2.890235378890255169e-01,-2.403350958318636599e-01
2.660000000000000142e-01,1.612608356494615869e-01,2.681290819939357584e-01,-2.265137476431376695e-01
2.670000000000000151e-01,2.861327153379825128e-01,2.581446148735805912e-01,-1.472960741695476805e-01
2.680000000000000160e-01,3.435626986526958970e-01,1.495319201604957404e-01,-8.076728694723048219e-02
2.690000000000000169e-01,4.090707538351132100e-01,4.888787983679582227e-02,4.318697550540821078e-02
2.700000000000000178e-01,3.632474010390551733e-01,-7.223421383131660434e-02,1.236980118006201917e-01
2.710000000000000187e-01,2.695824261414820899e-01,-2.271421893542112103e-01,1.902599658921319825e-01
2.720000000000000195e-01,1.331970930227641958e-01,-2.773114944045379504e-01,2.362818881500605428e-01
2.730000000000000204e-01,4.380050945373306463e-04,-2.940832827380586711e-01,2.179132628713235931e-01
2.740000000000000213e-01,-1.501169042135251375e-01,-2.747413999320986733e-01,1.756015394113750738e-01
2.750000000000000222e-01,-2.944214840023212654e-01,-2.438113283533098474e-01,1.592819875412412323e-01
2.760000000000000231e-01,-3.421298549528349886e-01,-1.736746250981208717e-01,5.312654628528114265e-02
2.770000000000000240e-01,-3.749400853462754868e-01,-2.534364256131969168e-02,-2.618623009944374622e-02
2.780000000000000249e-01,-3.550923176849060670e-01,1.102359955801426455e-01,-8.743231784040469967e-02
2.790000000000000258e-01,-2.575454829764470266e-01,2.208343475077109708e-01,-1.820552120804387886e-01
2.800000000000000266e-01,-1.650802485600592340e-01,2.905634851840880328e-01,-2.233565411424035529e-01
2.810000000000000275e-01,3.987239423152824473e-03,3.439996344342889367e-01,-2.478711643325110237e-01
2.819999999999999729e-01,1.601759590782812492e-01,2.869869511102895454e-01,-1.968722279469892200e-01
2.829999999999999738e-01,2.803730735026624954e-01,2.566614824252980709e-01,-1.647557900942976106e-01
2.839999999999999747e-01,3.498944348186071029e-01,1.505264972533246481e-01,-7.103387819136661174e-02
2.849999999999999756e-01,3.935085732327749386e-01,7.711053514393517196e-03,4.270071387972474569e-02
2.859999999999999765e-01,3.554251762681852056e-01,-7.660742342051478360e-02,9.453116010214031306e-02
2.869999999999999774e-01,2.831759870765577780e-01,-1.812184751206196986e-01,1.654451476773694252e-01
2.879999999999999782e-01,1.492140047959513993e-01,-2.914194693446270912e-01,2.055406193378412072e-01
2.889999999999999791e-01,1.335056912868336915e-02,-3.014465627652135882e-01,2.349750117330619004e-01
2.899999999999999800e-01,-1.486756778571955706e-01,-2.952205151519216586e-01,2.384782906825279047e-01
2.909999999999999809e-01,-2.554078622024132939e-01,-2.360873273769757141e-01,1.408995220423390760e-01
2.919999999999999818e-01,-3.299916558264713862e-01,-1.360401343086662662e-01,6.872362758546461670e-02
2.929999999999999827e-01,-3.867723570582964898e-01,-5.261169844602187756e-02,-1.113929862058218694e-02
2.939999999999999836e-01,-3.770318195915340342e-01,9.563627835800946053e-02,-1.254765803851083938e-01
2.949999999999999845e-01,-2.628124453222183132e-01,2.039472473909270389e-01,-1.718018462035489635e-01
2.959999999999999853e-01,-1.442898663857240804e-01,2.499308593803907796e-01,-2.286940967976029693e-01
2.969999999999999862e-01,-4.702647777723334421e-02,3.151403764090913717e-01,-2.372874494165554127e-01
2.979999999999999871e-01,1.306425862261010040e-01,2.856061191852624637e-01,-2.222092691470232417e-01
2.989999999999999880e-01,2.439999155988261392e-01,2.600338449496675253e-01,-2.050297288327528888e-01
2.999999999999999889e-01,3.441412292669193129e-01,1.572628981995242148e-01,-1.370539922058875149e-01
3.009999999999999898e-01,3.799525468102034065e-01,3.010283229456132276e-02,-1.239834472487574141e-02
3.019999999999999907e-01,3.606692198644799174e-01,-9.062026573023261589e-02,6.791956606651387840e-02
3.029999999999999916e-01,3.217982752331495777e-01,-1.923971845142719572e-01,1.393265289297113962e-01
3.039999999999999925e-01,1.354299426775927295e-01,-2.788100409789944778e-01,2.147380351989750802e-01
3.049999999999999933e-01,3.318247821958154875e-02,-3.019156163601432463e-01,2.434986885223222042e-01
3.059999999999999942e-01,-1.470433320792355891e-01,-3.110984903666546564e-01,2.197861976461958911e-01
3.069999999999999951e-01,-2.296167516443148038e-01,-2.533079040573606999e-01,1.863001862223987448e-01
3.079999999999999960e-01,-3.163165161680104864e-01,-1.440633322665325899e-01,1.006151074854807204e-01
3.089999999999999969e-01,-3.706544021885145868e-01,-4.368276396226953087e-03,1.102026232924487384e-02
3.099999999999999978e-01,-3.803334058435983711e-01,9.739009839150275516e-02,-9.468523849024186589e-02
3.109999999999999987e-01,-2.714775734066436352e-01,1.874829677705394382e-01,-1.575003451694068357e-01
3.119999999999999996e-01,-2.028213424630910255e-01,2.779906946832393366e-01,-1.828088892670106935e-01
3.130000000000000004e-01,-3.862359942800658308e-02,3.189679859237108950e-01,-1.976141195380799187e-01
3.140000000000000013e-01,1.131525717228542699e-01,3.174048775650853971e-01,-2.085963972451445325e-01
3.150000000000000022e-01,2.215142477144503574e-01,2.486197356478255793e-01,-1.783316356175707051e-01
3.160000000000000031e-01,3.440610655785536487e-01,1.487396770343180075e-01,-1.133661799434316775e-01
3.170000000000000040e-01,3.904631547527491198e-01,4.020043206199526431e-02,-5.792587078823330932e-02
3.180000000000000049e-01,3.846468540416935200e-01,-1.104564065332752781e-01,2.516856211562869261e-02
3.190000000000000058e-01,2.767043482038296087e-01,-1.878096154689274933e-01,1.485636765845065044e-01
3.200000000000000067e-01,2.089623218603790800e-01,-2.671846159697988110e-01,2.130901213811581818e-01
3.210000000000000075e-01,5.886954931233066846e-02,-3.348888408950697615e-01,2.102246623296729344e-01
3.220000000000000084e-01,-9.442449995213829383e-02,-3.107859486529073179e-01,2.282186461411749578e-01
3.230000000000000093e-01,-2.204659001692731435e-01,-2.311731254196948415e-01,1.834692478494350798e-01
3.240000000000000102e-01,-3.125008636515797522e-01,-1.536967136245086796e-01,1.403985191232284824e-01
3.250000000000000111e-01,-3.779430910479706918e-01,-1.324638967121654319e-02,4.349931582177447159e-02
3.260000000000000120e-01,-3.734198087445544378e-01,1.026397974838847149e-01,-7.239247402626357297e-02
3.270000000000000129e-01,-2.986378971261098858e-01,1.913336365000773975e-01,-1.289675594433560835e-01
3.280000000000000138e-01,-2.348367188740842215e-01,2.573201526853085008e-01,-1.634741556240956184e-01
3.290000000000000147e-01,-7.340271700913021669e-02,2.940939296057936692e-01,-2.316765137450308154e-01
3.300000000000000155e-01,9.716424946775188698e-02,2.643913019886390825e-01,-2.177700738763496680e-01
3.310000000000000164e-01,2.068480962985364546e-01,2.182724674992158609e-01,-2.031331149441948647e-01
3.320000000000000173e-01,3.386678505102092562e-01,1.595652729319260443e-01,-1.296697161367801332e-01
3.330000000000000182e-01,3.803930665969156300e-01,2.197773669804566066e-02,-9.212738269144711556e-02
3.340000000000000191e-01,3.841600450070988271e-01,-1.235016575883582240e-01,8.007098910627299948e-03
3.350000000000000200e-01,3.187786874646610924e-01,-1.904436362905825020e-01,1.006912141611295552e-01
3.360000000000000209e-01,2.500603840816169043e-01,-2.874617295686049401e-01,1.704275062014633801e-01
3.370000000000000218e-01,5.071192877367523139e-02,-3.012745126336534573e-01,2.239101504416412813e-01
3.380000000000000226e-01,-9.566472667780417938e-02,-3.356327495486070012e-01,2.105743776346452600e-01
3.390000000000000235e-01,-2.226082935572858412e-01,-2.317000395592653805e-01,2.120933188825901150e-01
3.400000000000000244e-01,-3.013642827241012068e-01,-1.689960734851253810e-01,1.635991944350324301e-01
3.410000000000000253e-01,-3.726399263008774998e-01,-2.786327774495059306e-02,1.020878550533395324e-01
3.420000000000000262e-01,-3.906743790616082346e-01,9.156374138656343808e-02,-4.368306248741832438e-03
3.430000000000000271e-01,-3.333131299192174657e-01,2.011783232513512654e-01,-1.049768979203115210e-01
3.439999999999999725e-01,-2.229542677137983930e-01,2.979085693883451458e-01,-1.673903613331604312e-01
3.449999999999999734e-01,-6.391189779863361287e-02,3.193248834451541951e-01,-2.088524308612670077e-01
3.459999999999999742e-01,8.896347884132091433e-02,2.897610144169746604e-01,-2.430082861227822189e-01
3.469999999999999751e-01,2.050620752512771205e-01,2.534090340944172848e-01,-2.210467924368911541e-01
3.479999999999999760e-01,3.256971658419826054e-01,1.674193248370111353e-01,-1.903936524695561683e-01
3.489999999999999769e-01,3.774899523038277582e-01,3.023368582435797744e-02,-9.970914677385486757e-02
3.499999999999999778e-01,3.836675613082835001e-01,-1.158114606515898426e-01,-2.772860090796513965e-02
3.509999999999999787e-01,3.229086387241286160e-01,-2.232288742797111369e-01,8.811126655212676850e-02
3.519999999999999796e-01,2.304972129754423449e-01,-2.981067651708030342e-01,1.784321918443922128e-01
3.529999999999999805e-01,7.925876103594690913e-02,-3.039782098023789403e-01,2.154014334508645434e-01
3.539999999999999813e-01,-2.399421739341304344e-02,-2.885284008620865870e-01,2.316620685258750922e-01
3.549999999999999822e-01,-2.066611868719878953e-01,-2.373012997631248344e-01,2.168814901845798060e-01
3.559999999999999831e-01,-3.063178997296962525e-01,-1.324502664014403086e-01,1.648780764422935197e-01
3.569999999999999840e-01,-3.560379829300976406e-01,-2.421783408392916975e-02,8.519136716245634400e-02
3.579999999999999849e-01,-3.917341157792066930e-01,8.949382346908199559e-02,1.932282815991205605e-02
3.589999999999999858e-01,-3.258149719837946101e-01,2.148886657588782167e-01,-5.992246857850848374e-02
3.599999999999999867e-01,-2.189292572248870694e-01,2.756659609347884565e-01,-1.542268453156149799e-01
3.609999999999999876e-01,-1.101696626724499861e-01,2.877787274503709192e-01,-1.938044611798886707e-01
3.619999999999999885e-01,2.948361733065749460e-02,2.872017849136501155e-01,-2.323950788618445729e-01
3.629999999999999893e-01,1.760430683274679664e-01,2.097368981878789396e-01,-2.381266437633648980e-01
3.639999999999999902e-01,2.965936615327803838e-01,1.326616715913467304e-01,-1.710374410757326546e-01
3.649999999999999911e-01,3.655109447332194894e-01,3.060020513919360641e-02,-1.232442774111905115e-01
3.659999999999999920e-01,4.076404507568916480e-01,-1.157138910488356431e-01,-2.793975758324191219e-02
3.669999999999999929e-01,3.427997363425163146e-01,-1.731898789550298245e-01,5.708387428886319698e-02
3.679999999999999938e-01,2.875885977816015071e-01,-2.758649619817690746e-01,1.402768567107038344e-01
3.689999999999999947e-01,1.085701711063341429e-01,-3.461246503507995342e-01,2.181615039188099792e-01
3.699999999999999956e-01,-1.112473387292101795e-02,-2.959954450816406069e-01,2.242862400973473502e-01
3.709999999999999964e-01,-1.790496708156630590e-01,-2.579991112184694679e-01,2.545072735049077051e-01
3.719999999999999973e-01,-3.099684341201211502e-01,-1.035223984102685568e-01,1.955382803603580577e-01
3.729999999999999982e-01,-3.789149514954939235e-01,-4.063080226005304912e-02,1.122817709857775320e-01
3.739999999999999991e-01,-3.694535848416165558e-01,8.647709510889163564e-02,2.806105374246664619e-02
3.750000000000000000e-01,-3.864977634440521226e-01,2.032059940611365689e-01,-4.714921559739068679e-02
3.760000000000000009e-01,-2.518715221835327034e-01,2.715779584373366751e-01,-1.485193018934440889e-01
3.770000000000000018e-01,-1.280672370216112965e-01,2.880932868437742211e-01,-1.884395799147380868e-01
3.780000000000000027e-01,2.228682795746763159e-02,2.865967656650396655e-01,-2.006286309989173400e-01
3.790000000000000036e-01,1.743751595453973957e-01,2.341996999639198718e-01,-2.157703181785777247e-01
3.800000000000000044e-01,2.629600465636893758e-01,1.497606208961987095e-01,-2.086789444217137801e-01
3.810000000000000053e-01,3.792968815959470996e-01,3.037288630880049384e-02,-1.531881076352249738e-01
3.820000000000000062e-01,3.910219450902699956e-01,-1.010146195912903500e-01,-5.865184707501344685e-02
3.830000000000000071e-01,3.414071242379865812e-01,-2.320454822334131473e-01,1.612860201802893134e-02
3.840000000000000080e-01,2.556672939715730619e-01,-3.021848225917901920e-01,1.347973411801038357e-01
3.850000000000000089e-01,1.471332756758065297e-01,-2.797879891306040978e-01,1.835200541673551733e-01
3.860000000000000098e-01,-1.979976166991157666e-02,-2.914194225290399620e-01,2.504617540000291243e-01
3.870000000000000107e-01,-1.371755189281618215e-01,-2.576669826561144294e-01,2.229039291422706681e-01
3.880000000000000115e-01,-2.952553633431564406e-01,-1.157889913846943675e-01,1.832776727272369954e-01
3.890000000000000124e-01,-3.697211498337922286e-01,-1.120625409656787405e-02,1.334351973905978095e-01
3.900000000000000133e-01,-3.865590175647174997e-01,1.440363871120833028e-01,1.108976304012313924e-01
3.910000000000000142e-01,-3.322820430532253400e-01,2.132518417573543157e-01,-1.232061283127532103e-02
3.920000000000000151e-01,-2.606834750457012739e-01,2.650462543763777434e-01,-1.075772665261854610e-01
3.930000000000000160e-01,-1.452648370352936369e-01,3.234668317810821536e-01,-1.694022857029516271e-01
3.940000000000000169e-01,1.027909656353587567e-02,3.138098287051998003e-01,-2.392809716707277878e-01
3.950000000000000178e-01,1.247872245492456234e-01,2.669232342263953561e-01,-2.404081849837265694e-01
3.960000000000000187e-01,2.595431140151329141e-01,1.342607535479808656e-01,-2.420939667658929817e-01
3.970000000000000195e-01,3.710270907413916186e-01,3.696584055269524355e-02,-1.454204252489155746e-01
3.980000000000000204e-01,3.786014428046351465e-01,-8.839270497783485725e-02,-6.587564464231761285e-02
3.990000000000000213e-01,3.744744116995600836e-01,-2.140215083136365881e-01,6.184267538362933463e-05
4.000000000000000222e-01,3.042863015631890322e-01,-2.634183380461282975e-01,7.929351511857254953e-02
4.010000000000000231e-01,1.914640521224953151e-01,-2.649097923694581636e-01,1.714284088961539609e-01
4.020000000000000240e-01,-8.923114611983475400e-03,-3.084819588129337209e-01,2.025143329448363116e-01
4.030000000000000249e-01,-1.181190610670900254e-01,-1.956432634560917594e-01,2.421956799857285236e-01
4.040000000000000258e-01,-2.831180695128805436e-01,-1.530479687991948001e-01,2.299911628353297766e-01
4.050000000000000266e-01,-3.285914901292709134e-01,1.116089509286223884e-03,1.823272396434414688e-01
4.060000000000000275e-01,-3.871580584816449733e-01,1.050615229219507424e-01,9.483988885381586242e-02
4.069999999999999729e-01,-3.775606191952530222e-01,1.925844944175959528e-01,1.721970092542485231e-02
4.079999999999999738e-01,-2.798355057303035243e-01,2.685419347514748645e-01,-1.056961906503001286e-01
4.089999999999999747e-01,-1.645731405839549466e-01,3.305481570834180038e-01,-1.590396618387203420e-01
4.099999999999999756e-01,-3.055729944328147013e-02,3.333230479419211356e-01,-2.167919875247480976e-01
4.109999999999999765e-01,1.244180367929040576e-01,2.425593447158645999e-01,-2.408608961034321427e-01
4.119999999999999774e-01,2.456698285993104414e-01,1.581990863456440022e-01,-2.247208734619310644e-01
4.129999999999999782e-01,3.651294230121358009e-01,-1.507600174700783092e-02,-1.711255589699888224e-01
4.139999999999999791e-01,3.928714865274376966e-01,-1.188449382181285263e-01,-1.013426661664752065e-01
4.149999999999999800e-01,3.574476064496100447e-01,-2.261221285146179094e-01,-3.663887660615895714e-02
4.159999999999999809e-01,2.693093566287860230e-01,-2.712413486428916221e-01,7.108600372848275506e-02
4.169999999999999818e-01,1.989465024643194691e-01,-3.045209851836179205e-01,1.493117542416850796e-01
4.179999999999999827e-01,3.480139393885095522e-02,-2.681828344046136570e-01,2.205792878546853630e-01
4.189999999999999836e-01,-1.071114929425091844e-01,-2.324126777558542245e-01,2.495321735549309861e-01
4.199999999999999845e-01,-2.477625164104555744e-01,-1.386229516410796558e-01,2.485085845627059420e-01
4.209999999999999853e-01,-3.588779979522233599e-01,-1.683912069467078526e-02,1.892566026630556619e-01
4.219999999999999862e-01,-3.962695880368378720e-01,8.734528841178808289e-02,1.290746633176961811e-01
4.229999999999999871e-01,-3.857081786562977510e-01,1.971415980013339342e-01,2.118012081480317998e-02
4.239999999999999880e-01,-2.938507103734963599e-01,2.664658349256117109e-01,-4.303592960397115835e-02
4.249999999999999889e-01,-1.622707331117922980e-01,3.216746713168935345e-01,-1.368103064622235021e-01
4.259999999999999898e-01,-5.209775895645241128e-02,3.008981836550289612e-01,-1.834485498568859951e-01
4.269999999999999907e-01,1.081536892698005126e-01,2.257166516100705955e-01,-2.666545877916714491e-01
4.279999999999999916e-01,2.707476894422984337e-01,1.763261022806956735e-01,-2.329241926209058844e-01
4.289999999999999925e-01,3.063609680519920886e-01,2.547800205740315127e-02,-1.850559744043591970e-01
4.299999999999999933e-01,3.640647502368560828e-01,-9.495424094634025147e-02,-1.484730104165740694e-01
4.309999999999999942e-01,3.590577246110814302e-01,-2.473903996681899309e-01,-6.228652864400403832e-02
4.319999999999999951e-01,3.255987582537240854e-01,-2.936883280720018474e-01,4.664597097479068061e-02
4.329999999999999960e-01,1.928371059755357719e-01,-2.886559123868699950e-01,1.249722522693409998e-01
4.339999999999999969e-01,6.051315159547113881e-02,-2.679623897468912941e-01,2.189488242951977692e-01
4.349999999999999978e-01,-1.097948513392713460e-01,-2.339395758568556527e-01,2.089525941130898623e-01
4.359999999999999987e-01,-2.576434758670868019e-01,-1.322580480802308112e-01,2.021121065068828826e-01
4.369999999999999996e-01,-3.161118719669707700e-01,4.190164520923714882e-04,1.606817267884267930e-01
4.380000000000000004e-01,-3.854573343451462852e-01,1.388443432692781643e-01,1.297553877632864061e-01
4.390000000000000013e-01,-3.786939670510669487e-01,2.375663887796344853e-01,5.964752777441906240e-02
4.400000000000000022e-01,-2.994602974295793585e-01,2.722581286854275917e-01,-3.589550586009505190e-02
4.410000000000000031e-01,-1.913413470617980894e-01,3.350007361515926485e-01,-8.979254414590187583e-02
4.420000000000000040e-01,-1.040985667915646090e-01,2.695368529788678691e-01,-1.820117650556876132e-01
4.430000000000000049e-01,7.038850339433286307e-02,2.326987504732312417e-01,-2.591864286635210957e-01
4.440000000000000058e-01,2.196665248357402289e-01,1.290624271524498656e-01,-2.243419398477643767e-01
4.450000000000000067e-01,3.251151731596690908e-01,2.103698145973154771e-02,-2.143700579172024556e-01
4.460000000000000075e-01,3.719564747328964471e-01,-9.425601847823969481e-02,-1.375625798535682620e-01
4.470000000000000084e-01,3.831894284735795631e-01,-1.956352155197339793e-01,-8.573613141968250417e-02
4.480000000000000093e-01,3.043535626930105598e-01,-2.741157562008755266e-01,1.331435571501899534e-02
4.490000000000000102e-01,2.494539751729893673e-01,-3.250060769827305407e-01,1.019867299288063633e-01
4.500000000000000111e-01,1.006908853478756249e-01,-2.944786993389937879e-01,1.474582574680666502e-01
4.510000000000000120e-01,-5.096442340955717465e-02,-2.220326032822181606e-01,2.193911536847422405e-01
4.520000000000000129e-01,-2.203568170868411003e-01,-1.494259841633466535e-01,2.531348486011452681e-01
4.530000000000000138e-01,-3.298741482669222402e-01,-1.899145853308098833e-02,2.075000780433119418e-01
4.540000000000000147e-01,-3.662305009742513051e-01,1.122602315274413703e-01,1.427457027270678802e-01
4.550000000000000155e-01,-3.845504874342666191e-01,2.206943941587810876e-01,1.129506068712822359e-01
4.560000000000000164e-01,-3.301006241618060777e-01,2.701386012350404098e-01,1.467337413472472388e-02
4.570000000000000173e-01,-2.474407441275733310e-01,3.242045105019547013e-01,-1.073512989621049768e-01
4.580000000000000182e-01,-1.300708413333016844e-01,2.774896489442982284e-01,-1.374745489118659181e-01
4.590000000000000191e-01,1.032727678563755136e-01,2.124508435082901325e-01,-2.243173819847213979e-01
4.600000000000000200e-01,2.139295189161315169e-01,1.350631769643307334e-01,-2.531173987060097996e-01
4.610000000000000209e-01,3.165854904864520147e-01,2.148291205030191178e-02,-2.015941053284664997e-01
4.620000000000000218e-01,3.947266429137740174e-01,-1.140253472910766896e-01,-1.622970571664985595e-01
4.630000000000000226e-01,3.838056094185093303e-01,-1.591699146379031427e-01,-8.979121633100019262e-02
4.640000000000000235e-01,3.166325372480734424e-01,-2.992874455938933087e-01,2.059158975750143700e-02
4.650000000000000244e-01,2.513314991279740895e-01,-3.157750308792278138e-01,6.101532708973877311e-02
4.660000000000000253e-01,1.081515559117529890e-01,-3.067316694439951585e-01,1.412101857377318082e-01
4.670000000000000262e-01,-5.513423844498634846e-02,-2.312812683864851060e-01,2.180785068978080832e-01
4.680000000000000271e-01,-2.228629199933885863e-01,-1.478823603457109226e-01,2.145664052420211965e-01
4.689999999999999725e-01,-2.995411586316492625e-01,-2.540419686125216028e-02,2.215585399807191991e-01
4.699999999999999734e-01,-3.833001371372514732e-01,9.935409648325911613e-02,2.234153237551131654e-01
4.709999999999999742e-01,-3.830687469033541848e-01,1.952234743599348121e-01,1.153616210074167592e-01
4.719999999999999751e-01,-3.311809960467924085e-01,2.867982912961586361e-01,8.374368873682832767e-03
4.729999999999999760e-01,-2.398958189486254944e-01,3.015770011798040162e-01,-6.903646792402337584e-02
4.739999999999999769e-01,-9.828253938589973093e-02,3.159944941517530692e-01,-1.398733468895215215e-01
4.749999999999999778e-01,4.250148586329503819e-02,2.503148903670304737e-01,-2.219836242467663756e-01
4.759999999999999787e-01,2.012815573269462199e-01,1.335690200778039682e-01,-2.295680829691635338e-01
4.769999999999999796e-01,2.993916910552171240e-01,4.896787003832427099e-03,-2.212958969944002208e-01
4.779999999999999805e-01,3.634392300120757868e-01,-9.892249028764268926e-02,-2.029096391208660699e-01
4.789999999999999813e-01,4.091306252363542395e-01,-2.212052963822142282e-01,-1.112647214879060736e-01
4.799999999999999822e-01,3.391426552264729111e-01,-3.062607989374544482e-01,-4.948226273304195261e-02
4.809999999999999831e-01,2.569488215811271403e-01,-3.163624695498827855e-01,3.954129498354980871e-02
4.819999999999999840e-01,9.108763033461640679e-02,-2.769031585873704682e-01,1.563105975539422487e-01
4.829999999999999849e-01,-2.179255794550891828e-02,-2.489590113862742426e-01,1.784467242290250777e-01
4.839999999999999858e-01,-1.924842617979334869e-01,-1.126608384969790128e-01,2.336262545349829522e-01
4.849999999999999867e-01,-2.788585334335904609e-01,-5.898750969171265290e-03,2.052006078474341855e-01
4.859999999999999876e-01,-3.599174486315225296e-01,1.077956318338149366e-01,1.714889044346586400e-01
4.869999999999999885e-01,-3.908230218672230083e-01,2.088661002666005184e-01,1.499354461274693684e-01
4.879999999999999893e-01,-3.426422034463587063e-01,2.641979921938363840e-01,8.597072501964499180e-02
4.889999999999999902e-01,-2.564182050296913706e-01,3.307380662796290949e-01,-2.320510141153993983e-02
4.899999999999999911e-01,-1.306846021948079306e-01,3.072792881400826515e-01,-1.319260725359202580e-01
4.909999999999999920e-01,-6.406055878022165299e-03,2.131121092786999183e-01,-1.694569710384145611e-01
4.919999999999999929e-01,1.569187177531730371e-01,1.457776486785562209e-01,-2.362167663974784060e-01
4.929999999999999938e-01,2.603541959611125889e-01,6.695945403851192093e-03,-2.513262039727405806e-01
4.939999999999999947e-01,3.587868580676308317e-01,-1.070084121077978234e-01,-1.977763610429213448e-01
4.949999999999999956e-01,3.945860778925724399e-01,-2.398433688581651235e-01,-1.702092717579987702e-01
4.959999999999999964e-01,3.464314817622086151e-01,-2.847777686097058836e-01,-8.373487861425830958e-02
4.969999999999999973e-01,2.796943221078403430e-01,-3.104095168861961129e-01,1.063661857461244403e-03
4.979999999999999982e-01,1.533749820212040593e-01,-2.414656529944741448e-01,1.231916701228750188e-01
4.989999999999999991e-01,-2.079740735143930513e-02,-2.273016522552107621e-01,1.706412061815163472e-01
5.000000000000000000e-01,-1.490447675204312483e-01,-1.177367109242999504e-01,2.542132370556490772e-01
5.010000000000000009e-01,-2.812988962376727353e-01,2.730706938624322816e-02,2.354879955462107211e-01
5.020000000000000018e-01,-3.542652512723869496e-01,5.088980007011059681e-02,2.186952411560718068e-01
5.030000000000000027e-01,-3.709960084979642136e-01,2.313457013434716270e-01,1.470812881603699718e-01
5.040000000000000036e-01,-3.540837808577515511e-01,2.644536865168476969e-01,7.287267584091010331e-02
5.050000000000000044e-01,-3.019274378918077595e-01,3.348172485849130187e-01,-1.463081130046827057e-02
5.060000000000000053e-01,-1.672997675786645766e-01,3.101920293860231936e-01,-9.178941753748552645e-02
5.070000000000000062e-01,-7.369818952436877832e-03,2.130339007201390300e-01,-1.534942752556295031e-01
5.080000000000000071e-01,1.645363963967279852e-01,1.037968580776019306e-01,-1.996023795175547177e-01
5.090000000000000080e-01,2.707827317523569532e-01,-1.294556714110045494e-03,-2.194370622685826167e-01
5.100000000000000089e-01,3.521984097965752403e-01,-1.249044638972437726e-01,-2.195169171194906177e-01
5.110000000000000098e-01,4.187651819017711441e-01,-2.194097796054853833e-01,-1.687997659529477945e-01
5.120000000000000107e-01,3.748377556109830921e-01,-2.750024858377340120e-01,-9.671669047344036430e-02
5.130000000000000115e-01,3.058754020034822885e-01,-3.182559749351411282e-01,1.864739506700742455e-02
5.140000000000000124e-01,1.543444368546357248e-01,-2.988019765767702673e-01,8.540118295679570426e-02
5.150000000000000133e-01,2.234205274046516601e-02,-2.352337258772384809e-01,1.639452820888462337e-01
5.160000000000000142e-01,-1.457376988299332043e-01,-1.302681386886061499e-01,1.851239723050777108e-01
5.170000000000000151e-01,-2.512876173339765318e-01,-3.504969126547494152e-02,2.352913462025368052e-01
5.180000000000000160e-01,-3.494943622705678488e-01,1.168936577057517329e-01,2.065944218279469891e-01
5.190000000000000169e-01,-4.109702571334729604e-01,2.150854960872537747e-01,1.695539420334956915e-01
5.200000000000000178e-01,-3.775970875304431318e-01,3.047133266653064276e-01,1.122003378419828140e-01
5.210000000000000187e-01,-3.027920126254726729e-01,2.940001256066139823e-01,2.875678563154788342e-02
5.220000000000000195e-01,-1.543095657116757835e-01,2.929237559947475145e-01,-1.503661947572483733e-02
5.230000000000000204e-01,-2.643468147221880726e-02,2.303225402120605558e-01,-1.584355554966845048e-01
5.240000000000000213e-01,1.362671851976148263e-01,1.419170710510012090e-01,-2.200770098927953833e-01
5.250000000000000222e-01,2.535174297730135584e-01,-9.800665651740726129e-04,-2.527092038493455317e-01
5.260000000000000231e-01,3.309816867054931055e-01,-1.362067334609831371e-01,-2.362346298562189029e-01
5.270000000000000240e-01,3.866408951016486184e-01,-1.947150829415406070e-01,-2.109384438035924181e-01
5.280000000000000249e-01,3.741595619943062778e-01,-3.176719535226338320e-01,-1.053916641603614146e-01
5.290000000000000258e-01,2.820719056022278348e-01,-2.963367897959404695e-01,-3.425909729863511888e-02
5.300000000000000266e-01,1.672873178163772068e-01,-3.029749806076499907e-01,7.045069261031831898e-02
5.310000000000000275e-01,2.250047694998588005e-02,-2.414300610880839304e-01,1.351261231023269949e-01
5.320000000000000284e-01,-1.427719142461071622e-01,-1.612840756757505101e-01,2.430633459645270555e-01
5.330000000000000293e-01,-2.559398091339883941e-01,-2.945904023218142917e-02,2.461516542820876008e-01
5.340000000000000302e-01,-3.606305395321626750e-01,1.242599022782677615e-01,2.396231303308644922e-01
5.350000000000000311e-01,-3.910475736558602922e-01,2.117133409615485351e-01,1.749413751599551703e-01
5.360000000000000320e-01,-3.577250709619865798e-01,2.928076679232107793e-01,1.226560770441290360e-01
5.370000000000000329e-01,-2.866801126341451122e-01,3.283700867068524709e-01,5.561946047093323242e-02
5.380000000000000338e-01,-2.022120291782408541e-01,3.018791862089916789e-01,-3.051091983054863427e-02
5.390000000000000346e-01,-4.670046903958544049e-02,2.143953134382320380e-01,-1.309361104481103766e-01
5.400000000000000355e-01,1.263846803944101982e-01,1.125145498036237424e-01,-2.134035972353494903e-01
5.410000000000000364e-01,2.309808188072499380e-01,2.399157600869861878e-02,-2.387041707949751623e-01
5.420000000000000373e-01,3.337296198023639304e-01,-1.298191628889255600e-01,-2.450966108026267631e-01
5.430000000000000382e-01,3.608746843864050202e-01,-1.921029978930051119e-01,-1.866979293202890022e-01
5.440000000000000391e-01,3.581033575745705688e-01,-2.884510227079068456e-01,-1.642115884221959643e-01
5.450000000000000400e-01,2.859086239285614783e-01,-3.211474307838858011e-01,-7.531767046211727823e-02
5.460000000000000409e-01,2.036838919520261859e-01,-2.583412484373516782e-01,5.083876498386851600e-02
5.470000000000000417e-01,5.050923221606837960e-02,-2.315622439605217742e-01,1.022756359523921965e-01
5.480000000000000426e-01,-8.997302432080096779e-02,-1.522328257583629718e-01,1.894257286857203570e-01
5.490000000000000435e-01,-2.242940446645270702e-01,-1.434546922099558253e-02,2.313268967027145573e-01
5.500000000000000444e-01,-3.139359853863464278e-01,1.147902187566991888e-01,2.015081839684411957e-01
5.510000000000000453e-01,-4.139092881626953435e-01,1.959687890559164425e-01,2.118297065056729267e-01
5.520000000000000462e-01,-3.737571398062402017e-01,2.677833083556255267e-01,1.843529095625560943e-01
5.530000000000000471e-01,-3.340475927443340987e-01,3.006240764807535659e-01,7.373687658229649555e-02
5.540000000000000480e-01,-2.027725433528961285e-01,2.712764152897478298e-01,-8.576935992403764142e-03
5.550000000000000488e-01,-5.818571300039547534e-02,2.011926418579708942e-01,-8.564179975238700449e-02
5.560000000000000497e-01,1.226902764976912918e-01,1.518133927920773951e-01,-1.718690154703645945e-01
5.570000000000000506e-01,2.140167046453006483e-01,1.865621259534910870e-02,-2.178767210788961906e-01
5.580000000000000515e-01,3.256517478310280711e-01,-1.422572300768976117e-01,-2.354142603832081182e-01
5.590000000000000524e-01,3.805138341106781841e-01,-2.284170877891492923e-01,-1.948195165421358621e-01
5.600000000000000533e-01,3.890726993614826434e-01,-2.930150853554004398e-01,-1.607978335112675849e-01
5.610000000000000542e-01,3.168461651435210968e-01,-3.145987430490767567e-01,-9.395529159587978629e-02
5.620000000000000551e-01,1.987114859626518126e-01,-2.943041768518974699e-01,1.001971292525085169e-02
5.629999999999999449e-01,8.084846678728979663e-02,-2.021936186359186427e-01,8.294155529764857260e-02
5.639999999999999458e-01,-8.356669926782832325e-02,-9.380907773861087151e-02,2.118990127991876304e-01
5.649999999999999467e-01,-2.160849915150365452e-01,-4.784467134286407228e-03,1.814615897654610621e-01
5.659999999999999476e-01,-3.014793807315976903e-01,1.363859372033709438e-01,2.463754014421083716e-01
5.669999999999999485e-01,-4.050067265755609713e-01,2.626044028159897903e-01,2.262613413211210234e-01
5.679999999999999494e-01,-3.775981706463179544e-01,2.973329051963979897e-01,1.565696394388138846e-01
5.689999999999999503e-01,-3.463640933282647882e-01,3.060362940433278833e-01,1.058747274263122373e-01
5.699999999999999512e-01,-2.203097024450212937e-01,3.150550011412997509e-01,5.957520298626279957e-03
5.709999999999999520e-01,-9.500129995623740609e-02,1.974314070849645941e-01,-7.912874323340743365e-02
5.719999999999999529e-01,3.419542889572069894e-02,1.151565499703479656e-01,-1.380593242341063842e-01
5.729999999999999538e-01,2.068556024854646125e-01,5.559349383613174968e-03,-2.168973756496680727e-01
5.739999999999999547e-01,2.745682241831063908e-01,-1.320333839343588445e-01,-2.323616781416379395e-01
5.749999999999999556e-01,3.759135133677104501e-01,-1.928791636628360284e-01,-2.093635217688438466e-01
5.759999999999999565e-01,3.605557869005902027e-01,-2.940375844949649764e-01,-1.611318231510218135e-01
5.769999999999999574e-01,3.167595945171958749e-01,-3.130005225598964658e-01,-9.595823549445572920e-02
5.779999999999999583e-01,2.644775145309516962e-01,-3.181899758357165098e-01,-3.221449830815022175e-02
5.789999999999999591e-01,1.082065087024507155e-01,-1.964136968381567372e-01,5.816207226082354548e-02
5.799999999999999600e-01,-6.896751496297393036e-02,-1.349015760516650841e-01,1.384283679678615930e-01
5.809999999999999609e-01,-1.928508982820467121e-01,1.587941630575382269e-04,1.844995908952503927e-01
5.819999999999999618e-01,-2.986420852115707625e-01,1.159655459421134044e-01,1.790399268509897668e-01
5.829999999999999627e-01,-3.584347628674621200e-01,2.365591890117418883e-01,2.265447533796575430e-01
5.839999999999999636e-01,-3.647691745999144808e-01,2.795345748650531204e-01,2.080739360962956530e-01
5.849999999999999645e-01,-3.446338180410892793e-01,3.110993288868270645e-01,1.364599199468333468e-01
5.859999999999999654e-01,-2.491569585766070516e-01,3.022952327918801418e-01,5.440693746199028874e-02
5.869999999999999662e-01,-1.091769468115850183e-01,2.281230283649978707e-01,-5.540670645342527650e-02
5.879999999999999671e-01,3.434327750225934367e-02,1.160723615761630051e-01,-1.273693782197805602e-01
5.889999999999999680e-01,1.469483611333706752e-01,-1.569672674200530207e-02,-2.069960328097592006e-01
5.899999999999999689e-01,2.967489150662282471e-01,-1.136539910390685915e-01,-2.299562636508850066e-01
5.909999999999999698e-01,3.703345862792054022e-01,-2.277222692945030380e-01,-2.097883367574913394e-01
5.919999999999999707e-01,4.027542539619807238e-01,-3.021257019776545927e-01,-1.831531729662059516e-01
5.929999999999999716e-01,3.596945994133536328e-01,-3.094876327795718085e-01,-1.346781366831154569e-01
5.939999999999999725e-01,2.456094564227822297e-01,-2.825805166494805287e-01,-6.401294568499062143e-02
5.949999999999999734e-01,1.034539968542568522e-01,-2.000430885603290410e-01,6.356151553599706516e-02
5.959999999999999742e-01,-2.504108353885576427e-02,-9.156660062126992239e-02,1.294261140697143819e-01
5.969999999999999751e-01,-1.561993283757112660e-01,-2.027356010355768623e-02,1.984045583713721639e-01
5.979999999999999760e-01,-3.293131073915754325e-01,1.248667319581602819e-01,2.060565005919994253e-01
5.989999999999999769e-01,-3.328440644589413244e-01,1.908844617355262008e-01,2.344026213465505715e-01
5.999999999999999778e-01,-3.931194327500677765e-01,3.096751254403373177e-01,2.141736986610284776e-01
6.009999999999999787e-01,-3.637476058925112055e-01,3.169235950032640026e-01,1.297931788515023777e-01
6.019999999999999796e-01,-2.641214463154225034e-01,3.012143876793349495e-01,7.283086679035218058e-02
6.029999999999999805e-01,-1.362365273947906130e-01,1.918098841142991950e-01,-2.859011281505999952e-02
6.039999999999999813e-01,-1.195077348216830836e-02,1.195238643859144190e-01,-1.104869727320567929e-01
6.049999999999999822e-01,1.684908993237546615e-01,-1.954619042690459562e-03,-1.743158534873744947e-01
6.059999999999999831e-01,2.698210498856573603e-01,-1.201708628063812984e-01,-2.207092696332152715e-01
6.069999999999999840e-01,3.312391175531467780e-01,-2.336462012331610993e-01,-2.552801207482893742e-01
6.079999999999999849e-01,3.575020970354478300e-01,-2.934285266469521258e-01,-2.074001132307396189e-01
6.089999999999999858e-01,3.431736044496602189e-01,-2.716996392564945406e-01,-1.803393029478701781e-01
6.099999999999999867e-01,2.584990243537263477e-01,-2.835063239980257221e-01,-9.269328132227530603e-02
6.109999999999999876e-01,1.346526724489807703e-01,-2.029584014098619604e-01,-2.416175937809001469e-03
6.119999999999999885e-01,-3.517042175359724309e-03,-1.347206794774290228e-01,9.003365014313746695e-02
6.129999999999999893e-01,-1.742494889871119834e-01,9.662032943723390319e-03,1.862793673443537690e-01
6.139999999999999902e-01,-2.784508794530243248e-01,1.406204712232030363e-01,2.231348190719353586e-01
6.149999999999999911e-01,-3.805265138399925862e-01,2.504725775270348342e-01,1.961320674941809672e-01
6.159999999999999920e-01,-3.869395906123999085e-01,2.868820451747314260e-01,1.902853403593170178e-01
6.169999999999999929e-01,-3.352408525580131693e-01,2.914719114548636192e-01,1.945495736270108356e-01
6.179999999999999938e-01,-2.863049792788416870e-01,2.897210610675082787e-01,8.230550428436064769e-02
6.189999999999999947e-01,-1.372242956586152418e-01,2.282473110445740194e-01,-2.846293087307409306e-02
6.199999999999999956e-01,7.734083385844555628e-04,9.066160310770300657e-02,-1.217895809618890907e-01
6.209999999999999964e-01,1.674414748565381528e-01,6.576566383206655479e-03,-2.113310506712239023e-01
6.219999999999999973e-01,2.524727885581400377e-01,-7.928106451264547994e-02,-1.887541280307968306e-01
6.229999999999999982e-01,3.637674006108831959e-01,-2.431141685558542709e-01,-2.570352306254771180e-01
6.239999999999999991e-01,4.162436747732019549e-01,-2.890478044088305443e-01,-2.324897827298584574e-01
6.250000000000000000e-01,3.942821470975865772e-01,-3.084218992690084815e-01,-1.723732858533565393e-01
6.260000000000000009e-01,2.844897337930505365e-01,-2.833867876832896204e-01,-1.009577489517245602e-01
6.270000000000000018e-01,1.576026991653144693e-01,-1.977376016827276095e-01,-1.941991180570318970e-02
6.280000000000000027e-01,1.919159341178020006e-02,-1.067987609381707281e-01,5.747566028958551315e-02
6.290000000000000036e-01,-1.480912730154375356e-01,-5.254455733404782107e-03,1.337762222005699497e-01
6.300000000000000044e-01,-2.526209019159274538e-01,1.314006303342702964e-01,1.901112128347825503e-01
6.310000000000000053e-01,-3.487846879564469038e-01,2.621234409956313960e-01,2.477465249490706511e-01
6.320000000000000062e-01,-4.094146449500920548e-01,3.088826892275218783e-01,2.159901480630842252e-01
6.330000000000000071e-01,-3.602925081339656277e-01,3.071722459017849349e-01,1.728513246250287794e-01
6.340000000000000080e-01,-2.884161220448105967e-01,2.846118227582734028e-01,1.321146015095117920e-01
6.350000000000000089e-01,-1.857756529325649275e-01,2.247992581836004700e-01,2.456268887168465420e-02
6.360000000000000098e-01,-8.445845908404336563e-03,1.069347919125845925e-01,-8.117753191570412086e-02
6.370000000000000107e-01,1.479181269792773923e-01,-1.629239994829440041e-02,-1.153129782983784157e-01
6.380000000000000115e-01,2.367708732050426423e-01,-1.176353866333089832e-01,-1.977076636644870822e-01
6.390000000000000124e-01,3.282322674656044104e-01,-2.148262613373526364e-01,-2.634173613168905859e-01
6.400000000000000133e-01,3.942869896305893906e-01,-2.935605603978035383e-01,-2.016882566799897691e-01
6.410000000000000142e-01,3.671326817869367543e-01,-3.202567357567839834e-01,-1.618723024229054008e-01
6.420000000000000151e-01,2.914565518202142935e-01,-2.852282030666068446e-01,-1.433545264751185655e-01
6.430000000000000160e-01,1.911428271229373421e-01,-2.078645421943678684e-01,-3.341590924044050143e-02
6.440000000000000169e-01,2.617047843002224400e-02,-1.204104183215604085e-01,2.889738438578155072e-02
6.450000000000000178e-01,-1.019519701217141833e-01,5.537648435849574363e-03,9.601962777339848043e-02
6.460000000000000187e-01,-2.227977069265356103e-01,1.139041519639450856e-01,1.891149724873308624e-01
6.470000000000000195e-01,-3.486498143810249362e-01,2.393923601435843096e-01,2.152821785813819611e-01
6.480000000000000204e-01,-3.828582660015420469e-01,2.860962852434869585e-01,2.090393291713754653e-01
6.490000000000000213e-01,-3.818340432616110780e-01,3.210125730675441602e-01,1.924797051244604706e-01
6.500000000000000222e-01,-3.152943440243852202e-01,2.649871363561817628e-01,1.572696123826788361e-01
6.510000000000000231e-01,-1.902306912180184162e-01,2.060202336118433786e-01,5.865247486780821029e-02
6.520000000000000240e-01,-3.287840419259085989e-02,1.066119765466609498e-01,-1.073058641823137691e-02
6.530000000000000249e-01,1.139683480372809532e-01,-3.819359587358399366e-02,-1.068533198778520710e-01
6.540000000000000258e-01,2.113161952369250196e-01,-1.329238228671277555e-01,-2.133454861897934596e-01
6.550000000000000266e-01,3.608681229746707464e-01,-2.261281482177182611e-01,-2.453300708706758759e-01
6.560000000000000275e-01,3.707808834882439508e-01,-2.913452611585301555e-01,-2.269207935609145466e-01
6.570000000000000284e-01,3.786279681167387112e-01,-2.788881859708169375e-01,-2.059699915560709582e-01
6.580000000000000293e-01,3.088108010355396504e-01,-2.610811432925357334e-01,-1.559503589904931431e-01
6.590000000000000302e-01,2.053657877265450959e-01,-2.329754969411654275e-01,-6.922235692805554785e-02
6.600000000000000311e-01,9.214378577781498492e-02,-9.055296273213744862e-02,8.961775880091570751e-03
6.610000000000000320e-01,-7.692871295580473723e-02,4.271147562832534363e-03,1.174790176014810228e-01
6.620000000000000329e-01,-2.050533665533149918e-01,1.344923555810940141e-01,1.523818836351003569e-01
6.630000000000000338e-01,-3.253793797972567292e-01,2.412926699324685065e-01,2.314224169133437259e-01
6.640000000000000346e-01,-3.784485688518392510e-01,3.041073194181268535e-01,2.340405264372313887e-01
6.650000000000000355e-01,-3.708602128637276119e-01,3.148034380313662894e-01,1.986858973321931898e-01
6.660000000000000364e-01,-3.113284101242062007e-01,2.870472631796906482e-01,1.595995423357870480e-01
6.670000000000000373e-01,-1.985023893112413396e-01,2.315904355805744885e-01,9.793159859239163045e-02
6.680000000000000382e-01,-4.547815589426975474e-02,9.937905957579909466e-02,-1.082628619223263526e-02
6.690000000000000391e-01,4.173861998797914752e-02,-8.759345514556119913e-03,-6.774991433078467185e-02
6.700000000000000400e-01,1.905518941227782592e-01,-1.127595991298599859e-01,-1.918872975545825865e-01
6.710000000000000409e-01,3.081626767288712654e-01,-2.165209732651762475e-01,-2.116721323084689854e-01
6.720000000000000417e-01,3.919030956662321041e-01,-3.001666896293483378e-01,-2.310527646670905988e-01
6.730000000000000426e-01,3.624219365536884285e-01,-3.332150202406187756e-01,-2.491581347735765117e-01
6.740000000000000435e-01,3.287003288385851874e-01,-2.852387100163453759e-01,-1.844533678036726632e-01
6.750000000000000444e-01,2.542534856998951986e-01,-2.081685470411447914e-01,-8.873227763929514289e-02
6.760000000000000453e-01,8.308811357300811828e-02,-1.156349248381710326e-01,-5.068282930968265321e-02
6.770000000000000462e-01,-5.503509124348145848e-02,5.060625310555793427e-02,4.898893300376175319e-02
6.780000000000000471e-01,-2.191336098886150496e-01,1.448917974900093275e-01,1.512156966001342862e-01
6.790000000000000480e-01,-3.165884791858948333e-01,2.381237087146497178e-01,2.065126131069419113e-01
6.800000000000000488e-01,-3.859831205461102810e-01,2.723756836361687639e-01,2.490671281125878267e-01
6.810000000000000497e-01,-4.111451544892755217e-01,3.136799641228698587e-01,2.322358018794827006e-01
6.820000000000000506e-01,-3.379236444306538134e-01,3.065211700851199761e-01,2.173769100145316879e-01
6.830000000000000515e-01,-2.648089185735632012e-01,1.997691014136890875e-01,1.087943704842691539e-01
6.840000000000000524e-01,-9.257963513615383166e-02,9.138995010548872644e-02,3.361116704868260391e-02
6.850000000000000533e-01,5.702606660858230286e-02,-4.047799817451831761e-02,-5.769424032139829767e-02
6.860000000000000542e-01,1.591897937616139624e-01,-1.310967851335026746e-01,-1.344006177316933448e-01
6.870000000000000551e-01,2.966646600910863296e-01,-2.326753496420512213e-01,-2.198515634368254368e-01
6.879999999999999449e-01,3.687251589562378640e-01,-3.060934535922739119e-01,-2.711205137098155471e-01
6.889999999999999458e-01,3.881704295611708710e-01,-3.206850588281911496e-01,-2.258142436830246069e-01
6.899999999999999467e-01,3.205219236929234827e-01,-2.880538589719759401e-01,-1.730597125177763540e-01
6.909999999999999476e-01,2.570440864117147228e-01,-1.879661986187045608e-01,-1.198666822754629463e-01
6.919999999999999485e-01,1.235188492239953917e-01,-8.046495126324997027e-02,-6.436824060622904631e-02
6.929999999999999494e-01,-2.755652700805582070e-02,4.941458476068283368e-02,8.215555824651761194e-03
6.939999999999999503e-01,-1.607467925959060739e-01,1.530716308035224293e-01,1.351755825110926568e-01
6.949999999999999512e-01,-3.028362491033151360e-01,2.297063486800770271e-01,2.091788634272890302e-01
6.959999999999999520e-01,-3.444611042997348105e-01,2.915860209615436793e-01,2.180199876637600176e-01
6.969999999999999529e-01,-3.821046495752953853e-01,3.115811374118175880e-01,2.586682499916644340e-01
6.979999999999999538e-01,-3.354352321189953967e-01,2.722863156255060368e-01,2.233722311059337384e-01
6.989999999999999547e-01,-2.446656587134673211e-01,2.108736816513551993e-01,1.427430169783091840e-01
6.999999999999999556e-01,-1.370986008767524911e-01,1.217455809510676196e-01,4.732414863931834470e-02
7.009999999999999565e-01,5.147599706896287958e-02,-2.539851130674727550e-02,-3.852487907694288061e-02
7.019999999999999574e-01,1.775639457499774698e-01,-1.345235741222631509e-01,-1.274056690530816494e-01
7.029999999999999583e-01,2.730955497809382515e-01,-2.098712587855897649e-01,-1.812436898864134005e-01
7.039999999999999591e-01,3.668551880871560034e-01,-2.826334681551950223e-01,-2.052483848314421988e-01
7.049999999999999600e-01,3.706780460807495570e-01,-3.015282679448109682e-01,-2.305984795265964282e-01
7.059999999999999609e-01,3.520893227949012938e-01,-2.664180891216444969e-01,-2.098515382654528583e-01
7.069999999999999618e-01,2.322301722724988415e-01,-2.087769820139155352e-01,-1.318353333696863916e-01
7.079999999999999627e-01,1.142465016894479296e-01,-1.057819267529035018e-01,-7.219966865714581850e-02
7.089999999999999636e-01,-3.562200503827493009e-02,8.645853932208576176e-03,-2.095964140601542722e-02
7.099999999999999645e-01,-1.530384368270995832e-01,1.066260766480458810e-01,1.065396984939007419e-01
7.109999999999999654e-01,-2.726760238187267982e-01,2.369455523229918592e-01,1.660106808447001925e-01
7.119999999999999662e-01,-3.977715958638754490e-01,3.078798526494835874e-01,2.419212625460623323e-01
7.129999999999999671e-01,-3.805201347162446845e-01,3.251421188258682426e-01,2.506020422303795181e-01
7.139999999999999680e-01,-3.584962049460187483e-01,2.565482247990611420e-01,1.874538489659383633e-01
7.149999999999999689e-01,-2.681401726938646979e-01,2.031259035239318389e-01,1.698247075690389740e-01
7.159999999999999698e-01,-1.407202668770017873e-01,1.209589693944351785e-01,1.049731947393898607e-01
7.169999999999999707e-01,3.614415883420339648e-02,-7.289872823187244744e-07,6.037563918765114467e-03
7.179999999999999716e-01,1.565321000320225586e-01,-1.690895423166533518e-01,-9.376043481764113896e-02
7.189999999999999725e-01,2.949399007211293000e-01,-2.275639373924287223e-01,-1.582093105741455008e-01
7.199999999999999734e-01,3.801117232853085115e-01,-2.806619472253188974e-01,-2.194470858468378915e-01
7.209999999999999742e-01,3.856855487581433151e-01,-2.801578387632291389e-01,-2.117520484419635474e-01
7.219999999999999751e-01,3.667540268346067278e-01,-2.586315284290703898e-01,-2.256103512570915848e-01
7.229999999999999760e-01,2.499756815333603610e-01,-2.244393281236293780e-01,-1.654071780928083324e-01
7.239999999999999769e-01,1.340628417061880129e-01,-6.791207711827849935e-02,-1.020174809611514993e-01
7.249999999999999778e-01,6.748437439609244332e-03,3.566726994778454674e-02,-2.570994733464467344e-02
7.259999999999999787e-01,-1.463109537693128293e-01,1.279814204310827375e-01,7.992585217502551354e-02
7.269999999999999796e-01,-2.827742769754591490e-01,2.595098234718527519e-01,1.792890088615878563e-01
7.279999999999999805e-01,-3.898857838198084846e-01,2.816764585163668011e-01,2.108430712562813225e-01
7.289999999999999813e-01,-3.580898259193907029e-01,3.306971500190005742e-01,2.456253430997341058e-01
7.299999999999999822e-01,-3.621697554099477245e-01,2.847997641879640995e-01,2.116106110997644785e-01
7.309999999999999831e-01,-2.473424567270206542e-01,1.795677179279458469e-01,1.800625253985245477e-01
7.319999999999999840e-01,-1.673857934292082572e-01,7.931899267638498063e-02,1.278536745557591614e-01
7.329999999999999849e-01,-3.852378970678688175e-02,-5.661699421248631535e-03,5.085657820957344144e-02
7.339999999999999858e-01,1.338111555937467889e-01,-1.251944439842829770e-01,-4.107821691312777551e-02
7.349999999999999867e-01,2.784613654109347469e-01,-2.330106098791979996e-01,-1.462804083164566393e-01
7.359999999999999876e-01,3.616770790781250744e-01,-3.235298431649588080e-01,-2.184754612583111044e-01
7.369999999999999885e-01,4.086189837960835236e-01,-3.240613780241806685e-01,-2.487550744473029374e-01
7.379999999999999893e-01,3.654073997506258609e-01,-2.789207205815559254e-01,-2.226990982025406629e-01
7.389999999999999902e-01,3.000815198378157245e-01,-2.184981226844834867e-01,-1.692637364314008297e-01
7.399999999999999911e-01,1.664547012825059180e-01,-1.039845666950904024e-01,-1.093228869876574499e-01
7.409999999999999920e-01,1.850017076496829338e-02,2.066448795744140962e-02,-3.827195004691665708e-02
7.419999999999999929e-01,-1.186401497327441851e-01,1.587799344757268860e-01,5.815483723416500772e-02
7.429999999999999938e-01,-2.725583584227426748e-01,2.467789299211633480e-01,1.652860962891953833e-01
7.439999999999999947e-01,-3.493868574193323973e-01,3.278016922782173714e-01,2.049719162208651635e-01
7.449999999999999956e-01,-4.059189970351857468e-01,2.934663883051760180e-01,2.579391132992429059e-01
7.459999999999999964e-01,-3.577415133494670774e-01,2.792985148366734505e-01,2.052568905472258176e-01
7.469999999999999973e-01,-2.708862804457127793e-01,2.028827145656303399e-01,2.275747347432249823e-01
7.479999999999999982e-01,-1.786553743422354679e-01,1.185506392209150217e-01,1.371886030579634597e-01
7.489999999999999991e-01,-3.156448741681240622e-02,-4.467915875432500877e-02,5.231391946059486125e-02
7.500000000000000000e-01,1.246421737567624116e-01,-1.345545685043623985e-01,-2.913303946961410748e-02
7.510000000000000009e-01,2.329317253125627596e-01,-2.175505659607073761e-01,-1.213796893282193395e-01
7.520000000000000018e-01,3.649687148651199475e-01,-3.356896374448762321e-01,-1.880643806204444213e-01
7.530000000000000027e-01,3.794916426953027777e-01,-3.032345300293843304e-01,-2.062625697828362470e-01
7.540000000000000036e-01,3.943038757222385726e-01,-2.849736486442387418e-01,-2.342861818529244633e-01
7.550000000000000044e-01,2.985344542312876603e-01,-1.758802661159576952e-01,-2.086288913829116853e-01
7.560000000000000053e-01,1.794973661641607598e-01,-1.205935238838679313e-01,-1.584300808438094399e-01
7.570000000000000062e-01,5.765633257611983697e-02,-1.288560577302353197e-02,-3.439715112182500228e-02
7.580000000000000071e-01,-1.054418679617627058e-01,1.577018925498712976e-01,4.638196407436432495e-02
7.590000000000000080e-01,-2.554714117516648231e-01,2.208002142387822941e-01,1.084065920591146814e-01
7.600000000000000089e-01,-3.272205904687706668e-01,2.880978520978214608e-01,1.711187289448044546e-01
7.610000000000000098e-01,-4.035852531635458762e-01,3.202565818396970743e-01,2.107803306764236273e-01
7.620000000000000107e-01,-3.447999182990608702e-01,2.623833091136928974e-01,2.240807857883575782e-01
7.630000000000000115e-01,-3.095624881458257094e-01,1.826333307025164443e-01,2.108358254250270181e-01
7.640000000000000124e-01,-2.034562307009378235e-01,1.163477036423453681e-01,1.337097396524852821e-01
7.650000000000000133e-01,-4.848407984012051419e-02,-1.798635191003196757e-02,7.255955383041652607e-02
7.660000000000000142e-01,7.759856663757992712e-02,-1.394302912875835243e-01,-3.597323131352841985e-02
7.670000000000000151e-01,2.122390242865602183e-01,-1.939323168922486851e-01,-9.507412042977826661e-02
7.680000000000000160e-01,3.532758892859012567e-01,-3.156639139996524901e-01,-1.653792923147364147e-01
7.690000000000000169e-01,3.691039463180902369e-01,-3.020451474400828729e-01,-2.280534256134443827e-01
7.700000000000000178e-01,3.722611173825612352e-01,-2.704080672827454679e-01,-2.218548858418392111e-01
7.710000000000000187e-01,3.188326480758488790e-01,-1.889554303925214673e-01,-2.325000637718161178e-01
7.720000000000000195e-01,2.018969183164309456e-01,-6.772284555891851243e-02,-1.694789742781333541e-01
7.730000000000000204e-01,4.269270821650088948e-02,4.563637577969786169e-02,-1.100003786010056300e-01
7.740000000000000213e-01,-9.552036895119841997e-02,1.450168890577874237e-01,2.718404403776466041e-02
7.750000000000000222e-01,-2.192861116478498351e-01,2.605699266350448018e-01,1.229750290141031904e-01
7.760000000000000231e-01,-3.320388104526096895e-01,2.935130335529101409e-01,1.255071800125746317e-01
7.770000000000000240e-01,-3.753663794243058405e-01,2.622674326765004893e-01,2.227538849834234391e-01
7.780000000000000249e-01,-3.776637277683934091e-01,2.801275691968435622e-01,2.133098422175093989e-01
7.790000000000000258e-01,-3.275654498805162240e-01,2.269522919237531855e-01,2.197097887511622882e-01
7.800000000000000266e-01,-2.095488378917127192e-01,8.555733329356075834e-02,1.767926679857579064e-01
7.810000000000000275e-01,-7.265047600207424905e-02,-2.617954345200516897e-02,1.105330569272412050e-01
7.820000000000000284e-01,7.612347507046868245e-02,-1.468140353930960929e-01,6.506249190104337193e-03
7.830000000000000293e-01,2.257035595212967261e-01,-2.218538006248131911e-01,-6.453389409169628388e-02
7.840000000000000302e-01,3.222975744006850718e-01,-2.814981862209183783e-01,-1.228939259381773702e-01
7.850000000000000311e-01,3.809707668939107950e-01,-3.172431028312855950e-01,-1.822722134343782441e-01
7.860000000000000320e-01,3.800183820891960274e-01,-2.502198595160982642e-01,-2.461717612952482592e-01
7.870000000000000329e-01,3.172841648081551891e-01,-1.752616165022546080e-01,-2.188718341987615223e-01
7.880000000000000338e-01,2.149480341605825573e-01,-7.415867959409939980e-02,-1.918593882017447794e-01
7.890000000000000346e-01,7.970981485652532672e-02,2.518922045688132619e-02,-8.726308584864068962e-02
7.900000000000000355e-01,-4.925399851205800733e-02,1.551769817004138574e-01,-2.525489559364046954e-02
7.910000000000000364e-01,-2.039549300818070954e-01,2.269709136084656353e-01,5.703881779865620921e-02
7.920000000000000373e-01,-3.286480312173735152e-01,2.787533331584355345e-01,1.254752726499390181e-01
7.930000000000000382e-01,-3.929564877052513783e-01,3.260668750028679064e-01,2.105190390388851363e-01
7.940000000000000391e-01,-4.092278792849595170e-01,2.659266706308259232e-01,2.225140701997155579e-01
7.950000000000000400e-01,-3.618746302554835537e-01,1.907314020354861916e-01,2.242754679941573737e-01
7.960000000000000409e-01,-2.247686924708216794e-01,8.705356597749952519e-02,1.810451557501176478e-01
7.970000000000000417e-01,-6.756350497955895817e-02,-1.974922857596289258e-02,1.022351061067263145e-01
7.980000000000000426e-01,4.857879921170329962e-02,-1.381503767600674448e-01,4.366301707131400173e-02
7.990000000000000435e-01,2.250914559575986351e-01,-2.631530558596428260e-01,-2.616417915709440614e-02
8.000000000000000444e-01,3.511335633008224044e-01,-3.049619167694652133e-01,-1.211675354204890392e-01
8.010000000000000453e-01,3.821524053356400996e-01,-3.076324350580397216e-01,-1.902272749489781478e-01
8.020000000000000462e-01,3.851446556505463970e-01,-2.783048441623959812e-01,-2.252203017149260189e-01
8.030000000000000471e-01,3.410174646371840756e-01,-2.094977943499908568e-01,-2.171379952419419390e-01
8.040000000000000480e-01,2.486194282532701583e-01,-8.330075493043150037e-02,-2.083090462754332850e-01
8.050000000000000488e-01,1.298744855389423192e-01,-2.426442438325874043e-02,-1.211406750546366456e-01
8.060000000000000497e-01,-2.497708304416491193e-02,1.650141532514965981e-01,-7.085324911156351546e-02
8.070000000000000506e-01,-2.023771432151675875e-01,2.262648650950124518e-01,4.770998674764952152e-02
8.080000000000000515e-01,-3.039299184726376724e-01,2.894592592002076525e-01,1.198175956285040811e-01
8.090000000000000524e-01,-4.010790533798447854e-01,2.896828067249033745e-01,1.501262635700790493e-01
8.100000000000000533e-01,-3.735497847252783332e-01,2.809836940183487730e-01,2.207123163318969183e-01
8.110000000000000542e-01,-3.497982312001869376e-01,2.186330155414965282e-01,2.187431165660441990e-01
8.120000000000000551e-01,-2.744956014798747845e-01,1.129250649858684619e-01,1.944722365085560234e-01
8.129999999999999449e-01,-1.290239547636049533e-01,-2.122034191975269088e-02,1.668553934852179399e-01
8.139999999999999458e-01,-8.008694324696797456e-03,-1.536208239736374381e-01,6.564398540538575466e-02
8.149999999999999467e-01,1.666170676767291248e-01,-2.072296522321180334e-01,-9.673581176619658675e-03
8.159999999999999476e-01,2.562632970383949549e-01,-3.289396887670223424e-01,-9.293984769610878771e-02
8.169999999999999485e-01,3.663221897394533522e-01,-2.917902136511470457e-01,-1.669034528929891625e-01
8.179999999999999494e-01,3.919669874881236415e-01,-2.609948706517736250e-01,-2.352839418970824603e-01
8.189999999999999503e-01,3.350150374362189098e-01,-1.818298825394332463e-01,-2.369762565422663669e-01
8.199999999999999512e-01,2.488140247426823548e-01,-1.017213442498872272e-01,-2.028872814940601843e-01
8.209999999999999520e-01,8.447081552155608075e-02,5.562320890577239496e-02,-1.810403726849234285e-01
8.219999999999999529e-01,-9.754450964936940693e-03,1.699644785619708609e-01,-5.123401132073192310e-02
8.229999999999999538e-01,-1.850157396845127644e-01,2.639115857464098824e-01,1.842688908956690783e-02
8.239999999999999547e-01,-2.835050577498250957e-01,2.920690782350315318e-01,9.839564561518440722e-02
8.249999999999999556e-01,-3.779468120296702871e-01,2.848035443781827825e-01,1.985490174338962743e-01
8.259999999999999565e-01,-3.911746411269696466e-01,2.633966920480265705e-01,1.764550098679380230e-01
8.269999999999999574e-01,-3.374800480951022363e-01,1.698901745447912170e-01,2.374132542674235180e-01
8.279999999999999583e-01,-2.650765715884367268e-01,8.327100139499633846e-02,2.167585733669029069e-01
8.289999999999999591e-01,-1.427428423205682473e-01,-1.288450168662508277e-02,1.782934133066075288e-01
8.299999999999999600e-01,2.523728786178879718e-02,-1.395174400650266433e-01,9.821621360334513440e-02
8.309999999999999609e-01,1.341096392432769291e-01,-2.550389012134135491e-01,-1.996652778167347635e-03
8.319999999999999618e-01,2.370342544779656391e-01,-2.697142925104589195e-01,-1.027915152768332230e-01
8.329999999999999627e-01,3.644312766199130360e-01,-2.904241320017377781e-01,-1.514158739591330849e-01
8.339999999999999636e-01,3.678714265715939957e-01,-2.823372090890179931e-01,-2.406397621585987801e-01
8.349999999999999645e-01,4.036673980208960733e-01,-1.939050548959463660e-01,-2.084491553444844381e-01
8.359999999999999654e-01,2.763585524828128803e-01,-8.484956714467403738e-02,-2.220609573391969516e-01
8.369999999999999662e-01,1.591063761894645490e-01,-4.573040779497678648e-03,-1.843112133071898862e-01
8.379999999999999671e-01,-3.163267269503630685e-02,1.641401830174522292e-01,-1.095142782761307498e-01
8.389999999999999680e-01,-1.614603699877541210e-01,2.338232463138563977e-01,-2.275667269705800369e-02
8.399999999999999689e-01,-2.906440713849052782e-01,3.165169204971762795e-01,7.502887950518959126e-02
8.409999999999999698e-01,-3.537538342522301149e-01,3.024695427936016645e-01,1.682608705893439693e-01
8.419999999999999707e-01,-3.696937114560872040e-01,2.868085316586430067e-01,2.057473925921074753e-01
8.429999999999999716e-01,-3.978911050719379228e-01,2.047050203671785806e-01,2.265850816523914124e-01
8.439999999999999725e-01,-2.690722470522353693e-01,7.314464989406900541e-02,2.054830807414136096e-01
8.449999999999999734e-01,-1.387599540873842019e-01,-4.897234138465995229e-02,1.696587453153778069e-01
8.459999999999999742e-01,-3.237200922114080032e-02,-1.638807550963093662e-01,9.887807408369085616e-02
8.469999999999999751e-01,1.460338578970183376e-01,-2.442483537741769462e-01,5.146121093432891314e-02
8.479999999999999760e-01,2.703708274997410066e-01,-3.166589036969634785e-01,-7.737909079802772483e-02
8.489999999999999769e-01,3.408196688194986557e-01,-2.891698526922562573e-01,-1.534629562693532456e-01
8.499999999999999778e-01,3.670157357583624380e-01,-2.646094154227304207e-01,-1.889335215507244037e-01
8.509999999999999787e-01,3.899209844168542993e-01,-2.085190075995005110e-01,-2.135220830929622504e-01
8.519999999999999796e-01,2.845140700949550516e-01,-8.231760123753410763e-02,-2.409886232307555387e-01
8.529999999999999805e-01,1.739061244729903644e-01,3.594740911777750264e-02,-1.991253472306800110e-01
8.539999999999999813e-01,1.980186112614326296e-02,1.364660388431404303e-01,-1.250648834644981222e-01
8.549999999999999822e-01,-1.474933959976265085e-01,2.374769680013973927e-01,-3.928696803107394053e-02
8.559999999999999831e-01,-2.448122157515779107e-01,2.595706075499829568e-01,1.060063566722035423e-02
8.569999999999999840e-01,-3.744612308210960028e-01,2.962222332505472511e-01,1.244424036632656300e-01
8.579999999999999849e-01,-3.736162660133309776e-01,2.432094708042297493e-01,1.784937499236865788e-01
8.589999999999999858e-01,-4.064895920365367288e-01,1.953988421305085377e-01,2.324541595709986586e-01
8.599999999999999867e-01,-3.115937406075338090e-01,8.432738766169324551e-02,2.343120725205785349e-01
8.609999999999999876e-01,-2.084569194819173299e-01,-2.944202048231803204e-02,2.091169030094758852e-01
8.619999999999999885e-01,-3.229074566545557523e-02,-1.667888832041462543e-01,1.240802886711743491e-01
8.629999999999999893e-01,9.699634352740124643e-02,-2.250739351020701606e-01,8.933793898819467061e-02
8.639999999999999902e-01,2.491998420602390130e-01,-3.114672298848741860e-01,-2.201603049518885413e-02
8.649999999999999911e-01,3.428608101241371053e-01,-3.063794508435103703e-01,-1.177713232385714237e-01
8.659999999999999920e-01,3.687682458201289037e-01,-2.782351368183439977e-01,-1.559882326990857659e-01
8.669999999999999929e-01,3.832909151123755076e-01,-1.940901841979222331e-01,-2.286492575022525675e-01
8.679999999999999938e-01,3.057358801862762876e-01,-7.637005798441871829e-02,-2.236924557006828018e-01
8.689999999999999947e-01,1.960732435392791295e-01,3.242535383408548522e-02,-2.166326104687131271e-01
8.699999999999999956e-01,1.079531731853273710e-02,1.266674069717835249e-01,-1.562128642532563672e-01
8.709999999999999964e-01,-8.736945385049307844e-02,2.343551090349500765e-01,-1.226643473183301747e-01
8.719999999999999973e-01,-2.595215000693563701e-01,2.582390507049662776e-01,-3.642429263050938476e-02
8.729999999999999982e-01,-3.260720919163770937e-01,3.213299189149609880e-01,1.092202175874417147e-01
8.739999999999999991e-01,-3.993347816078137158e-01,2.604100254366735201e-01,1.660710295091198108e-01
8.750000000000000000e-01,-3.801357230896285633e-01,2.091133502073530548e-01,2.245923078396073469e-01
8.760000000000000009e-01,-2.979195146181579656e-01,9.542001471336056251e-02,2.192753392097235021e-01
8.770000000000000018e-01,-2.179839194457201812e-01,-6.232090879082662072e-02,2.077062547405057191e-01
8.780000000000000027e-01,-6.936420229263164094e-02,-1.387366193938392167e-01,1.536821286769400885e-01
8.790000000000000036e-01,9.940777624442774518e-02,-2.706048563423018583e-01,7.804118182542496562e-02
8.800000000000000044e-01,2.411803154279687500e-01,-2.961122239863989147e-01,-1.072530360547188817e-02
8.810000000000000053e-01,3.193962061901389204e-01,-3.157243794602729303e-01,-8.383359460926445572e-02
8.820000000000000062e-01,3.630669540361407543e-01,-3.192523959728430505e-01,-1.389710953278946448e-01
8.830000000000000071e-01,3.756509743850827698e-01,-1.958610414387673138e-01,-2.069990359578743055e-01
8.840000000000000080e-01,3.201392584294873722e-01,-8.800898187980209231e-02,-2.340794838900551733e-01
8.850000000000000089e-01,2.098509742066455852e-01,5.964161173895854429e-02,-1.892461376441591514e-01
8.860000000000000098e-01,7.428582239249308106e-02,1.155447547601132358e-01,-1.407042565787266497e-01
8.870000000000000107e-01,-7.792882795780889382e-02,2.621758472933679585e-01,-1.141195588674546874e-01
8.880000000000000115e-01,-2.393020950973923922e-01,2.484858209004590646e-01,2.847187487921838071e-03
8.890000000000000124e-01,-3.362058410665583197e-01,3.208159709133784898e-01,5.655529550230621594e-02
8.900000000000000133e-01,-3.718892524645818209e-01,2.674678284714348542e-01,1.899672497420267225e-01
8.910000000000000142e-01,-3.848817281929416967e-01,1.878016945806202653e-01,2.462760268555152510e-01
8.920000000000000151e-01,-3.086154317099807365e-01,6.406517242063917983e-02,2.209731169831140318e-01
8.930000000000000160e-01,-2.489646120656148764e-01,-3.880849806369039701e-02,1.969345300497099549e-01
8.940000000000000169e-01,-8.864763306090137074e-02,-1.475994883093759702e-01,1.992025095412549018e-01
8.950000000000000178e-01,6.280075346613232801e-02,-2.318641422177466216e-01,1.044729828020000278e-01
8.960000000000000187e-01,1.854104852098793499e-01,-3.301319309457903528e-01,4.435734446206760634e-02
8.970000000000000195e-01,3.222277068155063318e-01,-3.396794202428379261e-01,-6.215000470559809559e-02
8.980000000000000204e-01,3.476545574614290368e-01,-2.845750907175118583e-01,-1.275961271481386716e-01
8.990000000000000213e-01,3.829687815425972808e-01,-2.100073219366357935e-01,-1.840279834532443926e-01
9.000000000000000222e-01,3.139146571931255014e-01,-8.106359240484201090e-02,-2.237916606768338423e-01
9.010000000000000231e-01,2.302417988012147865e-01,2.252566467685983287e-02,-2.402406577858346715e-01
9.020000000000000240e-01,8.921392047961376748e-02,1.765513671280218022e-01,-1.747177728241041117e-01
9.030000000000000249e-01,-7.924325822988474710e-02,2.309267087592900281e-01,-1.220287624149247047e-01
9.040000000000000258e-01,-1.928952920441129038e-01,2.606720603820167903e-01,-3.819400244022803231e-02
9.050000000000000266e-01,-3.073826268525241545e-01,3.036856185413279730e-01,5.910236797796284552e-02
9.060000000000000275e-01,-4.080401066105120433e-01,2.711309502873937571e-01,1.417338322358151492e-01
9.070000000000000284e-01,-3.720085712591276184e-01,2.289290224455279021e-01,1.736915603726605362e-01
9.080000000000000293e-01,-3.273448442534820924e-01,8.007982039280869824e-02,2.422913404112921332e-01
9.090000000000000302e-01,-2.381163049353291206e-01,-4.800872664938466566e-02,2.344666671048708517e-01
9.100000000000000311e-01,-8.878524675955404288e-02,-1.787125003038006754e-01,2.003643483535733905e-01
9.110000000000000320e-01,7.419003964381014338e-02,-2.700227606305815042e-01,1.323883802971405899e-01
9.120000000000000329e-01,1.637827755825099485e-01,-2.752199454359797182e-01,4.472550367727222420e-02
9.130000000000000338e-01,2.882033737487160741e-01,-3.105171876253070562e-01,-2.356710837222363714e-02
9.140000000000000346e-01,3.918516152666874364e-01,-2.407529859889596391e-01,-9.654769435905001529e-02
9.150000000000000355e-01,4.051163375781411391e-01,-2.187816161056059805e-01,-1.715819226916317775e-01
9.160000000000000364e-01,3.130094959038881575e-01,-9.215626673267350577e-02,-2.212295074788120097e-01
9.170000000000000373e-01,2.519407705672306874e-01,4.820737185175541506e-02,-2.104021904729231063e-01
9.180000000000000382e-01,1.148043899636639886e-01,1.557463986890688934e-01,-2.061049226784214261e-01
9.190000000000000391e-01,-3.856008841304651991e-02,2.586934091105096978e-01,-1.703381696109777521e-01
9.200000000000000400e-01,-1.815843894932369917e-01,2.969338586679941550e-01,-5.961525568970967026e-02
9.210000000000000409e-01,-2.956427540332707271e-01,2.948260560292900179e-01,2.717975708835998830e-02
9.220000000000000417e-01,-3.691569864886720675e-01,2.724691440670755083e-01,8.741255617458998373e-02
9.230000000000000426e-01,-3.755108700342217887e-01,2.108042088020619653e-01,1.849719694039901052e-01
9.240000000000000435e-01,-3.537207641872170960e-01,5.120934660538938726e-02,2.311724018213898446e-01
9.250000000000000444e-01,-2.267686224939761686e-01,-5.798229294199237077e-02,2.778598563162731905e-01
9.260000000000000453e-01,-1.060732028478674066e-01,-1.668058420114481299e-01,1.970954248808527431e-01
9.270000000000000462e-01,2.543777556845634030e-02,-2.192283887360584882e-01,1.573731477799792666e-01
9.280000000000000471e-01,1.671850254355337073e-01,-2.892752236092062113e-01,8.060291466535439431e-02
9.290000000000000480e-01,3.215081671549854803e-01,-3.170323989035286893e-01,-1.899722083122625318e-02
9.300000000000000488e-01,3.749038554760966702e-01,-2.781826564944006042e-01,-1.040936710739321647e-01
9.310000000000000497e-01,3.804362965722274947e-01,-1.837404112184284621e-01,-1.698372511055478984e-01
9.320000000000000506e-01,3.263744639320789176e-01,-7.632316557172734439e-02,-2.261268132666177377e-01
9.330000000000000515e-01,2.518180344696577255e-01,3.317424629714640222e-02,-2.175891068445385268e-01
9.340000000000000524e-01,1.416326109041990411e-01,1.505018611467531520e-01,-2.258833471428147166e-01
9.350000000000000533e-01,-5.213282911657262340e-03,2.801596356454298387e-01,-1.761152545192958829e-01
9.360000000000000542e-01,-1.499953001726309909e-01,2.954120474587609846e-01,-9.560296306114046683e-02
9.370000000000000551e-01,-2.597167447319481681e-01,3.035243034767515224e-01,1.896391125622909693e-02
9.379999999999999449e-01,-3.156530365738335342e-01,2.659780880225383615e-01,5.078375413026232910e-02
9.389999999999999458e-01,-3.775954619245966426e-01,2.118325436983638232e-01,1.539578678569026027e-01
9.399999999999999467e-01,-3.341347963732447801e-01,6.395953310769590672e-02,1.927813148746134186e-01
9.409999999999999476e-01,-2.523650420168923048e-01,-6.312428019265883816e-02,2.385489047802867024e-01
9.419999999999999485e-01,-1.172218617411538849e-01,-1.672948581167744697e-01,2.185855483151600276e-01
9.429999999999999494e-01,5.382306834443417731e-02,-2.270584106194437068e-01,1.983466626371685748e-01
9.439999999999999503e-01,1.717514392474634999e-01,-3.011434329159351497e-01,1.199189445099425599e-01
9.449999999999999512e-01,2.796407318838010081e-01,-3.198761438219119846e-01,1.550039735985653082e-02
9.459999999999999520e-01,3.637412814913704162e-01,-2.860530862820050424e-01,-5.851193767099529403e-02
9.469999999999999529e-01,4.045567674770239597e-01,-1.763566868448698810e-01,-1.490068613754044480e-01
9.479999999999999538e-01,3.805167393293286127e-01,-7.853070535842555933e-02,-1.816269488537666232e-01
9.489999999999999547e-01,2.844663326291565486e-01,7.933554905356340892e-02,-2.253306890045273514e-01
9.499999999999999556e-01,1.610903100523666531e-01,1.821439238214541401e-01,-2.325294216300310968e-01
9.509999999999999565e-01,4.252969770155838949e-03,2.401613241694099121e-01,-1.989865737269658486e-01
9.519999999999999574e-01,-1.655723184321138408e-01,3.055473612667960470e-01,-1.078347420307360499e-01
9.529999999999999583e-01,-2.648054741636734488e-01,2.869659509892663052e-01,-1.204544871639246992e-02
9.539999999999999591e-01,-3.510903449948550303e-01,2.787473968109535627e-01,3.770774577681319101e-02
9.549999999999999600e-01,-3.828790463449280868e-01,1.883875469168169448e-01,1.443480269429874008e-01
9.559999999999999609e-01,-3.326672053481541935e-01,8.436858151613235712e-02,2.007936785618309183e-01
9.569999999999999618e-01,-2.816913244292422736e-01,-3.937423298667462601e-02,2.283936932430328526e-01
9.579999999999999627e-01,-1.703568998055320916e-01,-1.840565616531874837e-01,2.352945592994139246e-01
9.589999999999999636e-01,-2.954370892504813370e-02,-2.567748296904003857e-01,1.740440027380955323e-01
9.599999999999999645e-01,1.460762389023214092e-01,-2.980705057900604471e-01,1.098321805989432992e-01
9.609999999999999654e-01,2.358682929348065727e-01,-2.924174042814355334e-01,4.447887870282636602e-02
9.619999999999999662e-01,3.558711431873902153e-01,-2.675466510310383628e-01,-2.643532855216768757e-02
9.629999999999999671e-01,4.088189248400408982e-01,-1.657739041925126444e-01,-1.229274796366095490e-01
9.639999999999999680e-01,3.682523580550582376e-01,-6.088571406359287452e-02,-1.680527174325678608e-01
9.649999999999999689e-01,2.937889164338378101e-01,4.872256560737864978e-02,-2.085849301431658975e-01
9.659999999999999698e-01,1.922656500771250110e-01,1.832300572669858241e-01,-2.223930833093389903e-01
9.669999999999999707e-01,2.637413069346460429e-02,2.551968888322643791e-01,-1.887496312216125904e-01
9.679999999999999716e-01,-1.061748085858718882e-01,3.010325570810515883e-01,-1.472998568013466347e-01
9.689999999999999725e-01,-2.618574328379511540e-01,3.384747137219185076e-01,-1.847089819848159870e-02
9.699999999999999734e-01,-3.101968268434423526e-01,2.702726555696496336e-01,1.304841638794124528e-02
9.709999999999999742e-01,-4.044247990543357596e-01,1.805357911322397757e-01,8.688674446125095596e-02
9.719999999999999751e-01,-3.472586374645791341e-01,9.903410741590473743e-02,1.545607843945553950e-01
9.729999999999999760e-01,-2.997652175167711541e-01,-2.778344894591597281e-02,1.876525586002485424e-01
9.739999999999999769e-01,-1.682542518100005602e-01,-1.792246459202197217e-01,2.327992245453018028e-01
9.749999999999999778e-01,-3.805352405548841077e-02,-2.381601906491894183e-01,2.220677933425272976e-01
9.759999999999999787e-01,1.362081839429022112e-01,-2.826570160876288318e-01,1.422468451140684875e-01
9.769999999999999796e-01,2.275592611131552201e-01,-3.316450834591225805e-01,5.709322749851725165e-02
9.779999999999999805e-01,3.583478209994829244e-01,-2.457305909569456326e-01,-5.371389602790479362e-02
9.789999999999999813e-01,4.138018086813669005e-01,-1.727615507212737211e-01,-1.154339747504416758e-01
9.799999999999999822e-01,3.742185016548937870e-01,-1.057959298540488424e-01,-1.579887255262667489e-01
9.809999999999999831e-01,3.093504758738677696e-01,7.915312835071999786e-02,-2.163859657328548458e-01
9.819999999999999840e-01,1.945434483185793650e-01,1.490711420169167634e-01,-2.589498400025374014e-01
9.829999999999999849e-01,5.144611470965122779e-02,2.530112128521070924e-01,-1.880854639326124678e-01
9.839999999999999858e-01,-1.248476405233012593e-01,3.045128674776524380e-01,-1.782672481586403956e-01
9.849999999999999867e-01,-2.410333275113332729e-01,3.224125069507021157e-01,-1.019681189679632616e-01
9.859999999999999876e-01,-3.419256527039876148e-01,2.710792033948437596e-01,-1.171806290326803980e-02
9.869999999999999885e-01,-3.708235546093101576e-01,1.614449768977731514e-01,9.947306456964008503e-02
9.879999999999999893e-01,-3.778359538684401553e-01,9.107462089069547073e-02,1.544444873361512649e-01
9.889999999999999902e-01,-2.951446741515222905e-01,-3.215760736783448981e-02,2.164367434121214073e-01
9.899999999999999911e-01,-1.941651228379413230e-01,-1.593040209416850816e-01,2.223724637367260337e-01
9.909999999999999920e-01,-5.794542062399665044e-02,-2.569802532546116569e-01,2.106659053172583174e-01
9.919999999999999929e-01,7.970591354724461397e-02,-3.077695157421248551e-01,2.161466050848049880e-01
9.929999999999999938e-01,2.610033131397747064e-01,-2.985793021945115089e-01,1.304025621277160873e-01
9.939999999999999947e-01,3.211273550994155346e-01,-2.841262720178163725e-01,1.228318465813379654e-02
9.949999999999999956e-01,3.565293329352786089e-01,-1.767372208389060562e-01,-9.144683479213726318e-02
9.959999999999999964e-01,3.849220496157528260e-01,-5.680765521709191246e-02,-1.419014227659107230e-01
9.969999999999999973e-01,2.982365149768322343e-01,5.184221247909413799e-02,-1.963426216378480471e-01
9.979999999999999982e-01,2.113197758007540339e-01,1.615924545955548242e-01,-2.303504594754039458e-01
9.989999999999999991e-01,6.702036044942358273e-02,2.020086031026851192e-01,-2.102876115469068385e-01
1.000000000000000000e+00,-6.974058021769209692e-02,2.932707585860624966e-01,-1.947167745576886266e-01
1.000999999999999890e+00,-2.475824432385200502e-01,3.032862408099422091e-01,-1.399233713051715733e-01
1.002000000000000002e+00,-3.227203969819544827e-01,2.712182059007225976e-01,-4.501853715075464918e-02
1.002999999999999892e+00,-3.606521783448172758e-01,1.771664050767937371e-01,3.605707719991757543e-02
1.004000000000000004e+00,-3.623510310522752853e-01,7.185382334009920990e-02,1.350100543056441116e-01
1.004999999999999893e+00,-3.358854865924665312e-01,-5.107040324487933242e-02,1.821259455409304784e-01
1.006000000000000005e+00,-2.166289366719504061e-01,-1.977642112338600933e-01,2.520479080684457363e-01
1.006999999999999895e+00,-8.289039598032611755e-02,-2.672705218594464971e-01,2.330403267233179809e-01
1.008000000000000007e+00,1.124856674929900630e-01,-3.125029983798894295e-01,1.915245449631485242e-01
1.008999999999999897e+00,2.267597352514270914e-01,-3.430751674430878584e-01,1.721951516211551736e-01
1.010000000000000009e+00,3.323858983703240066e-01,-2.613811117120833361e-01,4.812835405544050454e-02
1.010999999999999899e+00,3.765460788376807644e-01,-1.850231669259650713e-01,-4.671804484267304963e-02
1.012000000000000011e+00,3.994624222390149582e-01,-6.567528881317731548e-02,-1.451717492354781536e-01
1.012999999999999901e+00,3.202387488804818716e-01,5.327213070582725862e-02,-2.176514047048386802e-01
1.014000000000000012e+00,1.988620769898413743e-01,1.547834689586140289e-01,-2.312368757169959432e-01
1.014999999999999902e+00,7.552814921376581336e-02,2.482343000225020191e-01,-2.453982204082278962e-01
1.016000000000000014e+00,-6.981622817228463895e-02,3.224345975466373360e-01,-2.002115345837617577e-01
1.016999999999999904e+00,-1.839209783355744421e-01,2.981149145382545607e-01,-1.334361904229483253e-01
1.018000000000000016e+00,-3.224712241932763401e-01,2.739629270313616027e-01,-7.187587425314093115e-02
1.018999999999999906e+00,-3.891882118021374737e-01,1.735115507243466249e-01,2.824258002437779122e-02
1.020000000000000018e+00,-4.124442703765035523e-01,7.518343236787260186e-02,8.771339123254476289e-02
1.020999999999999908e+00,-3.119647881591650629e-01,-5.149971079302126387e-02,1.841535079713156053e-01
1.022000000000000020e+00,-2.351075420465125743e-01,-1.581148337211805144e-01,2.507372813128380118e-01
1.022999999999999909e+00,-1.028705786391336391e-01,-2.359506038407255257e-01,2.646419457745236015e-01
1.024000000000000021e+00,4.039963910496158911e-02,-2.881465868374489814e-01,2.052935417167937870e-01
1.024999999999999911e+00,1.728993231774430261e-01,-3.324110299986486328e-01,1.371842482580713507e-01
1.026000000000000023e+00,3.142631347082563975e-01,-3.090475105076263551e-01,5.178187194871995691e-02
1.026999999999999913e+00,3.852533501250919867e-01,-1.596362484394526216e-01,-2.055980911421052826e-02
1.028000000000000025e+00,3.844085765059804261e-01,-5.126902617533875273e-02,-7.213435020391845143e-02
1.028999999999999915e+00,3.601352637421961211e-01,3.825616873094425663e-02,-1.615264605627097227e-01
1.030000000000000027e+00,2.334863676273977173e-01,1.583845466772133004e-01,-2.220786082432620323e-01
1.030999999999999917e+00,1.171137098207959415e-01,2.658160932725552872e-01,-2.328397349567017383e-01
1.032000000000000028e+00,-3.773671809166501134e-02,3.105737667200705876e-01,-2.368519838468808036e-01
1.032999999999999918e+00,-2.116517387831004238e-01,3.010636909317448984e-01,-1.811341722748852079e-01
1.034000000000000030e+00,-3.010460250581383224e-01,2.454114584888252293e-01,-6.959088583640189729e-02
1.034999999999999920e+00,-4.112825305150991650e-01,2.212781603798054109e-01,7.196651946546693546e-03
1.036000000000000032e+00,-3.651956342388318344e-01,7.554238937462108561e-02,9.617286578915046347e-02
1.036999999999999922e+00,-3.464925084951086531e-01,-4.042794581056045888e-02,1.248551113062672940e-01
1.038000000000000034e+00,-2.543254277186341450e-01,-1.236228069833982812e-01,2.460197169344727763e-01
1.038999999999999924e+00,-1.359252449564168908e-01,-2.666268903560857217e-01,2.248675766508854146e-01
1.040000000000000036e+00,2.829052125516358721e-02,-2.934747359853285276e-01,2.285956898878763743e-01
1.040999999999999925e+00,1.631674179444333739e-01,-3.230318822111676313e-01,1.619566894600761309e-01
1.042000000000000037e+00,3.146493489010677713e-01,-2.542804946984282277e-01,9.502352433831785794e-02
1.042999999999999927e+00,3.785567596613835795e-01,-1.976639360815534152e-01,-2.576461803374564298e-03
1.044000000000000039e+00,3.821063245832620470e-01,-4.333424366175633174e-02,-6.031778639730923930e-02
1.044999999999999929e+00,3.610681551966606340e-01,3.842246037905485551e-02,-1.249826730731880831e-01
1.046000000000000041e+00,2.597823986785374739e-01,1.670368192253435524e-01,-1.863433743794916941e-01
1.046999999999999931e+00,1.146770930602564326e-01,2.528036616622255095e-01,-2.286135958959610026e-01
1.048000000000000043e+00,-1.214864791086059555e-02,3.249921430395064093e-01,-2.147508925255110501e-01
1.048999999999999932e+00,-1.899384247008894244e-01,3.325860353408581216e-01,-1.671330025331046187e-01
1.050000000000000044e+00,-2.587635871684023092e-01,2.683556835903607163e-01,-1.129089254086479005e-01
1.050999999999999934e+00,-3.598806122917262984e-01,2.053274314934778189e-01,-3.810977123016799639e-02
1.052000000000000046e+00,-3.790435479547666353e-01,3.208510507589407840e-02,7.914747767819788060e-02
1.052999999999999936e+00,-3.517156696901102553e-01,-6.627956581446632633e-02,1.238533577555730320e-01
1.054000000000000048e+00,-2.530514878927079270e-01,-1.473622766473734469e-01,1.917474885141172147e-01
1.054999999999999938e+00,-1.523871322532291961e-01,-2.778164988868872531e-01,2.445187678548315369e-01
1.056000000000000050e+00,3.145270505835227187e-02,-2.955929842093321658e-01,2.406462749826508984e-01
1.056999999999999940e+00,1.417359756987226493e-01,-3.047917733108873595e-01,1.651486578193008536e-01
1.058000000000000052e+00,2.684740932511143208e-01,-2.720963854132125159e-01,1.330849971417595312e-01
1.058999999999999941e+00,3.457482350226113721e-01,-1.874195854499347003e-01,4.440924143335708840e-02
1.060000000000000053e+00,3.758325335026095337e-01,-5.281902023711502331e-02,-3.159567797873105016e-02
1.060999999999999943e+00,3.277920329451741721e-01,4.147164585142792265e-02,-1.451409175811470831e-01
1.062000000000000055e+00,2.536663047906264068e-01,1.904929028854765727e-01,-1.939679624734400865e-01
1.062999999999999945e+00,1.527290558214415006e-01,2.626503895908419706e-01,-2.460608680114277913e-01
1.064000000000000057e+00,-1.848115509543114821e-02,2.968357202469209533e-01,-2.429515190075011710e-01
1.064999999999999947e+00,-1.721536049271401025e-01,3.347385547737140032e-01,-1.994597253264449588e-01
1.066000000000000059e+00,-2.635616969825616551e-01,2.322816906469188092e-01,-1.458786813857974041e-01
1.066999999999999948e+00,-3.358682123517646723e-01,1.372656522782396415e-01,-6.640960963251252291e-02
1.068000000000000060e+00,-3.994352815688695379e-01,6.168020879453699895e-02,1.966401607143773711e-02
1.068999999999999950e+00,-3.692774555529981795e-01,-7.355757073193368301e-02,1.212174888822982327e-01
1.070000000000000062e+00,-2.972700579176603686e-01,-2.068080042666864959e-01,1.725904777106661847e-01
1.070999999999999952e+00,-1.579624142884576143e-01,-2.554540737924079208e-01,2.081206905749376779e-01
1.072000000000000064e+00,8.169065608550482235e-03,-3.045696500829060405e-01,2.347321613774104865e-01
1.072999999999999954e+00,1.487034195749074861e-01,-3.042822985720552431e-01,1.804794862364556551e-01
1.074000000000000066e+00,2.777269161431444311e-01,-2.582251230396959696e-01,1.432487193677873527e-01
1.074999999999999956e+00,3.307178813944060547e-01,-1.653283531550765462e-01,5.716914836850689463e-02
1.076000000000000068e+00,4.131755851484583686e-01,-8.253052839144203734e-02,-2.113969913071683457e-02
1.076999999999999957e+00,3.760528178006328215e-01,7.077502031513442649e-02,-1.216243067455140686e-01
1.078000000000000069e+00,3.038462270169520196e-01,1.694285756799680243e-01,-1.755387135362949103e-01
1.078999999999999959e+00,1.689663675736924331e-01,2.429749051665818227e-01,-2.260841162791863146e-01
1.080000000000000071e+00,3.967493314725595299e-02,3.013723664039819061e-01,-2.540152329676083620e-01
1.080999999999999961e+00,-1.238340323098453821e-01,2.952514007043088307e-01,-2.243576504961470042e-01
1.082000000000000073e+00,-2.614590838939246376e-01,2.698032870317322862e-01,-1.479934046681818383e-01
1.082999999999999963e+00,-3.569921908585926840e-01,1.685795488905454664e-01,-9.099377569096347984e-02
1.084000000000000075e+00,-3.885222496130134595e-01,7.731924768529468972e-02,2.574039153078619413e-02
1.084999999999999964e+00,-3.712373737593816503e-01,-5.351453767721632560e-02,1.150435213533238799e-01
1.086000000000000076e+00,-2.748025297416544221e-01,-1.820781858299284905e-01,1.743798532498578580e-01
1.086999999999999966e+00,-1.801670699206690263e-01,-2.653072327451255208e-01,2.426799605194745746e-01
1.088000000000000078e+00,-3.837817597037564837e-02,-2.953856112840266279e-01,2.441923738499863494e-01
1.088999999999999968e+00,1.068243472826149731e-01,-3.229826872709493646e-01,1.883932632594637613e-01
1.090000000000000080e+00,2.490601317595886877e-01,-2.889973968722723274e-01,1.718245661985764450e-01
1.090999999999999970e+00,3.730843704452936338e-01,-2.101676019394963513e-01,7.427878089932628269e-02
1.092000000000000082e+00,3.745529307636573102e-01,-8.406369318628784115e-02,-1.439610135703366101e-02
1.092999999999999972e+00,3.663760823892370788e-01,4.279651158713094344e-02,-4.761290586470235536e-02
1.094000000000000083e+00,3.149398203358713677e-01,1.675532342028795418e-01,-1.718642972925913115e-01
1.094999999999999973e+00,1.797842045968233993e-01,2.438874935708939540e-01,-2.078722486096059863e-01
1.096000000000000085e+00,6.557124146353747463e-02,3.071124482911565257e-01,-2.581843655316355957e-01
1.096999999999999975e+00,-9.705195289626038224e-02,3.165271322922933450e-01,-2.176043563720402862e-01
1.098000000000000087e+00,-2.482851139627146875e-01,2.616950912061155043e-01,-1.558721287395501420e-01
1.098999999999999977e+00,-3.392142538124968132e-01,2.092976357782144747e-01,-1.044275532337146511e-01
1.100000000000000089e+00,-3.615337058899225076e-01,6.765415269868250980e-02,-1.998841556151844875e-02
1.100999999999999979e+00,-3.490143939309595100e-01,-8.507779980265139930e-02,5.758039258184322745e-02
1.102000000000000091e+00,-2.911336686041002264e-01,-1.812769240575695662e-01,1.458848431988896410e-01
1.102999999999999980e+00,-2.117343701105503240e-01,-2.387828012989046678e-01,2.162261537144972712e-01
1.104000000000000092e+00,-5.806418813556888520e-02,-3.065259271816274111e-01,2.224073684562074549e-01
1.104999999999999982e+00,1.016671298203411650e-01,-2.949524319481490742e-01,2.354927572570710004e-01
1.106000000000000094e+00,2.264588614027636948e-01,-2.392304866826565346e-01,1.907232045368945361e-01
1.106999999999999984e+00,3.377024040222163515e-01,-1.481187773797085772e-01,8.856257374753519207e-02
1.108000000000000096e+00,3.740995692210364321e-01,-8.040922346926973607e-02,7.482911213374952852e-02
1.108999999999999986e+00,3.831007048073851728e-01,3.165762116302943407e-02,-6.713951877426284354e-02
1.110000000000000098e+00,3.252350286298746895e-01,1.578829335224283537e-01,-1.278979262430564035e-01
1.110999999999999988e+00,2.155757610020571924e-01,2.622643143861375092e-01,-2.086843166822660023e-01
1.112000000000000099e+00,7.281747284857664759e-02,2.883738658739489757e-01,-2.246793823160894710e-01
1.112999999999999989e+00,-9.900985954444173343e-02,3.140643044798663297e-01,-2.634206244570281297e-01
1.114000000000000101e+00,-1.861156128571751778e-01,2.661496869319459058e-01,-2.117124103413860203e-01
1.114999999999999991e+00,-3.360020552505554869e-01,2.010211236303991733e-01,-8.815104708535741185e-02
1.116000000000000103e+00,-3.902901141462711276e-01,4.119296579823845950e-02,-3.761607394395584392e-02
1.116999999999999993e+00,-3.659867404351038744e-01,-5.234663222395160437e-02,6.532109309551267784e-02
1.118000000000000105e+00,-3.509631030395249374e-01,-1.938177877641216740e-01,1.114896199568225915e-01
1.118999999999999995e+00,-2.113761534404743903e-01,-2.520027993194885463e-01,2.060145478814728592e-01
1.120000000000000107e+00,-8.602909980540586476e-02,-2.982131833856648262e-01,2.629270147970316218e-01
1.120999999999999996e+00,7.043710162318268797e-02,-3.345754744865350738e-01,2.229993228926201165e-01
1.122000000000000108e+00,2.136730561043063970e-01,-2.504636014752360529e-01,2.246178048223914647e-01
1.122999999999999998e+00,3.270029257438815118e-01,-1.381738632278693424e-01,1.638087718041108254e-01
1.124000000000000110e+00,3.405948189150579952e-01,-5.698095298751614662e-02,5.228826328252210442e-02
1.125000000000000000e+00,3.982988521234466783e-01,7.362075217917299352e-02,-6.493791938966793353e-02
1.125999999999999890e+00,3.214074635195721119e-01,1.916521053550001297e-01,-1.374194313260510281e-01
1.127000000000000002e+00,2.511166835888241078e-01,2.849655443140204913e-01,-1.835535210801355899e-01
1.127999999999999892e+00,8.195317719405252610e-02,3.073141421727733080e-01,-2.108726444049660309e-01
1.129000000000000004e+00,-4.784168062621856760e-02,2.927167061446002139e-01,-2.546115503331752294e-01
1.129999999999999893e+00,-2.006439788525020140e-01,2.839356306240347627e-01,-2.183981444805515315e-01
1.131000000000000005e+00,-3.029330853692993042e-01,1.464532133026083538e-01,-1.395292571828126715e-01
1.131999999999999895e+00,-3.742041688164627344e-01,6.799602663457478269e-02,-7.535389632041686325e-02
1.133000000000000007e+00,-3.955163353684169047e-01,-8.095668200755298805e-02,2.888140237842624566e-02
1.133999999999999897e+00,-3.355099713942991668e-01,-1.550513639039935443e-01,1.230457071718233653e-01
1.135000000000000009e+00,-2.466891310999566322e-01,-2.821200463099962641e-01,1.689112570036148953e-01
1.135999999999999899e+00,-1.013791286439909844e-01,-2.914970715694073511e-01,2.258113588990191545e-01
1.137000000000000011e+00,5.427557246247333156e-02,-3.237744715040626886e-01,1.911087776504803715e-01
1.137999999999999901e+00,1.928758755681229120e-01,-2.510426927063291180e-01,1.883225292817311824e-01
1.139000000000000012e+00,2.888785257835060349e-01,-1.743167310709178575e-01,1.729362548162331481e-01
1.139999999999999902e+00,3.676813932944681951e-01,-4.095915964922418329e-02,8.498875977362517486e-02
1.141000000000000014e+00,3.767797030542575643e-01,6.607192377180917675e-02,6.783245617209134742e-03
1.141999999999999904e+00,3.275210544726018802e-01,1.945554420977816112e-01,-1.015659470336328363e-01
1.143000000000000016e+00,2.315745770957441940e-01,2.308058421699212548e-01,-1.590893873897854527e-01
1.143999999999999906e+00,7.998431275381871763e-02,3.165054877519730137e-01,-2.126136806885803865e-01
1.145000000000000018e+00,-3.117017478818408238e-02,2.731621306346532219e-01,-2.293706943387077701e-01
1.145999999999999908e+00,-1.672500373381104466e-01,2.439999202942378376e-01,-2.037365233989597568e-01
1.147000000000000020e+00,-3.271533416121814031e-01,1.636688756781652931e-01,-1.796578891323421245e-01
1.147999999999999909e+00,-3.603533223147295517e-01,5.682381563575179817e-02,-1.015436638676863040e-01
1.149000000000000021e+00,-3.891044001969289345e-01,-6.585755856459230007e-02,-8.118033928057604917e-03
1.149999999999999911e+00,-3.318894938842247289e-01,-1.773806464692761209e-01,5.816961506363015066e-02
1.151000000000000023e+00,-2.475042533893857810e-01,-2.861147176136313308e-01,1.285655132144923052e-01
1.151999999999999913e+00,-9.486300943342317049e-02,-2.747575557734108775e-01,2.204151650961221898e-01
1.153000000000000025e+00,6.042684298843856161e-02,-2.797710693237877577e-01,2.081100425240123564e-01
1.153999999999999915e+00,1.791627349074235986e-01,-2.448640005185364898e-01,2.360998637789216426e-01
1.155000000000000027e+00,3.095247822631515544e-01,-1.328234111868641099e-01,1.381190449919141583e-01
1.155999999999999917e+00,3.689508468733196378e-01,-5.663763641414952532e-02,1.170458445172299078e-01
1.157000000000000028e+00,4.206868225508770820e-01,5.369751223754563874e-02,2.003597325603597573e-02
1.157999999999999918e+00,3.347189910290404580e-01,2.071321975392035053e-01,-6.321562728649424145e-02
1.159000000000000030e+00,2.478300249397478172e-01,2.719069164130305527e-01,-1.406100405367342598e-01
1.159999999999999920e+00,1.308191729525144398e-01,3.110135796247225914e-01,-2.198161458576284033e-01
1.161000000000000032e+00,-2.775150733063666553e-02,2.739224797547707979e-01,-2.320750524381999247e-01
1.161999999999999922e+00,-1.507064421771744100e-01,2.357821021968074249e-01,-2.237144255849536356e-01
1.163000000000000034e+00,-2.813508792020278371e-01,1.491308946747878228e-01,-1.732472653873053936e-01
1.163999999999999924e+00,-3.777694403851221683e-01,4.424741315334963787e-02,-1.407303840563026709e-01
1.165000000000000036e+00,-4.010928090062368945e-01,-3.458535615666823854e-02,-5.485343229875329005e-03
1.165999999999999925e+00,-3.589952829289176361e-01,-1.787171112195439227e-01,7.409194890117815069e-02
1.167000000000000037e+00,-2.695390046806813156e-01,-2.486295675400473637e-01,1.315728083322733333e-01
1.167999999999999927e+00,-1.342197432534808499e-01,-3.180832134826822033e-01,1.910233823290300170e-01
1.169000000000000039e+00,4.287720154685356611e-03,-2.802314308287058853e-01,2.499257331886782785e-01
1.169999999999999929e+00,1.432536564282157476e-01,-1.960732026106357939e-01,2.305313260270335229e-01
1.171000000000000041e+00,2.871310944140483268e-01,-1.503236492888453124e-01,2.047060850728419368e-01
1.171999999999999931e+00,3.770529479440078435e-01,-6.126186609566681290e-02,1.410333366446012149e-01
1.173000000000000043e+00,3.996163473879814632e-01,7.264537071527475687e-02,6.192934879107851037e-02
1.173999999999999932e+00,3.435102691723010415e-01,1.739759432652508708e-01,-4.070805413301801373e-02
1.175000000000000044e+00,2.608485764697152653e-01,2.174668879519665587e-01,-1.323268848417769872e-01
1.175999999999999934e+00,1.569169933187103405e-01,3.273167260015084068e-01,-1.715329210117316761e-01
1.177000000000000046e+00,2.719246829254902843e-03,2.703091113140653756e-01,-2.012782485823982337e-01
1.177999999999999936e+00,-1.390771975338306321e-01,2.469568194824212359e-01,-2.093052708142415508e-01
1.179000000000000048e+00,-2.894749781903920294e-01,1.469249239973988708e-01,-1.899314166764514700e-01
1.179999999999999938e+00,-3.320262089037120390e-01,7.658976385677888910e-02,-1.527304791937872108e-01
