time,acc_x,acc_y,acc_z
0.000000000000000000e+00,1.959971560693389570e-01,1.635965551452925604e-01,1.105895516102274045e-01
1.000000000000000021e-03,2.262418972475278012e-01,1.914209518426082668e-01,1.296702379022673934e-01
2.000000000000000042e-03,2.337939388453907363e-01,1.950585240854170455e-01,1.513859131169841277e-01
3.000000000000000062e-03,2.462176899842531130e-01,1.902073032681527998e-01,1.399830234322784472e-01
4.000000000000000083e-03,2.056269559168401595e-01,1.590353507906403785e-01,1.297240216680173031e-01
5.000000000000000104e-03,1.662701731339898126e-01,1.208428345721338226e-01,1.106858425080073927e-01
6.000000000000000125e-03,1.122760081401059234e-01,7.850483088261354936e-02,8.680717209252644673e-02
7.000000000000000146e-03,5.860220674696263454e-02,1.739591172197844232e-02,4.181746099368041647e-02
8.000000000000000167e-03,-2.070313809664240876e-03,-4.553266763522376137e-02,6.410751393727758853e-03
8.999999999999999320e-03,-7.755858206856112991e-02,-9.438288141969625178e-02,-3.567709192154142755e-02
1.000000000000000021e-02,-1.422796225893346034e-01,-1.383294829497538625e-01,-7.465588960366843774e-02
1.099999999999999936e-02,-1.803593539428507697e-01,-1.524018997272436615e-01,-1.104363262481629498e-01
1.200000000000000025e-02,-2.208085346203043919e-01,-1.827871420418924753e-01,-1.272372969138294285e-01
1.299999999999999940e-02,-2.415834163213146091e-01,-1.941144302334061322e-01,-1.469423021678440411e-01
1.400000000000000029e-02,-2.480748489092459153e-01,-1.764732577418084425e-01,-1.333069458445463873e-01
1.499999999999999944e-02,-2.318073610651388283e-01,-1.554523050647987903e-01,-1.352663727965236762e-01
1.600000000000000033e-02,-1.827905939733129870e-01,-1.211667047277769638e-01,-1.269389704366864768e-01
1.700000000000000122e-02,-1.356893346733362149e-01,-8.783461183021543106e-02,-8.982513142351160329e-02
1.799999999999999864e-02,-8.808219041569313734e-02,-2.143706511605626697e-02,-6.372187466245060605e-02
1.899999999999999953e-02,-2.409773667552316846e-03,1.947749139762259760e-02,-2.069778215419864481e-02
2.000000000000000042e-02,5.697075186180967227e-02,6.583256285254064644e-02,-3.037406363214391054e-04
2.100000000000000130e-02,1.185203413537587597e-01,1.124792245621520914e-01,5.054905599273320366e-02
2.199999999999999872e-02,1.820107355180684838e-01,1.606584972386128352e-01,8.268969159671983593e-02
2.299999999999999961e-02,2.187904569783791497e-01,1.898581195314632264e-01,1.215346478462621810e-01
2.400000000000000050e-02,2.340020435177389557e-01,1.908566458203693195e-01,1.352231140920223673e-01
2.500000000000000139e-02,2.304284451180944049e-01,1.784714521538142695e-01,1.502092093179490384e-01
2.599999999999999881e-02,2.333037103741343876e-01,1.792209750722619788e-01,1.399068090587869406e-01
2.699999999999999969e-02,2.032373966388671405e-01,1.392087018347536731e-01,1.322523335967342728e-01
2.800000000000000058e-02,1.515957459595002610e-01,8.848234207309600696e-02,1.119270960978197144e-01
2.900000000000000147e-02,9.733247549364619500e-02,4.295393104435465265e-02,8.007769875767760392e-02
2.999999999999999889e-02,3.405700530109657259e-02,-6.957272886182848913e-03,5.029152196410629355e-02
3.099999999999999978e-02,-3.249278272995562850e-02,-7.339164453500850172e-02,1.743124862674410181e-03
3.200000000000000067e-02,-9.852954026157183243e-02,-1.099282041200859567e-01,-3.493744989132949175e-02
3.300000000000000155e-02,-1.589898457498665763e-01,-1.500737408679838347e-01,-6.225504665051660724e-02
3.400000000000000244e-02,-2.052062860845856596e-01,-1.785653891043407770e-01,-9.770721881869851022e-02
3.500000000000000333e-02,-2.345367382960328317e-01,-2.015662104772675267e-01,-1.220707215700451431e-01
3.599999999999999728e-02,-2.425254086568615353e-01,-1.899189435536573489e-01,-1.321503030479253826e-01
3.699999999999999817e-02,-2.297198933571297785e-01,-1.850645991171484817e-01,-1.378774946693742121e-01
3.799999999999999906e-02,-2.186797416487480106e-01,-1.436237218340278288e-01,-1.454360351059565681e-01
3.899999999999999994e-02,-1.595681636810262760e-01,-1.128109242103894072e-01,-1.326402028989645265e-01
4.000000000000000083e-02,-1.151390931646557175e-01,-5.958364621384404369e-02,-9.198997281858993513e-02
4.100000000000000172e-02,-5.359661819811630673e-02,-3.612959474820731133e-03,-7.215110221420860392e-02
4.200000000000000261e-02,8.671269370547339886e-03,5.001938358656260464e-02,-9.816679303249989386e-03
4.299999999999999656e-02,7.329860572568613897e-02,9.425243651751570584e-02,7.196868419984262140e-03
4.399999999999999745e-02,1.329204819115593350e-01,1.429129438609557379e-01,6.010263432860667859e-02
4.499999999999999833e-02,1.879482335582783603e-01,1.622843814955883812e-01,7.954062113909972365e-02
4.599999999999999922e-02,2.190457989676128647e-01,1.964888816911066483e-01,1.127894341750002583e-01
4.700000000000000011e-02,2.349337229401065874e-01,1.982145719074623891e-01,1.283711679576645115e-01
4.800000000000000100e-02,2.289590501289992530e-01,1.735824440197554497e-01,1.541704209228151601e-01
4.900000000000000189e-02,2.160278678687818366e-01,1.487427578983135934e-01,1.327965510571735008e-01
5.000000000000000278e-02,1.843834211367590403e-01,1.091515240884754212e-01,1.314397558245682940e-01
5.099999999999999672e-02,1.397475330033122187e-01,6.645569058096004178e-02,1.064831570957134738e-01
5.199999999999999761e-02,7.331817737288703896e-02,9.589103685821876583e-03,8.275722677917551895e-02
5.299999999999999850e-02,1.462419842706837864e-02,-3.967599409156150059e-02,3.831569903784348002e-02
5.399999999999999939e-02,-5.770535554829747671e-02,-9.170186497526819358e-02,7.503686715305307904e-03
5.500000000000000028e-02,-1.158339848355290358e-01,-1.416790649215372566e-01,-4.679772866223146782e-02
5.600000000000000117e-02,-1.649607976782613838e-01,-1.667693047535522277e-01,-7.104405974768750187e-02
5.700000000000000205e-02,-2.072256976696135733e-01,-1.852308854268841509e-01,-1.134793191737869106e-01
5.800000000000000294e-02,-2.279210118958114317e-01,-1.897582355096245899e-01,-1.181942133971266018e-01
5.899999999999999689e-02,-2.403420408354216553e-01,-1.808328695410887366e-01,-1.364558901264717461e-01
5.999999999999999778e-02,-2.265707443635306684e-01,-1.520963830562703512e-01,-1.355109126378595819e-01
6.099999999999999867e-02,-2.101215844311767056e-01,-1.331723037458362735e-01,-1.415026750349114293e-01
6.199999999999999956e-02,-1.449548106804974257e-01,-8.736712824133215094e-02,-1.127225056244795659e-01
6.300000000000000044e-02,-9.495859943351780963e-02,-4.049847619144635036e-02,-1.154521535863946152e-01
6.400000000000000133e-02,-3.877476172629117090e-02,3.379168414329563469e-02,-6.950931467377316486e-02
6.500000000000000222e-02,4.402837038966447847e-02,7.196075312995829643e-02,-2.027312340139685726e-02
6.600000000000000311e-02,1.022145335042982106e-01,1.152234207620117939e-01,2.322526037995370843e-02
6.700000000000000400e-02,1.508957968674086159e-01,1.662992885581145164e-01,5.228299746714255153e-02
6.800000000000000488e-02,1.952248648517749818e-01,1.853419996382416890e-01,9.635276274848880718e-02
6.900000000000000577e-02,2.288510469159015237e-01,1.915215018152270354e-01,1.118010309702409250e-01
7.000000000000000666e-02,2.469592078907139610e-01,1.903411331962416020e-01,1.295820006421862236e-01
7.099999999999999367e-02,2.221164265155753381e-01,1.738077934300616134e-01,1.460965204698855546e-01
7.199999999999999456e-02,2.181495746916944090e-01,1.378696863315138910e-01,1.509966781231186772e-01
7.299999999999999545e-02,1.779263688222189055e-01,8.818158255857640182e-02,1.212493020790079146e-01
7.399999999999999634e-02,1.204837336325179642e-01,3.875511009508175037e-02,1.036369755747981181e-01
7.499999999999999722e-02,4.581796573059351146e-02,-1.762959083274043964e-02,8.142059216954446177e-02
7.599999999999999811e-02,-1.312526606202671017e-02,-6.656181610118730441e-02,3.816561642716388009e-02
7.699999999999999900e-02,-7.783242421928296406e-02,-1.054756055153102945e-01,-1.340403872767209972e-02
7.799999999999999989e-02,-1.286376859238593795e-01,-1.569700441429676130e-01,-4.220089828865164483e-02
7.900000000000000078e-02,-1.826671087297495888e-01,-1.799144148028273549e-01,-7.162253119766059939e-02
8.000000000000000167e-02,-2.137536591789545026e-01,-2.005636086373832894e-01,-1.014205818144923582e-01
8.100000000000000255e-02,-2.395223693976957779e-01,-1.839998075029373736e-01,-1.203108138351503820e-01
8.200000000000000344e-02,-2.468833644010372252e-01,-1.676529864318521967e-01,-1.203158924477237546e-01
8.300000000000000433e-02,-2.103209664551153046e-01,-1.298082974474948637e-01,-1.444494872405327757e-01
8.400000000000000522e-02,-1.791593570073548303e-01,-8.953089413611821368e-02,-1.411168594975159563e-01
8.500000000000000611e-02,-1.312481937732421222e-01,-4.683079795852462812e-02,-1.172170678037878777e-01
8.599999999999999312e-02,-8.182416065253771131e-02,-3.726292840899861434e-03,-9.841475579746987445e-02
8.699999999999999400e-02,-6.045576312748006734e-03,5.190081080245150663e-02,-5.585409318070529150e-02
8.799999999999999489e-02,5.446476002818311651e-02,1.055619623287546854e-01,-1.567095596015053577e-02
8.899999999999999578e-02,1.315320092912006245e-01,1.399392896513607099e-01,1.896601426293577017e-02
8.999999999999999667e-02,1.709979833385252279e-01,1.749417676083968864e-01,5.222053052234789522e-02
9.099999999999999756e-02,1.928871162849936649e-01,1.968839843483454477e-01,7.645414637690542414e-02
9.199999999999999845e-02,2.405601939954330748e-01,2.048237381923445344e-01,1.108080279947402241e-01
9.299999999999999933e-02,2.225974180242275835e-01,1.733203994953199101e-01,1.343543921544165798e-01
9.400000000000000022e-02,2.241132236483630857e-01,1.465455672342664828e-01,1.515677291896436185e-01
9.500000000000000111e-02,1.960696944774920070e-01,1.086976398538678779e-01,1.472083483233095069e-01
9.600000000000000200e-02,1.618919166190363468e-01,6.317360928880169646e-02,1.207085272013813382e-01
9.700000000000000289e-02,1.128008114690264851e-01,-3.562170812867639438e-03,1.084057886786466557e-01
9.800000000000000377e-02,3.719307986216203316e-02,-3.093738264812004660e-02,6.565258718881794575e-02
9.900000000000000466e-02,-3.679084146177417219e-02,-7.951775564880565750e-02,3.789146308684807063e-02
1.000000000000000056e-01,-8.956349818649085581e-02,-1.321606630589692299e-01,-4.134651891630774026e-03
1.010000000000000064e-01,-1.618662095494150521e-01,-1.725875132488368102e-01,-3.330559952191886053e-02
1.019999999999999934e-01,-2.013035658194177457e-01,-1.929090293878115425e-01,-7.441097655763781460e-02
1.029999999999999943e-01,-2.153371559112922384e-01,-1.916325522212230237e-01,-1.023142717637405830e-01
1.039999999999999952e-01,-2.392215204829474251e-01,-1.815530470524537310e-01,-1.325929747338516762e-01
1.049999999999999961e-01,-2.211453542711908637e-01,-1.492314579843902478e-01,-1.366378929866203518e-01
1.059999999999999970e-01,-2.138873154139353805e-01,-1.180162334612558095e-01,-1.570302982243391987e-01
1.069999999999999979e-01,-1.716364368062908152e-01,-7.666155865226421950e-02,-1.312463601975899230e-01
1.079999999999999988e-01,-1.242462944579982714e-01,-1.611461141132251862e-02,-1.003601185048586392e-01
1.089999999999999997e-01,-7.166139311590880023e-02,2.180095323950722794e-02,-9.153565837709291830e-02
1.100000000000000006e-01,1.085272038457138835e-02,8.223386956317446650e-02,-4.556788839394181750e-02
1.110000000000000014e-01,6.678270903716850004e-02,1.280362758123102240e-01,-1.476889721087301134e-02
1.120000000000000023e-01,1.319150566039127004e-01,1.599420968501709950e-01,3.677696881188360217e-02
1.130000000000000032e-01,1.907785738612467752e-01,1.877841075040105612e-01,6.133996132902146819e-02
1.140000000000000041e-01,2.231316693139469565e-01,2.034874606520190587e-01,9.525235305292496790e-02
1.150000000000000050e-01,2.411131407673187399e-01,1.807869139154853755e-01,1.197431155339824388e-01
1.160000000000000059e-01,2.450337023444899842e-01,1.629714445178045701e-01,1.348552244315806281e-01
1.170000000000000068e-01,2.202392575749019810e-01,1.291561452690082046e-01,1.447148295772021365e-01
1.179999999999999938e-01,1.847231761813880047e-01,8.060270456455408128e-02,1.372133043226726468e-01
1.189999999999999947e-01,1.417076748449836721e-01,3.533999984937775257e-02,1.238593631958282149e-01
1.199999999999999956e-01,7.692230369669454670e-02,-1.750394137995434085e-02,1.222421619864995090e-01
1.209999999999999964e-01,1.965009471793330645e-02,-7.305741407180321723e-02,5.873689900518211382e-02
1.219999999999999973e-01,-5.203260770338304086e-02,-1.234576115449297629e-01,3.347079420425455587e-02
1.229999999999999982e-01,-1.113632493395925183e-01,-1.556230951830832598e-01,-1.595702956446724396e-03
1.239999999999999991e-01,-1.666262068563742205e-01,-1.750708600730081499e-01,-3.654600557920333059e-02
1.250000000000000000e-01,-2.103303125404370200e-01,-1.914792499099494116e-01,-7.389554145655251316e-02
1.260000000000000009e-01,-2.288731140036634748e-01,-1.917994091092463382e-01,-1.023179478370294798e-01
1.270000000000000018e-01,-2.445310955733124569e-01,-1.697885286460641963e-01,-1.385390264324302956e-01
1.280000000000000027e-01,-2.314775540525444708e-01,-1.505832664425584277e-01,-1.426598741655680236e-01
1.290000000000000036e-01,-2.023002277626706480e-01,-9.316186531982470487e-02,-1.496587402702564962e-01
1.300000000000000044e-01,-1.581445324314692535e-01,-5.100850090906558498e-02,-1.377574251240887282e-01
1.310000000000000053e-01,-8.954714902196878046e-02,1.323230601648445366e-02,-1.221678572239733029e-01
1.320000000000000062e-01,-2.689156347993333293e-02,5.737420786517637150e-02,-8.422683459286760266e-02
1.330000000000000071e-01,2.189366993143279649e-02,9.596632189414881775e-02,-5.142923614427897389e-02
1.340000000000000080e-01,1.008355960246842820e-01,1.582935704599848781e-01,-1.265157913560786829e-02
1.350000000000000089e-01,1.510588028481607281e-01,1.677012688051270906e-01,4.136367416209058706e-02
1.360000000000000098e-01,2.022293966374095475e-01,1.996869901969115790e-01,5.559250951473108243e-02
1.370000000000000107e-01,2.196608992461245302e-01,1.819126867915376866e-01,9.086236862254927493e-02
1.380000000000000115e-01,2.450870164247541116e-01,1.731360003233702038e-01,1.300125951483417364e-01
1.390000000000000124e-01,2.335928630500708203e-01,1.430224064036801357e-01,1.319107362330363686e-01
1.400000000000000133e-01,2.205250004725346769e-01,1.108616128809225276e-01,1.435330291969219019e-01
1.409999999999999865e-01,1.688851711419989965e-01,5.014593069866808001e-02,1.338454948305710379e-01
1.419999999999999873e-01,1.230672376876029567e-01,6.176437532680561018e-03,1.176371873242447741e-01
1.429999999999999882e-01,5.246118084152112671e-02,-4.307128778788609641e-02,9.512707600989818435e-02
1.439999999999999891e-01,-2.980634918654079257e-03,-1.075785613955917014e-01,5.671940160946253168e-02
1.449999999999999900e-01,-7.424799685018498852e-02,-1.325170346303847779e-01,2.914974732300314869e-02
1.459999999999999909e-01,-1.253008896661571558e-01,-1.703096108386130680e-01,-1.550110024264246197e-02
1.469999999999999918e-01,-1.883530557074526435e-01,-1.923636194168755476e-01,-4.637288521539966596e-02
1.479999999999999927e-01,-2.233031932081811777e-01,-1.892782698800608565e-01,-8.617568146966372855e-02
1.489999999999999936e-01,-2.274016051856938003e-01,-1.799024281058121955e-01,-1.094323379826277753e-01
1.499999999999999944e-01,-2.340706209713514507e-01,-1.653616121590405497e-01,-1.309618704918838750e-01
1.509999999999999953e-01,-2.264469449444196092e-01,-1.141424499872173565e-01,-1.453611247221662794e-01
1.519999999999999962e-01,-1.802699546536997988e-01,-6.803945552092230398e-02,-1.366607013138486648e-01
1.529999999999999971e-01,-1.473419011282429691e-01,-2.565452079878631150e-02,-1.413414985404310154e-01
1.539999999999999980e-01,-8.397084949474005466e-02,3.887040075197036731e-02,-1.141038577956653977e-01
1.549999999999999989e-01,-2.853058483838031428e-02,8.263219088491750852e-02,-7.984812865809322313e-02
1.559999999999999998e-01,3.668335960508840171e-02,1.224525640446822994e-01,-4.581271820154197982e-02
1.570000000000000007e-01,1.050498843943095811e-01,1.645058951711508288e-01,-9.883577672556131608e-03
1.580000000000000016e-01,1.687705849565767080e-01,1.938151328823232988e-01,3.463789997957952838e-02
1.590000000000000024e-01,2.116022050471264848e-01,1.987846242830259014e-01,6.779461108933552971e-02
1.600000000000000033e-01,2.331298031629113199e-01,1.902869622763426749e-01,1.028169927640611298e-01
1.610000000000000042e-01,2.475407595528342219e-01,1.560227853068146819e-01,1.366758049529460117e-01
1.620000000000000051e-01,2.334313967867114314e-01,1.298319691994962444e-01,1.411639236292432653e-01
1.630000000000000060e-01,1.971043731397649768e-01,8.668012216122640556e-02,1.609482972233679809e-01
1.640000000000000069e-01,1.510240585289046866e-01,3.446901667563277705e-02,1.385954241584769764e-01
1.650000000000000078e-01,1.026410050178940409e-01,-2.840004745979462369e-02,1.122895008648320536e-01
1.660000000000000087e-01,4.071232376814002546e-02,-7.059868081400161310e-02,8.548494235178535905e-02
1.670000000000000095e-01,-1.714020039579084581e-02,-1.273214872282391052e-01,6.854527565218219987e-02
1.680000000000000104e-01,-1.034203681012191567e-01,-1.625247154272828343e-01,3.040914693526849955e-02
1.690000000000000113e-01,-1.436984717685280966e-01,-1.809628506615763299e-01,-1.225529433217476503e-02
1.700000000000000122e-01,-2.009988602444841566e-01,-1.948172603302288364e-01,-5.102998664324410322e-02
1.710000000000000131e-01,-2.135229668839783990e-01,-1.808755349167600057e-01,-9.031418843032691657e-02
1.719999999999999862e-01,-2.441308887249034887e-01,-1.702124869074172209e-01,-1.044883826588795667e-01
1.729999999999999871e-01,-2.329318421495672753e-01,-1.299568218052311042e-01,-1.305781112911867103e-01
1.739999999999999880e-01,-2.189635731397902851e-01,-8.472872307390519331e-02,-1.449414758156498118e-01
1.749999999999999889e-01,-1.755682572230744531e-01,-5.667165551678789159e-02,-1.347026200861492218e-01
1.759999999999999898e-01,-1.081068883672727382e-01,2.336557031525479319e-02,-1.358319135011641365e-01
1.769999999999999907e-01,-7.083707506311176516e-02,6.047536258588356861e-02,-9.661796012075452023e-02
1.779999999999999916e-01,3.189810175435415281e-03,1.106963836445805233e-01,-7.969855284434336495e-02
1.789999999999999925e-01,7.492982513256778165e-02,1.520472717325969947e-01,-4.771312234635842475e-02
1.799999999999999933e-01,1.260176524412346122e-01,1.826150412453338978e-01,-1.936903310943103316e-03
1.809999999999999942e-01,1.902967478392738609e-01,1.958460477456042681e-01,4.515860085600967994e-02
1.819999999999999951e-01,2.137106544033790800e-01,1.893407713696612371e-01,6.381373843809846902e-02
1.829999999999999960e-01,2.395611823768935000e-01,1.797655383067586488e-01,1.068652685647334261e-01
1.839999999999999969e-01,2.442425077451612636e-01,1.331899269850984335e-01,1.261221560067495306e-01
1.849999999999999978e-01,2.317526732395676636e-01,9.980218181209241091e-02,1.453722315195059012e-01
1.859999999999999987e-01,1.827366110986509973e-01,5.818611049731126084e-02,1.520235040020292971e-01
1.869999999999999996e-01,1.518507585323233267e-01,1.660453925533343297e-02,1.302865070840120987e-01
1.880000000000000004e-01,8.690934833672249449e-02,-5.306590724701133049e-02,1.219127952222233274e-01
1.890000000000000013e-01,1.304927365687745706e-02,-1.062206303625828213e-01,9.685176388719507479e-02
1.900000000000000022e-01,-4.690772994538242729e-02,-1.477884075686466125e-01,7.006250407995555374e-02
1.910000000000000031e-01,-1.067339920642751266e-01,-1.782186238770619990e-01,2.259444572384131447e-02
1.920000000000000040e-01,-1.643421010958267814e-01,-1.780642730726522682e-01,-1.332100049954704213e-02
1.930000000000000049e-01,-2.160505501757385705e-01,-1.924923729298151642e-01,-4.969627732890010557e-02
1.940000000000000058e-01,-2.289082204164045453e-01,-1.705136234113515947e-01,-9.414165248002015485e-02
1.950000000000000067e-01,-2.535267873553383455e-01,-1.540556291761703833e-01,-1.059650600137968940e-01
1.960000000000000075e-01,-2.188671404478474969e-01,-1.096365296903339531e-01,-1.361356090277560105e-01
1.970000000000000084e-01,-2.002727049974575846e-01,-6.944324551949512814e-02,-1.481989986716630847e-01
1.980000000000000093e-01,-1.669275593811796188e-01,-6.799625711576892141e-03,-1.368310885654517861e-01
1.990000000000000102e-01,-1.124565049555713708e-01,3.460800781968413620e-02,-1.301763068445073446e-01
2.000000000000000111e-01,-4.490741343102550021e-02,8.574776631442156127e-02,-1.013502657039896254e-01
2.010000000000000120e-01,3.044712051419955559e-02,1.300832984111156276e-01,-8.268236513571802782e-02
2.020000000000000129e-01,9.122403026946243609e-02,1.800773743045230579e-01,-4.594150568770679482e-02
2.030000000000000138e-01,1.332663287054589307e-01,1.827930138331916587e-01,3.122709610925777403e-03
2.039999999999999869e-01,1.970966403638266251e-01,2.065607812673962151e-01,2.475544908446598510e-02
2.049999999999999878e-01,2.204238125449461405e-01,1.796296129585567003e-01,7.575760951559187828e-02
2.059999999999999887e-01,2.442151826691220939e-01,1.527054043957259410e-01,1.058865738680788010e-01
2.069999999999999896e-01,2.278958901333146825e-01,1.244232802889948947e-01,1.285540683732462330e-01
2.079999999999999905e-01,2.120149832884274665e-01,7.736711391546396976e-02,1.398971020266596699e-01
2.089999999999999913e-01,1.766895347378529268e-01,2.716597939847436097e-02,1.442012551168988799e-01
2.099999999999999922e-01,1.241017567572362951e-01,-1.993320341107972238e-02,1.401819053892611466e-01
2.109999999999999931e-01,7.761209472550763266e-02,-7.742169632888178110e-02,1.209374187548616364e-01
2.119999999999999940e-01,-3.472640889144048681e-03,-1.217472830019165619e-01,8.866611540961326365e-02
2.129999999999999949e-01,-6.851468934245605324e-02,-1.623147347288240172e-01,5.688932777063258200e-02
2.139999999999999958e-01,-1.267156795126156699e-01,-1.779561243972345719e-01,2.742892857320565828e-02
2.149999999999999967e-01,-1.771670246333342802e-01,-1.815497235598737547e-01,-2.086355553789783282e-02
2.159999999999999976e-01,-2.058085996270521134e-01,-1.847054979520799112e-01,-5.674794433179730646e-02
2.169999999999999984e-01,-2.361478967075576474e-01,-1.700272710284978506e-01,-8.393847128659237544e-02
2.179999999999999993e-01,-2.432437346121110455e-01,-1.380363268528645437e-01,-1.185483912862830974e-01
2.190000000000000002e-01,-2.237720990979034930e-01,-8.664159899813168864e-02,-1.353302783525148767e-01
2.200000000000000011e-01,-1.923269767782028739e-01,-2.279282524942343249e-02,-1.594189141215923422e-01
2.210000000000000020e-01,-1.593003560041680589e-01,9.996154431922140565e-03,-1.439838208479501391e-01
2.220000000000000029e-01,-8.410217146138225519e-02,6.665870985655868164e-02,-1.212855943459536928e-01
2.230000000000000038e-01,-1.958092508516496785e-02,1.114314751099285128e-01,-1.098400212742047244e-01
2.240000000000000047e-01,4.630144799698154845e-02,1.435600175942061685e-01,-6.899301358081046109e-02
2.250000000000000056e-01,9.939208306407973370e-02,1.599263824122208744e-01,-3.010946958329195622e-02
2.260000000000000064e-01,1.700524051251718904e-01,1.955616144164030457e-01,3.439580534213664866e-03
2.270000000000000073e-01,2.127858399760899355e-01,1.882537596414058934e-01,4.360512221024350626e-02
2.280000000000000082e-01,2.236167853616821410e-01,1.745387280280527031e-01,7.573713905863424523e-02
2.290000000000000091e-01,2.391641908356175739e-01,1.333349086239360715e-01,1.189055268333384097e-01
2.300000000000000100e-01,2.287491332532886057e-01,1.041473160056583941e-01,1.373131040038083062e-01
2.310000000000000109e-01,2.018948659127291212e-01,5.429435265187736170e-02,1.379385719705487345e-01
2.320000000000000118e-01,1.544617821442757777e-01,-3.270044887830686302e-03,1.282946747651327601e-01
2.330000000000000127e-01,1.074363698299503206e-01,-6.049023055030897100e-02,1.301071106680533884e-01
2.340000000000000135e-01,4.336336449327323622e-02,-1.080571838355549041e-01,1.068945794607518290e-01
2.349999999999999867e-01,-2.052453121431684069e-02,-1.316867042301567148e-01,8.579626958311266371e-02
2.359999999999999876e-01,-8.647424836441597318e-02,-1.747430991541358836e-01,4.937163581199710549e-02
2.369999999999999885e-01,-1.428117022480395182e-01,-1.990228354375196129e-01,5.531192935415370042e-03
2.379999999999999893e-01,-1.987735212989607536e-01,-1.833093713533109625e-01,-1.909733172675004420e-02
2.389999999999999902e-01,-2.310170987138571441e-01,-1.790327408977435142e-01,-6.814160096327907812e-02
2.399999999999999911e-01,-2.388816460555625576e-01,-1.494094950581487946e-01,-8.972148696194186257e-02
2.409999999999999920e-01,-2.318915096734003589e-01,-1.144292188907207880e-01,-1.308895159259431673e-01
2.419999999999999929e-01,-2.171495595700621839e-01,-6.249336166573924572e-02,-1.369267425112081771e-01
2.429999999999999938e-01,-1.842731861475566391e-01,-2.064316154617062971e-02,-1.481674840582217212e-01
2.439999999999999947e-01,-1.284402615759133726e-01,3.877722901600547112e-02,-1.298566865556066985e-01
2.449999999999999956e-01,-6.830052204960759821e-02,9.151578286809217144e-02,-1.296161717744424569e-01
2.459999999999999964e-01,-2.314068621520976032e-03,1.252543615980707681e-01,-1.030988705861076299e-01
2.469999999999999973e-01,6.209419796576802486e-02,1.662682936119501964e-01,-7.432889372511047865e-02
2.479999999999999982e-01,1.258463687202523162e-01,1.838184293762258892e-01,-2.128539921777588065e-02
2.489999999999999991e-01,1.894254510399551450e-01,1.859510496950942671e-01,-1.500927787900029585e-02
2.500000000000000000e-01,2.168061137178612374e-01,1.687526319434136945e-01,3.613927246673780819e-02
2.510000000000000009e-01,2.394699141488654814e-01,1.554531269960493789e-01,8.282488075706236075e-02
2.520000000000000018e-01,2.407001206380538771e-01,1.305069694015114912e-01,1.183235252413753491e-01
2.530000000000000027e-01,2.276491035051824430e-01,7.881150420696508840e-02,1.359529830685555774e-01
2.540000000000000036e-01,1.956414618359607061e-01,2.615862587455010727e-02,1.514418732709238991e-01
2.550000000000000044e-01,1.422302925025285825e-01,-2.404204937185624655e-02,1.344450748204145674e-01
2.560000000000000053e-01,9.520843185207757131e-02,-8.141824537607680878e-02,1.332998218579475591e-01
2.570000000000000062e-01,2.062673137971560849e-02,-1.321293173478190475e-01,1.083747223667858167e-01
2.580000000000000071e-01,-6.255902931312994075e-02,-1.619560878925174752e-01,9.388052642399384584e-02
2.590000000000000080e-01,-1.078627764076614953e-01,-1.903493106794000578e-01,4.547019134666573092e-02
2.600000000000000089e-01,-1.677878950604125841e-01,-2.066083866602983488e-01,1.282397452919214857e-02
2.610000000000000098e-01,-2.063206398190876867e-01,-1.891281801692314968e-01,-2.562834282893616464e-02
2.620000000000000107e-01,-2.353515112005334642e-01,-1.651027238528939289e-01,-8.018524255606042372e-02
2.630000000000000115e-01,-2.417679067259853598e-01,-1.200118482858083535e-01,-9.456574497595232609e-02
2.640000000000000124e-01,-2.384916996706180625e-01,-8.951629627603754913e-02,-1.266606733152677022e-01
2.650000000000000133e-01,-1.962785222073439029e-01,-4.929331999687235066e-02,-1.405011233776561619e-01
2.660000000000000142e-01,-1.602509539571823072e-01,1.324632441507363201e-02,-1.476788575854537100e-01
2.670000000000000151e-01,-1.157235719828326320e-01,8.191438493295366552e-02,-1.343821322954167341e-01
2.680000000000000160e-01,-4.887680989697418266e-02,1.116271541972422149e-01,-1.302279736120180997e-01
2.690000000000000169e-01,1.726244768602843566e-02,1.606259002923913493e-01,-7.841165465651991906e-02
2.700000000000000178e-01,8.580953631132581805e-02,1.832640919822391690e-01,-6.389926319172010982e-02
2.710000000000000187e-01,1.497191013485005273e-01,1.832938495654748978e-01,-3.423762970689054469e-02
2.720000000000000195e-01,1.873686704660565139e-01,1.890715244239887793e-01,5.607275477394695062e-03
2.730000000000000204e-01,2.204989224474148135e-01,1.685220914570120798e-01,3.833491512238797888e-02
2.740000000000000213e-01,2.398617050402066520e-01,1.375680680928675625e-01,8.985181015601327592e-02
2.750000000000000222e-01,2.368706701943368020e-01,9.170314733479244251e-02,1.085798956096884899e-01
2.760000000000000231e-01,2.148625481339952181e-01,4.402840320337093188e-02,1.411029749817735712e-01
2.770000000000000240e-01,1.773852707302642773e-01,1.700640878475016046e-03,1.400341995680976226e-01
2.780000000000000249e-01,1.282837396955626985e-01,-5.325205045004991616e-02,1.357934644595586160e-01
2.790000000000000258e-01,6.870723129470200641e-02,-1.144111120706346463e-01,1.279672951741793185e-01
2.800000000000000266e-01,-5.394769043760583478e-03,-1.556227095042205522e-01,1.198771626107215382e-01
2.810000000000000275e-01,-5.791295282510249692e-02,-1.753572654208089832e-01,8.439027825081103773e-02
2.819999999999999729e-01,-1.169209034499766875e-01,-2.114848866886755996e-01,4.587105600578083447e-02
2.829999999999999738e-01,-1.773309736142772430e-01,-1.932777828560770794e-01,1.245186598503277529e-02
2.839999999999999747e-01,-2.232834155793825548e-01,-1.773547374215157790e-01,-4.633640307070643893e-02
2.849999999999999756e-01,-2.454443955074038508e-01,-1.585365683726969732e-01,-6.045349819888799076e-02
2.859999999999999765e-01,-2.340863482168329679e-01,-1.072022341466267181e-01,-9.806242833268331849e-02
2.869999999999999774e-01,-2.236192776385144965e-01,-5.684694865291471666e-02,-1.278936029793827922e-01
2.879999999999999782e-01,-1.917729219299946775e-01,-9.665756022446462398e-03,-1.386111103333471373e-01
2.889999999999999791e-01,-1.475689557317511336e-01,4.309723190171872026e-02,-1.395224451688018841e-01
2.899999999999999800e-01,-9.823861845229872602e-02,8.431628331327979675e-02,-1.506526158229399559e-01
2.909999999999999809e-01,-3.204708123262719338e-02,1.356349825886899729e-01,-1.221046711598945123e-01
2.919999999999999818e-01,2.417186822034388116e-02,1.712342910410993568e-01,-9.203352221074835582e-02
2.929999999999999827e-01,1.106739237855422220e-01,1.756742810354974538e-01,-6.712945612032983345e-02
2.939999999999999836e-01,1.549829288841117481e-01,1.853390714897986402e-01,-3.184236374131603486e-02
2.949999999999999845e-01,1.980455192947280507e-01,1.842335724437621225e-01,1.371497436428781302e-02
2.959999999999999853e-01,2.308399666033752184e-01,1.473638888643128697e-01,5.876423087353895708e-02
2.969999999999999862e-01,2.332557572859680073e-01,1.206819764030159781e-01,9.825410412554881623e-02
2.979999999999999871e-01,2.275050612413330731e-01,7.225268519065301820e-02,1.136746731984666497e-01
2.989999999999999880e-01,2.050109169179131774e-01,7.278247241408349749e-03,1.252679512808039797e-01
2.999999999999999889e-01,1.595956332334628747e-01,-4.638839430603126229e-02,1.445693672136252328e-01
3.009999999999999898e-01,1.148414767275933029e-01,-8.357114342772932469e-02,1.420427702445345997e-01
3.019999999999999907e-01,4.165827019881701565e-02,-1.331584958591133239e-01,1.326345942947947110e-01
3.029999999999999916e-01,-1.256114263090821713e-02,-1.585506156060490779e-01,1.152570031094505010e-01
3.039999999999999925e-01,-8.519520969789552700e-02,-1.844832363396839148e-01,7.921358940624477485e-02
3.049999999999999933e-01,-1.389869226287605841e-01,-1.833982224400252936e-01,3.453644823115062379e-02
3.059999999999999942e-01,-1.970001338855578987e-01,-1.874419629810944454e-01,7.626158053007926242e-03
3.069999999999999951e-01,-2.273170207496597317e-01,-1.617534635089611650e-01,-3.470016679520838976e-02
3.079999999999999960e-01,-2.341982393072049584e-01,-1.202876413321803256e-01,-6.508082820676193425e-02
3.089999999999999969e-01,-2.429284544178888505e-01,-8.302283140825757191e-02,-1.065018599094193635e-01
3.099999999999999978e-01,-2.265033666851117289e-01,-3.065878144887424633e-02,-1.336421483335558935e-01
3.109999999999999987e-01,-1.807239502675951071e-01,3.467039058934118234e-02,-1.452499072932670054e-01
3.119999999999999996e-01,-1.382904886440539105e-01,6.897583258516536142e-02,-1.467157945207730740e-01
3.130000000000000004e-01,-8.025651759865333468e-02,1.129053072344317621e-01,-1.402894915379303831e-01
3.140000000000000013e-01,-1.675881174574672802e-03,1.609342820669500962e-01,-1.174216065992639418e-01
3.150000000000000022e-01,6.112825122776192888e-02,1.899114039886834193e-01,-1.040014944755173060e-01
3.160000000000000031e-01,1.308762932423596370e-01,1.997098924715053903e-01,-5.624836994839550047e-02
3.170000000000000040e-01,1.703952115778230580e-01,1.986486145539088644e-01,-3.324966826689752103e-02
3.180000000000000049e-01,2.100091438590567794e-01,1.578467306851139562e-01,4.583425663987694167e-03
3.190000000000000058e-01,2.329765262312226970e-01,1.463454109734038111e-01,5.262934319002995909e-02
3.200000000000000067e-01,2.413075782531585722e-01,1.010392007027799965e-01,9.123206598342079032e-02
3.210000000000000075e-01,2.253630098262708326e-01,2.564519232798175702e-02,1.169067525811447739e-01
3.220000000000000084e-01,1.866171902601262145e-01,4.905072450112485383e-03,1.359705549664055046e-01
3.230000000000000093e-01,1.499093706773013124e-01,-6.627970555343233594e-02,1.481171561318830321e-01
3.240000000000000102e-01,9.816487135704786426e-02,-1.095100145158963839e-01,1.447498887263581890e-01
3.250000000000000111e-01,3.404284015656678514e-02,-1.482702741047258743e-01,1.346414721389447566e-01
3.260000000000000120e-01,-5.770320813846252506e-02,-1.708939195198506400e-01,1.117679926753831349e-01
3.270000000000000129e-01,-9.320140735998043435e-02,-2.042787122257731791e-01,7.168010157144871775e-02
3.280000000000000138e-01,-1.603308648338520326e-01,-1.897767237061554202e-01,3.551381850357625269e-02
3.290000000000000147e-01,-2.012659293796315585e-01,-1.706023573233375057e-01,-2.629421813041650773e-03
3.300000000000000155e-01,-2.284880067741485998e-01,-1.466073652283634843e-01,-3.817552237419560845e-02
3.310000000000000164e-01,-2.467031344445437258e-01,-1.115780303073153346e-01,-6.882639481065391807e-02
3.320000000000000173e-01,-2.345267409235560208e-01,-5.957258216257343975e-02,-9.519777173316011643e-02
3.330000000000000182e-01,-1.940212510745678298e-01,-4.763328911406138760e-03,-1.293865735456764809e-01
3.340000000000000191e-01,-1.650878864213497776e-01,4.936191927390435469e-02,-1.366774285120126442e-01
3.350000000000000200e-01,-1.155907902093650658e-01,1.020310788407219477e-01,-1.453257986601242946e-01
3.360000000000000209e-01,-5.346157006206879447e-02,1.461581841588816544e-01,-1.292770470985113440e-01
3.370000000000000218e-01,1.254777020477096557e-02,1.759669812373716169e-01,-1.236259446433023712e-01
3.380000000000000226e-01,7.275169618350246781e-02,1.786709637834942854e-01,-9.854082604613968732e-02
3.390000000000000235e-01,1.374974390829634685e-01,1.930579914835617028e-01,-6.609597890588286839e-02
3.400000000000000244e-01,1.801001678230745029e-01,1.910391127170261716e-01,-2.168438544890976052e-02
3.410000000000000253e-01,2.276372666259470212e-01,1.676957709569040778e-01,1.362721679524896493e-02
3.420000000000000262e-01,2.423578082048826188e-01,1.210985775367739853e-01,5.521631736819204717e-02
3.430000000000000271e-01,2.340015974872142468e-01,7.294272402100979158e-02,9.094288224905576479e-02
3.439999999999999725e-01,2.205851018496172433e-01,1.093968644031386751e-02,1.005908521094023150e-01
3.449999999999999734e-01,1.792024721868431258e-01,-3.489528207323040754e-02,1.364202845285914234e-01
3.459999999999999742e-01,1.148658653672645635e-01,-8.495093374263268382e-02,1.474553333481634920e-01
3.469999999999999751e-01,6.613658401461851299e-02,-1.410640973462000958e-01,1.350932891090431964e-01
3.479999999999999760e-01,7.172466380067839785e-03,-1.659574984214621796e-01,1.364524955213065049e-01
3.489999999999999769e-01,-4.388187419660709299e-02,-1.881046670933278486e-01,1.046441629789790356e-01
3.499999999999999778e-01,-1.293527511647978856e-01,-1.960583759116507341e-01,7.079898581012654402e-02
3.509999999999999787e-01,-1.655970978932186921e-01,-1.774923385025942990e-01,4.061128551659706071e-02
3.519999999999999796e-01,-2.180794319173015583e-01,-1.648971182042113792e-01,-2.513218006111241076e-03
3.529999999999999805e-01,-2.301555358756524339e-01,-1.185658892828142380e-01,-4.576734179509428513e-02
3.539999999999999813e-01,-2.315993769632066490e-01,-7.991910991597406255e-02,-7.947648377680931187e-02
3.549999999999999822e-01,-2.225374854484249987e-01,-1.968810455962316172e-02,-1.076588416925945840e-01
3.559999999999999831e-01,-2.028656630678778439e-01,2.947655306444909099e-02,-1.328472726112484292e-01
3.569999999999999840e-01,-1.527889929926532220e-01,7.065350987802325455e-02,-1.539686145203422452e-01
3.579999999999999849e-01,-8.991398062868466434e-02,1.276808149626196542e-01,-1.386710929274969917e-01
3.589999999999999858e-01,-3.270653180429072132e-02,1.601193801835168740e-01,-1.316085295102213393e-01
3.599999999999999867e-01,3.225942027504016818e-02,1.761241100709999841e-01,-1.215839621839913676e-01
3.609999999999999876e-01,9.487894429586328504e-02,1.985325804732220034e-01,-9.213757432559048499e-02
3.619999999999999885e-01,1.644596176666531517e-01,1.847000944905948516e-01,-5.537137293111722008e-02
3.629999999999999893e-01,2.033830017983839777e-01,1.751127909900085655e-01,-2.323009587601973513e-02
3.639999999999999902e-01,2.282812464097046523e-01,1.328078831000794324e-01,1.830378815868197173e-02
3.649999999999999911e-01,2.469782086267572063e-01,8.800900725814628234e-02,5.011059663454619367e-02
3.659999999999999920e-01,2.367384161668377451e-01,2.941851779479590784e-02,8.653840241738275374e-02
3.669999999999999929e-01,2.032956681717747183e-01,-1.335079924603521824e-02,1.091924419400619739e-01
3.679999999999999938e-01,1.696397782883060923e-01,-6.257061069513822349e-02,1.333342724852541461e-01
3.689999999999999947e-01,1.178487905158206034e-01,-1.178081069220608262e-01,1.374245081289516557e-01
3.699999999999999956e-01,4.997908323093571553e-02,-1.496436794900315725e-01,1.339927068405958044e-01
3.709999999999999964e-01,-2.111382217940332984e-02,-1.683217976656381232e-01,1.285452420948310637e-01
3.719999999999999973e-01,-6.882718423853086132e-02,-1.830442327603666319e-01,1.039758899399579745e-01
3.729999999999999982e-01,-1.419291159995421658e-01,-1.901598091121830536e-01,7.294077562596200381e-02
3.739999999999999991e-01,-1.827455461864574415e-01,-1.615372610202054915e-01,3.367739261460662298e-02
3.750000000000000000e-01,-2.237836583968455806e-01,-1.400000986452398510e-01,-1.332528893954974120e-02
3.760000000000000009e-01,-2.343208203858285765e-01,-1.048802962598628652e-01,-3.769632801660780658e-02
3.770000000000000018e-01,-2.192274690250583802e-01,-5.471717648142301882e-02,-6.703073890536156987e-02
3.780000000000000027e-01,-2.121327893493097361e-01,-1.461341914614930348e-03,-1.157147181674279268e-01
3.790000000000000036e-01,-1.969900539943429951e-01,5.143218197827477411e-02,-1.373592787572133211e-01
3.800000000000000044e-01,-1.351149138903752767e-01,9.857189825034862185e-02,-1.396570259045105955e-01
3.810000000000000053e-01,-6.773707316728620753e-02,1.314055495316980848e-01,-1.473934081637540139e-01
3.820000000000000062e-01,-2.200502276370855034e-02,1.607581463311021364e-01,-1.310933487165863998e-01
3.830000000000000071e-01,6.084954396420630407e-02,1.861609925009993227e-01,-1.135691537307332438e-01
3.840000000000000080e-01,1.244517590326485457e-01,1.906474145638860362e-01,-8.293856409801826646e-02
3.850000000000000089e-01,1.709913134535866741e-01,1.831374327554525228e-01,-6.695625661109527726e-02
3.860000000000000098e-01,2.077776582767090485e-01,1.542830494856489154e-01,-1.770230139476492576e-02
3.870000000000000107e-01,2.327875672741848145e-01,1.086749213874382142e-01,2.236829351900356672e-02
3.880000000000000115e-01,2.304619951049654558e-01,5.700102393909460552e-02,6.629475785188894410e-02
3.890000000000000124e-01,2.219837034001286014e-01,1.561588954841820059e-02,9.714176192482201766e-02
3.900000000000000133e-01,1.879997477689540064e-01,-4.550023760238138676e-02,1.227104363095622430e-01
3.910000000000000142e-01,1.427225614658262365e-01,-1.033888929978561133e-01,1.431802156089362343e-01
3.920000000000000151e-01,1.087823336821506087e-01,-1.300668619712828933e-01,1.436331013503747422e-01
3.930000000000000160e-01,4.365997851163026799e-02,-1.630852300974014457e-01,1.411491756997325098e-01
3.940000000000000169e-01,-2.300080312934830659e-02,-1.857731791202734684e-01,1.284874805129442021e-01
3.950000000000000178e-01,-1.001110285269342509e-01,-1.988288703112327249e-01,1.050279333094242956e-01
3.960000000000000187e-01,-1.686084914268298762e-01,-1.972108657875653592e-01,6.847331081375360173e-02
3.970000000000000195e-01,-1.980893071703954122e-01,-1.521430544343622682e-01,2.761209922355543911e-02
3.980000000000000204e-01,-2.406264226227557701e-01,-1.146310059251509084e-01,-1.215559138484926735e-02
3.990000000000000213e-01,-2.441410607618086370e-01,-7.371448493640694877e-02,-4.811556796545952280e-02
4.000000000000000222e-01,-2.339092852230872654e-01,-3.026055304694192163e-02,-8.643111148540801036e-02
4.010000000000000231e-01,-2.080569746922198981e-01,2.468385703219215174e-02,-1.072566974104261217e-01
4.020000000000000240e-01,-1.738292811300938823e-01,8.734677787048072961e-02,-1.269410589283313795e-01
4.030000000000000249e-01,-1.166082762240947118e-01,1.363110978152298758e-01,-1.301087179388643600e-01
4.040000000000000258e-01,-4.841440766244813759e-02,1.468833776523108814e-01,-1.453915866621619257e-01
4.050000000000000266e-01,2.291900118411847875e-02,1.763191634618711812e-01,-1.406920172454560469e-01
4.060000000000000275e-01,7.723290155840376037e-02,1.968456984544161292e-01,-1.083318745585918064e-01
4.069999999999999729e-01,1.435153070613233439e-01,1.913554133783322564e-01,-9.734460315676905784e-02
4.079999999999999738e-01,1.858365344199425229e-01,1.551293967565239018e-01,-4.431077954226483179e-02
4.089999999999999747e-01,2.171031988196900631e-01,1.290477088756641355e-01,-1.712279177080615333e-02
4.099999999999999756e-01,2.362746617185979836e-01,9.255372209385971660e-02,3.056683796387107618e-02
4.109999999999999765e-01,2.341057387481996765e-01,4.661211840120021294e-02,6.927848087486869477e-02
4.119999999999999774e-01,2.210496508863307452e-01,-1.092779900772880043e-02,9.687252424908507353e-02
4.129999999999999782e-01,1.839176215833415728e-01,-6.056810318531612169e-02,1.183228430059745095e-01
4.139999999999999791e-01,1.413829682779726982e-01,-1.105683582257718234e-01,1.310516329477118269e-01
4.149999999999999800e-01,6.739897994595228647e-02,-1.638581533307264526e-01,1.481109349182043733e-01
4.159999999999999809e-01,1.876157120513607945e-02,-1.610459767165645650e-01,1.337353480444518072e-01
4.169999999999999818e-01,-4.502460673288100068e-02,-1.863820451697602854e-01,1.145115882543910474e-01
4.179999999999999827e-01,-1.206609077877352221e-01,-1.886406446278023896e-01,1.044229200142922365e-01
4.189999999999999836e-01,-1.663796237224310637e-01,-1.716866961281910409e-01,7.629229403244179586e-02
4.199999999999999845e-01,-2.188809651843018622e-01,-1.519676569452765857e-01,2.358949858306694236e-02
4.209999999999999853e-01,-2.285691111809471376e-01,-1.000391942459614436e-01,-2.035971127759098054e-02
4.219999999999999862e-01,-2.457073893977384516e-01,-4.947988827281247365e-02,-6.399171607795020589e-02
4.229999999999999871e-01,-2.294114350265210045e-01,-6.138330573837668357e-04,-8.536444960958343431e-02
4.239999999999999880e-01,-2.028179510559788845e-01,6.012981206207827084e-02,-9.782833697754066138e-02
4.249999999999999889e-01,-1.594704745577406046e-01,1.078377160596304257e-01,-1.295177492152325693e-01
4.259999999999999898e-01,-8.913752117422156507e-02,1.541246558026144742e-01,-1.359941897299691005e-01
4.269999999999999907e-01,-4.494953134122697119e-02,1.737600053405579104e-01,-1.333537536402076285e-01
4.279999999999999916e-01,4.010531386794772418e-02,1.894065193865520635e-01,-1.282129373572783448e-01
4.289999999999999925e-01,1.066491498413698058e-01,2.023667687396220605e-01,-1.039117728164608290e-01
4.299999999999999933e-01,1.463543965424877746e-01,1.836132060862097071e-01,-7.634174291021400549e-02
4.309999999999999942e-01,2.005725662718747804e-01,1.535089193133525876e-01,-3.765088982428101139e-02
4.319999999999999951e-01,2.234577177651049795e-01,1.125086698698897214e-01,-9.533396603297862593e-03
4.329999999999999960e-01,2.463823380800683471e-01,7.751451162256348115e-02,3.337343679233727850e-02
4.339999999999999969e-01,2.406298354791044369e-01,1.543229565768467447e-02,7.765451560215261284e-02
4.349999999999999978e-01,2.035876089595445859e-01,-3.912766402932921217e-02,9.463782389747059376e-02
4.359999999999999987e-01,1.797997827896524181e-01,-9.593383583833392514e-02,1.341738334319527992e-01
4.369999999999999996e-01,1.214514953774384343e-01,-1.329298477132981326e-01,1.347212870313496957e-01
4.380000000000000004e-01,4.643021833067242227e-02,-1.658877717697825882e-01,1.354680212589105259e-01
4.390000000000000013e-01,-7.191728155908256453e-03,-1.895427795600425624e-01,1.335045260451772908e-01
4.400000000000000022e-01,-7.492374007940678926e-02,-1.962496958455926255e-01,1.251982206919996232e-01
4.410000000000000031e-01,-1.283392261752458186e-01,-1.799169515509736195e-01,1.021921075264175666e-01
4.420000000000000040e-01,-1.774049514322418308e-01,-1.543048386138458905e-01,6.061933777006361240e-02
4.430000000000000049e-01,-2.274128458465387026e-01,-1.148999193466323787e-01,1.702181021081694556e-02
4.440000000000000058e-01,-2.448022076174655448e-01,-7.151125226979004879e-02,-6.926089940824062827e-04
4.450000000000000067e-01,-2.342416973347536402e-01,-2.262288641759022112e-02,-6.869409633010491179e-02
4.460000000000000075e-01,-2.228380226822081200e-01,3.400009961151032739e-02,-9.171179753498621967e-02
4.470000000000000084e-01,-1.803578017041698456e-01,9.156600544237400441e-02,-1.069372850539358349e-01
4.480000000000000093e-01,-1.409392167423353381e-01,1.263504586202907065e-01,-1.380887879365221282e-01
4.490000000000000102e-01,-7.883649152880393973e-02,1.731557189081157633e-01,-1.488977917586070954e-01
4.500000000000000111e-01,-8.360406618097239104e-03,1.733622542060895000e-01,-1.388057306286068493e-01
4.510000000000000120e-01,5.010595946434075881e-02,1.999283634367334528e-01,-1.188144279851172519e-01
4.520000000000000129e-01,1.207173704952144294e-01,1.905982295006427851e-01,-1.207351668773644776e-01
4.530000000000000138e-01,1.687407608641772749e-01,1.473774800158854648e-01,-7.249743466531670399e-02
4.540000000000000147e-01,2.164376647614378313e-01,1.322815261111025265e-01,-3.537106088332000325e-02
4.550000000000000155e-01,2.250848680555372350e-01,9.307390210504283556e-02,-1.117025541613173023e-02
4.560000000000000164e-01,2.396506401033401956e-01,3.631907586866930243e-02,3.792550591919046504e-02
4.570000000000000173e-01,2.174533755771758947e-01,-3.571317964706426096e-02,7.347518810247191667e-02
4.580000000000000182e-01,1.969101237397430093e-01,-6.931314263589313795e-02,9.004661422830055606e-02
4.590000000000000191e-01,1.618155519934052211e-01,-1.164269514295831337e-01,1.187036006643471808e-01
4.600000000000000200e-01,1.117682726170021595e-01,-1.473790257529711545e-01,1.320745595516991111e-01
4.610000000000000209e-01,3.948846867203462813e-02,-1.790072393006807983e-01,1.487574630199807735e-01
4.620000000000000218e-01,-2.548717306164177687e-02,-1.944270632335326210e-01,1.209438055330887829e-01
4.630000000000000226e-01,-9.553410686182373102e-02,-1.963633712335719761e-01,1.234736286263463517e-01
4.640000000000000235e-01,-1.574658931373465187e-01,-1.585916615773850513e-01,9.520155910473997174e-02
4.650000000000000244e-01,-2.063737905331936018e-01,-1.266289370199346898e-01,6.487031621073430232e-02
4.660000000000000253e-01,-2.352180670826081177e-01,-9.201345048851841679e-02,1.699602161345799625e-02
4.670000000000000262e-01,-2.391209319422486490e-01,-3.581649482144490942e-02,-8.378553789453676431e-03
4.680000000000000271e-01,-2.237894744836576300e-01,9.756502104605883213e-03,-5.784104587112012114e-02
4.689999999999999725e-01,-2.126292817706488814e-01,6.153288883067526555e-02,-7.968191957066592113e-02
4.699999999999999734e-01,-1.722733909583030187e-01,1.102742520088509093e-01,-1.193016049593800670e-01
4.709999999999999742e-01,-1.210959720826911279e-01,1.491848504308683487e-01,-1.392368890411457838e-01
4.719999999999999751e-01,-5.034481483132469820e-02,1.795986371006451920e-01,-1.413628538877601537e-01
4.729999999999999760e-01,1.713140333699163242e-02,1.884758505439139142e-01,-1.450474495481142712e-01
4.739999999999999769e-01,7.125404839088451958e-02,1.860735063084331953e-01,-1.323136405471025956e-01
4.749999999999999778e-01,1.257971984736517557e-01,1.698834497447648806e-01,-1.056037978601059718e-01
4.759999999999999787e-01,1.851523968400585751e-01,1.422235243265886351e-01,-6.944582794240301837e-02
4.769999999999999796e-01,2.155963144641682983e-01,1.099915371945215103e-01,-4.876204097033520757e-02
4.779999999999999805e-01,2.399608008259563052e-01,5.093145080266808095e-02,-5.524473822269798488e-03
4.789999999999999813e-01,2.356919587253472337e-01,-3.900719369487814885e-03,5.043999389942743078e-02
4.799999999999999822e-01,2.239310371139419664e-01,-4.206277983900382628e-02,6.681823131095823709e-02
4.809999999999999831e-01,1.837701941338794054e-01,-9.408383006210049859e-02,1.046324153935325879e-01
4.819999999999999840e-01,1.315992635880861295e-01,-1.430451958099890342e-01,1.379313062014350943e-01
4.829999999999999849e-01,8.962340864293660836e-02,-1.791426646818075619e-01,1.402167027743564387e-01
4.839999999999999858e-01,1.042541578686851170e-02,-1.818513607788354025e-01,1.470365390484568713e-01
4.849999999999999867e-01,-5.340443118293080466e-02,-1.891407783261621067e-01,1.226602386981175130e-01
4.859999999999999876e-01,-1.052687163258679837e-01,-1.851258361344794989e-01,1.155716039657927463e-01
4.869999999999999885e-01,-1.684576271059378960e-01,-1.586527410026306595e-01,8.585115494252495982e-02
4.879999999999999893e-01,-2.136462025853270719e-01,-1.162302659635593843e-01,6.389327038047831753e-02
4.889999999999999902e-01,-2.402336172211232690e-01,-6.379621231221027644e-02,1.140363601565941298e-02
4.899999999999999911e-01,-2.354268679149848775e-01,-1.333664905221365257e-02,-2.403298124122773063e-02
4.909999999999999920e-01,-2.214325969791529625e-01,3.348195963391867314e-02,-6.117944920077150045e-02
4.919999999999999929e-01,-1.997878085968398665e-01,7.624666513892891517e-02,-9.454331514630259781e-02
4.929999999999999938e-01,-1.632625085167903889e-01,1.261992414849485156e-01,-1.194435731008510748e-01
4.939999999999999947e-01,-1.033259192731545706e-01,1.524589813854886344e-01,-1.428884402801348930e-01
4.949999999999999956e-01,-3.474834846483226825e-02,1.900391001444975692e-01,-1.299185894098179028e-01
4.959999999999999964e-01,3.663735444586750656e-02,1.953748908479326918e-01,-1.344959390735873117e-01
4.969999999999999973e-01,9.819602976935098981e-02,1.836097429737060804e-01,-1.287242506794268326e-01
4.979999999999999982e-01,1.533344283040028733e-01,1.580477258243244421e-01,-1.037609092389883830e-01
4.989999999999999991e-01,1.908854999115830176e-01,1.172180918761732554e-01,-6.696821231525658391e-02
5.000000000000000000e-01,2.148264425463868588e-01,9.227537509691065287e-02,-3.433247848413244901e-02
5.010000000000000009e-01,2.475488098270440251e-01,2.865365387729449514e-02,1.691722696710731529e-03
5.020000000000000018e-01,2.335593040883109373e-01,-2.924041857048989904e-02,4.200983472818336367e-02
5.030000000000000027e-01,2.204045967654779115e-01,-7.064977774064759575e-02,7.264368006174290460e-02
5.040000000000000036e-01,1.757603181718332408e-01,-1.262096407059191405e-01,1.226795152047673726e-01
5.050000000000000044e-01,1.242912412068705313e-01,-1.484822465081752363e-01,1.424818204732171689e-01
5.060000000000000053e-01,5.656487112466530159e-02,-1.879019376926643614e-01,1.407882988546914904e-01
5.070000000000000062e-01,-6.978685717601604971e-03,-1.940701403387252999e-01,1.345220971507598284e-01
5.080000000000000071e-01,-6.929733880297606063e-02,-1.853706548930311726e-01,1.319035038608390997e-01
5.090000000000000080e-01,-1.303485094470253625e-01,-1.704037374794963033e-01,1.073930074348272007e-01
5.100000000000000089e-01,-1.729786816005207950e-01,-1.289964780230058172e-01,8.747237615172398506e-02
5.110000000000000098e-01,-2.141224435029865092e-01,-9.283449708939207901e-02,4.965256794989429678e-02
5.120000000000000107e-01,-2.378605685692330163e-01,-3.984094633823042492e-02,1.217246133570386128e-02
5.130000000000000115e-01,-2.544817583532619776e-01,1.233726268495765645e-02,-4.094634717445519434e-02
5.140000000000000124e-01,-2.274357660820195415e-01,6.102507722047484373e-02,-6.915338728572940907e-02
5.150000000000000133e-01,-1.916890688162839196e-01,1.218720685054633518e-01,-9.484428429473326649e-02
5.160000000000000142e-01,-1.457216548867290296e-01,1.537185592123123945e-01,-1.206426644013935123e-01
5.170000000000000151e-01,-8.517176875874724051e-02,1.772871280621595713e-01,-1.431923622781280103e-01
5.180000000000000160e-01,-2.010009304868039248e-02,1.937732382970554224e-01,-1.245396917819412974e-01
5.190000000000000169e-01,4.038160986123213309e-02,1.864363904901908398e-01,-1.441979350755558387e-01
5.200000000000000178e-01,1.134470652791845918e-01,1.755266952713758211e-01,-1.288337617244700306e-01
5.210000000000000187e-01,1.552143311299891415e-01,1.463408735783260917e-01,-1.092759409974694146e-01
5.220000000000000195e-01,2.067490849200499248e-01,9.686687365820040307e-02,-6.716705102005225692e-02
5.230000000000000204e-01,2.327336415517529955e-01,4.309893691973743640e-02,-3.221454430106613503e-02
5.240000000000000213e-01,2.360481019898921784e-01,-6.208916220591372513e-03,1.682270683697404540e-02
5.250000000000000222e-01,2.316843662191755138e-01,-6.117609621561422018e-02,2.273542908664596615e-02
5.260000000000000231e-01,2.096984451380291548e-01,-9.476531507471265547e-02,9.586016555471049694e-02
5.270000000000000240e-01,1.639171950749203632e-01,-1.394110700850891560e-01,1.018444243915853920e-01
5.280000000000000249e-01,1.036661887891622419e-01,-1.659877519305980043e-01,1.358279313760836493e-01
5.290000000000000258e-01,4.506227778502064352e-02,-1.972708277276372935e-01,1.315663430845030457e-01
5.300000000000000266e-01,-2.896885567807560083e-02,-1.803122004674380663e-01,1.398997061890497329e-01
5.310000000000000275e-01,-9.161840409700772181e-02,-1.833872635371234794e-01,1.433805298009196705e-01
5.320000000000000284e-01,-1.475588743706611750e-01,-1.447582904647078117e-01,1.101539426358573576e-01
5.330000000000000293e-01,-1.907334821283119819e-01,-1.080128420535127476e-01,7.499754722472801172e-02
5.340000000000000302e-01,-2.349640637692263501e-01,-6.503752019131441020e-02,4.066085262479580964e-02
5.350000000000000311e-01,-2.379262895805521749e-01,-2.258227498804203648e-02,1.682209879330405500e-02
5.360000000000000320e-01,-2.452340075183596924e-01,4.501958607889660485e-02,-2.825700680543459173e-02
5.370000000000000329e-01,-2.089787465946430778e-01,9.196184177502876589e-02,-5.694079666722299399e-02
5.380000000000000338e-01,-1.776113747923765696e-01,1.447536519451200765e-01,-9.471071245287249196e-02
5.390000000000000346e-01,-1.158698848461522102e-01,1.696100344395238269e-01,-1.267878890753205146e-01
5.400000000000000355e-01,-6.915526422682358176e-02,1.918208596385991282e-01,-1.395152072961126921e-01
5.410000000000000364e-01,9.854399568798516765e-04,1.883229644057046459e-01,-1.545812006401282579e-01
5.420000000000000373e-01,7.878639072814296040e-02,1.851653555077739932e-01,-1.409166681534953780e-01
5.430000000000000382e-01,1.298737643163631328e-01,1.569065893932231615e-01,-1.190270313928893514e-01
5.440000000000000391e-01,1.859631291907428985e-01,1.198438330884207259e-01,-1.002808369341690597e-01
5.450000000000000400e-01,2.349242792620091780e-01,7.732746013608679525e-02,-6.753934970664937643e-02
5.460000000000000409e-01,2.310249461118598635e-01,3.228953065412165646e-02,-2.265031245346353986e-02
5.470000000000000417e-01,2.325025277908472077e-01,-2.193754552471533295e-02,1.294711653841534166e-02
5.480000000000000426e-01,2.151077851184066969e-01,-8.280451972787009063e-02,5.747455339380931616e-02
5.490000000000000435e-01,1.766015194447262404e-01,-1.227714337350577778e-01,7.484169479454251539e-02
5.500000000000000444e-01,1.432411868140236466e-01,-1.611189704605396344e-01,1.110073514498839814e-01
5.510000000000000453e-01,8.117485423178490145e-02,-1.823461993108848322e-01,1.415334265996387453e-01
5.520000000000000462e-01,2.823257535110915498e-02,-1.958428604613903778e-01,1.511758088144879164e-01
5.530000000000000471e-01,-4.762670614038806705e-02,-1.874208446937676575e-01,1.430611639027507265e-01
5.540000000000000480e-01,-1.161999751112660906e-01,-1.607092366562718200e-01,1.235843694367215612e-01
5.550000000000000488e-01,-1.747255072583976943e-01,-1.389828396589972148e-01,1.159964772390897070e-01
5.560000000000000497e-01,-2.202474165611996992e-01,-8.633476382433058482e-02,7.745750126878422903e-02
5.570000000000000506e-01,-2.369344653979273130e-01,-3.632155229149060943e-02,4.015891657191079239e-02
5.580000000000000515e-01,-2.360450268888159286e-01,9.784960257893464061e-03,8.596573138465655323e-03
5.590000000000000524e-01,-2.341435390438673658e-01,6.971502877276793131e-02,-3.231870660949875962e-02
5.600000000000000533e-01,-2.077177536874821873e-01,1.014469093239834252e-01,-8.192482062755086780e-02
5.610000000000000542e-01,-1.632237654119403358e-01,1.545070490703467636e-01,-8.803414883810295466e-02
5.620000000000000551e-01,-1.124790361077205730e-01,1.846434995158615922e-01,-1.259868748029354113e-01
5.629999999999999449e-01,-4.156788693150601649e-02,1.908745476760263793e-01,-1.529575893256575891e-01
5.639999999999999458e-01,1.962713958416084994e-02,1.938448776300048249e-01,-1.381974144654830872e-01
5.649999999999999467e-01,8.338894290681866939e-02,1.634815658488068535e-01,-1.412865809135878115e-01
5.659999999999999476e-01,1.545429556440597874e-01,1.502180453988543052e-01,-1.131990716583303885e-01
5.669999999999999485e-01,2.054032200518208229e-01,9.075103039611243094e-02,-8.960894242027121759e-02
5.679999999999999494e-01,2.206123985576123603e-01,4.152458088476530113e-02,-6.771590039555810958e-02
5.689999999999999503e-01,2.400664830506704928e-01,-5.654010130695874374e-03,-2.451341164139171289e-02
5.699999999999999512e-01,2.207706939011042369e-01,-6.471930708319996450e-02,1.905180992633091069e-02
5.709999999999999520e-01,2.143103305565227934e-01,-1.069974175626386831e-01,4.587319482742030496e-02
5.719999999999999529e-01,1.756135970471484065e-01,-1.437008839473070676e-01,9.041106255152361881e-02
5.729999999999999538e-01,1.203782418170698670e-01,-1.661700533128203650e-01,1.199105561882731763e-01
5.739999999999999547e-01,6.491476374824567408e-02,-1.894598139617925114e-01,1.236564420768900274e-01
5.749999999999999556e-01,-6.707623556596960593e-03,-1.979502289656472624e-01,1.387349490518398343e-01
5.759999999999999565e-01,-5.439395168286138144e-02,-1.800128985466894205e-01,1.483889141998587791e-01
5.769999999999999574e-01,-1.282871530292892248e-01,-1.434115498284499468e-01,1.275412707840276605e-01
5.779999999999999583e-01,-1.736202939711884441e-01,-1.132241002299271132e-01,1.082421958126638245e-01
5.789999999999999591e-01,-2.087691193471298279e-01,-5.532203541614721942e-02,7.064631517570230113e-02
5.799999999999999600e-01,-2.434750816889818537e-01,-2.146266935477036519e-03,4.242436608169174173e-02
5.809999999999999609e-01,-2.283070407408659408e-01,4.321516688815927459e-02,4.580392835343325732e-03
5.819999999999999618e-01,-2.335809134367128892e-01,9.413603683794220800e-02,-3.734116154160395384e-02
5.829999999999999627e-01,-1.939038292356071447e-01,1.391411500567446835e-01,-6.970167310992270160e-02
5.839999999999999636e-01,-1.299869915599704551e-01,1.765358191484727446e-01,-1.063627310256107100e-01
5.849999999999999645e-01,-9.275050917143547180e-02,1.819850882841411166e-01,-1.251398649247117134e-01
5.859999999999999654e-01,-2.640933993918884518e-02,1.952981483000949259e-01,-1.362824221385726398e-01
5.869999999999999662e-01,4.104261885643298302e-02,1.849505932040453327e-01,-1.508182180924458049e-01
5.879999999999999671e-01,9.453256759855638292e-02,1.472118036765223958e-01,-1.249597227307215619e-01
5.889999999999999680e-01,1.562288025484324383e-01,1.118287233388794155e-01,-1.247588301159746060e-01
5.899999999999999689e-01,2.108976437108844859e-01,6.446486059113097633e-02,-9.618528066773343599e-02
5.909999999999999698e-01,2.315691996353244908e-01,1.551486566723174997e-02,-6.483659120837571843e-02
5.919999999999999707e-01,2.298794221609398725e-01,-4.020882942398048415e-02,-1.503932387239725194e-02
5.929999999999999716e-01,2.119408229234795160e-01,-8.444654950598587395e-02,1.452414722291385345e-02
5.939999999999999725e-01,1.978633585342363110e-01,-1.335304993166421816e-01,5.377651563992071060e-02
5.949999999999999734e-01,1.610974260116501688e-01,-1.597427870023113428e-01,9.298726674252209834e-02
5.959999999999999742e-01,9.839026039583576022e-02,-1.868772972727533732e-01,1.087994208206172209e-01
5.969999999999999751e-01,4.151498222255040060e-02,-1.961427252773716989e-01,1.322997206101664824e-01
5.979999999999999760e-01,-2.165594014224817357e-02,-1.897644127989989160e-01,1.336001150329294285e-01
5.989999999999999769e-01,-8.140004104392696560e-02,-1.677882095881214342e-01,1.297815435143053475e-01
5.999999999999999778e-01,-1.480047410221346504e-01,-1.280302181565119712e-01,1.324282130595471341e-01
6.009999999999999787e-01,-2.038220971039780838e-01,-7.666825967234940087e-02,1.067590257877357590e-01
6.019999999999999796e-01,-2.308700336039430923e-01,-3.885039767458680487e-02,7.649477011523500569e-02
6.029999999999999805e-01,-2.397951588740091233e-01,1.257288361328977484e-02,6.187222817849185458e-02
6.039999999999999813e-01,-2.391597793733985511e-01,7.079803095686683367e-02,9.251295518795651929e-03
6.049999999999999822e-01,-2.187873475301549686e-01,1.249778612668139138e-01,-4.437937208399314604e-02
6.059999999999999831e-01,-1.914059142749116593e-01,1.610851593096463419e-01,-6.648238773306060223e-02
6.069999999999999840e-01,-1.402759986799417546e-01,1.813959253132801930e-01,-1.078450824940954955e-01
6.079999999999999849e-01,-6.313652908929169583e-02,1.824255755554071157e-01,-1.204418015272899489e-01
6.089999999999999858e-01,-5.511844348353662874e-03,1.905271737330481163e-01,-1.367750721499215172e-01
6.099999999999999867e-01,6.121008255901134315e-02,1.810912933673369807e-01,-1.507080004838807497e-01
6.109999999999999876e-01,1.266408844512036669e-01,1.355682496955574745e-01,-1.403924770462643412e-01
6.119999999999999885e-01,1.811056677492033085e-01,9.590287693362715971e-02,-1.139356861820233352e-01
6.129999999999999893e-01,2.097198039168726991e-01,3.759751829109415910e-02,-9.191780798045279255e-02
6.139999999999999902e-01,2.270698281298098864e-01,-1.127757943678965764e-02,-5.286989390070298556e-02
6.149999999999999911e-01,2.340994680087951085e-01,-7.369791555546467698e-02,-1.603423352849706399e-02
6.159999999999999920e-01,2.339756737808176279e-01,-1.226490705191628228e-01,1.670475208217744173e-02
6.169999999999999929e-01,1.956401973973901642e-01,-1.500227150205706572e-01,5.929413837287077216e-02
6.179999999999999938e-01,1.430073564382334794e-01,-1.798049018670440369e-01,9.858168150179623390e-02
6.189999999999999947e-01,8.081183165015998204e-02,-1.800838660580594552e-01,1.038699872199778801e-01
6.199999999999999956e-01,1.317357917837184110e-02,-1.796791653878649919e-01,1.429663902670077480e-01
6.209999999999999964e-01,-3.763101692253728592e-02,-1.640908923292019594e-01,1.359296651194373262e-01
6.219999999999999973e-01,-1.066213033982250508e-01,-1.414857089059875228e-01,1.440219867351531513e-01
6.229999999999999982e-01,-1.561433374317180156e-01,-1.107890528598218932e-01,1.306914797300710307e-01
6.239999999999999991e-01,-2.021443882437837514e-01,-5.462033815754310101e-02,1.005171302757005142e-01
6.250000000000000000e-01,-2.295189713830449729e-01,8.793084552797906031e-03,7.739378995437606878e-02
6.260000000000000009e-01,-2.415283821962066479e-01,4.794840736955376104e-02,3.252534110676743445e-02
6.270000000000000018e-01,-2.311207514878293179e-01,9.709147572229021028e-02,1.209151302929726115e-03
6.280000000000000027e-01,-2.041741651986724582e-01,1.339196208396380428e-01,-4.251836009130403188e-02
6.290000000000000036e-01,-1.699890529531609407e-01,1.660359932860621390e-01,-8.547204194838527169e-02
6.300000000000000044e-01,-1.001108677529408131e-01,1.852900085525290286e-01,-1.095605897032306958e-01
6.310000000000000053e-01,-4.531915011491997880e-02,1.778744573744761026e-01,-1.236461087529822644e-01
6.320000000000000062e-01,2.121756123635782157e-02,1.865192518290368084e-01,-1.505182074468391640e-01
6.330000000000000071e-01,7.557251547870329211e-02,1.480949895963027119e-01,-1.398619475818416724e-01
6.340000000000000080e-01,1.417513568281409120e-01,1.140300550086473796e-01,-1.436763427938492765e-01
6.350000000000000089e-01,1.946177692886925659e-01,7.507211776837376116e-02,-1.195902492355432473e-01
6.360000000000000098e-01,2.229417957621438739e-01,1.512172910633956258e-02,-8.692286326593740009e-02
6.370000000000000107e-01,2.302727537840611460e-01,-4.120782476981998954e-02,-5.076756172443495224e-02
6.380000000000000115e-01,2.412298286094708699e-01,-8.370634356730262404e-02,-2.867238668293160819e-02
6.390000000000000124e-01,2.133318898351952708e-01,-1.337009408444568281e-01,3.186331204188096872e-02
6.400000000000000133e-01,1.790434990852535213e-01,-1.757140548683351344e-01,5.533911702050447329e-02
6.410000000000000142e-01,1.297064534799363122e-01,-1.953702966495279303e-01,8.705673415488578148e-02
6.420000000000000151e-01,5.636504429361787610e-02,-1.910798789122519492e-01,1.230135124832370391e-01
6.430000000000000160e-01,2.419193943413966777e-03,-1.855345087968122697e-01,1.358320103133058010e-01
6.440000000000000169e-01,-5.964670698970891277e-02,-1.566178455153449389e-01,1.459260856656217076e-01
6.450000000000000178e-01,-1.319734219458797431e-01,-1.224690729383413335e-01,1.244214033650070661e-01
6.460000000000000187e-01,-1.784937884663940766e-01,-8.537003868683400165e-02,1.259199381945449725e-01
6.470000000000000195e-01,-2.097438985152927926e-01,-2.765217784380060231e-02,9.787334434974946651e-02
6.480000000000000204e-01,-2.341456116587715131e-01,2.010119213607254596e-02,7.147882483440817780e-02
6.490000000000000213e-01,-2.429657838328972697e-01,6.853430993469336596e-02,3.478177744962576007e-02
6.500000000000000222e-01,-2.165019269936230839e-01,1.242369610919524248e-01,-4.538366325257073286e-03
6.510000000000000231e-01,-1.994623941448653293e-01,1.485041558412560081e-01,-4.100524677659465184e-02
6.520000000000000240e-01,-1.511375987964093393e-01,1.837622008948974761e-01,-8.187841135958845440e-02
6.530000000000000249e-01,-8.958039294671853170e-02,1.999033634286007388e-01,-1.147993687428847109e-01
6.540000000000000258e-01,-3.508368806364248887e-02,1.931912242644162891e-01,-1.377448873813292007e-01
6.550000000000000266e-01,3.924284130327770903e-02,1.709211346868147741e-01,-1.524329396087907851e-01
6.560000000000000275e-01,1.068649440607687129e-01,1.308475582969917672e-01,-1.559491366992259709e-01
6.570000000000000284e-01,1.569969845053057755e-01,9.941960149009618219e-02,-1.306387095321451253e-01
6.580000000000000293e-01,1.957161505699321902e-01,4.349963035497121655e-02,-1.063730563971806153e-01
6.590000000000000302e-01,2.254506862809352030e-01,-1.191281102578469961e-02,-8.609969608592402124e-02
6.600000000000000311e-01,2.417228672870273543e-01,-8.015014173897257177e-02,-4.114316164940091253e-02
6.610000000000000320e-01,2.337707785710822217e-01,-1.035701186636849708e-01,-1.910825532210295302e-02
6.620000000000000329e-01,1.982012434292663439e-01,-1.369584173532074345e-01,3.252495071901315149e-02
6.630000000000000338e-01,1.615235385239476018e-01,-1.840600248395264649e-01,6.321310113409409071e-02
6.640000000000000346e-01,1.183781168499683928e-01,-2.072533502267293049e-01,9.722470003285105244e-02
6.650000000000000355e-01,4.610124934919149903e-02,-1.886477370104302220e-01,1.238459916462889415e-01
6.660000000000000364e-01,-2.277677731618009752e-02,-1.762720965741433055e-01,1.397215745930512065e-01
6.670000000000000373e-01,-7.121028694986629437e-02,-1.385045315685429490e-01,1.516563646208016203e-01
6.680000000000000382e-01,-1.524289656379729241e-01,-9.883266970150950126e-02,1.273098995963971580e-01
6.690000000000000391e-01,-1.958339592911435001e-01,-4.276399654500583070e-02,1.306456064867498046e-01
6.700000000000000400e-01,-2.287007550370602771e-01,2.320390324327548191e-03,9.456915454038887503e-02
6.710000000000000409e-01,-2.373477726369736807e-01,5.480747492146892386e-02,7.264878134010552269e-02
6.720000000000000417e-01,-2.353233330754287422e-01,1.051402075495700417e-01,3.650677915588238648e-02
6.730000000000000426e-01,-2.208195651514741897e-01,1.513291984412289126e-01,-1.053955202934185424e-02
6.740000000000000435e-01,-1.755175849478821382e-01,1.800174335025188643e-01,-4.154042614263537408e-02
6.750000000000000444e-01,-1.267843134911452729e-01,1.889053747169871234e-01,-7.627234678750632879e-02
6.760000000000000453e-01,-7.207291514883107375e-02,1.944796504281773863e-01,-1.091280145274076546e-01
6.770000000000000462e-01,-7.511460668725597652e-03,1.775675130107002841e-01,-1.263731421127477772e-01
6.780000000000000471e-01,6.152185261744463896e-02,1.435659994822613417e-01,-1.366176853896410026e-01
6.790000000000000480e-01,1.208193966856151158e-01,1.087166985278593262e-01,-1.456736919630754190e-01
6.800000000000000488e-01,1.769108501220359175e-01,7.269655401955568697e-02,-1.334740124364206804e-01
6.810000000000000497e-01,2.160253801502274584e-01,1.815344652986301821e-02,-1.152175102912449400e-01
6.820000000000000506e-01,2.304276714587611685e-01,-3.351685325196323423e-02,-8.448293811954697696e-02
6.830000000000000515e-01,2.295712381956074299e-01,-9.603344067819379049e-02,-5.073477958811935945e-02
6.840000000000000524e-01,2.341151761703492984e-01,-1.264360901860648589e-01,-2.033786512567511973e-02
6.850000000000000533e-01,1.856177614547557808e-01,-1.653450786755956137e-01,4.760151622907402708e-02
6.860000000000000542e-01,1.526975581398901660e-01,-1.844824680161608610e-01,6.185999971588117957e-02
6.870000000000000551e-01,9.610118116310328862e-02,-2.036379051433325482e-01,9.046160629789024021e-02
6.879999999999999449e-01,3.205271548175752522e-02,-1.844611469546774130e-01,1.199701283248428979e-01
6.889999999999999458e-01,-2.306739947407827201e-02,-1.603368622035969415e-01,1.438523384429207241e-01
6.899999999999999467e-01,-9.093488078411864073e-02,-1.301506119005305939e-01,1.310135684568889958e-01
6.909999999999999476e-01,-1.685602538001888528e-01,-7.858139846946199381e-02,1.478725346466445434e-01
6.919999999999999485e-01,-2.087768968150084670e-01,-3.915710956449999086e-02,1.201433707031843851e-01
6.929999999999999494e-01,-2.261612414525231429e-01,2.062887928614380237e-02,1.003004722320385705e-01
6.939999999999999503e-01,-2.360212710046227236e-01,7.615604562396992294e-02,6.306320053446089202e-02
6.949999999999999512e-01,-2.372117109849685157e-01,1.221278431185338215e-01,1.992133071773790828e-02
6.959999999999999520e-01,-2.072816292680937089e-01,1.587121477559695071e-01,-1.468716669609574678e-02
6.969999999999999529e-01,-1.708022408085740074e-01,1.860909638103830088e-01,-5.351299399536520174e-02
6.979999999999999538e-01,-1.096385766992913485e-01,1.836273059444653855e-01,-7.837485055517269539e-02
6.989999999999999547e-01,-3.798864233482324854e-02,1.872853158440098975e-01,-1.170783205414655387e-01
6.999999999999999556e-01,1.695281810257127930e-02,1.696693574173326891e-01,-1.320821290970653761e-01
7.009999999999999565e-01,9.679215327445606087e-02,1.311288940415953619e-01,-1.366228502403505629e-01
7.019999999999999574e-01,1.433075490820666376e-01,9.171724572111099316e-02,-1.428652398460216744e-01
7.029999999999999583e-01,1.815203695229639369e-01,4.201038546275515789e-02,-1.374160896289235434e-01
7.039999999999999591e-01,2.275952640820482764e-01,-9.696307097532125968e-03,-1.097418321917634498e-01
7.049999999999999600e-01,2.396186190472363864e-01,-7.020216359569753095e-02,-7.937904914205329288e-02
7.059999999999999609e-01,2.451192125606372341e-01,-1.164966216164336071e-01,-4.547477464471225139e-02
7.069999999999999618e-01,2.166104314820234689e-01,-1.500968373703247538e-01,-7.670249277043099043e-03
7.079999999999999627e-01,1.727866089531685523e-01,-1.805055828208023960e-01,3.950079867730987848e-02
7.089999999999999636e-01,1.423230467103024088e-01,-1.870981859541254178e-01,6.844383630059221180e-02
7.099999999999999645e-01,7.321071007163208744e-02,-1.812378500575519136e-01,1.110821617232424369e-01
7.109999999999999654e-01,2.867669229000204423e-03,-1.708558309330457936e-01,1.155869879384375243e-01
7.119999999999999662e-01,-7.163524602021213716e-02,-1.415332815643075282e-01,1.363370316340024591e-01
7.129999999999999671e-01,-1.103178324800916932e-01,-1.072015166572905659e-01,1.438673856839095544e-01
7.139999999999999680e-01,-1.658990184647742283e-01,-5.713060748485578044e-02,1.437075577036875662e-01
7.149999999999999689e-01,-2.283107642224085354e-01,4.039503078021778985e-03,1.274759039132323524e-01
7.159999999999999698e-01,-2.366482614283520469e-01,5.826315758022002078e-02,9.171649496133187085e-02
7.169999999999999707e-01,-2.302445861680613437e-01,1.041689508204304143e-01,4.924896282851370238e-02
7.179999999999999716e-01,-2.268437054662804930e-01,1.471402397376728732e-01,2.285121175998186538e-02
7.189999999999999725e-01,-1.845684044120811107e-01,1.646721102209109666e-01,-1.550329559891129930e-02
7.199999999999999734e-01,-1.530950113328574391e-01,1.971172365866349085e-01,-5.847654600104656986e-02
7.209999999999999742e-01,-9.600704260398175427e-02,1.894972379072131508e-01,-7.966747170929892874e-02
7.219999999999999751e-01,-4.116538250011005790e-02,1.738553270835126729e-01,-1.045219186729849925e-01
7.229999999999999760e-01,3.346003194529807018e-02,1.433837888791894832e-01,-1.341622768174348668e-01
7.239999999999999769e-01,9.815998582985495380e-02,1.123062880913193867e-01,-1.566167363707755555e-01
7.249999999999999778e-01,1.646909761042765763e-01,6.139768547133423598e-02,-1.540654349180237415e-01
7.259999999999999787e-01,1.982274125202570236e-01,4.698802307310794187e-03,-1.418143808509197412e-01
7.269999999999999796e-01,2.190824003469463988e-01,-4.150792205276043062e-02,-1.003236154485835085e-01
7.279999999999999805e-01,2.318304969568281138e-01,-9.106188188741837219e-02,-8.707517103632438082e-02
7.289999999999999813e-01,2.280247872691204547e-01,-1.371690998505368242e-01,-5.038270728243474800e-02
7.299999999999999822e-01,2.142513916516633754e-01,-1.661742481482132161e-01,-1.448841563973583303e-02
7.309999999999999831e-01,1.588050947354041620e-01,-2.046783026876385081e-01,3.629341543243708168e-02
7.319999999999999840e-01,1.256092970725068148e-01,-1.907763914084405488e-01,6.856278893512113282e-02
7.329999999999999849e-01,4.559788880127039340e-02,-1.800540473653260420e-01,1.117237685336179842e-01
7.339999999999999858e-01,-8.450252434755268572e-04,-1.621134654458513402e-01,1.280298900714107457e-01
7.349999999999999867e-01,-6.419091376623586864e-02,-1.143382395613992408e-01,1.458662551845864019e-01
7.359999999999999876e-01,-1.486902627497884988e-01,-7.485406502538802243e-02,1.556338701413836068e-01
7.369999999999999885e-01,-1.876543407735928037e-01,-2.568728617084432495e-02,1.415020597297996230e-01
7.379999999999999893e-01,-2.204571811357846078e-01,2.799232059746249376e-02,1.140539939363710287e-01
7.389999999999999902e-01,-2.383082099700693235e-01,7.318467825142054017e-02,9.619344697541988565e-02
7.399999999999999911e-01,-2.522200862974995350e-01,1.214181101240974503e-01,7.371698075888634405e-02
7.409999999999999920e-01,-2.310043764521312326e-01,1.561875923751996631e-01,1.948569359867168352e-02
7.419999999999999929e-01,-1.775459352696217019e-01,1.678574615144478865e-01,-1.956220668456627038e-02
7.429999999999999938e-01,-1.361236080899690393e-01,1.947631228418798821e-01,-5.104640314894718506e-02
7.439999999999999947e-01,-7.749383514620482305e-02,1.976603123681292540e-01,-9.647208590043376830e-02
7.449999999999999956e-01,-5.569966765193760331e-04,1.656301451479401110e-01,-1.184321810427383936e-01
7.459999999999999964e-01,5.921077753879289834e-02,1.244995426710800573e-01,-1.325371670633856969e-01
7.469999999999999973e-01,1.152639942686945890e-01,8.419995561914660198e-02,-1.287799324889447872e-01
7.479999999999999982e-01,1.746356486924753315e-01,3.482810528960258306e-02,-1.340879987497075321e-01
7.489999999999999991e-01,2.161875788147900046e-01,-1.596220670158293373e-02,-1.436299188120225834e-01
7.500000000000000000e-01,2.351006017484983945e-01,-6.739553289987836038e-02,-1.088986848416329395e-01
7.510000000000000009e-01,2.450943224953195387e-01,-1.225048185389725625e-01,-7.488268503558639932e-02
7.520000000000000018e-01,2.380345268683327631e-01,-1.509500121831706954e-01,-5.703529587200503737e-02
7.530000000000000027e-01,1.968878640454234108e-01,-1.796471539553731733e-01,7.446034747060200840e-03
7.540000000000000036e-01,1.470819127265514947e-01,-1.941279771048097236e-01,2.863089730407327241e-02
7.550000000000000044e-01,1.028223930197670610e-01,-1.928467132210785751e-01,6.287299438124323292e-02
7.560000000000000053e-01,2.700807456527597530e-02,-1.637485853774771072e-01,1.043628135240626947e-01
7.570000000000000062e-01,-4.513638552537388438e-02,-1.482957380186097907e-01,1.278358842054237443e-01
7.580000000000000071e-01,-1.038065405622072834e-01,-9.951422545442618894e-02,1.419019580404223546e-01
7.590000000000000080e-01,-1.549584739598006689e-01,-3.674363542359857654e-02,1.413932242811166973e-01
7.600000000000000089e-01,-2.059679153244630689e-01,1.003669625893697549e-02,1.372309557484818476e-01
7.610000000000000098e-01,-2.308081427803768682e-01,5.816391139936718385e-02,9.918493605490842635e-02
7.620000000000000107e-01,-2.344613136750876570e-01,1.166622758364756485e-01,8.931888242113250609e-02
7.630000000000000115e-01,-2.320624146471222116e-01,1.525600583996359616e-01,5.999595087616449440e-02
7.640000000000000124e-01,-2.044423775113785868e-01,1.735910918683095383e-01,2.692068826057207945e-02
7.650000000000000133e-01,-1.743095194036905771e-01,1.874408990072687908e-01,-2.651029056094857811e-02
7.660000000000000142e-01,-1.262650490871726761e-01,1.911174738572904985e-01,-6.026165888268349147e-02
7.670000000000000151e-01,-6.318159029802207505e-02,1.824352363670363741e-01,-9.170593909938656862e-02
7.680000000000000160e-01,2.216654538303515151e-02,1.481737218209545348e-01,-1.020832946476951247e-01
7.690000000000000169e-01,6.670869173577491373e-02,1.213222334826655618e-01,-1.394306044040460879e-01
7.700000000000000178e-01,1.328405003651245697e-01,7.037743026060569451e-02,-1.469507248872364003e-01
7.710000000000000187e-01,1.947566665847615119e-01,7.017726380585633493e-03,-1.387234960354914171e-01
7.720000000000000195e-01,2.074203724737684607e-01,-3.691892822194675627e-02,-1.195008795428744164e-01
7.730000000000000204e-01,2.368726257267281810e-01,-9.589872863076197296e-02,-1.134615914774514123e-01
7.740000000000000213e-01,2.505160884205868688e-01,-1.297570033924703437e-01,-7.384901170259647318e-02
7.750000000000000222e-01,2.069180324356519607e-01,-1.648358803759915892e-01,-2.770795963364523426e-02
7.760000000000000231e-01,1.916444886807996961e-01,-1.860130124316117517e-01,-5.151946329142923983e-03
7.770000000000000240e-01,1.331334317790860144e-01,-1.814097140424990595e-01,3.769384412699747222e-02
7.780000000000000249e-01,7.502523051831890000e-02,-1.825888162362026557e-01,7.313131568158333373e-02
7.790000000000000258e-01,3.682403943200345843e-03,-1.404945573854359253e-01,1.085280691088434807e-01
7.800000000000000266e-01,-4.596151596295258018e-02,-1.145787006356924487e-01,1.352749718543643787e-01
7.810000000000000275e-01,-1.214369269842477256e-01,-7.535850570228046219e-02,1.381153521509205506e-01
7.820000000000000284e-01,-1.677176224159706019e-01,-2.364478120954913859e-02,1.514387690791215990e-01
7.830000000000000293e-01,-2.075305886489359208e-01,2.498260210033465684e-02,1.409224219077211959e-01
7.840000000000000302e-01,-2.350322690709170381e-01,8.062997681892122848e-02,1.167468963802715670e-01
7.850000000000000311e-01,-2.476490720720974925e-01,1.375237061236696257e-01,9.531043077341358472e-02
7.860000000000000320e-01,-2.235252283287262887e-01,1.640817710061056589e-01,6.617147381282102725e-02
7.870000000000000329e-01,-1.994463695470002906e-01,1.784917180625639199e-01,1.756682204455405072e-02
7.880000000000000338e-01,-1.505126851462194049e-01,1.849081193883103935e-01,-2.348743111115144180e-02
7.890000000000000346e-01,-9.916156155221746149e-02,1.887878247083627226e-01,-6.138389779704432614e-02
7.900000000000000355e-01,-4.913669886884738935e-02,1.538878466558974423e-01,-9.038911098312407688e-02
7.910000000000000364e-01,1.987656276692414264e-02,1.257399514816671671e-01,-1.204329763794389496e-01
7.920000000000000373e-01,9.159056926163956780e-02,7.296062223538944680e-02,-1.284149058536850352e-01
7.930000000000000382e-01,1.539619350048103408e-01,3.142471010413866450e-02,-1.457861600600098562e-01
7.940000000000000391e-01,1.936463330114314707e-01,-1.555997917074101837e-02,-1.403133502364032892e-01
7.950000000000000400e-01,2.185978162311971729e-01,-7.621338137193520157e-02,-1.197421725239903312e-01
7.960000000000000409e-01,2.348698676360662652e-01,-1.307214360710672041e-01,-9.677038800333832846e-02
7.970000000000000417e-01,2.426731517565645924e-01,-1.672666143355380775e-01,-6.249239063522660925e-02
7.980000000000000426e-01,2.067817919319925590e-01,-1.663177488090021028e-01,-3.616926320647795290e-02
7.990000000000000435e-01,1.606059739267845510e-01,-1.976356496632321047e-01,3.641336393866244098e-03
8.000000000000000444e-01,1.258818712382150928e-01,-1.900653770525607689e-01,3.732079522328920346e-02
8.010000000000000453e-01,5.810891986330342374e-02,-1.563123618987204699e-01,8.023605358206856164e-02
8.020000000000000462e-01,-1.593349607091178524e-02,-1.343406793759490958e-01,1.037411527768180436e-01
8.030000000000000471e-01,-7.489344275835714548e-02,-8.558600610780657536e-02,1.231091476992709072e-01
8.040000000000000480e-01,-1.201645417661694332e-01,-3.157855160372925740e-02,1.472905687327479007e-01
8.050000000000000488e-01,-1.796814679921080460e-01,2.343959642234668198e-02,1.428884930259289865e-01
8.060000000000000497e-01,-2.078298930796018684e-01,5.596128224096734438e-02,1.412660873145242801e-01
8.070000000000000506e-01,-2.364474681891908237e-01,1.177949079127216109e-01,1.329201254860692127e-01
8.080000000000000515e-01,-2.340199700460254550e-01,1.501594698409809414e-01,8.382818263077548848e-02
8.090000000000000524e-01,-2.224410378592132087e-01,1.694822504120000461e-01,5.521689713331939114e-02
8.100000000000000533e-01,-1.780128379527295412e-01,1.851178900548533512e-01,9.708203170385185446e-03
8.110000000000000542e-01,-1.428756415782801714e-01,1.873329493910671495e-01,-3.248181666180584293e-02
8.120000000000000551e-01,-8.901651899309380445e-02,1.755942455890113496e-01,-6.144771714464366402e-02
8.129999999999999449e-01,-1.506907922251120649e-02,1.589287275131088806e-01,-1.027140093247140978e-01
8.139999999999999458e-01,5.737798592832070443e-02,9.393016544290737346e-02,-1.128633477189442541e-01
8.149999999999999467e-01,1.142218006507656619e-01,6.158029729104333438e-02,-1.363731530247287160e-01
8.159999999999999476e-01,1.761917342907523276e-01,1.648775305672162388e-03,-1.482798728192504800e-01
8.169999999999999485e-01,1.995176311974017347e-01,-3.855325465584689970e-02,-1.410144583250900474e-01
8.179999999999999494e-01,2.379220933497573909e-01,-9.931313309364354913e-02,-1.238941818446532561e-01
8.189999999999999503e-01,2.294840346302716716e-01,-1.470054864557872321e-01,-9.731571920021941935e-02
8.199999999999999512e-01,2.259953236269388877e-01,-1.707197545723417864e-01,-6.643392212027619814e-02
8.209999999999999520e-01,2.032774245599034413e-01,-1.902626656126542026e-01,-2.726954701553603935e-02
8.219999999999999529e-01,1.628087624446923620e-01,-1.947871232514185313e-01,1.420860600644680005e-02
8.229999999999999538e-01,8.986540272783227756e-02,-1.711236433084827313e-01,4.730549098336758740e-02
8.239999999999999547e-01,3.615200170682317943e-02,-1.411699515075018063e-01,9.096462595037523025e-02
8.249999999999999556e-01,-4.545750864030632249e-02,-1.165050936766504619e-01,1.107215441411236179e-01
8.259999999999999565e-01,-7.575803237241160448e-02,-7.316807558579847826e-02,1.386119470885836535e-01
8.269999999999999574e-01,-1.494075003473275265e-01,-1.135201795379461344e-02,1.406842700278021774e-01
8.279999999999999583e-01,-2.091989029837150182e-01,3.481224186534988274e-02,1.305990357626574672e-01
8.289999999999999591e-01,-2.330627213765859018e-01,9.165086332918388756e-02,1.323291359602468131e-01
8.299999999999999600e-01,-2.394777153962545369e-01,1.325222613629426227e-01,1.149683098347603627e-01
8.309999999999999609e-01,-2.417454750057009827e-01,1.580349888174614470e-01,9.110816625898048027e-02
8.319999999999999618e-01,-2.088119752622958347e-01,1.885752365589200841e-01,4.301896591795113106e-02
8.329999999999999627e-01,-1.808092352568610450e-01,1.931570022949558874e-01,7.860834176248212776e-03
8.339999999999999636e-01,-1.156783132106091599e-01,1.800804720762056721e-01,-3.084958378754272534e-02
8.349999999999999645e-01,-5.971427636469744255e-02,1.580526435532911833e-01,-7.581142462510860602e-02
8.359999999999999654e-01,6.447893874427703537e-03,1.311428030400577927e-01,-9.808234379675945247e-02
8.369999999999999662e-01,7.615078148966379634e-02,7.901977249316857743e-02,-1.124265762879935598e-01
8.379999999999999671e-01,1.311025630719586665e-01,3.663414359563280792e-02,-1.402172657537364420e-01
8.389999999999999680e-01,1.775018553067841121e-01,-3.178101934291446828e-02,-1.390347339616432865e-01
8.399999999999999689e-01,2.159700670403091605e-01,-8.034172793456836881e-02,-1.442305617075194668e-01
8.409999999999999698e-01,2.518574621844630324e-01,-1.236641438941844806e-01,-1.183789215247738474e-01
8.419999999999999707e-01,2.422421712553194939e-01,-1.562806691634753553e-01,-8.759097902802592817e-02
8.429999999999999716e-01,2.202435260443022236e-01,-1.914917246575916776e-01,-6.994033214976602686e-02
8.439999999999999725e-01,1.968354624078896831e-01,-1.937668778575141748e-01,-2.587227185193385209e-02
8.449999999999999734e-01,1.437898209154328255e-01,-1.876754318591057069e-01,3.987995363761635652e-03
8.459999999999999742e-01,8.577730496810212490e-02,-1.649846571070529566e-01,5.685065243177985644e-02
8.469999999999999751e-01,1.551858805156887053e-02,-1.382205606544018583e-01,7.488893019906299464e-02
8.479999999999999760e-01,-4.663739186597264108e-02,-8.447493449674627064e-02,1.090723542391685563e-01
8.489999999999999769e-01,-1.130575042896902610e-01,-4.128625302293950639e-02,1.329686229345384829e-01
8.499999999999999778e-01,-1.604797893040203760e-01,2.206862318464766076e-02,1.462193095034942936e-01
8.509999999999999787e-01,-2.213335487808354152e-01,6.079353852910717587e-02,1.550779888579582044e-01
8.519999999999999796e-01,-2.173696986796255781e-01,1.072830604636978852e-01,1.410522360665225627e-01
8.529999999999999805e-01,-2.288523819206306487e-01,1.580635677343659728e-01,1.005069628012576488e-01
8.539999999999999813e-01,-2.315354997812880122e-01,1.788603698562422628e-01,7.728890215359225657e-02
8.549999999999999822e-01,-2.034537044088068902e-01,1.930723033245733133e-01,4.631327167452544552e-02
8.559999999999999831e-01,-1.520396152274576251e-01,1.889650511698738600e-01,1.320443763317306375e-02
8.569999999999999840e-01,-9.741031665838906228e-02,1.820106325682211146e-01,-2.907064518894563257e-02
8.579999999999999849e-01,-4.279418663099887610e-02,1.381952367710293228e-01,-6.279205401855214586e-02
8.589999999999999858e-01,2.614832853406852745e-02,9.245230828635871145e-02,-9.631365872737888967e-02
8.599999999999999867e-01,8.243975209662637860e-02,5.321070329181135788e-02,-1.225574038845227282e-01
8.609999999999999876e-01,1.541767964119185874e-01,4.052611652206709880e-03,-1.296200565097378465e-01
8.619999999999999885e-01,1.866936535707175993e-01,-5.659712223913649504e-02,-1.402539301272661132e-01
8.629999999999999893e-01,2.200959319855460838e-01,-1.097102914373523086e-01,-1.286163967513260231e-01
8.639999999999999902e-01,2.426938251800655200e-01,-1.473598739319722517e-01,-1.328555912790252147e-01
8.649999999999999911e-01,2.502353853047643018e-01,-1.835819865919848803e-01,-1.074387832401513948e-01
8.659999999999999920e-01,2.152626364925842861e-01,-1.807056124778225747e-01,-5.541181051055558970e-02
8.669999999999999929e-01,1.674613509706999182e-01,-1.957794193774386737e-01,-2.930316289526550821e-02
8.679999999999999938e-01,1.240692457967396550e-01,-1.682057282888579364e-01,1.223408636551450053e-03
8.689999999999999947e-01,6.683409006314641743e-02,-1.439354154486489901e-01,3.961729204715311314e-02
8.699999999999999956e-01,-1.590502120538081834e-02,-1.160809865062395752e-01,7.824582720311711037e-02
8.709999999999999964e-01,-6.883604698805168010e-02,-7.002613296296189560e-02,1.160777831031854501e-01
8.719999999999999973e-01,-1.277165054602934502e-01,-1.161687336932637829e-02,1.226787194722300661e-01
8.729999999999999982e-01,-1.858101392025853782e-01,3.694540592778194910e-02,1.543408803309469224e-01
8.739999999999999991e-01,-2.240595529278479325e-01,9.856433353837087963e-02,1.449597914469611393e-01
8.750000000000000000e-01,-2.363582086258030901e-01,1.457901552385884592e-01,1.474817920843252972e-01
8.760000000000000009e-01,-2.366325852692394704e-01,1.539799279080720784e-01,1.087010072853241277e-01
8.770000000000000018e-01,-2.228633282311780761e-01,1.878059005182218244e-01,7.842490296123334759e-02
8.780000000000000027e-01,-1.833162177465637865e-01,1.950187275373045370e-01,3.649620498013362441e-02
8.790000000000000036e-01,-1.456438366250870087e-01,1.925829189381406958e-01,1.983698490432582017e-03
8.800000000000000044e-01,-9.079189821590791243e-02,1.505849797045875071e-01,-4.552033074897979953e-02
8.810000000000000053e-01,-2.025282395542805924e-02,1.199230851529837910e-01,-6.702955910723160105e-02
8.820000000000000062e-01,4.161949471564441172e-02,7.246353426258428376e-02,-1.052826568370223564e-01
8.830000000000000071e-01,1.068471633891089623e-01,2.631997713806803404e-02,-1.154866909777235301e-01
8.840000000000000080e-01,1.683533927605584679e-01,-2.312361649679609346e-02,-1.362859623953056598e-01
8.850000000000000089e-01,1.996875599252019851e-01,-8.350136976511021714e-02,-1.391162234941524245e-01
8.860000000000000098e-01,2.415249929658258021e-01,-1.236786632871382380e-01,-1.375988021983089726e-01
8.870000000000000107e-01,2.385877792873673797e-01,-1.501553037661942647e-01,-1.073406558809366085e-01
8.880000000000000115e-01,2.247381102083487459e-01,-1.761864754478716655e-01,-1.060906090987727840e-01
8.890000000000000124e-01,2.055976581038878315e-01,-1.973639649039679034e-01,-6.608171646586162573e-02
8.900000000000000133e-01,1.583125807070799307e-01,-1.836376980313246532e-01,-1.141425687060598597e-02
8.910000000000000142e-01,1.141998993512628457e-01,-1.607328416828067430e-01,1.983237533460372251e-02
8.920000000000000151e-01,4.641204306576148658e-02,-1.256233367222063246e-01,6.415270287148350237e-02
8.930000000000000160e-01,-2.760625764264314219e-02,-8.855043927219018174e-02,8.481173024946021821e-02
8.940000000000000169e-01,-9.406893111089374704e-02,-4.427761230109363705e-02,1.192402661575798078e-01
8.950000000000000178e-01,-1.413437823090514522e-01,3.969457970548323500e-02,1.355962205542317611e-01
8.960000000000000187e-01,-1.922177356984074714e-01,7.215066600536200470e-02,1.412581267134350727e-01
8.970000000000000195e-01,-2.264712267590281991e-01,1.060531370688940905e-01,1.483108968628085722e-01
8.980000000000000204e-01,-2.324684340347023537e-01,1.574416998904734910e-01,1.402654208028403793e-01
8.990000000000000213e-01,-2.370104887693632867e-01,1.741110400301131844e-01,1.028254703342478954e-01
9.000000000000000222e-01,-2.091416309610640289e-01,1.950483763313559660e-01,8.230466189443595704e-02
9.010000000000000231e-01,-1.793004013229371196e-01,1.877645869836182257e-01,3.973174982387531196e-02
9.020000000000000240e-01,-1.129555986933617889e-01,1.690694103517216829e-01,-7.567241830150324075e-03
9.030000000000000249e-01,-6.126614530810269021e-02,1.419856240163614447e-01,-4.519573420441484746e-02
9.040000000000000258e-01,6.873387976929361091e-03,8.971832711155836027e-02,-7.744973211111466638e-02
9.050000000000000266e-01,6.830724598124122970e-02,4.683008011205859467e-02,-1.026307825534242685e-01
9.060000000000000275e-01,1.233383567426072219e-01,-1.080857425937369228e-02,-1.166804575431652918e-01
9.070000000000000284e-01,1.805833600129185812e-01,-6.649052957582275714e-02,-1.444719800598661674e-01
9.080000000000000293e-01,2.083833364192793081e-01,-1.095522662292681970e-01,-1.481937021920486375e-01
9.090000000000000302e-01,2.363070403300939482e-01,-1.601089243435348530e-01,-1.371942061485351694e-01
9.100000000000000311e-01,2.367436021849542993e-01,-1.728566868850591187e-01,-1.163827238336728048e-01
9.110000000000000320e-01,2.151741648882851132e-01,-1.817408234789856525e-01,-8.357632384922372704e-02
9.120000000000000329e-01,1.938984730738340101e-01,-2.040711835330117352e-01,-5.971943010304640170e-02
9.130000000000000338e-01,1.396402130334723768e-01,-1.744291691928089305e-01,-1.708692867390118955e-02
9.140000000000000346e-01,8.544313619000382110e-02,-1.440301096879603726e-01,2.581156873242175173e-02
9.150000000000000355e-01,4.068073035336887237e-03,-1.057033791069875578e-01,5.878709164186372155e-02
9.160000000000000364e-01,-4.368422423687386147e-02,-5.211352677802954386e-02,8.962428157895599434e-02
9.170000000000000373e-01,-1.063696038807535188e-01,-3.529518158612610177e-03,1.184234197986080428e-01
9.180000000000000382e-01,-1.647063801084520940e-01,4.971832500987707210e-02,1.315960291099139701e-01
9.190000000000000391e-01,-1.993979374052385622e-01,1.000761589114576716e-01,1.434814837203989557e-01
9.200000000000000400e-01,-2.381923122610768995e-01,1.313754605050178881e-01,1.435977299655860906e-01
9.210000000000000409e-01,-2.367231257126670985e-01,1.761917844918584053e-01,1.367468349182202336e-01
9.220000000000000417e-01,-2.468776916829010237e-01,1.890515123845940837e-01,1.069415884384389281e-01
9.230000000000000426e-01,-2.079143697507077893e-01,1.912977771083344269e-01,8.543213663340284980e-02
9.240000000000000435e-01,-1.538324502058212861e-01,1.874191230162876587e-01,3.192469591553002972e-02
9.250000000000000444e-01,-1.148415661641944419e-01,1.479895144691814879e-01,-5.966588951387749931e-03
9.260000000000000453e-01,-4.611250700733971614e-02,1.166384119777352096e-01,-5.140172646678732582e-02
9.270000000000000462e-01,1.136331407943948386e-02,7.522400959230585160e-02,-9.330539403137849686e-02
9.280000000000000471e-01,8.364613120355000875e-02,1.733672848779332920e-02,-1.130668224533945276e-01
9.290000000000000480e-01,1.567689093172887349e-01,-4.166468537123711041e-02,-1.241515101196771775e-01
9.300000000000000488e-01,1.997622785993403149e-01,-8.641211853063705817e-02,-1.353672828220884028e-01
9.310000000000000497e-01,2.259234517245534979e-01,-1.318039308268143250e-01,-1.326394916649650257e-01
9.320000000000000506e-01,2.455614040862832692e-01,-1.651411530450441201e-01,-1.378408102324377438e-01
9.330000000000000515e-01,2.463032995613235743e-01,-1.692367738112764419e-01,-1.045376850236006960e-01
9.340000000000000524e-01,2.234568435018557953e-01,-1.990205869975787134e-01,-9.433058786448571265e-02
9.350000000000000533e-01,1.940503972392407517e-01,-1.716205102257240545e-01,-5.891015731495843899e-02
9.360000000000000542e-01,1.305670685112348128e-01,-1.686949439570313014e-01,-8.397342023404070696e-03
9.370000000000000551e-01,7.215356401844839895e-02,-1.263340288118033616e-01,1.849952033456302158e-02
9.379999999999999449e-01,-1.688578393454334475e-04,-7.679278401387761022e-02,5.649045847222727151e-02
9.389999999999999458e-01,-8.129591923114717900e-02,-2.756343753501454621e-02,1.128034433535020920e-01
9.399999999999999467e-01,-1.265640607897465519e-01,2.404622323877606341e-02,1.300704330170640299e-01
9.409999999999999476e-01,-1.803575523478131437e-01,7.138855271952633530e-02,1.377239209917767437e-01
9.419999999999999485e-01,-2.167179158532603345e-01,1.274311972068501442e-01,1.406375413146493114e-01
9.429999999999999494e-01,-2.466681845940566775e-01,1.530033400813400057e-01,1.420953272484397067e-01
9.439999999999999503e-01,-2.427992096971815783e-01,1.751932346609590685e-01,1.408836244879278221e-01
9.449999999999999512e-01,-2.204182429336154492e-01,1.903785148373453029e-01,1.039061703627469080e-01
9.459999999999999520e-01,-1.916734368546260392e-01,1.924451691906810535e-01,7.145037936106675425e-02
9.469999999999999529e-01,-1.465476915836468330e-01,1.705144102742400802e-01,2.813066086128614487e-02
9.479999999999999538e-01,-8.516336343770987416e-02,1.299490881917934049e-01,-8.584823797363468761e-03
9.489999999999999547e-01,-1.678566724115651901e-02,8.093364398891890465e-02,-6.168034530512375019e-02
9.499999999999999556e-01,3.881836523855108217e-02,4.777556806408871093e-02,-8.281729138858212602e-02
9.509999999999999565e-01,1.069233423152687185e-01,-1.017808514920359904e-02,-1.019091255182532768e-01
9.519999999999999574e-01,1.625450136085725417e-01,-7.075374612347540282e-02,-1.260951849043115136e-01
9.529999999999999583e-01,1.986282204207608926e-01,-1.052702325615254703e-01,-1.452879793243083417e-01
9.539999999999999591e-01,2.363517545235572781e-01,-1.425936521353061703e-01,-1.319690733132229399e-01
9.549999999999999600e-01,2.554653036187242154e-01,-1.735961414463013108e-01,-1.345475207747591495e-01
9.559999999999999609e-01,2.338013840918885533e-01,-1.933077829372157053e-01,-1.140343670721392227e-01
9.569999999999999618e-01,2.041682788306201923e-01,-1.951829803293929078e-01,-7.924214269697538171e-02
9.579999999999999627e-01,1.602917270670873029e-01,-1.722886974863323262e-01,-5.081271528156235118e-02
9.589999999999999636e-01,1.034893060949699656e-01,-1.381326073780251851e-01,-8.704399145331425530e-03
9.599999999999999645e-01,3.759522103517402847e-02,-1.082740333013274825e-01,2.185080114090058589e-02
9.609999999999999654e-01,-2.829137580707375907e-02,-6.216443244643291705e-02,6.109011951019113068e-02
9.619999999999999662e-01,-9.308683738018179443e-02,4.310805740787346414e-03,9.696662454348360660e-02
9.629999999999999671e-01,-1.455047978222341332e-01,6.006911501005260390e-02,1.323114303096032118e-01
9.639999999999999680e-01,-1.952678404337779283e-01,1.080416197303379205e-01,1.382966308281181333e-01
9.649999999999999689e-01,-2.101662605463820721e-01,1.413434508729720096e-01,1.486975985827604929e-01
9.659999999999999698e-01,-2.388332492610244773e-01,1.584819077625921335e-01,1.436762003839083812e-01
9.669999999999999707e-01,-2.385409181226957609e-01,1.843801285885296459e-01,1.180095762253734609e-01
9.679999999999999716e-01,-2.117961775473061470e-01,1.894393953948870502e-01,1.014718534317861631e-01
9.689999999999999725e-01,-1.811120345722264657e-01,1.794259376456211752e-01,6.315757063972600449e-02
9.699999999999999734e-01,-1.316524335699597592e-01,1.480733443383938641e-01,2.148854941497489734e-02
9.709999999999999742e-01,-6.896177590782608113e-02,1.188236312851780607e-01,-2.002601067546908725e-02
9.719999999999999751e-01,-3.822641673826145375e-03,5.752110348525037858e-02,-4.818555606810946690e-02
9.729999999999999760e-01,6.759229778792526233e-02,1.531056873187887704e-02,-7.851636629945170365e-02
9.739999999999999769e-01,1.323265098099574155e-01,-3.268076605524129069e-02,-1.039120845944275923e-01
9.749999999999999778e-01,1.710123779246978393e-01,-8.723089843233045038e-02,-1.357039903173822559e-01
9.759999999999999787e-01,2.150183174452316437e-01,-1.345267672263870118e-01,-1.448179902182030465e-01
9.769999999999999796e-01,2.455338776377904153e-01,-1.584128953050877586e-01,-1.470658432858860110e-01
9.779999999999999805e-01,2.370235225040553673e-01,-1.821092991172906239e-01,-1.265470692810108932e-01
9.789999999999999813e-01,2.232482992857229287e-01,-1.840689903506129432e-01,-1.118237554644975762e-01
9.799999999999999822e-01,1.889722590316447737e-01,-1.894411306385280491e-01,-8.601211874150184455e-02
9.809999999999999831e-01,1.483505549795658962e-01,-1.650212099542733568e-01,-4.842499627022546493e-02
9.819999999999999840e-01,9.005762901120720199e-02,-1.245158180960825867e-01,-9.395915778244777125e-03
9.829999999999999849e-01,3.273316379491453265e-02,-6.742225616218515405e-02,3.309747639310049033e-02
9.839999999999999858e-01,-3.507749321703226147e-02,-2.447484226145077782e-02,6.619697513677096079e-02
9.849999999999999867e-01,-1.043551767894573962e-01,2.348316472284223133e-02,1.040365781216015945e-01
9.859999999999999876e-01,-1.609960462980955243e-01,7.561851819201939606e-02,1.250250933944592469e-01
9.869999999999999885e-01,-2.016657857289061995e-01,1.259261755383824510e-01,1.411388943150775621e-01
9.879999999999999893e-01,-2.205641760621309122e-01,1.387619754381509696e-01,1.575128111716218582e-01
9.889999999999999902e-01,-2.485821510498172071e-01,1.753491355844370714e-01,1.398493449525173293e-01
9.899999999999999911e-01,-2.368359330969528609e-01,1.901758801126312848e-01,1.144018361576349951e-01
9.909999999999999920e-01,-1.890982055082111868e-01,1.816988360416552373e-01,8.570244448322034136e-02
9.919999999999999929e-01,-1.586138146245304470e-01,1.699097751269108281e-01,5.936793012114578022e-02
9.929999999999999938e-01,-1.111384414559410672e-01,1.319789137793500877e-01,3.200695230876147990e-02
9.939999999999999947e-01,-3.944086769956579863e-02,9.462930432615949961e-02,-3.945071295737023059e-03
9.949999999999999956e-01,1.470868335130733062e-02,4.029745681071223579e-02,-5.407245833899575888e-02
9.959999999999999964e-01,8.272923356539939321e-02,-1.285129773646493008e-02,-7.479324280102464528e-02
9.969999999999999973e-01,1.507410794033814949e-01,-7.411476877261825857e-02,-1.116541628108571882e-01
9.979999999999999982e-01,1.813919415306087524e-01,-1.211951216093401368e-01,-1.490018029230981145e-01
9.989999999999999991e-01,2.079948478949963930e-01,-1.545313319956514719e-01,-1.355813643166411397e-01
1.000000000000000000e+00,2.425482589268204980e-01,-1.722935186773348060e-01,-1.423545578183072757e-01
1.000999999999999890e+00,2.472812380189004511e-01,-1.963778672167884043e-01,-1.312206540599526461e-01
1.002000000000000002e+00,2.068203172608070461e-01,-1.881944122780932205e-01,-1.099001137087844693e-01
1.002999999999999892e+00,1.856677969752718316e-01,-1.772033446985928351e-01,-7.284264642137640300e-02
1.004000000000000004e+00,1.272412317937444970e-01,-1.506795010597948570e-01,-4.226618661663430337e-02
1.004999999999999893e+00,6.649146923229355688e-02,-1.084619569304654252e-01,-8.768755936254016628e-03
1.006000000000000005e+00,-2.904627520324858624e-03,-5.614720359193996896e-02,2.745877185460433856e-02
1.006999999999999895e+00,-7.076522257314535325e-02,-4.062651884861355651e-03,7.186625556295343775e-02
1.008000000000000007e+00,-1.343662329208663020e-01,5.806831170336087394e-02,1.043364971795977814e-01
1.008999999999999897e+00,-1.767344573038555633e-01,1.193162876245564830e-01,1.339772929399584700e-01
1.010000000000000009e+00,-2.146838917916024103e-01,1.372028402509658518e-01,1.471842526135938301e-01
1.010999999999999899e+00,-2.382422001672209466e-01,1.750400045354886247e-01,1.465006210735746994e-01
1.012000000000000011e+00,-2.320787175373715816e-01,1.785847728529804113e-01,1.319216643436487701e-01
1.012999999999999901e+00,-2.152612341013411534e-01,1.976608728891586786e-01,1.181584489370572921e-01
1.014000000000000012e+00,-1.963668101495018026e-01,1.775980820131227989e-01,1.064557975263880629e-01
1.014999999999999902e+00,-1.470338892861001168e-01,1.478005968494017219e-01,4.957803832535280508e-02
1.016000000000000014e+00,-9.512861526940556700e-02,1.184625339267621341e-01,1.447295960052872102e-02
1.016999999999999904e+00,-2.496754351580132703e-02,5.523476300472789091e-02,-1.674861841398867998e-02
1.018000000000000016e+00,4.393728891024030470e-02,2.870347439047587438e-03,-6.102312202899350807e-02
1.018999999999999906e+00,1.005115875642724893e-01,-3.657969854929903064e-02,-1.042121926960894868e-01
1.020000000000000018e+00,1.640826349504074799e-01,-9.111353135207250764e-02,-1.075883136628711934e-01
1.020999999999999908e+00,2.067915664061504011e-01,-1.381199527728644294e-01,-1.412027654880718963e-01
1.022000000000000020e+00,2.337042823176042339e-01,-1.703865365311607316e-01,-1.333749861321474883e-01
1.022999999999999909e+00,2.417112683891424751e-01,-1.837027299188566942e-01,-1.497775394901449675e-01
1.024000000000000021e+00,2.365530618603919333e-01,-1.788918607898918600e-01,-1.406271564794790152e-01
1.024999999999999911e+00,2.018312505279899471e-01,-1.831233211837013930e-01,-1.138260203340728666e-01
1.026000000000000023e+00,1.655262811624998998e-01,-1.651105722952030397e-01,-7.812850177850946820e-02
1.026999999999999913e+00,1.214147540332493752e-01,-1.228306340752291087e-01,-3.547609487137066975e-02
1.028000000000000025e+00,3.760253857836483998e-02,-8.502966229575618928e-02,-8.012031917462492450e-03
1.028999999999999915e+00,-1.148235385544082304e-02,-2.412113591165082269e-02,4.176541896560413691e-02
1.030000000000000027e+00,-8.469560251048344202e-02,2.903386798541247871e-02,7.968020637784704874e-02
1.030999999999999917e+00,-1.500594667546268357e-01,7.115720213931941984e-02,1.039470842558940650e-01
1.032000000000000028e+00,-1.803063836612201210e-01,1.283146224266314694e-01,1.415389022012212838e-01
1.032999999999999918e+00,-2.294671281217494918e-01,1.487617271325911428e-01,1.423996408261025137e-01
1.034000000000000030e+00,-2.250981880692423664e-01,1.734872944417628626e-01,1.478182846350021284e-01
1.034999999999999920e+00,-2.313736714300208830e-01,1.908724627918878536e-01,1.375164985401004236e-01
1.036000000000000032e+00,-2.102008917041771063e-01,1.890674194349927228e-01,1.187903192139912883e-01
1.036999999999999922e+00,-1.872727222508386857e-01,1.591333945250659465e-01,7.851532133204798536e-02
1.038000000000000034e+00,-1.329192084953268460e-01,1.358314175937431756e-01,6.573251703477792085e-02
1.038999999999999924e+00,-6.953956232274097204e-02,8.357655686343459789e-02,2.302300736431655073e-02
1.040000000000000036e+00,-1.335755074739738112e-02,4.319867903303391959e-02,-2.054893356137180854e-02
1.040999999999999925e+00,7.319607366842853513e-02,-2.313437087107758638e-02,-5.020622977317303753e-02
1.042000000000000037e+00,1.207861945671581949e-01,-7.340540644691155581e-02,-9.519198508189677388e-02
1.042999999999999927e+00,1.774204424836189342e-01,-1.108580741202248449e-01,-1.195253894899669656e-01
1.044000000000000039e+00,2.239888747200718955e-01,-1.553679706807943040e-01,-1.406546261621525740e-01
1.044999999999999929e+00,2.325706819770075595e-01,-1.698113635445672454e-01,-1.463295463459452495e-01
1.046000000000000041e+00,2.488826009679933893e-01,-1.843314592196573509e-01,-1.433326543868252423e-01
1.046999999999999931e+00,2.266192813200901268e-01,-2.072973296938022403e-01,-1.388319780932769087e-01
1.048000000000000043e+00,1.900087860042335153e-01,-1.752967337378861234e-01,-1.080093300599320599e-01
1.048999999999999932e+00,1.453753872689683702e-01,-1.359574563060686192e-01,-7.722998411442244526e-02
1.050000000000000044e+00,9.991310762906516207e-02,-1.024209427479227108e-01,-2.729578655663919898e-02
1.050999999999999934e+00,3.101429794230515721e-02,-5.619673508249299620e-02,-4.175641476908594982e-03
1.052000000000000046e+00,-2.706173070704150432e-02,6.631669104129850334e-03,4.900662616013697764e-02
1.052999999999999936e+00,-9.444488852975414794e-02,6.405557436991066167e-02,6.210319017235562539e-02
1.054000000000000048e+00,-1.479214840627137983e-01,1.025395374526106851e-01,9.391149018848415908e-02
1.054999999999999938e+00,-2.111914202132670060e-01,1.484786834144954382e-01,1.357040826749379425e-01
1.056000000000000050e+00,-2.317774839909843565e-01,1.771631341357278733e-01,1.425753697463456593e-01
1.056999999999999940e+00,-2.544465509209210552e-01,1.900140867815335310e-01,1.475662446490715041e-01
1.058000000000000052e+00,-2.253136751849240116e-01,1.861820587601196175e-01,1.335736288587411891e-01
1.058999999999999941e+00,-2.011790088126002851e-01,1.883488207471700482e-01,1.263437890548664011e-01
1.060000000000000053e+00,-1.599092579686558213e-01,1.457720047351176440e-01,8.374764324390222836e-02
1.060999999999999943e+00,-1.092597849341934713e-01,1.081561550406257705e-01,5.765224073921881159e-02
1.062000000000000055e+00,-5.196952849402414198e-02,5.591176524260249581e-02,2.652324285975336468e-02
1.062999999999999945e+00,1.629777628403487541e-02,2.096630933886092785e-02,-1.964402866237916975e-02
1.064000000000000057e+00,6.992074507760333291e-02,-4.630243637769290016e-02,-7.252183836675202278e-02
1.064999999999999947e+00,1.362889726002035340e-01,-9.917337536759084082e-02,-7.880694766812780527e-02
1.066000000000000059e+00,1.893637623523968805e-01,-1.284105383894157681e-01,-1.172931999898890881e-01
1.066999999999999948e+00,2.190202582542559451e-01,-1.649231499972788617e-01,-1.404074446989427571e-01
1.068000000000000060e+00,2.331146197546158372e-01,-1.781465820946331879e-01,-1.420526217849694128e-01
1.068999999999999950e+00,2.386921064443105478e-01,-1.760637907788968615e-01,-1.411840465592225646e-01
1.070000000000000062e+00,2.221823239662226446e-01,-1.804692942836103597e-01,-1.252876540653627413e-01
1.070999999999999952e+00,1.935341805332920218e-01,-1.662295195981524087e-01,-9.969339238812745252e-02
1.072000000000000064e+00,1.390478743092702085e-01,-1.152893174920213148e-01,-7.725321474714086367e-02
1.072999999999999954e+00,8.146118487131391583e-02,-5.205760648061016210e-02,-3.173156609532880312e-02
1.074000000000000066e+00,1.273787518145558760e-02,-2.466671165814297156e-02,1.795511967162269394e-03
1.074999999999999956e+00,-6.314452315506113855e-02,3.259303709963486118e-02,5.348637266760773723e-02
1.076000000000000068e+00,-1.193122319280707916e-01,8.426103887509700519e-02,9.147890594947533094e-02
1.076999999999999957e+00,-1.670286618504064347e-01,1.233088689393272014e-01,1.201921021642629872e-01
1.078000000000000069e+00,-1.991012720007420966e-01,1.652668364277311286e-01,1.356358785251141896e-01
1.078999999999999959e+00,-2.225847678093224591e-01,1.831429225242774406e-01,1.583608463161896851e-01
1.080000000000000071e+00,-2.325943723082885273e-01,1.836241441203512736e-01,1.392920584431396325e-01
1.080999999999999961e+00,-2.317268649837158356e-01,1.869476774750784553e-01,1.288257933310797687e-01
1.082000000000000073e+00,-2.019001205479196703e-01,1.592030881297689660e-01,1.217938927961788320e-01
1.082999999999999963e+00,-1.561593589982445407e-01,1.268828544120617352e-01,8.457222976849261553e-02
1.084000000000000075e+00,-9.635281781057211670e-02,8.370005276305197972e-02,4.676893136072046014e-02
1.084999999999999964e+00,-3.384315307881881341e-02,3.248081996661104226e-02,-7.781222167641322664e-04
1.086000000000000076e+00,3.344722296836302039e-02,-3.279719714560612454e-02,-2.382699937772665699e-02
1.086999999999999966e+00,1.016545303914311166e-01,-6.681064044778144140e-02,-6.143337683109829223e-02
1.088000000000000078e+00,1.504241106172863052e-01,-1.176329165175713787e-01,-1.010497389014793496e-01
1.088999999999999968e+00,1.895954165295182792e-01,-1.606612920371810749e-01,-1.311305673910791170e-01
1.090000000000000080e+00,2.221729324866356103e-01,-1.870929230996012382e-01,-1.432278964229023455e-01
1.090999999999999970e+00,2.356429486110806215e-01,-1.944155852021173803e-01,-1.494375572775553107e-01
1.092000000000000082e+00,2.393953562273762881e-01,-1.818542959219533461e-01,-1.181181031273472321e-01
1.092999999999999972e+00,2.125889351782010994e-01,-1.715934483324948745e-01,-1.317741287229978187e-01
1.094000000000000083e+00,1.756671858263270936e-01,-1.439012446278880308e-01,-1.100375047051718874e-01
1.094999999999999973e+00,1.212874550385675404e-01,-1.051585930478188963e-01,-6.695080977634688957e-02
1.096000000000000085e+00,5.507573060205699089e-02,-3.567299953911680366e-02,-2.339837748570277459e-02
1.096999999999999975e+00,-4.770208130401113258e-03,8.894817638880947452e-03,1.323355773774752275e-02
1.098000000000000087e+00,-8.624172763208340364e-02,6.738720132934529483e-02,3.561740097874156047e-02
1.098999999999999977e+00,-1.411727849884390762e-01,1.168612023994310967e-01,6.892071585515952004e-02
1.100000000000000089e+00,-1.829460300972861053e-01,1.479572067760178689e-01,1.105354932117895705e-01
1.100999999999999979e+00,-2.151320869255727297e-01,1.786026977808560789e-01,1.324418114537213864e-01
1.102000000000000091e+00,-2.263522741981565667e-01,1.946202863530467064e-01,1.442269285884253960e-01
1.102999999999999980e+00,-2.413398603254258146e-01,1.938673017631062090e-01,1.522182904998692632e-01
1.104000000000000092e+00,-2.157805005055727088e-01,1.761968762675847899e-01,1.311201555721689116e-01
1.104999999999999982e+00,-1.779997463982835870e-01,1.483036389959339896e-01,1.160355485894592475e-01
1.106000000000000094e+00,-1.343874002414491287e-01,9.013329769474386077e-02,9.121742891368850303e-02
1.106999999999999984e+00,-7.650173464463587425e-02,6.771817171567591498e-02,5.607075836377677786e-02
1.108000000000000096e+00,-1.085864825624028966e-02,-3.607131633325503985e-03,9.434973394549310902e-03
1.108999999999999986e+00,5.537113711165374957e-02,-4.684474662578261978e-02,-2.558425510793884555e-02
1.110000000000000098e+00,1.148694796857652328e-01,-9.729195894644777909e-02,-6.613063560760434889e-02
1.110999999999999988e+00,1.747811150787272338e-01,-1.506526276384348995e-01,-9.511578878412500770e-02
1.112000000000000099e+00,2.202571442678369074e-01,-1.651183717980925780e-01,-1.100593940383632480e-01
1.112999999999999989e+00,2.309429347131012333e-01,-1.905448090020647467e-01,-1.438159262143130779e-01
1.114000000000000101e+00,2.426022459016860811e-01,-1.895358964313072769e-01,-1.462353128192490359e-01
1.114999999999999991e+00,2.261438371732902020e-01,-1.758205206069895776e-01,-1.341177519970854215e-01
1.116000000000000103e+00,1.903785972235489676e-01,-1.501090543943657263e-01,-1.276068800940431403e-01
1.116999999999999993e+00,1.605630723542313121e-01,-9.730446823108228338e-02,-9.892784204581404894e-02
1.118000000000000105e+00,1.015855086353418257e-01,-7.181801075000088241e-02,-5.922365462198835029e-02
1.118999999999999995e+00,3.203518831507299464e-02,-2.248903707959982665e-02,-2.556073017250682852e-02
1.120000000000000107e+00,-2.999157454859147434e-02,3.785157713587324751e-02,6.289146831641987713e-03
1.120999999999999996e+00,-8.699110158094790213e-02,9.274336850640700625e-02,4.992689936794625361e-02
1.122000000000000108e+00,-1.473307995449580077e-01,1.467110996876118956e-01,7.747570977771721379e-02
1.122999999999999998e+00,-2.013102056657813943e-01,1.656182822727801651e-01,1.153453019251863276e-01
1.124000000000000110e+00,-2.146945714095554736e-01,1.941967011416871891e-01,1.261877029666235994e-01
1.125000000000000000e+00,-2.504524950089779267e-01,1.960867555873766488e-01,1.366440690472412733e-01
1.125999999999999890e+00,-2.404046702473408847e-01,1.933643642932847406e-01,1.470530002516602097e-01
1.127000000000000002e+00,-2.107381369669605597e-01,1.580148992473950909e-01,1.344083246903891860e-01
1.127999999999999892e+00,-1.730610911498835502e-01,1.221616371601260825e-01,1.152756338591965218e-01
1.129000000000000004e+00,-1.144317520468936394e-01,8.747737325143578602e-02,8.316583725065888888e-02
1.129999999999999893e+00,-6.155044379203858385e-02,2.774410515107894951e-02,4.798056550557366906e-02
1.131000000000000005e+00,1.528214591281393600e-02,-2.210727598027772273e-02,1.584362507952442878e-02
1.131999999999999895e+00,8.098929761811499151e-02,-8.411332784096232917e-02,-2.693050429597280276e-02
1.133000000000000007e+00,1.389052026937045436e-01,-1.325402911959815133e-01,-8.299335590086884262e-02
1.133999999999999897e+00,1.975184471817974519e-01,-1.617547809221432098e-01,-1.014633049692482275e-01
1.135000000000000009e+00,2.199709742185212147e-01,-1.825883248881802479e-01,-1.221773461324041909e-01
1.135999999999999899e+00,2.362360284372222730e-01,-1.928411481384708637e-01,-1.379593416081093260e-01
1.137000000000000011e+00,2.383766673441458095e-01,-1.950227800212963880e-01,-1.434352887170955160e-01
1.137999999999999901e+00,2.191352492593090506e-01,-1.687605820694045300e-01,-1.277177195059468195e-01
1.139000000000000012e+00,1.878766307210001651e-01,-1.433156829077029404e-01,-1.283106406234438002e-01
1.139999999999999902e+00,1.463911064213969382e-01,-8.825694471724909729e-02,-1.045152527142370474e-01
1.141000000000000014e+00,8.113732517491532847e-02,-4.763593555898830434e-02,-6.145807786873291184e-02
1.141999999999999904e+00,9.891406679804320631e-03,1.539051783747761963e-02,-2.758820490980587806e-02
1.143000000000000016e+00,-6.359551645222905059e-02,6.463622848966725509e-02,1.318112446347292910e-02
1.143999999999999906e+00,-1.226849611932338269e-01,1.181468737942577701e-01,5.526440723673791550e-02
1.145000000000000018e+00,-1.672908255980006809e-01,1.440055375319569120e-01,8.645906960312929601e-02
1.145999999999999908e+00,-2.203689150579503098e-01,1.795931503621903680e-01,1.190699983134425322e-01
1.147000000000000020e+00,-2.317865447549579405e-01,1.913417513738306930e-01,1.436948255629458826e-01
1.147999999999999909e+00,-2.395498892984576911e-01,1.893776671868284134e-01,1.314329740532332313e-01
1.149000000000000021e+00,-2.215620792774436187e-01,1.801332578308171284e-01,1.477042426780863782e-01
1.149999999999999911e+00,-2.050173949917245553e-01,1.421984571982292667e-01,1.193777064773611091e-01
1.151000000000000023e+00,-1.604349935664184101e-01,1.038333766769530681e-01,1.013322869731104886e-01
1.151999999999999913e+00,-9.533533074465988522e-02,5.757848060080292263e-02,8.198404533555947449e-02
1.153000000000000025e+00,-3.082294299030303650e-02,3.862991181995870712e-03,4.379976158225733218e-02
1.153999999999999915e+00,2.641487005640166807e-02,-4.380780816706451170e-02,5.114726028780908207e-03
1.155000000000000027e+00,1.009967417943182372e-01,-1.002319565526540307e-01,-5.244336475096898070e-02
1.155999999999999917e+00,1.543481415968123438e-01,-1.479570118826813996e-01,-7.476444369406469448e-02
1.157000000000000028e+00,1.993531260805751493e-01,-1.694761383712911351e-01,-9.811576150328982227e-02
1.157999999999999918e+00,2.309453121951839660e-01,-1.923799769299364415e-01,-1.322631044340418782e-01
1.159000000000000030e+00,2.385090171386693714e-01,-1.841690369984284592e-01,-1.414695219168660700e-01
1.159999999999999920e+00,2.359527841940717297e-01,-1.727201376700032154e-01,-1.530027977124937544e-01
1.161000000000000032e+00,2.168841618078009570e-01,-1.518652805978720488e-01,-1.387161772363984247e-01
1.161999999999999922e+00,1.723854499883249736e-01,-1.173981034288906211e-01,-1.158410344698810324e-01
1.163000000000000034e+00,1.263823963738896772e-01,-7.621043027247283164e-02,-9.980241727581931621e-02
1.163999999999999924e+00,4.688888927109742533e-02,-1.879496665680406575e-02,-7.033597926523126043e-02
1.165000000000000036e+00,-3.108456509303742302e-03,3.833271660572134393e-02,-1.361331302993830199e-02
1.165999999999999925e+00,-7.869953462439321923e-02,8.861321962596500901e-02,1.091810920758197988e-02
1.167000000000000037e+00,-1.295491695002864152e-01,1.388553390825305600e-01,4.042502698061763156e-02
1.167999999999999927e+00,-1.708434721260294331e-01,1.584349439923486702e-01,9.202161989938188735e-02
1.169000000000000039e+00,-2.432540127987083689e-01,1.909227077269105288e-01,1.125459579903966556e-01
1.169999999999999929e+00,-2.451497898522998486e-01,1.896517024945556518e-01,1.337992167159228474e-01
1.171000000000000041e+00,-2.480729708795662292e-01,1.801929643489505739e-01,1.433768556325711319e-01
1.171999999999999931e+00,-2.193935878038933973e-01,1.526161160424043262e-01,1.462324388173611711e-01
1.173000000000000043e+00,-1.957020451746765699e-01,1.178861108162121279e-01,1.231286090511055087e-01
1.173999999999999932e+00,-1.424681043024230709e-01,7.258937501728991715e-02,1.075050395652097229e-01
1.175000000000000044e+00,-8.457447310236923532e-02,2.544214945661999253e-02,7.230536977113476149e-02
1.175999999999999934e+00,-1.685983212139523235e-02,-2.109365380627679573e-02,3.658918145623315382e-02
1.177000000000000046e+00,4.556977744411300213e-02,-8.585658971847485998e-02,-4.387827653964060056e-04
1.177999999999999936e+00,1.208900300429787966e-01,-1.368582918106821533e-01,-4.556730668887736674e-02
1.179000000000000048e+00,1.724975875099137024e-01,-1.615562060712934511e-01,-7.453864505091367665e-02
1.179999999999999938e+00,2.202624438749702374e-01,-1.798627954029830833e-01,-1.068629081615962428e-01
1.181000000000000050e+00,2.362078046668361075e-01,-1.887499686524156672e-01,-1.248036112082373111e-01
