time,acc_x,acc_y,acc_z
0.000000000000000000e+00,2.479849230003316335e-02,2.118072719675071630e-02,3.156986850413852352e-02
1.000000000000000021e-03,-4.763194330070754040e-04,-3.873600204452160543e-03,5.253696287236898910e-02
2.000000000000000042e-03,-1.714192257504450895e-02,7.115835533731101024e-03,2.801471464506323505e-02
3.000000000000000062e-03,1.902232320999562446e-03,-2.311753614477943253e-02,1.133974263538301865e-02
4.000000000000000083e-03,-8.320034430804718745e-03,-6.266762346572966880e-02,-6.431415435424837901e-03
5.000000000000000104e-03,-4.689340016389041688e-02,-3.721723863655559267e-02,-1.777170074576719244e-02
6.000000000000000125e-03,-3.513235700659227134e-02,-4.383713781179254809e-02,-3.250105655684274591e-02
7.000000000000000146e-03,-7.416296557729343264e-02,-2.021960486105029570e-02,-6.242411755819830821e-02
8.000000000000000167e-03,-1.016084846260444652e-01,-5.786173053536763922e-02,-4.315773462632532809e-02
8.999999999999999320e-03,-6.635481911146111356e-02,-6.964902962892596805e-02,-4.581024835159650671e-02
1.000000000000000021e-02,-8.881693114526539867e-02,-7.131444232408327977e-02,-6.098770793554668911e-03
1.099999999999999936e-02,-6.570730483340425643e-02,-7.314648971456716442e-02,-6.784400264897794131e-02
1.200000000000000025e-02,-6.173993301851136289e-02,-2.438320673634485763e-02,-5.083324914164997349e-02
1.299999999999999940e-02,-8.329049676997227203e-02,-1.310539365111859471e-02,-7.925986422716395363e-02
1.400000000000000029e-02,-4.814252327649883728e-02,-5.085488891352304974e-02,-3.547489795073703600e-02
1.499999999999999944e-02,-1.817552479671816906e-02,-1.494826111218150108e-02,-4.734610957853516849e-02
1.600000000000000033e-02,-2.273552898908360806e-02,-9.784022827524834973e-03,1.469295123777895895e-02
1.700000000000000122e-02,-1.100843064422159408e-02,-9.915630677339823049e-03,-5.307645999814093740e-02
1.799999999999999864e-02,4.134292514725864537e-02,6.103814091533295294e-02,1.745377096386479740e-02
1.899999999999999953e-02,2.689404016664889360e-03,1.004660360259868740e-02,5.939891628690538959e-03
2.000000000000000042e-02,3.376893177211591490e-02,2.003041194815009807e-02,-2.144491623330414126e-02
2.100000000000000130e-02,7.460262185233312859e-02,3.232935958210893940e-02,2.366888974865304779e-02
2.199999999999999872e-02,5.163963967857373299e-02,6.110030320364804451e-02,4.673678243559922785e-02
2.299999999999999961e-02,5.329810195628526676e-02,3.984639765353718832e-02,2.755057571358087223e-02
2.400000000000000050e-02,5.097819884843110549e-02,2.315292492912222194e-02,1.509966055598224374e-02
2.500000000000000139e-02,6.128394586347584577e-02,5.554453031989158712e-02,3.281919902635829778e-02
2.599999999999999881e-02,6.091958769413423347e-02,6.200661450516508494e-02,3.027059024405912013e-02
2.699999999999999969e-02,7.912489306815537193e-02,2.136942874412826876e-02,6.202729612498235345e-02
2.800000000000000058e-02,1.039443893325269624e-01,4.618709577262610638e-02,2.919210004337929182e-02
2.900000000000000147e-02,7.606309253645987534e-02,5.164665276708198249e-02,4.411703240904223979e-03
2.999999999999999889e-02,3.473509597011340683e-02,9.810334740093067107e-03,3.507531603419326372e-04
3.099999999999999978e-02,3.132844001502447379e-02,-5.429228375982000226e-03,5.948522175195027767e-02
3.200000000000000067e-02,1.617843132519979771e-02,-1.677768028938496012e-02,2.333805362951531584e-02
3.300000000000000155e-02,1.117430355990101966e-02,-2.708692628816316422e-02,5.812304339191257108e-02
3.400000000000000244e-02,-5.037612302629881911e-02,-2.764034055213287350e-02,-2.750854201680321808e-03
3.500000000000000333e-02,-1.622363883948933078e-02,-6.590438891359498563e-02,-3.684418131955565032e-03
3.599999999999999728e-02,-4.854630645917185766e-02,-6.463460820931737905e-02,1.735960249641343295e-02
3.699999999999999817e-02,-6.232783313915695594e-02,-7.083060588114473144e-02,-8.309010545351604507e-03
3.799999999999999906e-02,-2.796600941238191335e-02,-6.054210522623903329e-02,-2.281094498770416465e-02
3.899999999999999994e-02,-6.129326969376901885e-02,-6.920306177754843857e-02,-3.115038268683135297e-02
4.000000000000000083e-02,-9.581637031418081818e-02,-7.154499890760057657e-02,-2.932789011999480458e-02
4.100000000000000172e-02,-8.404621960634872657e-02,-3.542100810707107111e-02,-4.651143657191932762e-02
4.200000000000000261e-02,-7.892445110629545124e-02,-4.934598850505438061e-02,-5.319576018258206918e-02
4.299999999999999656e-02,-9.129805261747887812e-02,-2.803768004178645856e-02,-3.180067761421251360e-02
4.399999999999999745e-02,-6.157035207559328344e-02,-4.045628053052161693e-02,-5.438769799244761588e-02
4.499999999999999833e-02,6.564366570114005782e-03,-2.760367143579355032e-02,-5.036727038817899460e-02
4.599999999999999922e-02,-2.976562921089589975e-02,-2.940319221789733980e-03,-2.975242968674788810e-02
4.700000000000000011e-02,-2.854028184919480196e-02,-1.501158034191652814e-02,-4.581859799481362988e-02
4.800000000000000100e-02,-3.653930327730755406e-02,3.335464801913651158e-03,1.150919338184380053e-02
4.900000000000000189e-02,2.066283625969969617e-02,4.201013193750825769e-02,-2.988765003099762979e-02
5.000000000000000278e-02,4.160559848195407445e-02,4.550584265038385562e-02,-1.041940064155735118e-02
5.099999999999999672e-02,1.171352537175235700e-02,4.818578283599866952e-02,-1.440067465047351405e-02
5.199999999999999761e-02,6.210969410383530842e-02,4.408402276716063412e-02,4.165895561412306936e-02
5.299999999999999850e-02,4.945364610155937590e-02,8.389470183452242547e-02,2.253406169370872347e-02
5.399999999999999939e-02,6.550733201916451864e-02,2.273301756927148878e-02,3.622724633292342955e-02
5.500000000000000028e-02,8.954640881652030371e-02,8.004699350853045070e-02,6.019034615426664681e-02
5.600000000000000117e-02,9.006682656237194329e-02,4.813677202329826044e-02,4.644810561257581294e-02
5.700000000000000205e-02,8.188104359436537694e-02,6.755080550676234585e-02,3.996629095261185205e-02
5.800000000000000294e-02,8.069294667861479087e-02,6.940827698018567360e-02,3.955411886739257366e-02
5.899999999999999689e-02,8.121915132735525733e-02,5.995614421309299752e-02,3.906286934816467771e-02
5.999999999999999778e-02,4.449748274641901480e-02,3.608260319930280818e-02,5.050313276221147368e-02
6.099999999999999867e-02,6.559170919896412100e-02,3.547536586811302246e-03,2.900270154499405562e-02
6.199999999999999956e-02,2.144058364146025214e-02,1.280924605418106051e-02,5.636958484041728473e-02
6.300000000000000044e-02,3.969966588612799246e-03,1.412684444828028740e-02,3.287287105234829032e-02
6.400000000000000133e-02,3.460627028433738844e-03,-3.330157104793805833e-02,-1.590656448987286947e-02
6.500000000000000222e-02,-8.043542493158870391e-03,-6.032289365286364752e-02,2.738780368602065918e-02
6.600000000000000311e-02,-7.067886162124349322e-03,-2.782137802447033972e-02,7.494577731776210254e-04
6.700000000000000400e-02,-4.527791617089303722e-02,-6.028126592863016636e-02,-8.461723057144588528e-03
6.800000000000000488e-02,-5.657457860755547158e-02,-6.650312959780357858e-02,-1.551187697447020154e-02
6.900000000000000577e-02,-4.061275669499423563e-02,-6.435537206327830717e-02,-2.858741451399604214e-02
7.000000000000000666e-02,-6.920233401524883421e-02,-5.286213212340865747e-02,-1.405010210696154560e-02
7.099999999999999367e-02,-7.178996386418920461e-02,-7.466764501077451099e-02,-3.017887158714650103e-02
7.199999999999999456e-02,-7.573364424085812785e-02,-5.144821239692757425e-02,-5.439515696664551370e-02
7.299999999999999545e-02,-8.613095542036541818e-02,-4.209529000819901140e-02,-3.004981429888386665e-02
7.399999999999999634e-02,-4.127978308643531768e-02,-7.300489176474196651e-02,-2.189658637503340277e-02
7.499999999999999722e-02,-6.121737803141434620e-02,-1.545458962965066095e-02,-5.779886335212656295e-02
7.599999999999999811e-02,-7.954929600472097906e-02,1.061111852643292081e-02,-2.913818136681265228e-02
7.699999999999999900e-02,-4.628599708559370807e-02,-5.090704990294017684e-02,-7.271413309458582552e-02
7.799999999999999989e-02,-4.502464264028292057e-02,4.564529872345435974e-02,-8.075446956774239710e-03
7.900000000000000078e-02,-5.073892257042828674e-02,1.057017768290387238e-02,-5.027663411144042693e-02
8.000000000000000167e-02,-2.087337369815532931e-02,4.549974567766459227e-02,-3.599104880855335392e-02
8.100000000000000255e-02,1.850863751810677416e-02,2.331406838774983947e-02,-1.398140322056783472e-02
8.200000000000000344e-02,2.716161900522408301e-02,6.273569662298617011e-02,8.731097009796812830e-03
8.300000000000000433e-02,5.223624465044540699e-02,7.219815000910229097e-02,7.212947614851643492e-03
8.400000000000000522e-02,3.948761981479535776e-02,4.076497973948871312e-02,2.025458601452141683e-02
8.500000000000000611e-02,4.653408703415908704e-02,4.956739998171171002e-02,2.282358698317977705e-02
8.599999999999999312e-02,1.181158505070177972e-01,7.063851142850988141e-02,-7.678452763399413669e-03
8.699999999999999400e-02,5.310294681949179196e-02,4.699432738112283015e-02,2.116337245568621420e-02
8.799999999999999489e-02,5.645963921391250473e-02,5.592405000983324131e-02,3.431604308018104676e-02
8.899999999999999578e-02,7.360878782335103510e-02,7.068585978255320645e-02,5.426948529534755122e-02
8.999999999999999667e-02,6.326403865079345545e-02,3.295233725661961960e-02,4.278842604410688227e-02
9.099999999999999756e-02,4.778876407571857471e-02,2.613285687181596262e-02,4.840674383071340986e-02
9.199999999999999845e-02,7.002425018837264703e-02,2.431570205620681505e-02,1.635712304229691716e-02
9.299999999999999933e-02,3.426462984132674222e-02,9.484355049997707232e-03,2.584551908625759564e-02
9.400000000000000022e-02,2.736352498770218758e-02,5.625804337920395533e-03,3.376022622393078793e-02
9.500000000000000111e-02,1.420683554549857439e-02,-4.449024530138698252e-02,4.052035567308586578e-02
9.600000000000000200e-02,2.829891681363241179e-03,-2.319465296702842225e-02,1.698619987636967865e-02
9.700000000000000289e-02,8.222549703955191885e-03,-2.646647498401291307e-02,-1.290758554738489355e-02
9.800000000000000377e-02,-4.334553906344087992e-02,-4.379005453724611752e-02,-2.672194784953690894e-02
9.900000000000000466e-02,-5.454992528858862433e-02,-6.449664900186576066e-02,-3.194483364740405978e-02
1.000000000000000056e-01,-4.744270792932230724e-02,-3.218825803548538284e-02,-1.489856740846637849e-02
1.010000000000000064e-01,-3.106105748121647248e-02,-6.625008195445197812e-02,-1.239100111681615615e-02
1.019999999999999934e-01,-6.035663506952104046e-02,-4.599877890045038498e-02,-2.662736347081053404e-02
1.029999999999999943e-01,-6.512909248026957365e-02,-3.079924044411978118e-02,-3.664105897585295812e-02
1.039999999999999952e-01,-6.867077594477821734e-02,-6.383950256938525358e-02,-7.245123999032657136e-02
1.049999999999999961e-01,-6.786620306618919296e-02,-6.351955783090112995e-02,-4.200729936850480795e-02
1.059999999999999970e-01,-7.375775445640184169e-02,-3.484392476606474470e-02,-5.901464708590226788e-02
1.069999999999999979e-01,-8.588123786432094731e-02,1.043171744041328057e-02,-5.502657830626975916e-02
1.079999999999999988e-01,-4.760244358905794254e-02,1.002150419340186449e-02,-4.104676994162986814e-02
1.089999999999999997e-01,-3.499513742079402717e-02,-3.006622946731212550e-03,-3.770497893699693848e-02
1.100000000000000006e-01,-2.279388174365334918e-02,2.328022019137755000e-02,-5.784102215713068235e-02
1.110000000000000014e-01,-1.919402866928157040e-03,1.772301582955765039e-03,-1.863279515165298245e-02
1.120000000000000023e-01,-3.029852972359649375e-03,3.517256478971459571e-02,6.920260137160541732e-03
1.130000000000000032e-01,7.045540476158771576e-03,4.513388590267331663e-02,8.901690492273399424e-03
1.140000000000000041e-01,3.602820480427654931e-02,2.965872252341787349e-02,-4.021210537049940865e-03
1.150000000000000050e-01,6.695442684030389335e-02,6.111798323568667923e-02,-1.134692353674871326e-02
1.160000000000000059e-01,7.956611484060101269e-02,6.562242375769759828e-02,4.191448538142873020e-02
1.170000000000000068e-01,7.761938387379473114e-02,5.457732677485183787e-02,1.418705604099928207e-02
1.179999999999999938e-01,9.560475508895263652e-02,4.137662868712267683e-02,4.763233345583534756e-02
1.189999999999999947e-01,6.243004843578417451e-02,3.034308628240089262e-02,4.156218829477747317e-02
1.199999999999999956e-01,6.683616744328026160e-02,5.172997544112697965e-02,1.560535940464991868e-02
1.209999999999999964e-01,6.773673589029310937e-02,1.670993367198035304e-02,1.672631844746318500e-02
1.219999999999999973e-01,1.653939918832112929e-02,2.999642773117361036e-02,3.600588056564530542e-02
1.229999999999999982e-01,6.340310932559023449e-02,3.156600269803638142e-02,5.001366256088402712e-02
1.239999999999999991e-01,6.663859946776451437e-02,1.165155460902194025e-02,4.563221954424549059e-02
1.250000000000000000e-01,2.382461231660829709e-02,-1.354782842830852541e-03,5.397481890486287986e-02
1.260000000000000009e-01,2.538727233788090273e-02,-1.858510552169434504e-02,1.336327918337375242e-02
1.270000000000000018e-01,2.331570604789953705e-02,-2.918837664860475176e-02,1.607810748427494774e-02
1.280000000000000027e-01,-2.375953672049914769e-02,-2.548304596944380579e-02,2.929192542910162914e-02
1.290000000000000036e-01,-4.268332630608444311e-02,-4.287842876832782812e-02,-1.531859300321678115e-02
1.300000000000000044e-01,-7.726386239634217001e-02,-5.723343507498056953e-02,-3.606128069025081595e-02
1.310000000000000053e-01,-1.530502921281784792e-02,-7.197025022694990282e-02,1.150528180217056870e-02
1.320000000000000062e-01,-7.616472193044729333e-02,-3.583719913219840514e-02,-9.514055340527651644e-03
1.330000000000000071e-01,-3.595562164644780512e-02,-4.881531244340240466e-02,-3.328529545112349913e-02
1.340000000000000080e-01,-5.560520275697869441e-02,-4.517012447799889641e-02,-1.441304365298645696e-02
1.350000000000000089e-01,-1.000316479340781356e-01,-5.177713067678511860e-02,-5.144886460835185193e-02
1.360000000000000098e-01,-9.935496997763980376e-02,-4.574971861717197497e-02,-6.596643373605862171e-02
1.370000000000000107e-01,-5.895071705675774404e-02,-4.389042781704369928e-02,-1.152551232939210725e-02
1.380000000000000115e-01,-6.079447317998971229e-02,-3.638447271845925840e-02,-6.680099859980195842e-02
1.390000000000000124e-01,-4.418919387010011857e-02,8.830427021528230655e-03,-2.901270342619253692e-02
1.400000000000000133e-01,-8.600189040104531946e-03,2.946090630208592076e-02,-4.860365650084177980e-02
1.409999999999999865e-01,-2.338546026957433535e-02,3.682537331837298228e-02,-5.077943002293034552e-02
1.419999999999999873e-01,-2.995730059799798714e-02,2.055061437107946753e-02,-3.482422804418861678e-02
1.429999999999999882e-01,3.528990754701946675e-02,3.658899633206118968e-02,-4.091290019397422068e-02
1.439999999999999891e-01,-4.869607211816140771e-03,7.541066851645900071e-02,-2.321916910925617486e-02
1.449999999999999900e-01,4.946898727798821130e-03,1.806823957510720474e-02,2.936186050035439251e-03
1.459999999999999909e-01,6.588632222083587453e-02,7.340818978654863047e-02,-1.280952773976908911e-02
1.469999999999999918e-01,6.650578967931479457e-02,4.698677789198674876e-02,1.311416273539338199e-02
1.479999999999999927e-01,6.015368751929794922e-02,6.437948861121867150e-02,2.741167961938700132e-02
1.489999999999999936e-01,9.496011226924651327e-02,3.318574017895102590e-02,1.916168805077612600e-02
1.499999999999999944e-01,4.791729385569209326e-02,5.969233965188006086e-02,2.576908782846518142e-02
1.509999999999999953e-01,6.571871216832345097e-02,2.896627811357773558e-02,3.238018372507804610e-02
1.519999999999999962e-01,5.365561042711529394e-02,7.067690353806137249e-02,3.554680805339303917e-02
1.529999999999999971e-01,7.962227505095824387e-02,3.571815513255860441e-02,3.878230155382339506e-02
1.539999999999999980e-01,6.281270024609712788e-02,3.420068378342015769e-02,7.305056921276752158e-02
1.549999999999999989e-01,7.359117754111335619e-02,7.081859048210641452e-03,5.461239172354578897e-02
1.559999999999999998e-01,4.601274619564050400e-02,-5.215396676596887639e-03,3.594692222029660655e-02
1.570000000000000007e-01,-1.060203725161390845e-02,-3.703886480876388693e-02,2.591203053653321278e-02
1.580000000000000016e-01,-1.194100668321404317e-04,-5.120805775003393900e-02,3.053046338924156680e-02
1.590000000000000024e-01,-1.716105267307362070e-02,-4.618751156631279581e-02,1.154456078952694961e-02
1.600000000000000033e-01,-6.417214594646182546e-02,-1.032069281904520325e-01,-1.712669835858433853e-02
1.610000000000000042e-01,-4.395323274283890330e-02,-5.744999018246076117e-02,1.662006069349061810e-02
1.620000000000000051e-01,-6.283397589258216120e-02,-5.973613461035964106e-02,2.205350392487550725e-03
1.630000000000000060e-01,-6.394905068780643020e-02,-6.597427559696945887e-02,-4.213760839751165554e-02
1.640000000000000069e-01,-5.612893456536639097e-02,-8.285371219451241609e-02,-3.755145491292837239e-03
1.650000000000000078e-01,-1.107951546570598578e-01,-7.416499634896858706e-02,-4.248518008237928828e-02
1.660000000000000087e-01,-6.912455835932998505e-02,-5.525221388744534778e-02,-3.035054347293543106e-02
1.670000000000000095e-01,-6.474594649419979087e-02,-4.365222236247977283e-02,-4.803048466514418802e-02
1.680000000000000104e-01,-7.288351629136867460e-02,-2.916368427674513597e-02,-3.023549772861886323e-02
1.690000000000000113e-01,-4.733794782210333507e-02,-3.881291963327590522e-02,-4.624373070514019302e-02
1.700000000000000122e-01,-9.440016021989764902e-03,-9.557958880022528886e-03,-3.546876295331067436e-02
1.710000000000000131e-01,-6.875899879898468570e-02,1.460661847343598142e-02,-3.650830920129358864e-02
1.719999999999999862e-01,-2.296152143260943301e-02,5.394527727131401273e-02,-3.245536275273649962e-02
1.729999999999999871e-01,-3.102221367260011783e-02,1.982698727446205456e-02,-5.227898365427941646e-02
1.739999999999999880e-01,1.381383458232327520e-02,3.581700979291890796e-02,-2.707726666627504122e-02
1.749999999999999889e-01,-2.476141237444187335e-02,1.585624649567573749e-02,-2.808523921016226055e-02
1.759999999999999898e-01,4.990866503209003685e-02,6.194330732750898821e-02,-1.863664880977264782e-03
1.769999999999999907e-01,6.194228057779417596e-02,5.096043413673671113e-02,-1.629105394603204415e-02
1.779999999999999916e-01,8.356203162889486169e-02,6.919845811130125035e-02,1.232689216478204293e-02
1.789999999999999925e-01,5.121131996124363150e-02,7.108955851286176408e-02,1.511131808953079282e-02
1.799999999999999933e-01,1.122797100743453957e-01,9.193833839573103961e-02,3.050351271529550337e-02
1.809999999999999942e-01,6.187347756900424961e-02,2.878659101005332996e-02,1.844660876681788672e-02
1.819999999999999951e-01,8.026694442212475855e-02,6.796215270850748669e-02,3.927354587728038721e-02
1.829999999999999960e-01,6.326284654387590023e-02,5.827139302290101214e-02,3.521854311705647361e-02
1.839999999999999969e-01,6.714054537444726078e-02,1.391791314529207055e-02,4.378612775263281132e-02
1.849999999999999978e-01,4.497965448112357933e-02,2.957583216160751538e-02,5.362823396449954011e-02
1.859999999999999987e-01,5.694906286274234453e-02,-1.045689807937878572e-02,3.520219965129616629e-02
1.869999999999999996e-01,3.727941213690613015e-02,-3.084242926526915146e-02,6.444399980899086222e-02
1.880000000000000004e-01,1.141717761267537455e-02,-4.245335045965911019e-02,2.913990938147569681e-02
1.890000000000000013e-01,9.833800061135943710e-03,-4.324232894806909200e-02,5.301236763224865395e-02
1.900000000000000022e-01,1.267150209988995510e-02,-6.572220390811125967e-02,1.037157063911417834e-02
1.910000000000000031e-01,-2.567446636463178999e-02,-3.497829688759300504e-02,1.107817796533171022e-02
1.920000000000000040e-01,-2.863307223246806810e-02,-8.191858033921961546e-02,4.981643534069817025e-03
1.930000000000000049e-01,-3.181673333281406779e-02,-4.917288132601401601e-02,3.341945654765734325e-02
1.940000000000000058e-01,-7.074850984482802807e-02,-5.353799146544382936e-02,3.406602933836649829e-03
1.950000000000000067e-01,-5.806001156315248463e-02,-7.040931394684780964e-02,-4.275533222204377058e-03
1.960000000000000075e-01,-8.166527012778539152e-02,-6.402905952306869874e-02,-2.931028486158944110e-02
1.970000000000000084e-01,-6.399977239085989644e-02,-4.303221744286045425e-02,-5.078036137174202734e-03
1.980000000000000093e-01,-4.337946977807334570e-02,-6.011549720552580856e-02,-6.131066076110487650e-02
1.990000000000000102e-01,-7.454054532568858693e-02,-4.227639736844599275e-03,-4.633978973929793466e-02
2.000000000000000111e-01,-5.660407707436409391e-02,-4.463764565153394148e-02,-3.951993531491690415e-02
2.010000000000000120e-01,-3.329379312717794387e-02,-1.720776057466662234e-02,-5.903949348269381392e-02
2.020000000000000129e-01,-2.424547191524235520e-02,3.434546117010784435e-03,-1.377331855402583530e-02
2.030000000000000138e-01,-2.808162222423995699e-02,-8.707095094752426157e-03,-4.542962976389396806e-02
2.039999999999999869e-01,-3.326550177658353473e-03,3.680760883241226966e-02,-3.692833963801760849e-02
2.049999999999999878e-01,1.499067931855548735e-02,1.537006704309888151e-02,-3.910979461786402017e-02
2.059999999999999887e-01,-2.628147670650970991e-02,5.260865558840976952e-02,-8.715903049746813111e-03
2.069999999999999896e-01,3.571832394299169489e-02,4.267155783425611443e-02,-1.312928204506873774e-02
2.079999999999999905e-01,3.971492428197462288e-02,6.808126741930733972e-02,2.210054896669466293e-02
2.089999999999999913e-01,4.052431944587913532e-02,8.368749855438840923e-02,1.154564912547690822e-02
2.099999999999999922e-01,2.706015270768257278e-02,4.486390318865920296e-02,9.907142676156643988e-04
2.109999999999999931e-01,9.392737938942488651e-02,6.916403187959137278e-02,5.853687481468081849e-02
2.119999999999999940e-01,5.426876925322186851e-02,5.917298893806763327e-02,4.230055347181817249e-02
2.129999999999999949e-01,9.337416886287336348e-02,1.423004964103405205e-02,5.976262318769081511e-02
2.139999999999999958e-01,7.665185458432539900e-02,4.147155910460634254e-02,4.759349321514953291e-04
2.149999999999999967e-01,7.173568366240605509e-02,3.567113848345922211e-02,4.821334270866756144e-02
2.159999999999999976e-01,2.203593356104295922e-02,2.697365691461860865e-02,4.039091175520359567e-02
2.169999999999999984e-01,6.650785586192278775e-02,-8.256323554181467517e-03,2.479709092579963567e-02
2.179999999999999993e-01,4.158130494942898631e-02,-8.819598212440273380e-03,6.210774575658931790e-02
2.190000000000000002e-01,4.898178427109131650e-02,-3.798463557649460476e-02,4.054901061813676044e-02
2.200000000000000011e-01,3.063290613695341530e-02,-3.055644740113833482e-02,4.415546959692490114e-02
2.210000000000000020e-01,-6.369941894676284938e-03,-4.819134802516478189e-02,4.221316607051112113e-02
2.220000000000000029e-01,6.848964268323724271e-03,-3.881075163790471266e-02,4.647628833781052016e-02
2.230000000000000038e-01,-2.589666540069486891e-02,-5.290618454729229675e-02,2.185060183039446574e-02
2.240000000000000047e-01,-4.589815227605254649e-02,-3.816058616367346001e-02,3.100166004519045587e-02
2.250000000000000056e-01,-5.808807161102771954e-02,-7.030300363136654518e-02,-1.019349823150183382e-02
2.260000000000000064e-01,-5.810243430483416627e-02,-7.686472132042466987e-02,-4.133358832700019352e-03
2.270000000000000073e-01,-6.538171395811741282e-02,-4.172902855957018320e-02,-2.050867046924638795e-02
2.280000000000000082e-01,-5.191611509244366263e-02,-1.324220389909615096e-02,-1.998487549262823945e-02
2.290000000000000091e-01,-9.423862623613751821e-02,-3.024972758721326468e-02,-6.507709104884527862e-02
2.300000000000000100e-01,-8.602978517600411157e-02,-1.053958046704006613e-02,-7.211512226550197135e-02
2.310000000000000109e-01,-6.157318956076223565e-02,-1.342687927428828573e-02,-6.545034718382448935e-02
2.320000000000000118e-01,-5.273843378279013949e-02,-1.000547121198413006e-02,-4.713342594148691583e-02
2.330000000000000127e-01,-2.525383098425070666e-02,2.826902996688102120e-04,-4.407858564236435961e-02
2.340000000000000135e-01,-2.793638055093914177e-02,2.040597953197384115e-02,-2.028008968499070072e-02
2.349999999999999867e-01,8.581700520451852887e-03,4.172541734863206841e-02,-4.023802740290683549e-02
2.359999999999999876e-01,3.480948408879220289e-04,1.498538469635053196e-02,-2.963361361414918946e-02
2.369999999999999885e-01,-1.661014648292822096e-02,4.645819618062203143e-02,-3.897275129421819834e-02
2.379999999999999893e-01,-1.109405417024536024e-02,6.697159360169031850e-02,-1.965224037262214285e-02
2.389999999999999902e-01,4.623414190482951630e-02,5.597839735694522256e-02,6.683594108812492603e-04
2.399999999999999911e-01,6.258671775239164903e-02,6.237388560658475162e-02,1.850567552884721306e-03
2.409999999999999920e-01,5.986377141193446882e-02,8.596451689410658514e-02,1.550701232154239918e-02
2.419999999999999929e-01,4.193282277703180849e-02,6.322694738318029861e-02,1.534066982454158770e-03
2.429999999999999938e-01,7.511801068756490674e-02,4.133206165055800657e-02,4.197022683654252906e-03
2.439999999999999947e-01,7.603333613794295565e-02,6.326244605852247849e-02,4.772013189952862416e-02
2.449999999999999956e-01,1.096776499146642492e-01,5.061162278950213922e-02,5.120780581701204343e-02
2.459999999999999964e-01,1.020035525545424371e-01,4.009193125160134819e-02,5.876451728615595532e-02
2.469999999999999973e-01,7.441979596971604050e-02,2.538110481213807015e-02,3.272640158767901181e-02
2.479999999999999982e-01,6.947471893434813139e-02,1.391582464087495925e-02,6.599015254583716350e-02
2.489999999999999991e-01,3.576662228530762266e-02,-1.826735663874302570e-02,3.919696337746581688e-02
2.500000000000000000e-01,1.101125801897854389e-02,-1.435773464005726113e-02,3.531495492139521269e-02
2.510000000000000009e-01,4.848482194035688697e-02,-5.066318702550917652e-02,3.958457155425962326e-02
2.520000000000000018e-01,-1.228465491516816423e-02,-5.006131026468420980e-02,3.624543401221394512e-02
2.530000000000000027e-01,9.032893280279638212e-03,-3.948498169963571974e-02,1.439298757963393969e-03
2.540000000000000036e-01,-3.714268609433136331e-02,-3.843511046359312372e-02,5.777165959858222843e-02
2.550000000000000044e-01,-4.433732263728333567e-02,-5.504570987926363235e-02,-1.184081401094268498e-03
2.560000000000000053e-01,-4.027672134736252213e-02,-5.609201239800728350e-02,-4.251121549673840365e-03
2.570000000000000062e-01,-4.645002112552139989e-02,-3.606638809027976067e-02,1.683952256973657476e-03
2.580000000000000071e-01,-9.970127795327507481e-02,-3.385516266698498228e-02,-3.373843659149880492e-02
2.590000000000000080e-01,-5.844588519764457035e-02,-4.062452767660589686e-02,-6.459363816755540888e-02
2.600000000000000089e-01,-6.962069689990850463e-02,-6.419928664754539702e-03,-2.745742976513463815e-02
2.610000000000000098e-01,-7.278523649768969817e-02,-3.622861867764910759e-02,-5.168224198289329135e-02
2.620000000000000107e-01,-6.899631321764772285e-02,-3.728589889731633890e-03,-2.626958331950818293e-02
2.630000000000000115e-01,-1.944574641107337312e-02,3.139794579223998544e-02,-4.693502614607404644e-02
2.640000000000000124e-01,-3.384610890518063159e-02,-1.849739622435030498e-02,-7.903408252898416753e-02
2.650000000000000133e-01,-2.859880758947114937e-02,1.601565407848022995e-02,-4.357616691279471433e-02
2.660000000000000142e-01,-4.119690252095516841e-02,2.874092054527962667e-02,-1.414635810264193959e-02
2.670000000000000151e-01,-1.436486087124861678e-02,2.669723398185256877e-02,-4.096800419622142336e-02
2.680000000000000160e-01,-7.722681499472468063e-03,5.195605497345631707e-02,-2.385137357647365217e-02
2.690000000000000169e-01,1.895070223417883153e-03,3.308409219212563035e-02,-1.941480870001852446e-02
2.700000000000000178e-01,3.998657721460958242e-02,5.068197071229606221e-02,-4.077618526435430706e-03
2.710000000000000187e-01,4.507928856205307977e-02,2.541826768541111115e-02,-1.924348519486395945e-02
2.720000000000000195e-01,6.193683491011515996e-02,8.767136436543920830e-02,3.185167166052654732e-03
2.730000000000000204e-01,7.836973409070197016e-02,5.267947604344658252e-02,8.680658134666731710e-03
2.740000000000000213e-01,6.107174920173235461e-02,4.678482188948916015e-02,5.239806968279966254e-03
2.750000000000000222e-01,8.432871436779598717e-02,5.665945074283926242e-02,3.458732274709671456e-02
2.760000000000000231e-01,8.392177115484386607e-02,4.086429637494871231e-02,3.245923883674180915e-02
2.770000000000000240e-01,6.541598165503752227e-02,4.904959341929843175e-02,4.892424742446784686e-02
2.780000000000000249e-01,7.463702274812532289e-02,2.387318703439048062e-02,3.906827917880322659e-02
2.790000000000000258e-01,4.554510874215078609e-02,-2.407558855890435095e-03,6.506818177097384304e-02
2.800000000000000266e-01,5.526347452451975222e-03,-1.451327323204973894e-02,6.582014732402244328e-02
2.810000000000000275e-01,-9.130975137256639590e-03,-2.283189857432990633e-02,4.144277047363553040e-02
2.819999999999999729e-01,1.875638717795966720e-02,-1.992119602079939211e-02,6.517781829118754477e-02
2.829999999999999738e-01,-3.225183788657754597e-02,-7.227186069865054741e-02,5.554339478065352387e-02
2.839999999999999747e-01,-1.094607586279048271e-02,-2.415082112545912166e-02,3.799644491254387108e-02
2.849999999999999756e-01,-2.529094798416181913e-02,-5.454167531523427398e-02,2.989759919389619811e-03
2.859999999999999765e-01,-7.448981295602072339e-02,-4.505126473322702135e-02,1.546908674543987817e-02
2.869999999999999774e-01,-4.234199276210860036e-02,-7.531950108037656355e-02,-2.325713851357267756e-03
2.879999999999999782e-01,-5.459951032443968733e-02,-5.417845367143902385e-02,-4.553674266719294830e-03
2.889999999999999791e-01,-8.267945357587135058e-02,-6.910588055479109648e-02,4.309861695595665169e-03
2.899999999999999800e-01,-7.219738082614238217e-02,-2.417411391876511662e-02,-1.780443785006710286e-02
2.909999999999999809e-01,-9.157858307706071010e-02,-3.892402048618708033e-02,-6.368691713437457658e-02
2.919999999999999818e-01,-8.619725063447389313e-02,-3.628123449887211277e-02,-4.820805596456478881e-02
2.929999999999999827e-01,-6.677681556368149363e-02,-1.842162153452303955e-02,-5.512743742023331478e-02
2.939999999999999836e-01,-4.700694738119663013e-02,-5.139420474793466274e-03,-7.042646362432894436e-02
2.949999999999999845e-01,-7.351163367514358671e-02,4.664734899663567497e-02,-4.361602156687163778e-02
2.959999999999999853e-01,-2.663317917849681443e-02,3.150927570265499300e-02,-9.406579508194504169e-02
2.969999999999999862e-01,-4.102605424323843043e-03,4.425921191502382723e-02,-3.570077414693274831e-02
2.979999999999999871e-01,-5.817465675973128129e-03,3.268430650556043704e-02,-3.235451515927137423e-02
2.989999999999999880e-01,1.778826807512073546e-02,6.626772959611140767e-02,-4.563817822328247731e-02
2.999999999999999889e-01,3.139468548186589991e-02,5.213676431982351700e-02,-1.823520265151694700e-02
3.009999999999999898e-01,6.122201508419224808e-02,5.781488020351981810e-02,-2.198984969486923735e-02
3.019999999999999907e-01,5.565629101114814847e-02,6.562472077552720939e-02,1.609362246207288183e-02
3.029999999999999916e-01,5.869101073580929723e-02,5.599115660212376083e-02,1.826472331782564955e-03
3.039999999999999925e-01,9.555441591224071718e-02,3.627053071582172356e-02,-1.031152358845712630e-02
3.049999999999999933e-01,9.172345436138511221e-02,3.372552850777599948e-02,6.537160070321648003e-03
3.059999999999999942e-01,8.555347219233529199e-02,4.269851334866677645e-02,3.862191701154731038e-02
3.069999999999999951e-01,1.132988296823081720e-01,1.613207471186806768e-02,2.328351596969278556e-02
3.079999999999999960e-01,7.007828600877946679e-02,2.170169069319746388e-02,4.047187645134210643e-02
3.089999999999999969e-01,4.695474673778340935e-02,3.541353508936857797e-02,6.957384365639825152e-02
3.099999999999999978e-01,5.340242136996953964e-02,-2.728048304964790245e-03,4.293692506113867824e-02
3.109999999999999987e-01,7.719914897880038318e-02,-1.845515059195048518e-02,2.409195966595982161e-02
3.119999999999999996e-01,1.654519583631209462e-02,-1.137092182552369192e-02,4.108550785776081404e-02
3.130000000000000004e-01,4.733201675848617423e-02,-3.053028304687787492e-02,3.591767698106281687e-02
3.140000000000000013e-01,-1.405444048906013925e-02,-2.234070168003664952e-02,4.996553794393067752e-03
3.150000000000000022e-01,-1.808648943370682119e-02,-6.209743946662626274e-02,1.410610849397902870e-02
3.160000000000000031e-01,6.253220098591092844e-05,-3.816068213987810348e-02,2.942161496794200998e-02
3.170000000000000040e-01,-2.887970912953772423e-02,-7.088280904772931157e-02,7.452883927218562771e-03
3.180000000000000049e-01,-4.289473904783357161e-02,-7.261612704062120338e-02,3.022306703073396328e-02
3.190000000000000058e-01,-9.825158134181909142e-02,-8.109951892689665209e-02,-3.138324152076275853e-02
3.200000000000000067e-01,-1.144170640874825479e-01,-6.038634919275241708e-02,-1.996183238942665639e-02
3.210000000000000075e-01,-8.921111303479299648e-02,-6.693553417090990221e-02,5.578255231879360176e-03
3.220000000000000084e-01,-8.232351992623557213e-02,-2.944997781735572001e-02,-1.308374429021710514e-02
3.230000000000000093e-01,-5.845155296291433544e-02,-1.740600211655325691e-02,-1.287587009808851060e-02
3.240000000000000102e-01,-8.397497065689786544e-02,-1.100183442356461247e-02,-3.773162607917694700e-02
3.250000000000000111e-01,-7.027036864312379005e-02,-2.071985752396445640e-02,-4.557986178977001257e-02
3.260000000000000120e-01,-5.970938295472778823e-02,2.724905715834031322e-02,-2.678432825492504596e-02
3.270000000000000129e-01,-7.148564026965574525e-02,-2.829206651359101113e-03,-2.367319472106993103e-02
3.280000000000000138e-01,-5.330017270299960974e-02,7.426733379741903840e-02,-1.474727777375255296e-02
3.290000000000000147e-01,-2.050548063166009877e-02,3.083820744295013086e-02,-4.430884010814836738e-02
3.300000000000000155e-01,2.784956471156645706e-03,3.435675572916809667e-02,-4.022310878707159587e-02
3.310000000000000164e-01,-5.108597624733053795e-03,3.071434678065398591e-02,-8.099277707641340529e-02
3.320000000000000173e-01,3.994767303223588362e-02,6.937544502225957699e-02,-2.954302455755224155e-02
3.330000000000000182e-01,5.796679921048161072e-02,6.897527148171103684e-02,-2.276842364646623502e-03
3.340000000000000191e-01,2.760636688700005698e-02,7.807970466160442380e-02,-2.670444945382599577e-02
3.350000000000000200e-01,4.884264393434679941e-02,4.585230375990507340e-02,-2.410237957788885846e-02
3.360000000000000209e-01,8.810252512878254116e-02,4.676248495835860081e-02,-2.118913453047700096e-02
3.370000000000000218e-01,6.925885102607257093e-02,5.293274110173212810e-02,1.378202506680758794e-03
3.380000000000000226e-01,5.891996510207813537e-02,2.850803151047200112e-02,2.433421516125224351e-02
3.390000000000000235e-01,8.449553458429018282e-02,8.181388114996889990e-03,4.835099754865420860e-03
3.400000000000000244e-01,8.163342124961475710e-02,9.108259958361727276e-03,5.903207872222577396e-02
3.410000000000000253e-01,4.916848423326883322e-02,1.568824789260133508e-03,3.334025039178772909e-02
3.420000000000000262e-01,3.369203115389335368e-02,-2.745975152753660740e-03,8.980735904850359330e-02
3.430000000000000271e-01,5.116177311966482733e-02,-2.841926976531098520e-02,6.366077316427110055e-02
3.439999999999999725e-01,2.232311938179477179e-02,-3.430441237870229115e-02,6.946625974054844443e-02
3.449999999999999734e-01,-8.587536612035661515e-03,-6.032672475718582616e-02,2.631420700174751798e-02
3.459999999999999742e-01,1.454251386452485618e-02,-5.160296410411498863e-02,2.922399064237788183e-02
3.469999999999999751e-01,-4.634445767396938587e-02,-5.540530628342560382e-02,2.012343875673434923e-02
3.479999999999999760e-01,-4.616059868292385349e-02,-5.818050589545210871e-02,2.628140753381530068e-02
3.489999999999999769e-01,-4.827871056913294462e-02,-8.695775964247239032e-02,-1.645904492686539578e-04
3.499999999999999778e-01,-6.633611752302341624e-02,-7.592384466614671146e-02,-2.293118753532959880e-02
3.509999999999999787e-01,-3.388830528714026347e-02,-6.359141266668938419e-02,1.321163560486742113e-02
3.519999999999999796e-01,-5.885507569135537548e-02,-4.122815924584034841e-02,-5.895521806908198166e-03
3.529999999999999805e-01,-1.021467419613978078e-01,-4.029743138215032688e-02,-2.601965288941597912e-02
3.539999999999999813e-01,-7.667735070864956093e-02,-1.125629350962738598e-02,-1.822156424160963073e-02
3.549999999999999822e-01,-6.059960153385793302e-02,3.090341398043749792e-03,-3.093054905750343073e-02
3.559999999999999831e-01,-8.115829592580244001e-02,2.764187333963228580e-03,-6.735519126874252305e-02
3.569999999999999840e-01,-5.327926790446538274e-02,-1.319352510155289912e-02,-5.724646323492127431e-02
3.579999999999999849e-01,-4.397349861306972668e-02,1.743525120401203526e-02,-5.213944001081789736e-02
3.589999999999999858e-01,-7.593588194294238758e-02,5.860275438928751190e-02,-5.624686276447390942e-02
3.599999999999999867e-01,-6.071432730429086877e-02,6.440855695717775942e-02,-2.895786879126873575e-02
3.609999999999999876e-01,1.351851871598912236e-02,2.993120847038338930e-02,-3.133613010141349936e-02
3.619999999999999885e-01,7.269496319738492050e-03,6.209577591975015687e-02,-2.211906817293415178e-02
3.629999999999999893e-01,-9.684792542632821716e-03,5.350096534705171825e-02,-4.682817780052517254e-02
3.639999999999999902e-01,4.697829495795381033e-02,5.018564027089886248e-02,-3.371934601267515680e-02
3.649999999999999911e-01,6.745013358296375605e-02,8.012324026307425517e-02,-8.991627684927065017e-03
3.659999999999999920e-01,3.184737701915864999e-02,8.218339661136825347e-02,6.800756509162158214e-04
3.669999999999999929e-01,6.756614174752573199e-02,3.630693866370590661e-02,-7.860053343588567845e-04
3.679999999999999938e-01,8.122160910116377197e-02,7.384029406357311975e-02,8.210027694160725378e-03
3.689999999999999947e-01,5.328270423952165269e-02,1.562617258188634187e-02,5.993429962537589551e-04
3.699999999999999956e-01,9.107117467347559947e-02,3.613144860359657901e-02,2.046084891438735426e-02
3.709999999999999964e-01,9.805695462180585853e-02,1.859493574231010872e-03,1.832245933582889175e-02
3.719999999999999973e-01,8.388766874383903061e-02,-9.495787539301145733e-03,3.918002945988013908e-02
3.729999999999999982e-01,5.335432974540730428e-02,5.506010704171420160e-04,3.982669170623870381e-02
3.739999999999999991e-01,5.356712647964473328e-02,-1.435577787574936551e-02,3.846049451152157989e-02
3.750000000000000000e-01,2.461675418376743380e-03,-2.094800074646936336e-02,4.611244275622758404e-02
3.760000000000000009e-01,2.354333875069844831e-02,-4.714849651776022860e-02,6.711820350631454712e-02
3.770000000000000018e-01,-2.855062651099574481e-02,-2.818845922283339661e-02,5.952597983612202548e-02
3.780000000000000027e-01,-1.877579613361383265e-02,-5.884859078546752359e-02,4.234851509853873597e-02
3.790000000000000036e-01,-6.774469084032067046e-02,-6.758027085596966799e-02,4.115168416369278936e-02
3.800000000000000044e-01,-6.799192297954008424e-02,-6.930743523689256169e-02,1.279197178769741344e-02
3.810000000000000053e-01,-5.429433819766255748e-02,-4.615980799106279842e-02,1.049018145029734055e-02
3.820000000000000062e-01,-4.175722935421592036e-02,-5.987811173719278374e-02,2.129068618156671963e-02
3.830000000000000071e-01,-7.511881600683349702e-02,-5.219505071864945916e-02,-1.928851085190090575e-02
3.840000000000000080e-01,-8.113860417031680539e-02,-1.780277745046220453e-02,-2.115847288198325835e-02
3.850000000000000089e-01,-9.033020127960263157e-02,-1.150110561690617303e-02,-1.103405877327162145e-02
3.860000000000000098e-01,-4.829427475819324939e-02,-2.186353796039365235e-02,-3.428302865849799236e-02
3.870000000000000107e-01,-5.380418353344451621e-02,1.847046794633954922e-02,-4.682330262703872370e-02
3.880000000000000115e-01,-2.669587479150171624e-02,6.262586107428142444e-03,-3.858952399837449476e-02
3.890000000000000124e-01,-7.877990166228371338e-02,1.865114474832610045e-02,-2.152756162079438179e-02
3.900000000000000133e-01,-6.089793338593861571e-02,2.590289838073803197e-02,-3.299319381569846416e-02
3.910000000000000142e-01,-3.068598660446164583e-02,-1.258932841802686692e-02,-7.923809691531109867e-02
3.920000000000000151e-01,2.282308620484545247e-02,7.291735218199829616e-02,-5.938258429886784234e-02
3.930000000000000160e-01,-1.388274419520078851e-02,5.084726547614592390e-02,-2.787320126298142853e-02
3.940000000000000169e-01,2.542111941989894184e-03,8.228519343537483988e-02,-6.982423208960673866e-02
3.950000000000000178e-01,9.458657444822281962e-03,4.432365619601061346e-02,-1.660399292600723761e-02
3.960000000000000187e-01,3.781072175253485934e-02,4.917528312611991331e-02,-1.528913199407968410e-02
3.970000000000000195e-01,4.501084492517178764e-02,6.835376387429754896e-02,-3.180166187622477237e-04
3.980000000000000204e-01,6.037797264882572429e-02,7.631458618963117557e-02,-1.263149740875739099e-02
3.990000000000000213e-01,6.519331043286935579e-02,7.966981848315347892e-02,2.604840361668668558e-02
4.000000000000000222e-01,7.449518324018752913e-02,3.987006633604439632e-02,2.241467930597108513e-03
4.010000000000000231e-01,8.155113271954529675e-02,-1.153521219845846812e-04,3.680320530597284284e-02
4.020000000000000240e-01,6.989690531349358749e-02,1.553726052577599284e-02,4.486915146475497357e-02
4.030000000000000249e-01,6.911622357565368191e-02,2.093113757511970083e-02,5.112880574596964656e-02
4.040000000000000258e-01,9.281934570857271194e-02,1.863787294619180177e-02,5.410917585541918234e-02
4.050000000000000266e-01,4.075080873477553850e-02,-1.118690600483399772e-02,4.005050033378052682e-02
4.060000000000000275e-01,3.729002206108045919e-02,-1.332145536631520674e-02,5.411487852895401768e-02
4.069999999999999729e-01,2.662809754525444217e-02,-2.724400347495963340e-02,5.315756202692559912e-02
4.079999999999999738e-01,1.541285627815550639e-02,-3.534883698872733765e-02,4.331828194897633516e-02
4.089999999999999747e-01,9.587065189302371171e-03,-4.018104899794761736e-02,4.778304022589722339e-02
4.099999999999999756e-01,-2.644981658403099470e-02,-7.632903988411489371e-02,1.279192104079636795e-03
4.109999999999999765e-01,-8.773324458092153499e-03,-8.269233265917814990e-02,1.946673861177133924e-02
4.119999999999999774e-01,-5.247570473313058897e-02,-3.665092664018283070e-02,2.789684859160242517e-02
4.129999999999999782e-01,-1.093994079334162095e-01,-7.215431955638147710e-02,1.804509637119362103e-02
4.139999999999999791e-01,-7.407993758167810694e-02,-6.986936091924667025e-02,9.765459857246775940e-03
4.149999999999999800e-01,-6.224647115487729615e-02,-4.023354127260485302e-02,-1.926126043597450313e-03
4.159999999999999809e-01,-8.918851429033410050e-02,-5.006081146940653814e-02,-8.328429506285942030e-03
4.169999999999999818e-01,-5.847111631133974918e-02,2.852896311625609596e-02,-4.496305358108504402e-02
4.179999999999999827e-01,-5.991968998465930368e-02,2.692469806743718469e-02,-3.093592372363070109e-02
4.189999999999999836e-01,-6.092509452779095586e-02,1.452770294027790760e-02,-2.841977432496130274e-02
4.199999999999999845e-01,-6.235301989012222157e-02,2.576360439848677034e-02,-4.387962004127937687e-02
4.209999999999999853e-01,-4.822713744315145629e-02,2.232288042177649201e-02,-1.802152642946265246e-02
4.219999999999999862e-01,-2.689610027987268323e-02,4.496566876023453535e-02,-3.579699882980596354e-02
4.229999999999999871e-01,-2.965981750245541212e-02,4.412193944554732711e-02,-4.469741820911973113e-02
4.239999999999999880e-01,-5.132075164078101848e-04,5.589229383759054814e-02,-4.130205822738973465e-02
4.249999999999999889e-01,-9.099852919051876557e-03,2.122160599027196962e-02,-3.995552119165036303e-02
4.259999999999999898e-01,3.085988763272248456e-02,4.662219428459121046e-02,-6.424608262063785658e-02
4.269999999999999907e-01,3.871485403991027641e-02,4.702927741583325105e-02,-1.884488900454322352e-02
4.279999999999999916e-01,3.377908618603368135e-02,7.234975713697539002e-02,-3.643306004681128724e-02
4.289999999999999925e-01,3.026580613449915066e-02,6.067830311227229850e-02,1.639710633594985284e-02
4.299999999999999933e-01,6.224734111642921119e-02,3.068533701823974655e-02,-1.628322581097874089e-02
4.309999999999999942e-01,4.885022259953357426e-02,5.420324355192576715e-02,2.080670698185332901e-02
4.319999999999999951e-01,9.542696545798443064e-02,1.027775307282907148e-02,1.894052873840714260e-02
4.329999999999999960e-01,4.830501385582717383e-02,9.505291416082781858e-03,5.812484462140156578e-03
4.339999999999999969e-01,3.201004025767478084e-02,-3.751754673318315539e-03,4.460924502685626597e-02
4.349999999999999978e-01,4.328943138698061049e-02,-3.091371073306181314e-02,9.765265886203713941e-02
4.359999999999999987e-01,6.456470623248751484e-02,-1.753389995971165599e-02,2.813887292023731224e-02
4.369999999999999996e-01,-1.240262645550702786e-02,-2.939575207581733227e-02,3.846858762019056410e-02
4.380000000000000004e-01,4.449425968520464431e-02,-5.135851676176558106e-02,5.623836031307909156e-02
4.390000000000000013e-01,-7.237450172749080105e-03,-4.406959507274905291e-02,3.063988996399900910e-02
4.400000000000000022e-01,-1.853130203539459647e-02,-4.450399801937107019e-02,4.454536372619743306e-02
4.410000000000000031e-01,3.749247240541504940e-03,-7.289507703028509644e-02,4.003738763585034527e-02
4.420000000000000040e-01,-4.434157512666388190e-02,-3.905779115957632580e-02,-9.551352102341686924e-04
4.430000000000000049e-01,-2.448244401750251237e-02,-9.577056458464215660e-02,-6.932722272949909739e-03
4.440000000000000058e-01,-6.246648256283880707e-02,-3.671526852921419559e-02,4.450935754462578831e-02
4.450000000000000067e-01,-7.423746984657735026e-02,-6.450354805724645146e-03,1.095999718013578907e-02
4.460000000000000075e-01,-5.682334793822228780e-02,-4.275976758583578674e-02,-8.601411327506873830e-03
4.470000000000000084e-01,-8.031068910034371011e-02,-3.031708964808625673e-02,1.997018112600242035e-02
4.480000000000000093e-01,-7.110939785577662098e-02,-5.300077174946879466e-02,-2.689082917537727671e-02
4.490000000000000102e-01,-6.448913029365131722e-02,-2.626655199881832575e-02,-5.011644495918970293e-02
4.500000000000000111e-01,-3.789011723751722210e-02,-1.271186918408539167e-02,5.104913714780221975e-03
4.510000000000000120e-01,-8.785996616707157647e-02,2.908575846461303183e-02,-3.840103777881585800e-02
4.520000000000000129e-01,-5.937047787385716507e-02,4.090952063830470553e-02,-8.417837416242522630e-02
4.530000000000000138e-01,1.316253475674290102e-02,2.699269698303854645e-02,-4.650588656492875977e-02
4.540000000000000147e-01,-4.666011134433504376e-02,2.970053994816134954e-02,-2.410975863072272948e-02
4.550000000000000155e-01,-3.741789447165245076e-03,3.844219736814379063e-02,-5.571365048029763845e-02
4.560000000000000164e-01,-6.034624890179427284e-03,4.590476027731005271e-02,-7.544131318466813785e-02
4.570000000000000173e-01,3.513297104096375911e-02,4.381677160616533062e-02,-6.590455648174201042e-02
4.580000000000000182e-01,3.661657071659746993e-02,5.574709259011627338e-02,-2.542994975426772844e-02
4.590000000000000191e-01,5.718895318363129837e-02,4.427280473842765823e-02,-2.799790719665993730e-02
4.600000000000000200e-01,6.211728102563367909e-02,7.812079900913976305e-02,2.157634675731133489e-02
4.610000000000000209e-01,5.954035216754684917e-02,4.471516487058916495e-02,-1.567027305384960725e-02
4.620000000000000218e-01,4.644422775200917480e-02,6.302676168878100504e-02,-8.004405644981992321e-03
4.630000000000000226e-01,8.398246511056689512e-02,-1.844874781716223852e-04,5.674241956560897165e-02
4.640000000000000235e-01,1.112597528597757401e-01,1.440574862615555569e-02,-4.095983342342177265e-03
4.650000000000000244e-01,6.477992498450217684e-02,-6.956808888347792985e-03,1.392154301344936465e-02
4.660000000000000253e-01,5.859725797990969487e-02,-5.799569922125648314e-02,5.914931788348701258e-02
4.670000000000000262e-01,4.650581313752498447e-02,-4.780629048585689767e-02,6.971082952290767742e-02
4.680000000000000271e-01,4.991680711784984154e-02,-4.104132427818912854e-02,3.394993256425764272e-02
4.689999999999999725e-01,3.123027770313060655e-02,-4.454847589767814420e-02,4.549827821513937470e-02
4.699999999999999734e-01,2.498510596284114760e-02,-5.528175221542425827e-02,5.738835773818658226e-02
4.709999999999999742e-01,1.764744680822197265e-02,-9.218448088216911473e-02,5.916322919588814372e-02
4.719999999999999751e-01,-1.682580110835882672e-02,-6.094337927024410378e-02,2.365261924018979486e-02
4.729999999999999760e-01,-2.000767251269691682e-02,-3.859324808399709761e-02,3.217393595184605409e-02
4.739999999999999769e-01,-5.245020689356764271e-02,-8.585413759610972806e-02,1.961747612569503946e-02
4.749999999999999778e-01,-4.521198980074481871e-02,-6.000539989658714574e-02,1.305609108668328959e-02
4.759999999999999787e-01,-7.849487534474983152e-02,-7.777401844727938052e-02,2.622470833650699176e-02
4.769999999999999796e-01,-3.550259179876021770e-02,-2.179553494675485342e-02,-5.992599643941368039e-05
4.779999999999999805e-01,-8.627427905544227116e-02,-2.401882225933965262e-02,5.004251291910042504e-03
4.789999999999999813e-01,-8.039942861523781403e-02,-2.358003767165445935e-02,-4.250603195161358622e-02
4.799999999999999822e-01,-1.097910375223727364e-01,-1.021286571248968683e-02,-4.204882009906109330e-02
4.809999999999999831e-01,-8.190389728550293014e-02,-2.620249908993592478e-03,-2.428846900024360031e-02
4.819999999999999840e-01,-4.332893221547818446e-02,-7.411222124780655722e-03,-3.447777253347153459e-02
4.829999999999999849e-01,-2.798857509651898889e-02,4.037778916299459425e-02,-7.685678549674675175e-02
4.839999999999999858e-01,-1.183357500362563694e-02,7.154506357780700612e-03,-6.881205624042392721e-02
4.849999999999999867e-01,-5.644831958063827732e-02,4.587529106889527003e-02,-4.901543678176851354e-02
4.859999999999999876e-01,1.900076524705429995e-02,7.514148093172562382e-02,-2.874609841695641502e-02
4.869999999999999885e-01,-2.032502624779964490e-02,9.453731596734306353e-02,-5.513837155734375300e-02
4.879999999999999893e-01,-9.406016423596803150e-04,7.459265001144019247e-02,-3.354280044005703704e-02
4.889999999999999902e-01,2.614632865630605457e-02,8.484338187392795327e-02,-1.444806329557727503e-02
4.899999999999999911e-01,7.495582911064313514e-02,6.464928856080909281e-02,-2.986715672429160126e-02
4.909999999999999920e-01,3.499660198253447957e-02,6.409962654031235718e-02,-1.768555422598909813e-02
4.919999999999999929e-01,8.487282072550259016e-02,6.359427455461515166e-02,8.508032413897248514e-03
4.929999999999999938e-01,5.853704504846960616e-02,2.605848118499914587e-02,-1.986999844541562782e-02
4.939999999999999947e-01,1.018298525114592623e-01,3.502059915394129669e-02,5.714115360254868985e-03
4.949999999999999956e-01,8.094518901518998888e-02,1.933074050951517648e-03,2.394580163559095060e-02
4.959999999999999964e-01,6.536796902587264924e-02,-3.107972359544607099e-02,2.924597449505494939e-02
4.969999999999999973e-01,6.982009607665105866e-02,-3.647880240476281122e-02,3.824288731804987435e-02
4.979999999999999982e-01,4.625790980938800090e-02,-3.280683396126592849e-02,4.919441735357819867e-02
4.989999999999999991e-01,5.161832989737312472e-02,-7.280604995757114506e-02,4.724596153165755430e-02
5.000000000000000000e-01,2.920648627134866601e-02,-5.667056712920924555e-02,2.479881649786775874e-02
5.010000000000000009e-01,1.548532600116644259e-02,-8.342305366615936080e-02,6.571393582350265605e-02
5.020000000000000018e-01,-9.873318817991508581e-03,-5.496727093635102313e-02,2.896901991026143777e-02
5.030000000000000027e-01,-2.417536823357758352e-02,-3.257843133493563276e-02,4.250850886552412500e-02
5.040000000000000036e-01,-2.733767852782910401e-02,-5.983894427776530189e-02,5.532439541653868392e-02
5.050000000000000044e-01,-6.803333581178155898e-02,-4.408520055480090460e-02,-7.602322091227914011e-03
5.060000000000000053e-01,-6.240575512469118818e-02,-6.348799633719325042e-02,2.318787756685114151e-02
5.070000000000000062e-01,-5.855709463237036838e-02,-3.902231066680289517e-02,2.137383619562998119e-02
5.080000000000000071e-01,-1.008223118888593450e-01,-2.677739916858021263e-02,2.076929930392714882e-02
5.090000000000000080e-01,-2.770532597896265686e-02,-4.519102291261491156e-02,1.690762928046345148e-02
5.100000000000000089e-01,-7.722935422406290717e-02,-1.615716873688894176e-02,3.723018426567662603e-02
5.110000000000000098e-01,-9.182490685100752614e-02,1.615312747846858049e-03,1.271207412899955091e-02
5.120000000000000107e-01,-5.915264386845940636e-02,2.309269528887238077e-02,-5.101558255679165127e-02
5.130000000000000115e-01,-5.665530441522784871e-02,3.327054776326170832e-02,-2.263629493490461678e-02
5.140000000000000124e-01,-4.456799623052215553e-02,7.248037799971248675e-03,-5.510041435301017004e-02
5.150000000000000133e-01,-3.631180325790622776e-02,4.183844501466853216e-02,-5.087306801901985559e-02
5.160000000000000142e-01,-3.418096960006106189e-02,5.999618545206211045e-02,-6.239203114871313960e-02
5.170000000000000151e-01,-2.004340944970990288e-02,5.400524566974800739e-02,-4.079181678325907723e-02
5.180000000000000160e-01,2.191191813394808077e-02,7.192377344816831830e-02,-2.077118161711123678e-02
5.190000000000000169e-01,9.807668912734031005e-03,7.747937141994715171e-02,-3.958291174696226822e-02
5.200000000000000178e-01,5.573764449251258912e-02,7.678801224423729976e-02,-5.925559459315086347e-02
5.210000000000000187e-01,5.740551004073557451e-02,6.070813602145144067e-02,-8.330664649252243759e-03
5.220000000000000195e-01,7.509101591704871181e-02,3.496323075965997867e-02,-4.096888754172363367e-02
5.230000000000000204e-01,6.815328859135477702e-02,1.816774885953157531e-02,-1.829307220344555951e-02
5.240000000000000213e-01,8.714562339115047851e-02,-2.825088336867234966e-03,1.977099162714541017e-03
5.250000000000000222e-01,5.913962770418400988e-02,3.004471676241747546e-02,7.097057360618413968e-03
5.260000000000000231e-01,6.380258837354801926e-02,6.235831403816380347e-02,-1.575874016652589141e-03
5.270000000000000240e-01,6.601685628089361269e-02,7.856010746837468681e-03,2.679883427129616490e-03
5.280000000000000249e-01,7.811796808817558779e-02,-4.861083366882762435e-02,3.553354240025080601e-02
5.290000000000000258e-01,6.491167138594941544e-02,-5.230686459128933846e-02,6.172818200562044805e-02
5.300000000000000266e-01,4.884741416397510305e-02,-2.831255876596089696e-02,4.676994821670154429e-02
5.310000000000000275e-01,7.735240366044036919e-02,-1.728734480057652831e-02,4.315414637381431023e-02
5.320000000000000284e-01,3.523844981240902702e-02,-5.664892697916110859e-02,1.982773063562784377e-02
5.330000000000000293e-01,-2.097392588068048430e-02,-5.169221074014383049e-02,3.423079212114824715e-02
5.340000000000000302e-01,1.897272826613609700e-02,-5.848504234174011635e-02,5.951284245122755862e-02
5.350000000000000311e-01,-6.749666322020597686e-02,-2.610304471045971075e-02,3.197347504380514821e-02
5.360000000000000320e-01,-6.765706163191446965e-02,-5.741807133669477037e-02,4.000316238520811030e-03
5.370000000000000329e-01,-2.730590627979390117e-02,-6.069306855116759353e-02,4.317824520471814920e-02
5.380000000000000338e-01,-6.763033462275551411e-02,-9.776052879505987836e-02,2.499796040675284631e-02
5.390000000000000346e-01,-5.236954037371948506e-02,-3.348207310378011753e-02,7.496076218531452437e-03
5.400000000000000355e-01,-7.660838501944221279e-02,7.465450444352626086e-03,2.024866648950754845e-03
5.410000000000000364e-01,-7.646610324107386281e-02,-1.048065349463298511e-02,1.570884716655200283e-02
5.420000000000000373e-01,-9.886445217400645358e-02,-1.819503720938562760e-02,-2.827149780820413256e-03
5.430000000000000382e-01,-7.777032854292634245e-02,-1.447608947232957230e-02,-3.399960806618759768e-02
5.440000000000000391e-01,-8.684129004915466798e-02,2.229881024213289931e-02,-2.296380771394512799e-02
5.450000000000000400e-01,-5.974226953193055578e-02,4.652194395528748763e-03,-1.566336964771473592e-02
5.460000000000000409e-01,-7.007759889074911819e-02,4.339075754368073440e-02,-4.356995609295376271e-02
5.470000000000000417e-01,-4.178215911093115936e-02,8.491066181810720537e-02,-3.648766758612855682e-02
5.480000000000000426e-01,-2.063769626914566720e-03,6.851448143792944478e-02,-2.382320991256112620e-03
5.490000000000000435e-01,-1.145328335211990255e-02,6.377882470822041072e-02,-4.150072348391482813e-02
5.500000000000000444e-01,9.969577306637930625e-03,5.075918938926294449e-02,-4.669793117890032319e-02
5.510000000000000453e-01,3.232226862012752000e-02,7.018875416357292507e-02,-7.630089080211811814e-02
5.520000000000000462e-01,3.325450092137231806e-02,5.867741832242111960e-02,-3.902997642786214250e-02
5.530000000000000471e-01,6.867821629298877240e-02,2.462340680908857785e-02,2.657742253340102632e-03
5.540000000000000480e-01,4.631566627279622150e-02,6.357757750831491417e-02,-2.465459722203463752e-02
5.550000000000000488e-01,5.898999751322299423e-02,6.692370764480914946e-02,5.428477853838599996e-04
5.560000000000000497e-01,1.016789698294529309e-01,3.107413237447112855e-02,1.098614098708232401e-02
5.570000000000000506e-01,6.680431298215291913e-02,4.845328390180808631e-02,2.038022146223204822e-02
5.580000000000000515e-01,9.759345220918487496e-02,1.048967479051396250e-02,1.859892464585641975e-02
5.590000000000000524e-01,7.768206868007380972e-02,6.440930937054849606e-03,1.250060904651056036e-02
5.600000000000000533e-01,6.850497134683004863e-02,-1.138894811005273372e-02,2.442640704799159054e-02
5.610000000000000542e-01,7.033265447236790313e-02,-5.018640046214590394e-02,6.203233232502065181e-03
5.620000000000000551e-01,1.569518468156090932e-02,-2.040894047390934274e-02,3.845546342010486979e-02
5.629999999999999449e-01,3.368431453955161164e-02,-6.066482054908527155e-02,6.023174836514887803e-02
5.639999999999999458e-01,1.391042284250642788e-02,-4.743003317560168935e-02,5.842891278608738914e-02
5.649999999999999467e-01,-1.319138935041922617e-02,-8.447157519812320547e-02,5.241596279101216893e-02
5.659999999999999476e-01,1.757284918823952963e-02,-6.134192710405417942e-02,6.697840263589648069e-02
5.669999999999999485e-01,-4.287742271489089485e-02,-4.674750836152290895e-02,2.501392601134232868e-02
5.679999999999999494e-01,-6.376097762416725601e-02,-8.967747693020351740e-02,2.806092322490248703e-02
5.689999999999999503e-01,-2.444208688073083724e-02,-4.339564456403555842e-02,3.120765709872506261e-02
5.699999999999999512e-01,-9.253478728809234888e-02,-1.521107314983666421e-02,2.861744604259524628e-03
5.709999999999999520e-01,-7.288146927748002935e-02,1.174787460321976597e-02,2.556971834397245638e-02
5.719999999999999529e-01,-5.521389796028200458e-02,-2.625350620321644304e-02,6.297718942018795327e-03
5.729999999999999538e-01,-7.058882022346138485e-02,1.759460575105138008e-03,6.346222670902001810e-03
5.739999999999999547e-01,-7.630366648157978215e-02,4.891736669692944156e-03,-3.742589080217213066e-02
5.749999999999999556e-01,-5.316476385670804855e-02,1.248186282017895235e-02,-6.828864249736521508e-02
5.759999999999999565e-01,-3.911380621242319805e-02,1.696439776042138123e-02,-2.100046361782640508e-02
5.769999999999999574e-01,-1.019225603261483676e-01,5.274381226952977453e-02,-3.785642571532409767e-02
5.779999999999999583e-01,-5.896433908055626755e-02,3.811127305485744604e-02,-6.297180507520006021e-02
5.789999999999999591e-01,1.431567471976118860e-02,6.185060258329994759e-02,-5.008858863295763408e-02
5.799999999999999600e-01,1.496777432689599431e-02,4.627319087316351248e-02,-3.012625228807006353e-02
5.809999999999999609e-01,1.160551660300968360e-02,4.606636193357444703e-02,-6.388600669334305870e-02
5.819999999999999618e-01,1.521965891445922238e-02,4.828154619012896276e-02,-5.184465010377020677e-02
5.829999999999999627e-01,2.587090250896066645e-02,7.319421421444394227e-02,-4.151074149020991116e-02
5.839999999999999636e-01,5.121165688790438320e-02,4.065145238919942033e-02,-1.750562029715447068e-02
5.849999999999999645e-01,4.970683357639196082e-02,4.333530172435455519e-02,-8.777573006804499992e-03
5.859999999999999654e-01,4.867651336101377901e-02,3.761862333777385436e-02,-5.703232305667156436e-03
5.869999999999999662e-01,5.744559048421991887e-02,8.688438798229499577e-03,-3.469608979005357058e-02
5.879999999999999671e-01,8.479894586796864198e-02,1.315477868517789771e-02,1.485528646133451973e-02
5.889999999999999680e-01,4.150232417827188353e-02,-5.803126195453324997e-03,-4.970929038732967153e-03
5.899999999999999689e-01,6.937749770776267810e-02,1.248837031556039937e-03,3.370269553038904298e-02
5.909999999999999698e-01,5.841396900367724909e-02,-3.705565490627098224e-02,1.898346604421826539e-02
5.919999999999999707e-01,5.426647130859910129e-02,-6.180084635416436406e-02,1.901170946628338507e-02
5.929999999999999716e-01,6.499627737913543646e-02,-5.915938530545524626e-02,6.017191670299552875e-02
5.939999999999999725e-01,1.357185192819379722e-02,-5.190814760492058755e-02,1.806476940405016621e-02
5.949999999999999734e-01,3.498537367962999828e-02,-4.379134295835994395e-02,2.268633033154095549e-02
5.959999999999999742e-01,1.866032256134530012e-02,-7.010396644041307079e-02,3.991942822781067296e-02
5.969999999999999751e-01,-4.956275273985557769e-03,-3.402180088799598712e-02,4.376918625453496414e-02
5.979999999999999760e-01,-2.867034509732237224e-02,-6.841016018014602074e-02,2.845131835084391964e-02
5.989999999999999769e-01,-4.305396076861358473e-02,-2.469076433735369752e-02,5.709433128981110384e-02
5.999999999999999778e-01,-7.411189118801325693e-02,-6.192102123731316188e-02,1.033727602054864856e-03
6.009999999999999787e-01,-9.166541126688905472e-02,-3.506708272148562067e-02,4.036803442217531956e-02
6.019999999999999796e-01,-1.171533943813488771e-01,-5.608408055267748854e-02,-3.698459678705489457e-04
6.029999999999999805e-01,-9.473322042285130251e-02,-2.686900799957327515e-02,2.493840757875265615e-02
6.039999999999999813e-01,-6.331048632246701058e-02,-1.277091995283378273e-02,-1.258155148928285453e-03
6.049999999999999822e-01,-6.813994844907522719e-02,3.337285061990804408e-02,2.516298096062176762e-02
6.059999999999999831e-01,-9.633332654402693151e-02,2.994317654028424980e-02,-8.165614772798535093e-03
6.069999999999999840e-01,-7.509800531232171950e-02,3.088977632292543712e-02,-3.037216672466934789e-02
6.079999999999999849e-01,-8.854783693471768302e-02,3.215226299502911556e-02,-2.294879125373320769e-02
6.089999999999999858e-01,-2.786012620910386164e-02,6.985712313141062557e-02,-7.011695640511628191e-02
6.099999999999999867e-01,-5.264674469260102567e-03,6.264795347217931576e-02,-5.140923450759798952e-02
6.109999999999999876e-01,-1.100224242540234765e-02,7.308288704008503167e-02,-5.910730997303134671e-02
6.119999999999999885e-01,5.747990808996731064e-04,6.759545426301824533e-02,-3.703140194296467708e-02
6.129999999999999893e-01,2.000552528038108610e-02,6.945004571374570335e-02,-5.676672330556940815e-02
6.139999999999999902e-01,6.433047231921887321e-02,4.862196845830000363e-02,-4.571185273843205582e-02
6.149999999999999911e-01,8.884299745467319487e-02,5.848377399459652598e-02,-5.664084438845910785e-02
6.159999999999999920e-01,6.997178009027450740e-02,3.120047099771268082e-02,-2.942217542816349257e-02
6.169999999999999929e-01,3.574841503061240711e-02,1.051859210794896249e-02,-5.363046018162280493e-03
6.179999999999999938e-01,8.084356360691698218e-02,2.019003361042376321e-02,3.462739130279912560e-03
6.189999999999999947e-01,6.619335452969826727e-02,4.383660864044536948e-02,-1.910766530323326426e-02
6.199999999999999956e-01,8.374381340938023832e-02,1.969181235325478691e-03,-1.430509858429991968e-02
6.209999999999999964e-01,1.042242059857726444e-01,-2.450817408755184487e-02,3.472145687141695025e-02
6.219999999999999973e-01,6.418716411834392288e-02,-2.611331057907341144e-02,1.184774958610424790e-02
6.229999999999999982e-01,8.797144590504940576e-02,9.760096457271669537e-03,3.028605231295044414e-02
6.239999999999999991e-01,5.017840457616160738e-02,-3.529744450604851980e-02,2.364520932795630484e-02
6.250000000000000000e-01,2.347204896430162002e-02,-3.885640682440922450e-02,6.503527008175363777e-02
6.260000000000000009e-01,4.631500804212595329e-02,-8.265149962051646093e-02,5.336658905456136137e-02
6.270000000000000018e-01,7.368609449265388703e-03,-6.987131439526295118e-02,4.427942220173065879e-02
6.280000000000000027e-01,1.122341262656472750e-02,-5.253384616987365890e-02,2.267891532182310377e-02
6.290000000000000036e-01,-2.621026356857402914e-02,-6.562534713074960613e-02,4.988449646104915758e-02
6.300000000000000044e-01,-2.377831935446332937e-02,-5.516037442269284413e-02,3.213725944700752957e-02
6.310000000000000053e-01,-5.515012793715697720e-02,-7.872746877583274017e-02,2.674449921371790592e-02
6.320000000000000062e-01,-5.547497876285331642e-02,1.545996681157806550e-02,1.196798768350973950e-02
6.330000000000000071e-01,-7.436133088801721858e-02,-2.484469258623191873e-02,-1.264932491309144922e-03
6.340000000000000080e-01,-5.529149420597862657e-02,-2.371508677640653956e-02,3.729762046173914353e-02
6.350000000000000089e-01,-8.283254993753259854e-02,1.526262834590805771e-02,1.783250027833788772e-03
6.360000000000000098e-01,-8.873139636086253834e-02,1.034590978362550338e-02,1.988915195873915132e-02
6.370000000000000107e-01,-9.030214728675464708e-02,9.115240353722194044e-03,7.394079766424345446e-03
6.380000000000000115e-01,-8.050065039961896984e-02,3.925237608496501968e-02,-3.292020459497938673e-02
6.390000000000000124e-01,-5.757808992561883749e-02,6.310755322052130634e-02,-3.750071891535156771e-02
6.400000000000000133e-01,-3.111551653165091358e-02,7.105954830458953431e-02,-1.483771671677480003e-02
6.410000000000000142e-01,-3.561838917755948131e-02,4.422702800586485877e-02,-5.646751203546626630e-02
6.420000000000000151e-01,-1.882892329025093528e-02,6.676397520919971629e-02,-4.814662568693797023e-02
6.430000000000000160e-01,-4.107150459557808858e-03,5.179002994461733012e-02,-6.473878151678619068e-03
6.440000000000000169e-01,3.491912011870559190e-02,2.472448852174937220e-02,-8.097115105050405048e-02
6.450000000000000178e-01,7.155758078693948143e-02,5.614369664610079774e-02,-3.436717214321449027e-02
6.460000000000000187e-01,5.216393117836055915e-02,5.428715964264840127e-02,-4.445835087476467801e-02
6.470000000000000195e-01,1.589204465877357836e-02,4.100135974581526482e-02,-4.645322779057199647e-02
6.480000000000000204e-01,4.463597467215654757e-02,3.261352032405627488e-02,-6.001339366814845144e-02
6.490000000000000213e-01,8.411772899610475696e-02,-2.494020690889998601e-02,-2.962348919773665629e-02
6.500000000000000222e-01,1.071094206814374172e-01,1.956200881290317412e-02,1.155912837183819056e-02
6.510000000000000231e-01,5.844867851977206957e-02,3.253146138918796334e-03,7.030042609000029460e-03
6.520000000000000240e-01,8.117696483882032299e-02,-2.887662840905573861e-02,2.491690283827839580e-02
6.530000000000000249e-01,1.105831298113139211e-01,-1.063120078392320624e-02,-2.567111215406340727e-02
6.540000000000000258e-01,5.925286813066015651e-02,-4.712953068513175275e-02,3.998200307569964307e-02
6.550000000000000266e-01,5.751903223763882300e-02,-4.149558152878274342e-02,3.519484321542913630e-02
6.560000000000000275e-01,2.239190672771873211e-02,-5.356765142423918630e-02,5.690837395953125127e-02
6.570000000000000284e-01,6.163750585154257472e-04,-7.707326746602359557e-02,4.548511159440364604e-02
6.580000000000000293e-01,-7.993726770440993598e-03,-4.125741661380231268e-02,3.584307165509450360e-02
6.590000000000000302e-01,7.659365272030337068e-03,-5.410296450976068150e-02,7.156458686803345015e-02
6.600000000000000311e-01,-1.797950421901070919e-02,-4.210832595355983032e-02,4.661707278122675241e-02
6.610000000000000320e-01,-4.956625546906922447e-02,-2.183834645193586180e-02,3.302535865918116570e-02
6.620000000000000329e-01,-3.527417091327091081e-02,-5.234522514044762098e-02,4.347863433447463066e-02
6.630000000000000338e-01,-7.599304358073852295e-02,-4.604911219566665270e-02,1.741614768663821838e-02
6.640000000000000346e-01,-5.609265820730205410e-02,8.437636338626234786e-03,1.241962770806604582e-02
6.650000000000000355e-01,-6.132069945075738215e-02,-3.001420938971360169e-02,2.370255916273511856e-02
6.660000000000000364e-01,-6.491160629844051899e-02,9.977884532217250538e-03,2.628005534861534154e-02
6.670000000000000373e-01,-8.540753593900859975e-02,-8.175262560316460311e-04,-2.508364783342953083e-02
6.680000000000000382e-01,-8.405930544887392497e-02,6.933880543839505452e-03,3.477427632620207036e-03
6.690000000000000391e-01,-5.034454377989905360e-02,1.337005237066419064e-02,-1.867867106755864703e-02
6.700000000000000400e-01,-4.753239753868199885e-02,9.546457105577889346e-02,-1.247938383171361479e-02
6.710000000000000409e-01,-4.393456904316434680e-02,2.768677242521756440e-02,-5.594690721501437841e-02
6.720000000000000417e-01,-2.510218237216347084e-02,5.139148749597272775e-02,-2.399638338465466536e-02
6.730000000000000426e-01,-2.125391746563737652e-02,5.575858751673899022e-02,-1.730111766515292013e-02
6.740000000000000435e-01,-1.752007430529655199e-02,7.495618441520324193e-02,-2.312299128140235527e-02
6.750000000000000444e-01,5.714168239007413885e-02,3.382082852118462740e-02,-4.836704821150190209e-02
6.760000000000000453e-01,3.053530791848965004e-02,5.910301579037698094e-02,-4.882889141657773685e-02
6.770000000000000462e-01,3.113234002964922545e-02,4.329219817772175793e-02,-3.931219357243220802e-02
6.780000000000000471e-01,4.932210934571232969e-02,8.687367652588649791e-02,-4.621604812127324408e-02
6.790000000000000480e-01,6.803296869016579873e-02,2.135121944598153410e-02,-1.744269686652418286e-02
6.800000000000000488e-01,7.197622527126901204e-02,1.686225931051385865e-02,-4.851550104041028877e-02
6.810000000000000497e-01,6.900692053187944264e-02,2.389259022781158037e-02,-1.442425702903794849e-02
6.820000000000000506e-01,7.091289790457565301e-02,-3.105028343379378705e-02,-6.762196187504918542e-03
6.830000000000000515e-01,5.642524026211803712e-02,-1.336410127973208621e-02,1.846603967170530559e-03
6.840000000000000524e-01,8.880739522455435853e-02,-4.475004197733491347e-03,2.736839540951463423e-02
6.850000000000000533e-01,8.575606653434772464e-02,1.392009427718341255e-03,2.855131279782714693e-02
6.860000000000000542e-01,6.263117017430827604e-02,-7.285778378552916490e-02,4.077392738025226865e-02
6.870000000000000551e-01,3.151240385140872957e-02,-4.772695644892340633e-02,1.606718064282289249e-02
6.879999999999999449e-01,4.185737491029148383e-02,-3.875246178693037696e-02,6.368441409896578864e-02
6.889999999999999458e-01,5.717032323147928051e-03,-7.952321560763962738e-02,5.418895675328518763e-02
6.899999999999999467e-01,-1.960627830441241323e-02,-8.190263588432324104e-02,4.947291197526299672e-02
6.909999999999999476e-01,-3.581439963196283299e-02,-8.271273221309088930e-02,2.965572190792717042e-02
6.919999999999999485e-01,-7.605583498170180590e-02,-5.688108182560137893e-02,1.692930736014291310e-02
6.929999999999999494e-01,-3.492785061513169892e-02,-2.446173397126145954e-02,2.296563943063436100e-02
6.939999999999999503e-01,-6.079927604098356309e-02,-5.885037789455218465e-02,5.111355602565335193e-02
6.949999999999999512e-01,-7.142209373165575581e-02,-1.263069547757180930e-02,4.185628454649301805e-02
6.959999999999999520e-01,-5.478245544555169350e-02,-1.841766182433936250e-02,1.322878428386713504e-02
6.969999999999999529e-01,-6.382737969458876504e-02,5.674220751981070079e-03,2.423679978596077200e-02
6.979999999999999538e-01,-9.000888430605685775e-02,8.576714367335458097e-03,1.139955231546925865e-02
6.989999999999999547e-01,-6.861812417401864928e-02,4.952378122166919971e-02,-2.138900298044416406e-02
6.999999999999999556e-01,-7.189950565217834155e-02,4.047775377013625164e-02,9.866563224310155155e-04
7.009999999999999565e-01,-7.399758853142540671e-02,4.474825404573367499e-02,-4.605308001591911643e-02
7.019999999999999574e-01,-2.832446788959287753e-02,6.358158469894097109e-02,-5.149518555263937064e-02
7.029999999999999583e-01,-4.655623659800616626e-02,4.630595391629208774e-02,-5.487587276625631449e-02
7.039999999999999591e-01,-6.799736798226876759e-03,5.890870588751615650e-02,8.500085919130500114e-03
7.049999999999999600e-01,-1.052000577770162426e-02,5.089224392953272530e-02,-4.734226261428189225e-02
7.059999999999999609e-01,4.517196892462361363e-02,3.720077796091712102e-02,-5.327095032257003759e-02
7.069999999999999618e-01,2.581804679673969927e-02,5.218198429830109980e-02,-5.579607379882856738e-02
7.079999999999999627e-01,4.370239628816088850e-02,3.262754006846790150e-02,-6.671002055169908407e-02
7.089999999999999636e-01,5.768384597796764185e-02,7.050060972940744297e-02,-2.576485382377279899e-03
7.099999999999999645e-01,7.763396554086653134e-02,4.829224501971709355e-02,-2.983097066584784393e-02
7.109999999999999654e-01,7.795345154803057230e-02,1.468335048167248441e-02,-2.060793724924031914e-02
7.119999999999999662e-01,8.853079603621627491e-02,1.132426764459558768e-02,-2.714124262594489606e-02
7.129999999999999671e-01,6.092383597451602600e-02,-2.701667124516272250e-02,-2.312778781362656924e-02
7.139999999999999680e-01,1.140918046611273523e-01,-1.736232260288331219e-02,-3.321332045188812952e-03
7.149999999999999689e-01,5.593731422701326422e-02,-3.192333356522666227e-02,1.713966169483606417e-02
7.159999999999999698e-01,4.098970972112272321e-02,-4.149094638196883233e-02,5.662927078955968391e-03
7.169999999999999707e-01,3.194008302320062997e-02,-6.553639273087485950e-02,5.526941127871247417e-02
7.179999999999999716e-01,5.400806474653017247e-02,-5.850571648059229440e-02,3.295296045443378563e-02
7.189999999999999725e-01,4.828508804161869838e-02,-3.795836649157939557e-02,3.180986312691076734e-02
7.199999999999999734e-01,2.622405800599174330e-02,-6.014671783994889748e-02,3.941226190571665844e-02
7.209999999999999742e-01,-3.614962592560209444e-03,-8.183630992135916549e-02,4.773996939719354210e-02
7.219999999999999751e-01,3.966527858863798731e-03,-4.927933150376198612e-02,5.801585860328824923e-02
7.229999999999999760e-01,-3.692385411390247674e-02,-6.511010222586662011e-02,3.999147308818860186e-02
7.239999999999999769e-01,-2.476310915476844302e-02,-4.131141273465509245e-02,3.329192716266867608e-02
7.249999999999999778e-01,-6.959432886591146450e-02,-4.471042305064767963e-02,3.503800306255806796e-02
7.259999999999999787e-01,-5.212516045484591465e-02,-1.757357225859534910e-02,3.393082788926329862e-02
7.269999999999999796e-01,-4.802049808853622870e-02,-1.086367902925833469e-02,2.659234383213999672e-02
7.279999999999999805e-01,-1.126566776381296292e-01,-1.364487434940152635e-02,3.170044564795884701e-02
7.289999999999999813e-01,-6.821641736006327228e-02,1.053204523159760771e-02,-5.420690920508780888e-03
7.299999999999999822e-01,-7.196110257208099270e-02,5.486500135087378840e-03,1.156829353216554373e-03
7.309999999999999831e-01,-9.225954744346979985e-02,7.456081005069900569e-02,-2.044114338613844950e-03
7.319999999999999840e-01,-8.600012231824234743e-02,6.536829950881216378e-02,1.373694279917151741e-02
7.329999999999999849e-01,-6.901548647164618133e-02,3.040263871017185107e-02,-5.454499536445370916e-02
7.339999999999999858e-01,-2.643248015902642176e-02,6.115137822739206280e-02,-4.592429769041580373e-02
7.349999999999999867e-01,1.183628932110107265e-02,6.970214550174554102e-02,-1.487396211183077827e-02
7.359999999999999876e-01,-1.236952579990948341e-02,5.322987189570123345e-02,-3.002653771242444480e-02
7.369999999999999885e-01,-3.019460594986960594e-03,5.102180066719902429e-02,-5.178114427256064189e-02
7.379999999999999893e-01,1.491848479495974829e-02,4.867880165674318832e-02,-2.852531778027991155e-02
7.389999999999999902e-01,4.145140773620995672e-02,4.875214951764662158e-02,-5.370322360131778161e-02
7.399999999999999911e-01,5.484112003289294546e-02,4.659052296013474481e-02,-4.463712683851348700e-02
7.409999999999999920e-01,4.278661530937718366e-02,1.902852380747570293e-02,-1.813897242181728917e-02
7.419999999999999929e-01,6.922293435273982332e-02,1.528470436525081362e-02,-3.344894027574696338e-02
7.429999999999999938e-01,8.994890171036058757e-02,-1.116750830599218432e-02,-1.810784131159811142e-02
7.439999999999999947e-01,1.001331626019523607e-01,-9.353210137878005710e-04,-2.331419762926844469e-02
7.449999999999999956e-01,8.867707990527452788e-02,-2.119526237828131543e-02,1.967009026918511289e-02
7.459999999999999964e-01,6.404701198932623296e-02,-3.138128480900060496e-02,9.104458082464499807e-03
7.469999999999999973e-01,6.254137228277735494e-02,-5.196274303163890551e-02,3.551779600684093745e-03
7.479999999999999982e-01,3.839175084183045483e-02,-2.669665898565515977e-02,-1.292880791798535489e-02
7.489999999999999991e-01,2.356482274867330654e-02,-4.391181731124026155e-02,-4.364816712424035225e-03
7.500000000000000000e-01,3.574720721410091367e-02,-3.981050691821751836e-02,2.901471789467075305e-02
7.510000000000000009e-01,2.254254432441448602e-02,-4.397330113842906618e-02,2.299901021244168259e-02
7.520000000000000018e-01,3.245887386258245258e-03,-6.961768116101525739e-02,4.518072299874863890e-02
7.530000000000000027e-01,-1.582568035998754494e-02,-7.430941956049846864e-02,6.588231969405945743e-02
7.540000000000000036e-01,4.133560624127101228e-03,-5.547039445147721598e-02,6.603942721288189044e-02
7.550000000000000044e-01,-7.559797568417646330e-03,-4.395887281198099933e-02,4.488956323997755904e-02
7.560000000000000053e-01,2.606912182544577402e-03,-3.232405284295264414e-02,1.867217454424149187e-02
7.570000000000000062e-01,-6.616373217672855134e-02,-9.038545444801402567e-03,2.776362836677356491e-02
7.580000000000000071e-01,-6.983261854831593340e-02,7.593407151729450119e-04,2.123683809469427419e-02
7.590000000000000080e-01,-8.687468311342035066e-02,-2.021804269430073353e-02,7.266252416552464351e-03
7.600000000000000089e-01,-7.316679352176411189e-02,1.056487473918000727e-02,1.301861755408802342e-02
7.610000000000000098e-01,-8.775336510759994268e-02,3.073169927547896724e-02,2.737429886831269782e-02
7.620000000000000107e-01,-7.604195537058608401e-02,2.564075010638967519e-02,-6.381791553966291615e-03
7.630000000000000115e-01,-5.008151516869491920e-02,6.874736785679509687e-02,-3.129193991296733146e-02
7.640000000000000124e-01,-5.786829248448329549e-02,6.211136497771190673e-02,-3.724654003806286695e-02
7.650000000000000133e-01,-4.565709814003662825e-02,5.633821221563102555e-02,-2.836112657236303236e-02
7.660000000000000142e-01,-5.714152546457246934e-02,6.237558887553896342e-02,-2.732968817221751584e-02
7.670000000000000151e-01,-2.118950279160755623e-02,5.084450889116842037e-02,-6.029711052056070664e-02
7.680000000000000160e-01,-1.169851921274038704e-02,6.254728991566750607e-02,-7.172669561541773764e-02
7.690000000000000169e-01,1.112501616645748988e-02,4.971132061777892852e-02,-3.413324657925204814e-02
7.700000000000000178e-01,3.432709546880689105e-02,3.997332598762532579e-02,-4.162146576435413192e-02
7.710000000000000187e-01,4.438404619064040962e-02,4.916766512405971318e-02,-4.214041827367798199e-02
7.720000000000000195e-01,7.660879356470604029e-02,4.009443375814870231e-02,-2.768924800017320831e-02
7.730000000000000204e-01,1.000214036678720025e-01,4.740403320825301893e-03,-4.570645660654061582e-02
7.740000000000000213e-01,8.818335934586540859e-02,-3.742230274583243331e-03,-2.695358925132923175e-02
7.750000000000000222e-01,8.748772393885477505e-02,-4.079761496527466863e-02,-5.165735699521302460e-02
7.760000000000000231e-01,4.357446391863593199e-02,-1.687203757333453902e-02,-5.417382412156166935e-03
7.770000000000000240e-01,7.742692175475800187e-02,1.851442018249003672e-03,-2.610780408604863097e-03
7.780000000000000249e-01,4.994022489061748088e-02,8.377983280095278873e-03,1.548368396318395082e-02
7.790000000000000258e-01,9.757658997545984314e-02,-2.244922907943022045e-02,1.040830686744969105e-02
7.800000000000000266e-01,4.998239308843783341e-02,-4.206349107206531351e-02,3.448384179049291971e-03
7.810000000000000275e-01,3.609071199653688528e-02,-1.037697264656388813e-01,5.408657199113919845e-02
7.820000000000000284e-01,5.854811658809899039e-02,-6.216771129267795876e-02,4.145000660373977103e-02
7.830000000000000293e-01,-2.816961382280417162e-02,-1.031220635730492885e-01,1.487872882799040099e-02
7.840000000000000302e-01,-3.278927024844960347e-02,-4.371791388917808940e-02,2.547268191124015674e-02
7.850000000000000311e-01,2.030520952834415083e-02,-5.862507193626753654e-02,3.632596327709786263e-04
7.860000000000000320e-01,-3.325860178472208467e-02,-2.628505145944384780e-02,5.861924983538786826e-02
7.870000000000000329e-01,-3.101372772247122656e-02,-5.521358261108728904e-02,2.731941995524385727e-02
7.880000000000000338e-01,-6.857623230320238072e-02,-5.577807547972227220e-03,3.568402280729607301e-02
7.890000000000000346e-01,-5.409341137172419406e-02,6.461243405928606461e-04,4.575643381436764190e-02
7.900000000000000355e-01,-7.432398220813607459e-02,1.764577030220728857e-02,4.426805769425481984e-02
7.910000000000000364e-01,-7.566380401083308560e-02,7.820024541235766997e-04,3.939063540712214873e-02
7.920000000000000373e-01,-7.079040919426472789e-02,1.973152913494255478e-02,-1.297661329221133121e-02
7.930000000000000382e-01,-1.047233228117553927e-01,2.276698294896177532e-02,-6.613576494562013221e-03
7.940000000000000391e-01,-1.142979427347911997e-01,2.260746101117365459e-02,2.579835268036563198e-02
7.950000000000000400e-01,-4.876907370657452417e-02,4.431700896876222123e-02,-1.848498119363363792e-02
7.960000000000000409e-01,-6.504169390626975134e-02,4.557469446740802094e-02,-7.880011544863381109e-03
7.970000000000000417e-01,-1.746974115883519196e-02,2.280451204203537766e-02,-5.352394450081673222e-03
7.980000000000000426e-01,1.327788291886937942e-02,8.249711731613383614e-02,-3.501972287846639997e-02
7.990000000000000435e-01,-1.403573563232126190e-02,3.593054327512331531e-02,-2.248337567392566863e-02
8.000000000000000444e-01,-7.498821297665064604e-03,5.696127856531154471e-02,-5.223714423371567800e-02
8.010000000000000453e-01,3.651304800997463851e-02,5.202628073721863450e-02,-4.617048126058609370e-02
8.020000000000000462e-01,2.783064145384661278e-02,1.668493309455681278e-02,-4.810329282117704192e-02
8.030000000000000471e-01,3.116945524881116827e-02,2.962100038868442295e-02,-3.751330454620666749e-02
8.040000000000000480e-01,7.182341985504231419e-02,-6.152375059409511890e-03,-4.329269071896619386e-02
8.050000000000000488e-01,5.895248252900191915e-02,2.526499896508493589e-02,-2.267168638146378062e-02
8.060000000000000497e-01,9.405137719190315160e-02,8.946843192118367552e-03,-1.733601942385510838e-02
8.070000000000000506e-01,8.431291521835201919e-02,8.574457168091211695e-03,-1.697037351567562413e-02
8.080000000000000515e-01,8.941814316026530651e-02,-3.472717845580746560e-02,1.058276777155797363e-02
8.090000000000000524e-01,5.219810481827790588e-02,-6.442324406584708230e-02,-1.256893155383918218e-03
8.100000000000000533e-01,6.796288113699951172e-02,-6.385755836167575361e-02,2.360453262271052649e-02
8.110000000000000542e-01,6.843318423057702382e-02,-3.850776155312967547e-02,-1.588557879125013879e-03
8.120000000000000551e-01,2.845241740792520818e-02,-4.961371366327658322e-02,2.346778420674592788e-02
8.129999999999999449e-01,3.915596846376171586e-02,-7.139778463536636255e-02,8.134620438819353816e-02
8.139999999999999458e-01,3.282731985180215029e-02,-6.284588766052906506e-02,7.250770967793896370e-03
8.149999999999999467e-01,2.480352293846787518e-03,-3.728338287539619683e-02,2.306699151240890547e-02
8.159999999999999476e-01,-5.080493376874736875e-04,-3.329598829539903715e-02,3.671805885098576583e-02
8.169999999999999485e-01,-6.307389442868691076e-02,-5.642252748882736757e-02,3.646922477103323873e-02
8.179999999999999494e-01,-5.479644634454770152e-02,1.565086575602950975e-03,5.799614562990185185e-02
8.189999999999999503e-01,-7.110353926657277113e-02,-2.080746482787972432e-03,4.515233111098435753e-02
8.199999999999999512e-01,-8.439003860604403495e-02,2.012703316403664441e-02,3.136339138120522452e-02
8.209999999999999520e-01,-4.930599460134853229e-02,-5.693699972502820443e-03,1.967666079597342119e-02
8.219999999999999529e-01,-7.729350758850440928e-02,2.970687542928670405e-02,9.532109366630965586e-03
8.229999999999999538e-01,-8.088732853768597353e-02,-8.320009600150899201e-03,2.540499107983938687e-02
8.239999999999999547e-01,-7.231609124444995929e-02,5.252615876745572732e-02,-3.334191926367636918e-03
8.249999999999999556e-01,-9.237311315254037591e-02,6.308905570107468941e-02,-1.447421520310646602e-02
8.259999999999999565e-01,-6.269307563816772788e-02,4.973321892669683303e-02,-4.874912396558422206e-02
8.269999999999999574e-01,-6.089809919538075045e-02,3.683957897347099608e-02,-8.082493696161791030e-03
8.279999999999999583e-01,-4.077505077334271644e-02,6.008349862239591166e-02,-2.415508361399964360e-02
8.289999999999999591e-01,-1.765701805498798641e-02,6.435655012342987591e-02,-1.045557802698030350e-02
8.299999999999999600e-01,-9.198560669112954002e-03,6.877143097604593303e-02,-3.843172496399310106e-02
8.309999999999999609e-01,2.351057224888208549e-02,1.590067721807532364e-02,-2.467091222595158700e-02
8.319999999999999618e-01,3.493012531781955476e-02,5.405240390526548644e-02,-2.765546465835092699e-02
8.329999999999999627e-01,2.327631433878370876e-02,2.919066249845171310e-02,-4.841953096548548552e-02
8.339999999999999636e-01,4.773250225776427130e-02,3.756099998093503228e-02,-2.856636918803205638e-02
8.349999999999999645e-01,5.344566776616139353e-02,2.151497665501719142e-02,-4.785007926729809014e-02
8.359999999999999654e-01,6.947523106520087088e-02,1.524647035182839436e-02,-2.362463055799493214e-02
8.369999999999999662e-01,7.075269350496507514e-02,6.824857649378760112e-03,-3.886799468141998587e-02
8.379999999999999671e-01,7.745392525997542299e-02,-4.230836344318725933e-02,-1.337402821432439465e-02
8.389999999999999680e-01,5.779815726274006166e-02,-4.712375506169850375e-02,-4.304296632080454807e-03
8.399999999999999689e-01,6.933702919236769957e-02,-5.055655078994927137e-02,-1.017783283339112818e-02
8.409999999999999698e-01,5.913602757597861970e-02,-5.160888921584404904e-02,-8.081821201134800972e-03
8.419999999999999707e-01,7.547425857454434506e-02,-8.948481333594308917e-02,-2.426037338962908768e-02
8.429999999999999716e-01,7.225679664039233452e-02,-9.826156363223191581e-02,2.143417587590730478e-02
8.439999999999999725e-01,3.857609094463381599e-02,-8.749731507962682509e-02,2.520320229086571093e-02
8.449999999999999734e-01,-5.290030823651499146e-05,-1.677990445565192071e-02,2.345248367447505880e-02
8.459999999999999742e-01,-1.975845317691442976e-03,-5.077521222016585789e-02,6.046124656277238052e-02
8.469999999999999751e-01,-3.475246340695026248e-02,-3.005581099504600964e-02,4.017894924922894850e-02
8.479999999999999760e-01,-4.269160246544873721e-02,-3.356039005401379588e-02,4.764387340323375519e-02
8.489999999999999769e-01,-2.308603894435347359e-02,-4.636275980768012756e-02,4.086444522698173820e-02
8.499999999999999778e-01,-6.654173828966716830e-02,-2.970645813755371997e-02,5.882789861742507981e-02
8.509999999999999787e-01,-5.888327786779231493e-02,-1.223194300089693390e-02,3.505499898174428003e-02
8.519999999999999796e-01,-4.706900317634257758e-02,-2.148189081469788903e-02,3.923991756479481424e-02
8.529999999999999805e-01,-7.390408505014207929e-02,-1.466380282001293438e-02,3.714011297210120365e-03
8.539999999999999813e-01,-8.234550189466453840e-02,4.733302848989277833e-02,3.990960729455147321e-02
8.549999999999999822e-01,-7.674809363622464575e-02,2.385837862611114163e-02,1.852156526716680976e-02
8.559999999999999831e-01,-8.836949988935129119e-02,6.648440852035533699e-02,-2.124224562016592630e-03
8.569999999999999840e-01,-3.894112329286582297e-02,3.891529336106269721e-02,-1.610686263884805736e-02
8.579999999999999849e-01,-4.752587736658481221e-02,5.545923419236285096e-02,-3.323035155063084559e-03
8.589999999999999858e-01,-8.497910830291039927e-03,9.633261739567326731e-02,-3.618744296463966698e-02
8.599999999999999867e-01,-4.773883979525493648e-02,6.567800944854559897e-02,-3.118958759188569796e-02
8.609999999999999876e-01,-2.275079429610490575e-02,4.368084442740582940e-02,-5.752811697627147058e-02
8.619999999999999885e-01,-8.934636551091317686e-03,4.015043178825351833e-02,-1.722007447897397001e-02
8.629999999999999893e-01,4.937411843820364160e-02,1.981344601713177708e-02,-3.842585938406481438e-02
8.639999999999999902e-01,5.320767267646232118e-02,6.073910395223981740e-02,-6.382382512797774021e-02
8.649999999999999911e-01,3.547890042647579290e-02,2.228472975286218197e-02,-8.169124008933650871e-02
8.659999999999999920e-01,7.078626722577209540e-02,2.417189909833380220e-03,-2.661345864864100158e-02
8.669999999999999929e-01,8.065004473245385164e-02,9.974809253271103154e-03,-2.935877993716437540e-02
8.679999999999999938e-01,6.451323717645421341e-02,-3.629775080756876462e-04,-5.762358868016193708e-02
8.689999999999999947e-01,8.331083123563184922e-02,-4.952383987569108914e-02,-3.326181078303336314e-02
8.699999999999999956e-01,3.966937228278554634e-02,-3.110283080640091971e-02,-3.435012256441427603e-02
8.709999999999999964e-01,8.567141483360263265e-02,-4.758542651030768511e-02,-1.435181429778141504e-02
8.719999999999999973e-01,7.910760288505706839e-02,-5.173674917067110773e-02,7.924054558134052684e-03
8.729999999999999982e-01,5.017359433054613405e-02,-3.754511199820691203e-02,-8.077536145476986104e-03
8.739999999999999991e-01,4.368665267369563343e-02,-5.088032312010927483e-02,5.205327138116389030e-02
8.750000000000000000e-01,4.908693180939661949e-02,-7.036932457452521605e-02,3.836686612439138555e-02
8.760000000000000009e-01,7.450534227622823344e-03,-5.665890381675987159e-02,1.538662806459305255e-02
8.770000000000000018e-01,3.092739524591500613e-03,-5.460325903993434871e-02,2.390445891470437817e-02
8.780000000000000027e-01,-8.004466746225544910e-03,-4.691626888834161263e-02,2.845697175063531884e-02
8.790000000000000036e-01,-3.773909852223843349e-03,-6.318518096104559778e-02,4.114119656080451187e-02
8.800000000000000044e-01,-2.639191604219877363e-02,-4.678964978711158684e-02,4.687896496409333508e-02
8.810000000000000053e-01,-2.890887505986609873e-02,-4.086924297382445170e-02,5.765725394314934193e-02
8.820000000000000062e-01,-9.397192938899616432e-03,1.320415788534105329e-02,4.774634495270117795e-02
8.830000000000000071e-01,-8.488439877604320172e-02,1.650541872802114424e-02,2.033346426369226842e-02
8.840000000000000080e-01,-8.960256119883858172e-02,2.618691401123969878e-02,1.429329199388645888e-02
8.850000000000000089e-01,-6.914204792612606287e-02,2.685638432967430919e-02,1.662364380687839701e-03
8.860000000000000098e-01,-7.024600887343616928e-02,3.885379420276443424e-02,2.954149240553591294e-02
8.870000000000000107e-01,-6.070551936789888442e-02,5.075395519281471202e-02,3.097961719468491498e-03
8.880000000000000115e-01,-9.514612424078647268e-02,7.588452447201515794e-02,3.658764295984977093e-03
8.890000000000000124e-01,-5.480018838097733269e-02,8.202873331746850238e-02,-3.663267523064604042e-02
8.900000000000000133e-01,-5.458555881185910008e-02,8.188495126732821261e-02,-1.107641395098063128e-02
8.910000000000000142e-01,-3.014518213369640418e-02,8.516978116432370738e-02,-2.359666557906793180e-02
8.920000000000000151e-01,-1.773654688545841379e-04,7.544637416527967544e-02,-2.704096264285402521e-02
8.930000000000000160e-01,1.077521016949585693e-02,6.729741919144478779e-02,-1.369723565599228685e-02
8.940000000000000169e-01,-1.116621117375353293e-02,4.953992075693644005e-03,-1.294643694010395689e-02
8.950000000000000178e-01,1.988392663180019171e-02,4.076156798735607045e-02,-2.285891311991814986e-02
8.960000000000000187e-01,6.539135704317985964e-02,6.700010754802082635e-02,-4.584623357529356985e-02
8.970000000000000195e-01,5.275994569633284809e-02,2.528783143756725693e-02,-6.320873568175817969e-02
8.980000000000000204e-01,5.582805157871419816e-02,-3.357528961907561144e-02,-3.485688046109022137e-02
8.990000000000000213e-01,7.814348428310459449e-02,2.214026270451865952e-02,-7.336112300545778730e-02
9.000000000000000222e-01,7.350813362416848407e-02,-5.248642435702179088e-02,-2.668426020444196120e-02
9.010000000000000231e-01,8.170770480539195357e-02,-8.478143450352833635e-03,-4.137826528033131807e-02
9.020000000000000240e-01,6.930764189387828011e-02,-3.013792323737101569e-02,-4.010968581113926595e-02
9.030000000000000249e-01,5.853990503777613957e-02,-4.294290502225790729e-02,-3.615370179537625434e-02
9.040000000000000258e-01,4.124084514517695199e-02,-5.554703059974726992e-02,1.855939468017057318e-04
9.050000000000000266e-01,4.042293679918294164e-02,-6.331535311300669211e-02,4.107827153821465294e-02
9.060000000000000275e-01,4.487554921620081488e-02,-4.337082020653925535e-02,2.969816934168770239e-02
9.070000000000000284e-01,1.432867064424707924e-02,-6.584139913300791902e-02,2.731653373045786828e-02
9.080000000000000293e-01,4.666453138058354599e-02,-5.569967094723802387e-02,5.382906806920156190e-02
9.090000000000000302e-01,-1.321482897410701345e-02,-3.878458448229653299e-02,4.256750985220545541e-02
9.100000000000000311e-01,-4.727106045216775826e-02,-3.049145454103826050e-02,6.469602787949450817e-02
9.110000000000000320e-01,-4.706278470612206000e-02,-7.197212233668891235e-02,5.366691839529588726e-02
9.120000000000000329e-01,-4.444517693087607357e-02,-2.298746469013245031e-02,6.409284026035359794e-02
9.130000000000000338e-01,-4.359669977076700148e-02,-8.266981134062736242e-03,3.152887697560011193e-02
9.140000000000000346e-01,-3.575471697634703683e-02,7.317531145993630762e-03,6.735526431920668688e-02
9.150000000000000355e-01,-6.531710738055404586e-02,5.095753076544476401e-02,5.594301432927034634e-02
9.160000000000000364e-01,-7.028614677501858476e-02,1.425085962404531136e-02,4.227135061064293819e-02
9.170000000000000373e-01,-7.694843697403043470e-02,-1.792119741016862458e-02,3.023794680147392708e-02
9.180000000000000382e-01,-9.195386079851830541e-02,4.289286638755918785e-02,-6.587399698446254684e-03
9.190000000000000391e-01,-6.725681467340874353e-02,3.393963331316952187e-02,1.017816828501365810e-02
9.200000000000000400e-01,-5.830927530790083052e-02,2.718701555998335323e-02,-1.284976789306784169e-02
9.210000000000000409e-01,-5.963292774058934903e-02,7.627643151053029036e-02,3.305067401301983038e-03
9.220000000000000417e-01,-4.723481142887678286e-02,7.969128898366284464e-02,-1.637609339102937683e-02
9.230000000000000426e-01,-2.946887750994378954e-02,2.909960587022127412e-02,-4.461229443007937168e-02
9.240000000000000435e-01,-1.894408005061082659e-02,5.173880890455690579e-02,-4.935143339329602780e-02
9.250000000000000444e-01,-7.098500351242906931e-03,4.869476623458030007e-02,-4.236226088614610669e-02
9.260000000000000453e-01,3.421114118462436487e-02,2.615248005194591857e-02,-2.496878849885777324e-02
9.270000000000000462e-01,3.368644996244841983e-02,4.700748337430847405e-03,9.937814929011709250e-03
9.280000000000000471e-01,6.858841283923274024e-02,6.551718017287919138e-02,-6.138858954672581775e-02
9.290000000000000480e-01,8.024247035782584858e-02,1.536367128201970335e-02,-4.483855826731891064e-02
9.300000000000000488e-01,7.508873186164746749e-02,1.783001279660811206e-02,-1.431440634903481841e-02
9.310000000000000497e-01,6.940210023405962714e-02,-2.052586355370781407e-02,-4.073394571443696155e-02
9.320000000000000506e-01,9.622305535396374898e-02,-4.837118984544154510e-02,-2.889484981971463667e-02
9.330000000000000515e-01,4.664745193459189643e-02,-5.452971908139991886e-02,-2.038997487321657365e-02
9.340000000000000524e-01,6.683014642901990987e-02,-3.556092586487592799e-02,-1.723437109239042350e-02
9.350000000000000533e-01,6.508183235111877907e-02,-8.642072484263817189e-02,-1.054978627664319296e-02
9.360000000000000542e-01,6.066589707780762480e-02,-8.728322898341613068e-02,-3.285944239994773464e-03
9.370000000000000551e-01,3.054192641755903992e-02,-5.452640830140073613e-02,-1.060520940911513325e-02
9.379999999999999449e-01,3.992684761036868757e-02,-6.117500380028071533e-02,4.758956855685338855e-02
9.389999999999999458e-01,3.902635082217829118e-03,-6.874113590471016277e-02,2.199294389655101836e-02
9.399999999999999467e-01,9.744764367865237781e-03,-5.296216887172176119e-02,7.430371382464560914e-02
9.409999999999999476e-01,-4.521340780842140333e-02,-7.283440594641503452e-02,4.296839764510098497e-02
9.419999999999999485e-01,-4.763306603590679311e-02,-4.543684801561805042e-02,2.372260372047850160e-02
9.429999999999999494e-01,-2.479303141843897107e-02,-5.554969172625871809e-02,3.076689253163452861e-02
9.439999999999999503e-01,-4.731375905266520243e-02,-1.618982418519688063e-02,6.301935639385605747e-02
9.449999999999999512e-01,-3.641629403460747150e-02,-6.359092283532308092e-03,1.283649304864179636e-02
9.459999999999999520e-01,-5.896545190082577020e-02,-1.650543467528065023e-02,5.333015615566893269e-02
9.469999999999999529e-01,-9.197226040897657495e-02,7.415612864566279924e-03,5.504681201283385950e-02
9.479999999999999538e-01,-9.092735946431844407e-02,5.524307569642213089e-02,2.354925248490066444e-02
9.489999999999999547e-01,-7.050317183532513188e-02,8.359845010488095585e-02,-1.883471656352460333e-02
9.499999999999999556e-01,-1.180037593765930759e-01,6.397121649734380244e-02,3.465184566705523713e-03
9.509999999999999565e-01,-5.903321015512164038e-02,6.363419141594212070e-02,2.176365645466495774e-02
9.519999999999999574e-01,-2.376282353484133678e-02,5.557502820537413291e-02,-3.959311191816698716e-02
9.529999999999999583e-01,-3.037450306802024283e-02,3.816651821300329900e-02,-5.047081210954068586e-02
9.539999999999999591e-01,9.369393280073150601e-03,8.258357807580331278e-02,1.027679413093248589e-02
9.549999999999999600e-01,-1.990196328887547383e-02,4.112229748637236809e-02,-2.960104733090116597e-02
9.559999999999999609e-01,-3.276460017955935833e-02,4.503475174126790603e-02,-2.026330453256074832e-02
9.569999999999999618e-01,-6.186955047002088044e-03,4.393374999998918284e-02,-4.702453782717334885e-02
9.579999999999999627e-01,1.072410618908049146e-02,3.507748379230969660e-02,-5.563894666144508783e-02
9.589999999999999636e-01,3.819316865915541731e-02,2.305582173368213653e-02,-1.264284462939544232e-02
9.599999999999999645e-01,4.745817667565484232e-02,2.061389978961862893e-02,-2.476370356199352959e-02
9.609999999999999654e-01,4.979096079270524389e-02,-1.906864053638041706e-02,-5.511082967011080719e-02
9.619999999999999662e-01,9.783497184869059671e-02,-3.730866457879989523e-02,-3.712797265382201950e-02
9.629999999999999671e-01,6.791087337874607277e-02,-2.290340738072283236e-02,-2.485353969454159873e-02
9.639999999999999680e-01,5.744043410162666397e-02,-7.070427462165040401e-03,-2.304739886869369009e-02
9.649999999999999689e-01,7.763238278305766016e-02,-3.400899719097999485e-02,-9.403706859015158875e-03
9.659999999999999698e-01,7.013009950051209140e-02,-3.592758235876256784e-02,-7.840829701408522090e-03
9.669999999999999707e-01,5.492704008727267162e-02,-7.877053892623363252e-02,8.418001323455045343e-03
9.679999999999999716e-01,3.492246573747874450e-02,-6.125555687526731269e-02,4.940146956027609152e-04
9.689999999999999725e-01,3.656382363331926039e-02,-3.227364885554757229e-02,2.944181517433289152e-02
9.699999999999999734e-01,1.966461955374791334e-02,-5.396811981056039847e-02,2.953878452627406101e-02
9.709999999999999742e-01,3.184908474307531628e-02,-2.940176897626641667e-02,2.453582978007430235e-02
9.719999999999999751e-01,-2.615344204657762614e-02,-5.270863436661496482e-02,2.054226435929238162e-02
9.729999999999999760e-01,-2.488900001878018714e-02,-6.326284189836779703e-02,3.021042485484263379e-02
9.739999999999999769e-01,-5.298207118753133632e-02,-8.521574685018556278e-03,5.035129802451793202e-02
9.749999999999999778e-01,-4.473103769982512273e-02,3.108917891521627286e-02,2.543624543729366624e-02
9.759999999999999787e-01,-3.854487590734314434e-02,1.726631979462669780e-03,1.524785896698393865e-02
9.769999999999999796e-01,-5.788653408036130432e-02,-1.525522880694434209e-02,4.665185985440829103e-02
9.779999999999999805e-01,-8.644389189357452874e-02,1.832468653529577968e-02,1.719272280396147434e-02
9.789999999999999813e-01,-8.941285559606999833e-02,4.384986052735263123e-02,4.935843121258995381e-02
9.799999999999999822e-01,-6.151189290469887688e-02,1.341429852259379274e-02,5.920314389180059145e-02
9.809999999999999831e-01,-6.538516497083163292e-02,9.878076602082906665e-02,3.073453581074908972e-03
9.819999999999999840e-01,-8.175990820696285577e-02,6.499556548033365300e-02,-1.549023726609089109e-02
9.829999999999999849e-01,-7.432433938720055255e-02,5.230330573682160505e-02,-2.717837216666182248e-03
9.839999999999999858e-01,-6.330715704285586054e-02,8.671454271077022602e-02,-8.398447628639289786e-03
9.849999999999999867e-01,-4.625288273941196432e-02,6.439498085007230865e-02,-1.831936189232937981e-02
9.859999999999999876e-01,4.714667155549752409e-03,7.124857859389439885e-02,6.399291515121590876e-03
9.869999999999999885e-01,1.690978759897087888e-02,3.662924408965154838e-02,-3.318633067098856332e-02
9.879999999999999893e-01,1.264052241568239428e-02,3.944342308732261271e-02,-5.789467289017197899e-02
9.889999999999999902e-01,5.175199451683528545e-02,4.066410651409572974e-02,-4.567272813907262419e-02
9.899999999999999911e-01,3.358584462835993018e-02,2.655957207023421432e-02,-2.439454050468208013e-02
9.909999999999999920e-01,2.680703403847339503e-02,-4.623722013263709824e-02,-4.112710617952577280e-02
9.919999999999999929e-01,7.423710612566598865e-02,-2.073481658345192880e-02,-6.073756531102037642e-02
9.929999999999999938e-01,6.612128038236023131e-02,9.482702893892313439e-03,-4.988203734857685201e-02
9.939999999999999947e-01,3.730769782804750634e-02,-4.588236354778326559e-02,-3.270293408367525717e-02
9.949999999999999956e-01,4.850084433467823086e-02,-1.888499022831720275e-02,-4.114666092219278204e-02
9.959999999999999964e-01,6.481552192783279764e-02,-6.038619229281364659e-02,-3.027896607764495387e-02
9.969999999999999973e-01,6.474344711980704881e-02,-5.829171209289650546e-02,-4.127568664427102435e-02
9.979999999999999982e-01,4.148565074901117838e-02,-2.611064765643082361e-02,-4.951869363241341755e-03
9.989999999999999991e-01,4.933701167894513628e-02,-7.671014258076552794e-02,1.085846316464723904e-02
1.000000000000000000e+00,3.107845406648716488e-02,-7.512572955982232958e-02,1.608314318888249064e-02
1.000999999999999890e+00,3.942107734630217325e-02,-6.625834886672603286e-02,2.899180260367661272e-02
1.002000000000000002e+00,-1.716628025368282032e-02,-7.645102905177302011e-02,2.127436132464996174e-02
1.002999999999999892e+00,3.745701878862499421e-03,-6.252488721894904067e-02,2.989366412704570417e-02
1.004000000000000004e+00,-2.771169675029171511e-02,-3.105854014879579419e-02,5.994474652454710034e-02
1.004999999999999893e+00,-3.278326643156127818e-02,-4.303798406967113133e-02,2.488481128640540260e-02
1.006000000000000005e+00,-3.964182302731097951e-02,-2.171860554826750972e-02,5.028203245143090389e-02
1.006999999999999895e+00,-5.557058581804288910e-02,-3.798933155350110030e-02,5.852704579061445561e-02
1.008000000000000007e+00,-7.089590906253383229e-02,7.178107042180666489e-03,1.280370075382775488e-02
1.008999999999999897e+00,-7.298324505121984995e-02,1.243229365247473968e-02,2.311505992401714435e-02
1.010000000000000009e+00,-8.588394686725540905e-02,3.220760813947461110e-02,3.285124322539152708e-02
1.010999999999999899e+00,-7.992411281113070975e-02,5.411074339190306143e-02,1.361097375377121402e-02
1.012000000000000011e+00,-9.411511283128494443e-02,8.922023943607615415e-02,-4.112171547778934594e-02
1.012999999999999901e+00,-4.848117257251699508e-02,5.079073527869034516e-02,6.455640986959413838e-03
1.014000000000000012e+00,-6.689072295040869587e-02,6.313045922859163162e-02,-4.030355529185286091e-03
1.014999999999999902e+00,-4.802025180096929080e-02,7.261135716260055939e-02,2.163531928883216660e-02
1.016000000000000014e+00,-1.631199250161435160e-02,5.970151483932190084e-02,-3.752917158924526375e-02
1.016999999999999904e+00,-3.862490562863429844e-02,3.017035117819693094e-02,-3.121297371700475221e-02
1.018000000000000016e+00,-1.796487143817075693e-03,3.523496630080453357e-02,-3.758203236481922910e-03
1.018999999999999906e+00,1.642183642153955195e-02,3.485004997957118905e-02,-1.226487283796814411e-02
1.020000000000000018e+00,-7.323949258046676646e-03,3.251943924287124116e-02,-2.221946167867133379e-02
1.020999999999999908e+00,2.062953514429825830e-02,1.014381572162257120e-02,-4.602729842493177154e-02
1.022000000000000020e+00,5.797305415617161339e-02,-4.457238256541290466e-02,-4.314181705640700998e-02
1.022999999999999909e+00,7.273355042167374551e-02,-6.460685654593695953e-03,-2.318541147166730890e-02
1.024000000000000021e+00,7.477001745563081891e-02,-1.116342669937548521e-02,-4.244732513726776763e-02
1.024999999999999911e+00,7.276720370753306244e-02,-3.365214402984271352e-02,-2.586439753453102092e-02
1.026000000000000023e+00,6.168703083043588359e-02,-2.779180571709907732e-02,-2.483588436700354812e-02
1.026999999999999913e+00,6.946961862833900270e-02,-3.848742221057572382e-02,-3.403547063484298890e-02
1.028000000000000025e+00,4.428373929291248151e-02,-5.932537941368433432e-02,-1.475426668652128279e-02
1.028999999999999915e+00,9.741392021281425340e-02,-4.718618192903875630e-02,-1.004860793313938280e-02
1.030000000000000027e+00,6.030022573192544977e-02,-7.135459279011367728e-02,3.072896574127601671e-02
1.030999999999999917e+00,5.956341487153118952e-02,-8.069108360652077483e-02,-1.735282052352098842e-02
1.032000000000000028e+00,4.859763226960855942e-02,-5.556441866367166360e-02,2.353556481774200446e-02
1.032999999999999918e+00,3.390477901185289661e-02,-3.860906940033055623e-02,4.621955099922684350e-03
1.034000000000000030e+00,-6.819564108014819492e-03,-4.073316661648257453e-02,3.683655963869669064e-02
1.034999999999999920e+00,-2.197517720421566720e-02,-6.778500989319517778e-02,5.237742450883581952e-02
1.036000000000000032e+00,-3.676080674080135086e-02,-2.999370978120270356e-02,5.631258616119157179e-02
1.036999999999999922e+00,-5.880141391361866365e-02,-9.758985001087040149e-04,3.769870316973050750e-02
1.038000000000000034e+00,-7.295609164839826632e-02,1.089323337188032904e-02,3.070629107941226857e-02
1.038999999999999924e+00,-2.956768032258223766e-02,2.927412517732544059e-02,2.866061850072812792e-02
1.040000000000000036e+00,-6.871648778083989939e-02,6.636675271168315793e-02,1.537152668192856564e-02
1.040999999999999925e+00,-6.256634894248278012e-02,2.407267957978977482e-02,4.212202304721940349e-02
1.042000000000000037e+00,-8.757559570342622612e-02,4.784991499597901488e-02,3.479574869787954716e-02
1.042999999999999927e+00,-5.719963664492519473e-02,8.197309834109568760e-02,-2.422828208673456253e-03
1.044000000000000039e+00,-9.019735988704125074e-02,7.396598303843159028e-02,1.808498644956914314e-02
1.044999999999999929e+00,-9.203708906712772253e-02,5.291145919862568631e-02,7.719246669144630250e-03
1.046000000000000041e+00,-3.086214519194975178e-02,8.233916354427961437e-02,2.855689815872643200e-02
1.046999999999999931e+00,-1.633014528533378862e-02,5.468554517009961702e-02,-3.293343090478544066e-02
1.048000000000000043e+00,-4.352372518032178970e-03,6.715493765679896032e-02,-4.332595392758008257e-02
1.048999999999999932e+00,7.852329469040957889e-04,2.635165193697158736e-02,-2.679260531433367079e-02
1.050000000000000044e+00,4.899949775612167518e-02,3.257820506690346091e-02,-3.445574282116163622e-02
1.050999999999999934e+00,-7.698224992212573427e-03,-6.668028314875944218e-03,-5.822496650428526932e-02
1.052000000000000046e+00,4.161827261475503636e-02,4.367562512772987446e-03,-4.546534743456503297e-02
1.052999999999999936e+00,6.280658056564202008e-02,2.314869499059071453e-02,-5.756120304541252619e-02
1.054000000000000048e+00,6.983430636397124081e-02,3.102425469004255545e-02,-1.890129723600587550e-02
1.054999999999999938e+00,7.603371446725913640e-02,-7.441981828037845179e-03,-7.956139446105943425e-02
1.056000000000000050e+00,6.739644136738455471e-02,-6.547377708471982527e-02,-5.368986155866965065e-02
1.056999999999999940e+00,8.472823117132498305e-02,-2.969939804348417645e-02,-1.685758157873167365e-02
1.058000000000000052e+00,7.381270621473833005e-02,-7.283389285169758476e-02,-3.965568814853014101e-03
1.058999999999999941e+00,8.157527502047257073e-02,-8.997285848180483145e-03,-3.072435502231254945e-03
1.060000000000000053e+00,7.513506365890677829e-02,-8.326737641353117170e-02,-1.206690820385153537e-03
1.060999999999999943e+00,2.483762325457170364e-02,-8.732593330098570306e-02,4.452653199697741843e-03
1.062000000000000055e+00,5.625189338891553592e-02,-6.742527607967489789e-02,-2.387331943467369683e-02
1.062999999999999945e+00,4.167886250023822986e-02,-8.109966860278125522e-02,-3.518024810639429345e-02
1.064000000000000057e+00,8.906186173167914000e-03,-2.077995442212520263e-02,3.310356362155353338e-02
1.064999999999999947e+00,-1.127911790292730580e-02,-5.651334176334937148e-02,2.108400611280828243e-02
1.066000000000000059e+00,-2.269687991437053035e-02,1.461141856783325192e-02,6.495072878410615425e-02
1.066999999999999948e+00,-4.035504843655701029e-02,-1.520145563509985552e-02,5.270080756476119843e-02
1.068000000000000060e+00,-4.109556867440763983e-02,-2.237130307543826538e-02,2.785758395906345192e-02
1.068999999999999950e+00,-5.505772967964573522e-02,6.227905630009997022e-03,5.112810582466607856e-02
1.070000000000000062e+00,-5.623752479654267611e-02,-2.642470457877530571e-02,7.520665400210046689e-03
1.070999999999999952e+00,-6.122359101147845095e-02,4.161317949043782938e-02,2.837816839343560230e-02
1.072000000000000064e+00,-5.992250607598929857e-02,3.249346982429043157e-02,1.987222131410872061e-02
1.072999999999999954e+00,-7.273628435875863218e-02,6.414082774556091604e-02,3.258673755200931083e-02
1.074000000000000066e+00,-8.839584051815405075e-02,5.037350357475620793e-02,4.608481648602223701e-02
1.074999999999999956e+00,-8.772308973313523717e-02,9.026919298183125329e-02,3.369529115070970388e-02
1.076000000000000068e+00,-5.731492707990998997e-02,6.348014804986636117e-02,5.277082599178971843e-03
1.076999999999999957e+00,-6.144617300655394465e-02,5.000739918573880727e-02,5.096072984664833279e-03
1.078000000000000069e+00,-4.427346464369294465e-02,9.296933017765099394e-02,-6.465471674440032880e-03
1.078999999999999959e+00,-2.042782299238309410e-02,5.107984940368522075e-02,-1.152669793326072806e-02
1.080000000000000071e+00,-1.824451712796050507e-02,1.362555192682047417e-02,-2.698119155044607920e-02
1.080999999999999961e+00,-2.005794311613387417e-03,1.576787743923142859e-02,-2.583654505226170087e-02
1.082000000000000073e+00,3.266866936606095673e-02,1.175413229873189559e-02,-2.745224692047236459e-02
1.082999999999999963e+00,1.997150306951722340e-02,6.863094280707354201e-03,-1.831232827712499234e-02
1.084000000000000075e+00,3.144048862609512968e-02,-2.636818860556724986e-02,-5.447044225093195663e-02
1.084999999999999964e+00,6.275575963815492597e-02,-1.253436317360122169e-02,-3.993852822583750239e-02
1.086000000000000076e+00,4.858858659535873759e-02,-2.776154886500377741e-02,-6.983959134329194296e-02
1.086999999999999966e+00,1.058469669943986335e-01,-4.062093063601262405e-02,-8.116592303714287304e-02
1.088000000000000078e+00,6.198959141485933799e-02,-4.588082973247992885e-02,-4.875179491123585868e-02
1.088999999999999968e+00,6.928719370500623087e-02,-3.085034387944125822e-02,-3.688305967486574938e-02
1.090000000000000080e+00,5.660275506252034072e-02,-3.309704067787410525e-02,-1.832968617458656611e-03
1.090999999999999970e+00,6.598664267294240826e-02,-6.880421516889613509e-02,-2.208563223996089231e-02
1.092000000000000082e+00,5.909006450785524861e-02,-5.305056411839926406e-02,-1.444126104079641697e-02
1.092999999999999972e+00,6.310561861811796180e-02,-6.667307165617190889e-02,-3.900818639143406596e-02
1.094000000000000083e+00,3.477050898716991384e-02,-6.139172988382531060e-02,1.597142985191941228e-02
1.094999999999999973e+00,2.906828471885721313e-02,-6.915407821613149542e-02,3.087873165500630221e-02
1.096000000000000085e+00,5.992936902326373265e-03,-4.457927489664560011e-02,1.142931614363396249e-02
1.096999999999999975e+00,5.747417861520467269e-03,-2.009347399449346386e-02,5.052099438732073761e-02
1.098000000000000087e+00,1.708235524793589796e-02,-2.621155164215771549e-02,7.462092552818086477e-02
1.098999999999999977e+00,-2.763350738428947337e-02,2.153048791759263475e-02,4.306992615645766770e-02
1.100000000000000089e+00,-8.975596509241345888e-02,-7.368844781380400749e-03,6.104455775498128511e-02
1.100999999999999979e+00,-7.005257096609877887e-02,6.403448054503738107e-02,4.055283714035440301e-02
1.102000000000000091e+00,-7.964735722977832333e-02,3.220466005656519304e-02,2.162228951527568957e-02
1.102999999999999980e+00,-1.004566600505925750e-01,5.570741569423899586e-02,5.910940812249179666e-02
1.104000000000000092e+00,-6.932638045592148801e-02,1.189769480313677616e-02,1.822222858811117438e-02
1.104999999999999982e+00,-1.043585193738668232e-01,6.255835464568654247e-02,8.891999726688750230e-03
1.106000000000000094e+00,-8.913816959278013374e-02,5.977899836115468934e-02,5.635540631548852097e-02
1.106999999999999984e+00,-8.561477374080872504e-02,7.173638637505232174e-02,-2.114569705201872069e-02
1.108000000000000096e+00,-4.907673404199967143e-02,6.591274247962941590e-02,7.431910209823094568e-03
1.108999999999999986e+00,-5.059259090824010791e-02,4.226183859149030414e-02,-2.731750804269882787e-02
1.110000000000000098e+00,1.251141023933267232e-02,2.046539033637732874e-02,-1.992038930564711541e-02
1.110999999999999988e+00,-9.481736303136732019e-03,4.834081196136117559e-02,-1.684807085537408031e-02
1.112000000000000099e+00,1.876126496024835277e-02,3.664372911751467843e-02,-3.405353721481148288e-02
1.112999999999999989e+00,1.940098189542529064e-02,2.873596352123611308e-02,-4.428118117324150033e-02
1.114000000000000101e+00,5.257655849421974392e-02,4.439771368505172899e-03,-2.739504747475901211e-02
1.114999999999999991e+00,5.467675463738794206e-02,-1.275864982542547314e-02,-3.586150489261796803e-02
1.116000000000000103e+00,6.476763293260671961e-02,-1.962760364957153239e-02,-2.692124217766689309e-02
1.116999999999999993e+00,4.747070313968277527e-02,-4.177701639996952293e-02,-4.333961621036506312e-02
1.118000000000000105e+00,6.778131631700054505e-02,-5.013614032516185148e-02,-5.053880850954010212e-02
1.118999999999999995e+00,5.932454430031642439e-02,-3.820935944121891387e-02,-6.015214639892208642e-02
1.120000000000000107e+00,7.361864260682490779e-02,-2.218334441452496364e-02,-2.746145159773086958e-02
1.120999999999999996e+00,1.082618176169787838e-01,-7.208706598949610189e-02,-1.298297600702081819e-02
1.122000000000000108e+00,8.652856829951131867e-02,-5.364128033354150643e-02,-5.012661547230618658e-02
1.122999999999999998e+00,6.361577760684779259e-02,-6.608829474529084869e-02,-1.900962231639362343e-02
1.124000000000000110e+00,3.881997961478422798e-02,-4.638115273919412446e-02,-2.559806901112746461e-02
1.125000000000000000e+00,4.937814618893147239e-02,-6.440949632775863631e-02,2.221077174261607695e-02
1.125999999999999890e+00,3.316060896374588979e-02,-1.698655971623931268e-02,1.516097837940347075e-02
1.127000000000000002e+00,5.899736381509164580e-03,-5.440695933459160222e-02,-1.466255355615747949e-02
1.127999999999999892e+00,-1.720907389550627511e-02,-2.354225460611955589e-02,2.834603164981858246e-03
1.129000000000000004e+00,-3.045173160558992120e-02,-3.584098781471475870e-02,5.028815142756386247e-02
1.129999999999999893e+00,-2.952231274196233466e-03,6.493930148189028077e-03,5.112610685960096435e-02
1.131000000000000005e+00,-4.924041803847294813e-02,-7.809287606985525904e-03,7.408941542527180957e-02
1.131999999999999895e+00,-4.542273447159295152e-02,1.276977769154782200e-02,4.926380187149942413e-02
1.133000000000000007e+00,-3.933481820168109599e-02,1.711395497647975189e-02,5.617943700746168278e-02
1.133999999999999897e+00,-8.383139566323319358e-02,3.690630321479412834e-02,7.240408110534865549e-02
1.135000000000000009e+00,-4.682296817387190946e-02,5.344362284673594837e-02,3.511237761831009080e-02
1.135999999999999899e+00,-1.112748887025395289e-01,4.040931971180782012e-02,2.994491038498071217e-02
1.137000000000000011e+00,-6.900596700759009661e-02,6.039657905001111216e-02,7.554296339376861957e-02
1.137999999999999901e+00,-3.603684408390187693e-02,5.651246354885691714e-02,9.978506915055135665e-03
1.139000000000000012e+00,-6.034059793930638543e-02,6.880840323754984500e-02,-1.092381172120340978e-02
1.139999999999999902e+00,-4.144171185623955062e-02,5.587965889522568397e-02,6.124396808380778816e-03
1.141000000000000014e+00,-5.795526980059167999e-02,5.210614228313439900e-02,1.124283334020950882e-02
1.141999999999999904e+00,-3.176329079964780588e-02,3.956500774952594751e-02,-2.462339536497074391e-02
1.143000000000000016e+00,-4.274820304470437066e-03,-1.113891266874805254e-02,-1.761826470026953834e-02
1.143999999999999906e+00,8.240805968117867692e-04,6.722372872349161033e-02,-2.984318399803193023e-02
1.145000000000000018e+00,4.481663050100728740e-02,-1.409558080464224793e-04,-4.136928690177635315e-02
1.145999999999999908e+00,3.058779534134940109e-02,-1.147479983585690706e-02,-3.939345072118257546e-02
1.147000000000000020e+00,9.298567663386314575e-02,-7.552218405785030009e-04,-4.518465316880464905e-02
1.147999999999999909e+00,5.400767443069609541e-02,-1.522677412883948443e-02,-2.926238806060766848e-02
1.149000000000000021e+00,8.553843349824941100e-02,-2.812968319578914439e-02,-6.283413813954628890e-02
1.149999999999999911e+00,7.299292486463994367e-02,-6.025149913112510386e-02,-5.031488076472562243e-02
1.151000000000000023e+00,7.174354864257591335e-02,-7.183731415277722077e-02,-1.669785123115290551e-02
1.151999999999999913e+00,5.939023382834637821e-02,-5.010288063851655455e-02,-4.143980434058144868e-02
1.153000000000000025e+00,7.790383095292624516e-02,-5.390511781209111897e-02,-1.377112984640572677e-02
1.153999999999999915e+00,8.174247136868419139e-02,-6.787523242528606393e-02,-2.918289792611565570e-02
1.155000000000000027e+00,6.607783539033354470e-02,-3.988742728712948993e-02,-7.144681967330633078e-03
1.155999999999999917e+00,4.773478059034457627e-02,-5.525241910585245581e-02,3.675970215261090395e-03
1.157000000000000028e+00,3.884822055408981845e-02,-2.721517150313533182e-02,1.037714928315901404e-02
1.157999999999999918e+00,-4.314440248893804120e-03,-5.179520415676880374e-02,4.704640183261089414e-04
1.159000000000000030e+00,2.017249177097280022e-03,-3.125383116526787852e-02,2.463597626076956260e-02
1.159999999999999920e+00,-5.325031640943545669e-02,-6.354663786986330942e-02,3.382914729934961839e-02
1.161000000000000032e+00,-4.104265123705426455e-02,1.287901615328923034e-02,4.616355312758733259e-02
1.161999999999999922e+00,-1.322042468575703594e-02,3.940655481712899283e-02,2.763647041369682311e-02
1.163000000000000034e+00,-6.174533418589136374e-02,2.541879262744235757e-02,2.695565050713235114e-02
1.163999999999999924e+00,-6.564926371038595776e-02,4.962442257850861738e-02,6.196046933749262131e-02
1.165000000000000036e+00,-6.511060997583635601e-02,3.201443406239866396e-02,1.840593566539524412e-02
1.165999999999999925e+00,-7.102447122750948916e-02,1.685113650742063943e-02,6.904287967072408883e-02
1.167000000000000037e+00,-7.525701029197026659e-02,4.715533131886631008e-02,6.086873723146667137e-02
1.167999999999999927e+00,-6.445033527748243729e-02,4.128606259576223653e-02,5.494593481524517875e-02
1.169000000000000039e+00,-3.941398812918067707e-02,3.957027026769907585e-02,3.908923408987304698e-02
1.169999999999999929e+00,-1.516087188701735304e-02,7.924244209495052982e-02,-8.075370846524324714e-03
1.171000000000000041e+00,-3.802643687090671160e-02,7.137711430874059404e-02,1.603402367827184982e-02
1.171999999999999931e+00,-2.085743279315387458e-02,5.077491433969866241e-02,1.516632431371075541e-02
1.173000000000000043e+00,-2.406785812606679342e-02,8.363012415626860582e-03,1.155382326489014060e-02
1.173999999999999932e+00,-5.198250406008120272e-02,5.678084205617011521e-02,-3.215077785401970756e-02
1.175000000000000044e+00,-3.986347241245483336e-04,1.319881774012020455e-02,-8.478492437997845257e-03
1.175999999999999934e+00,1.399293181504739601e-02,-2.536488182873493195e-03,-2.771148327023809435e-02
1.177000000000000046e+00,1.452831118439858703e-02,7.959808334882660305e-03,-6.532661682198249997e-02
1.177999999999999936e+00,6.496475901998070845e-02,-1.223492300907666128e-02,-2.692076171836974008e-02
1.179000000000000048e+00,1.132931511911953598e-01,-5.311918237103246433e-03,-4.095680438231293768e-02
1.179999999999999938e+00,8.423101008169299464e-02,-3.231703304568368795e-02,-4.366681580782232064e-02
1.181000000000000050e+00,5.561212859865978519e-02,-5.790397829552641762e-02,-1.849432075160094627e-02
