time,acc_x,acc_y,acc_z
0.000000000000000000e+00,3.233659691584263585e-01,2.664601298362240245e-01,2.064987315514711652e-01
1.000000000000000021e-03,3.455037456570042020e-01,2.258980790604670497e-01,2.282031332291988013e-01
2.000000000000000042e-03,2.214779677590469897e-01,1.508895787269549371e-01,1.408678854063241392e-01
3.000000000000000062e-03,8.120800145693643848e-03,-3.951724006860236546e-03,6.820094234408546896e-02
4.000000000000000083e-03,-4.770950830655998343e-02,-8.961936591838441657e-02,-3.851950450660490688e-02
5.000000000000000104e-03,-1.582391408910819308e-01,-1.293398886419825367e-01,-8.305980461478090771e-02
6.000000000000000125e-03,-1.727522522639474978e-01,-1.362814545561268353e-01,-9.216356566404580730e-02
7.000000000000000146e-03,-1.937592488749231012e-01,-1.407068718880007396e-01,-1.193263844405822866e-01
8.000000000000000167e-03,-1.872433277703751398e-01,-1.715014928619636447e-01,-1.568931679763098386e-01
8.999999999999999320e-03,-1.614544233222723058e-01,-1.125566854154756158e-01,-1.349648559968713024e-01
1.000000000000000021e-02,-9.399877602014519024e-03,1.415603448544869086e-03,-4.392356425668992453e-02
1.099999999999999936e-02,2.100326550969351946e-01,1.587902043511284222e-01,9.464230301106642262e-02
1.200000000000000025e-02,2.845933971763065506e-01,2.579410155882626010e-01,1.798047556840324246e-01
1.299999999999999940e-02,3.365075340607449617e-01,2.554869843945921648e-01,2.274261559686752698e-01
1.400000000000000029e-02,1.929828139344645366e-01,1.201015645118700681e-01,1.551482478575366697e-01
1.499999999999999944e-02,7.430625401198856853e-03,-2.896256322792651466e-02,3.748327999660305138e-02
1.600000000000000033e-02,-1.738678770017194064e-01,-1.357089381962808816e-01,-6.465404490568378570e-02
1.700000000000000122e-02,-2.161369962515978516e-01,-1.958623703133917926e-01,-1.112387718280990895e-01
1.799999999999999864e-02,-2.061273577342201957e-01,-1.589072397365849376e-01,-1.271992425218522738e-01
1.899999999999999953e-02,-1.502213175274409451e-01,-1.541467232658164377e-01,-1.205977089798264679e-01
2.000000000000000042e-02,-1.367421655056818286e-01,-7.706328186027698590e-02,-1.178977104842204859e-01
2.100000000000000130e-02,-8.304330675805099427e-02,-5.646141293495155616e-02,-4.252621716753043207e-02
2.199999999999999872e-02,2.452484544005655021e-02,3.494273052658793816e-02,-2.998591700408900773e-02
2.299999999999999961e-02,1.770132407526241736e-01,2.220053816516232292e-01,2.103826656552591420e-02
2.400000000000000050e-02,3.492190543584509643e-01,2.532169905494552342e-01,1.389044507217908064e-01
2.500000000000000139e-02,3.449519835346070429e-01,2.391166495563350758e-01,1.854973180888464801e-01
2.599999999999999881e-02,1.638997831136557448e-01,9.285421888111432265e-02,1.565575906197279876e-01
2.699999999999999969e-02,-1.123883242576626971e-03,-1.054477105189498831e-01,2.971118933613101434e-02
2.800000000000000058e-02,-2.142020414407472817e-01,-2.139334793856182138e-01,-8.571945536509609220e-02
2.900000000000000147e-02,-3.091829550786207026e-01,-2.290795963186338935e-01,-1.711474998728649832e-01
2.999999999999999889e-02,-2.568848381584827312e-01,-1.938099286004555388e-01,-1.914575212491857747e-01
3.099999999999999978e-02,-1.693566140278035537e-01,-1.119828373224725365e-01,-1.255389612857460424e-01
3.200000000000000067e-02,-7.137232732650040934e-02,-2.240584285913016158e-02,-5.812509832381430874e-02
3.300000000000000155e-02,-1.085703140723073834e-02,2.116493754593731444e-02,-1.153435772474934763e-02
3.400000000000000244e-02,3.947073138035117612e-02,7.116614610870256041e-02,1.142867908760422831e-02
3.500000000000000333e-02,1.433588680678811456e-01,1.440803481588728008e-01,6.776043652937448203e-02
3.599999999999999728e-02,2.948911252446271281e-01,2.788000035305354674e-01,1.431469545111946629e-01
3.699999999999999817e-02,3.149432629705845588e-01,2.102716795077343714e-01,1.606055069123752954e-01
3.799999999999999906e-02,2.256224154793028125e-01,4.053488215936732614e-02,1.691879212774850261e-01
3.899999999999999994e-02,-1.565211537713323900e-02,-1.314087366950406899e-01,2.601679703633711163e-02
4.000000000000000083e-02,-1.923982107051050716e-01,-2.663726087251361840e-01,-7.397393834394826173e-02
4.100000000000000172e-02,-3.384439770450255458e-01,-2.727739268577915599e-01,-1.997182787156071837e-01
4.200000000000000261e-02,-2.642505061909348196e-01,-1.672150326594167014e-01,-2.086543553743135104e-01
4.299999999999999656e-02,-1.343395211084749685e-01,-2.170536615331740415e-02,-1.271518946817890017e-01
4.399999999999999745e-02,-1.800118275813554491e-02,8.999397593542093204e-03,-4.645335722063483747e-02
4.499999999999999833e-02,6.885736492203405057e-02,9.570043803077928068e-02,2.568039973203729148e-02
4.599999999999999922e-02,1.027300841996951347e-01,1.110717848501977523e-01,5.997521753624379670e-02
4.700000000000000011e-02,2.045942616241366585e-01,1.831780484539539400e-01,9.610855601443737961e-02
4.800000000000000100e-02,2.277904948546901898e-01,2.534327920309856763e-01,1.216786134076339732e-01
4.900000000000000189e-02,2.352278668096730863e-01,1.557758819398465666e-01,1.424675639061961929e-01
5.000000000000000278e-02,1.586164687032342591e-01,2.920125153980708890e-02,1.770924799713589903e-01
5.099999999999999672e-02,-4.851934386767964985e-02,-1.546650527004719278e-01,5.556438230733095479e-02
5.199999999999999761e-02,-2.539271498122709358e-01,-2.794234740010219653e-01,-9.502636594260568947e-02
5.299999999999999850e-02,-3.427281279788108037e-01,-2.689573937499763479e-01,-1.932326745926870037e-01
5.399999999999999939e-02,-2.958928730747256708e-01,-1.441089596851327370e-01,-2.150648103566120406e-01
5.500000000000000028e-02,-1.190395963884635089e-01,-6.000545027629103356e-03,-1.495882630761224963e-01
5.600000000000000117e-02,1.934597377209664251e-02,1.128995503675065265e-01,-2.138307342295224858e-02
5.700000000000000205e-02,1.064705907424862291e-01,1.425729970680309489e-01,2.595035220870572923e-02
5.800000000000000294e-02,1.488455492853610895e-01,1.108260518675931589e-01,6.979035742031100553e-02
5.899999999999999689e-02,2.333219116530831638e-01,1.833672825142071139e-01,1.067466313014862195e-01
5.999999999999999778e-02,1.763071805630733180e-01,1.818959489230386473e-01,1.017970743674410788e-01
6.099999999999999867e-02,2.111047921785864367e-01,1.225250339923878024e-01,1.364205512783132068e-01
6.199999999999999956e-02,1.403833996464699529e-01,-7.966009501450395337e-04,1.226550730500953895e-01
6.300000000000000044e-02,-6.891400487518745122e-02,-1.743229905689005210e-01,7.556440883896214933e-02
6.400000000000000133e-02,-2.729880373577977526e-01,-3.043030160419331609e-01,-6.594305845543368960e-02
6.500000000000000222e-02,-3.816574844763475083e-01,-2.628922574019955660e-01,-1.541217582345576209e-01
6.600000000000000311e-02,-3.005136770969517035e-01,-6.742241210730068324e-02,-2.177701224521506329e-01
6.700000000000000400e-02,-1.108466939135774043e-01,3.294343196895686138e-02,-1.635889846167932760e-01
6.800000000000000488e-02,8.498907337418759589e-02,1.893552610337583819e-01,-5.937522728730008914e-02
6.900000000000000577e-02,2.107416889075158783e-01,1.948625069854475200e-01,9.678697865987412330e-02
7.000000000000000666e-02,2.362584016391520436e-01,1.710434584386265333e-01,1.081931512382531130e-01
7.099999999999999367e-02,1.909208968926968120e-01,1.416227374183863519e-01,1.126643619036595684e-01
7.199999999999999456e-02,1.354817064534934445e-01,1.206662328644762250e-01,1.069470532530177459e-01
7.299999999999999545e-02,1.188772774121991116e-01,6.660146087769761025e-02,7.519809738663030263e-02
7.399999999999999634e-02,4.218563499910135683e-02,-4.370821484906426552e-02,5.969363279884923323e-02
7.499999999999999722e-02,-9.072231301156259697e-02,-1.846729263682065636e-01,2.707516334765894608e-02
7.599999999999999811e-02,-2.425737166036290027e-01,-2.452642109837591955e-01,-5.330837201955370558e-02
7.699999999999999900e-02,-3.289725537218574081e-01,-2.289111592243597004e-01,-1.752480063755916528e-01
7.799999999999999989e-02,-2.994478153841981793e-01,-1.080669873623386207e-01,-2.321956011200015935e-01
7.900000000000000078e-02,-1.210377384222576236e-01,9.526686568937435540e-02,-1.756786256033178728e-01
8.000000000000000167e-02,1.145854359212731405e-01,1.665103049910411082e-01,-4.792255787960435220e-02
8.100000000000000255e-02,2.684346881729589018e-01,2.226983781413728325e-01,7.530872302288091347e-02
8.200000000000000344e-02,2.827274403530564695e-01,1.529310541308244453e-01,1.453905767268695581e-01
8.300000000000000433e-02,1.950825720645408545e-01,7.297389685855229513e-02,1.335784494842200965e-01
8.400000000000000522e-02,1.345898797365928101e-01,1.766247963415933098e-02,1.368235212358362984e-01
8.500000000000000611e-02,6.542037693878140214e-02,-3.127760862575287848e-02,6.364905789040824213e-02
8.599999999999999312e-02,-7.276937158066183221e-03,-1.112695312275019249e-01,-8.298517695848444883e-03
8.699999999999999400e-02,-1.302305666280205720e-01,-1.867797561137951312e-01,-8.775522280599081307e-03
8.799999999999999489e-02,-2.239597705194508737e-01,-2.645878311210554945e-01,-4.630461350257921577e-02
8.899999999999999578e-02,-3.123374056605452975e-01,-2.365498266901021607e-01,-1.289007669214058960e-01
8.999999999999999667e-02,-2.673071734193789295e-01,-4.393219352646821757e-02,-1.522097847935064696e-01
9.099999999999999756e-02,-5.918942874943831228e-02,1.116669322284730981e-01,-1.747465536867387481e-01
9.199999999999999845e-02,1.332175925317508058e-01,2.397786563697079376e-01,-4.305939189036664394e-02
9.299999999999999933e-02,2.891971519247499289e-01,2.520133307473128026e-01,5.335344818811696421e-02
9.400000000000000022e-02,3.162900532366847983e-01,1.564029708410084318e-01,1.805646354992168634e-01
9.500000000000000111e-02,2.304538581854322643e-01,6.067439574329114987e-02,2.267043221626738603e-01
9.600000000000000200e-02,5.395908331397344243e-02,-3.208120726343970108e-02,1.358779410732280923e-01
9.700000000000000289e-02,-2.177173952086012762e-02,-1.128114790431350989e-01,6.259581302480718423e-02
9.800000000000000377e-02,-5.344177131956029392e-02,-1.256808444517486245e-01,-1.915261015323439439e-02
9.900000000000000466e-02,-1.450257074690285974e-01,-1.601043176704415039e-01,-5.495416986025492695e-02
1.000000000000000056e-01,-1.792556413515251357e-01,-1.805560321079337505e-01,-9.346809756954758963e-02
1.010000000000000064e-01,-2.605621746866278454e-01,-1.645777390949019481e-01,-1.239346109388709538e-01
1.019999999999999934e-01,-2.294155975263834080e-01,-4.088280082557386834e-03,-1.654000176045201942e-01
1.029999999999999943e-01,-5.574914862957897760e-02,1.490871536447706536e-01,-1.294819741732693152e-01
1.039999999999999952e-01,1.741349345902026557e-01,2.622236987114312523e-01,-7.616115695980740785e-02
1.049999999999999961e-01,3.214541602488648064e-01,2.542117521068730235e-01,6.045026768002707135e-02
1.059999999999999970e-01,3.533011999013725424e-01,1.373578131518743695e-01,1.726519250374419778e-01
1.069999999999999979e-01,2.129697968611085623e-01,-1.181304057235342889e-02,2.023073218978931886e-01
1.079999999999999988e-01,1.581794930826808249e-02,-8.892305851072029865e-02,1.612439414840666496e-01
1.089999999999999997e-01,-1.376591370835673345e-01,-1.603271203149815582e-01,6.367087813762600801e-02
1.100000000000000006e-01,-1.374872481321474105e-01,-1.272751109669160441e-01,-4.375795013666932548e-02
1.110000000000000014e-01,-1.539350369456516932e-01,-1.863072539556755169e-01,-9.830459082432030371e-02
1.120000000000000023e-01,-1.937562775465006271e-01,-1.368565426822535569e-01,-1.160260190406358222e-01
1.130000000000000032e-01,-1.927306978893933431e-01,-9.054374503930222307e-02,-1.014900233820285186e-01
1.140000000000000041e-01,-1.368722739719948622e-01,4.757589551769068892e-02,-8.549515749456147728e-02
1.150000000000000050e-01,-1.900134139560834615e-02,1.773852170339869916e-01,-7.895085313988575715e-02
1.160000000000000059e-01,1.968484158785419880e-01,2.703648384657804660e-01,-6.982306960145337471e-02
1.170000000000000068e-01,3.360673180947789107e-01,2.250819908524341051e-01,6.693593286532908970e-02
1.179999999999999938e-01,3.434754404810449468e-01,8.999238157366415414e-02,1.875051053049794358e-01
1.189999999999999947e-01,2.344500705291094889e-01,-7.094165438801929013e-02,1.949996699405796285e-01
1.199999999999999956e-01,-2.321429175011380242e-02,-1.583144057434797969e-01,1.378442398876667807e-01
1.209999999999999964e-01,-1.868168793338325639e-01,-2.101274054097974631e-01,3.706191453945648084e-02
1.219999999999999973e-01,-2.064491705979581981e-01,-1.926617834466048951e-01,-7.696284430331579163e-02
1.229999999999999982e-01,-2.086021024475934738e-01,-1.072595635812573361e-01,-1.087792921981117350e-01
1.239999999999999991e-01,-1.508189593381367155e-01,-9.462568649419064726e-02,-1.465411094283474158e-01
1.250000000000000000e-01,-1.232485872445239494e-01,-3.483384196339128769e-02,-1.194307738819626180e-01
1.260000000000000009e-01,-6.518282141761806703e-02,6.297297862381813494e-02,-8.986384909201908244e-02
1.270000000000000018e-01,2.036855493533747119e-02,1.956646535521800179e-01,-6.298165809394515313e-02
1.280000000000000027e-01,1.766486274839611237e-01,2.560689482911438497e-01,-2.372363907568371399e-02
1.290000000000000036e-01,2.852640423595302899e-01,2.313507250207008092e-01,8.594752416308297505e-02
1.300000000000000044e-01,3.422556443814464000e-01,9.964390799923085462e-02,1.373616857579853801e-01
1.310000000000000053e-01,1.920327531857736469e-01,-1.059962738512609248e-01,2.383169892643357546e-01
1.320000000000000062e-01,-5.102282065260519729e-03,-2.116333996481955804e-01,1.911322014647178491e-01
1.330000000000000071e-01,-2.150481650875804840e-01,-2.111115059402992600e-01,6.996931890705324064e-02
1.340000000000000080e-01,-3.008172852342316794e-01,-1.516564176432814437e-01,-8.570135896898251060e-02
1.350000000000000089e-01,-2.462782323263014994e-01,-7.485357449231207216e-02,-1.840037632368996257e-01
1.360000000000000098e-01,-1.644727789753641367e-01,-3.416521596168179548e-02,-1.677463965050275674e-01
1.370000000000000107e-01,-6.193911387147604114e-02,2.967597239910602439e-02,-1.157096930287832004e-01
1.380000000000000115e-01,-1.567577298916409539e-02,7.847877563188061789e-02,-3.802598051426491627e-02
1.390000000000000124e-01,6.220368454162934074e-02,1.994307330637943299e-01,-4.698824894794069451e-02
1.400000000000000133e-01,1.758392670346830278e-01,2.093388183883490850e-01,-3.583808636369192543e-03
1.409999999999999865e-01,2.744544210482633417e-01,1.969751973090860253e-01,6.297520554695976158e-02
1.419999999999999873e-01,3.227505899275139867e-01,6.985402823519071269e-02,1.593922593669062360e-01
1.429999999999999882e-01,2.018000568740669909e-01,-1.207121799564777054e-01,2.301210850746235048e-01
1.439999999999999891e-01,-3.057466480855511662e-02,-2.739028993897581477e-01,1.888218085419277881e-01
1.449999999999999900e-01,-2.621526791583540517e-01,-2.286375834683961328e-01,6.088321322289081544e-02
1.459999999999999909e-01,-3.109973420769856500e-01,-1.406475312977920611e-01,-5.396500984358099107e-02
1.469999999999999918e-01,-2.669895565045863894e-01,-4.157189733865882669e-02,-1.780592475132185826e-01
1.479999999999999927e-01,-1.328547178712949639e-01,1.343433707250098544e-02,-1.359215563414444272e-01
1.489999999999999936e-01,-2.637329871127484793e-02,6.337515177910992004e-02,-1.065364455097783658e-01
1.499999999999999944e-01,5.184385631872491518e-02,1.252241587546163437e-01,-1.088416863255774886e-01
1.509999999999999953e-01,1.483856347572839463e-01,1.748811024563734773e-01,9.031673289230806451e-03
1.519999999999999962e-01,1.702459726558789854e-01,1.938935969044317809e-01,4.389580219561992763e-02
1.529999999999999971e-01,2.134260453023930637e-01,1.562183765025661752e-01,5.627308422066572974e-02
1.539999999999999980e-01,2.599694372484722682e-01,2.004194261709002500e-02,1.384976071249731100e-01
1.549999999999999989e-01,1.563736638132451895e-01,-1.725444405925306290e-01,1.622756174405144136e-01
1.559999999999999998e-01,-6.220711784516364494e-03,-2.991055500521692667e-01,1.326359491978068572e-01
1.570000000000000007e-01,-2.738388881516368167e-01,-2.649037010034204775e-01,6.412450585860053620e-02
1.580000000000000016e-01,-3.483211426897696028e-01,-1.314899936636500510e-01,-6.572091696227409796e-02
1.590000000000000024e-01,-2.651068641772411083e-01,-1.143447238504120139e-02,-1.934026943216587135e-01
1.600000000000000033e-01,-1.364098625805767462e-01,8.878875071976695399e-02,-1.914470111376433692e-01
1.610000000000000042e-01,2.621210455620865548e-02,1.345152618130028843e-01,-1.462251323129691027e-01
1.620000000000000051e-01,1.322107472679410756e-01,1.377113157503663532e-01,-3.881986868324566881e-02
1.630000000000000060e-01,1.826294298195861032e-01,1.301346112379172248e-01,3.779798085599139074e-02
1.640000000000000069e-01,1.614199906254762673e-01,1.443232349849442042e-01,8.972463280780730577e-02
1.650000000000000078e-01,1.646946990190055471e-01,7.851646036258520811e-02,8.949098173365810371e-02
1.660000000000000087e-01,1.697753895132772806e-01,-2.958611361354240507e-02,9.248800269069502866e-02
1.670000000000000095e-01,1.138739337757238845e-01,-1.841633216389664263e-01,9.917225753274595823e-02
1.680000000000000104e-01,-7.808476968493939518e-02,-2.652444548792557422e-01,1.285104637924862347e-01
1.690000000000000113e-01,-2.373555054957495192e-01,-2.602975313109392452e-01,4.774818880090556106e-02
1.700000000000000122e-01,-3.588280744453204996e-01,-1.250748083137907807e-01,-4.962905662689785780e-02
1.710000000000000131e-01,-3.374207536959384912e-01,6.407124962691325420e-02,-1.717377310970502613e-01
1.719999999999999862e-01,-1.530678319115021668e-01,1.452156166549686267e-01,-2.228212590609200960e-01
1.729999999999999871e-01,8.031151942125780430e-02,1.596437261428552690e-01,-1.806501069504611312e-01
1.739999999999999880e-01,2.274894244534875209e-01,1.501427482857165541e-01,-3.431754500737898422e-02
1.749999999999999889e-01,2.356721061627969072e-01,1.529715183344314555e-01,4.612773840369224776e-02
1.759999999999999898e-01,1.711914202306280552e-01,1.063446938347613058e-01,1.470127257756597139e-01
1.769999999999999907e-01,1.353366437134774225e-01,3.100528228395811256e-02,1.431699613355184308e-01
1.779999999999999916e-01,1.165737612260005635e-01,-4.870534205554755830e-02,1.370322817856352293e-01
1.789999999999999925e-01,6.051598468970043748e-02,-1.615053698158111783e-01,1.055131698930442397e-01
1.799999999999999933e-01,-6.515639704758877104e-02,-2.680371824380624601e-01,7.672020214863103926e-02
1.809999999999999942e-01,-2.395725594241652212e-01,-2.219716973361328949e-01,3.163385853495930683e-02
1.819999999999999951e-01,-3.251171917109150211e-01,-6.677010770654524807e-02,-6.041816963061236861e-02
1.829999999999999960e-01,-2.809800476722281726e-01,6.890819333364996135e-02,-1.408762163616096852e-01
1.839999999999999969e-01,-8.233883923373637448e-02,2.103966769748641941e-01,-2.204702093008754082e-01
1.849999999999999978e-01,1.202132716863842377e-01,2.092413480773185619e-01,-2.158577198041157219e-01
1.859999999999999987e-01,2.361934691575372502e-01,1.706635829423815698e-01,-7.556381924087499091e-02
1.869999999999999996e-01,2.585741499046900205e-01,6.148204138599540347e-02,3.735283093103881208e-02
1.880000000000000004e-01,1.839751545490627416e-01,1.614873925480161954e-02,1.437414383125955875e-01
1.890000000000000013e-01,7.748525576681279670e-02,-1.073241671310003198e-02,1.638550519303073882e-01
1.900000000000000022e-01,2.863383781402359385e-02,-1.267251345563330522e-01,1.467353863283468174e-01
1.910000000000000031e-01,8.840745094490406715e-04,-1.831336970455902657e-01,5.225351205999262394e-02
1.920000000000000040e-01,-8.579205254742176823e-02,-2.431598280201678064e-01,-1.497595704513475512e-02
1.930000000000000049e-01,-2.225185037785548103e-01,-2.063847224745687381e-01,1.113825659818233789e-02
1.940000000000000058e-01,-2.995429672339879890e-01,-8.742753398471823922e-02,-4.957648546212622270e-02
1.950000000000000067e-01,-2.243817989519361622e-01,1.393692740654706164e-01,-1.241126419235291656e-01
1.960000000000000075e-01,-1.009649126040118722e-01,2.715743000669662011e-01,-1.770313643359194833e-01
1.970000000000000084e-01,1.375229610858412499e-01,2.005295201655141746e-01,-1.672835926332384426e-01
1.980000000000000093e-01,3.097582629544720634e-01,1.256383975861489755e-01,-5.568255409559248748e-02
1.990000000000000102e-01,3.105714279394454769e-01,3.701613206261333833e-02,5.777114379837904046e-02
2.000000000000000111e-01,2.046139870527119431e-01,-3.589978484839224937e-02,1.795933603706313664e-01
2.010000000000000120e-01,7.341939414091371019e-02,-1.225341728521145007e-01,2.275891512348032775e-01
2.020000000000000129e-01,-3.668391372975753073e-02,-1.370222037454430219e-01,1.416677004580381982e-01
2.030000000000000138e-01,-1.173733768351132439e-01,-2.011530309423063267e-01,2.638336464289730426e-02
2.039999999999999869e-01,-1.303993366105337948e-01,-2.165797561626824352e-01,-1.815460750884255806e-02
2.049999999999999878e-01,-2.137393640983638876e-01,-1.356489744193591918e-01,-6.719756941099262748e-02
2.059999999999999887e-01,-2.762380661963316220e-01,-3.471354358548545127e-02,-1.029276858228253960e-01
2.069999999999999896e-01,-2.068904073410530453e-01,1.534966868243431426e-01,-1.042375661381211432e-01
2.079999999999999905e-01,-3.574355504345672063e-02,3.021479792997051605e-01,-1.745506364984469316e-01
2.089999999999999913e-01,1.108793373927231957e-01,2.578998822129469071e-01,-1.770139253218052933e-01
2.099999999999999922e-01,3.155968759936678691e-01,8.268399430488504454e-02,-5.498133956934791317e-02
2.109999999999999931e-01,3.571044603465415301e-01,-5.657000077329648463e-03,6.981030630712946328e-02
2.119999999999999940e-01,2.178637158363124215e-01,-1.152793276386099297e-01,1.636221666505952577e-01
2.129999999999999949e-01,4.905306160576556468e-02,-1.551586272243868359e-01,2.173441011844816362e-01
2.139999999999999958e-01,-9.091126462500551120e-02,-1.080762164807028275e-01,1.247963965060649577e-01
2.149999999999999967e-01,-1.916254636770661490e-01,-1.481273217441729795e-01,5.541374782774539237e-02
2.159999999999999976e-01,-1.922013713920460720e-01,-1.307793393722672115e-01,2.384405757955862862e-02
2.169999999999999984e-01,-1.834900374186063665e-01,-9.972278013145721709e-02,-5.143949739769196339e-02
2.179999999999999993e-01,-2.037111369178283005e-01,4.157779280043860659e-02,-1.100327635856938879e-01
2.190000000000000002e-01,-1.777931983467903321e-01,1.803090014068430003e-01,-1.100268650555560612e-01
2.200000000000000011e-01,-2.455105060776079443e-02,3.005726354807426448e-01,-1.336919033183280869e-01
2.210000000000000020e-01,1.617341491409933496e-01,2.534041038857200445e-01,-1.286362656466203680e-01
2.220000000000000029e-01,3.172481772478010775e-01,9.209511527615542315e-02,-6.160639515968736185e-02
2.230000000000000038e-01,3.394803097551309934e-01,-5.255039645397256015e-02,4.022288231170396966e-02
2.240000000000000047e-01,2.342066510750532571e-01,-1.627732445575366671e-01,1.396150457379148613e-01
2.250000000000000056e-01,1.256833307166821661e-03,-2.035858395104316876e-01,2.435842369134839924e-01
2.260000000000000064e-01,-1.641221050789954672e-01,-1.596564921784068558e-01,1.794186609212404249e-01
2.270000000000000073e-01,-2.288625286823899319e-01,-1.265725974669903164e-01,8.140879276992132874e-02
2.280000000000000082e-01,-2.083224102514168452e-01,-4.505400139216687166e-02,-2.777061512977083146e-02
2.290000000000000091e-01,-1.923708305695576437e-01,-2.440538655615442226e-02,-1.433003002472131027e-01
2.300000000000000100e-01,-1.483760174851377067e-01,7.661207443091205826e-02,-1.278437762693961366e-01
2.310000000000000109e-01,-1.266866695906092022e-01,1.901584279444682724e-01,-1.018671650978641846e-01
2.320000000000000118e-01,1.687975748323915920e-02,2.791413377497168335e-01,-1.047625853949027963e-01
2.330000000000000127e-01,1.474846592171502602e-01,2.341484374181843353e-01,-9.165509533339930015e-02
2.340000000000000135e-01,3.348296383306632040e-01,8.393682759949115668e-02,-1.861391656070217684e-02
2.349999999999999867e-01,3.183055953848364927e-01,-8.361491581513146032e-02,2.789387565544052330e-02
2.359999999999999876e-01,2.039026251758120911e-01,-1.955312361942057320e-01,1.384837901322992504e-01
2.369999999999999885e-01,-3.097833975873731660e-02,-1.875636431128537840e-01,2.047770963338539363e-01
2.379999999999999893e-01,-2.230359155432102003e-01,-1.669976322334801866e-01,1.663148721673030073e-01
2.389999999999999902e-01,-2.858567695060581504e-01,-7.076809905017979185e-02,6.307705801782105548e-02
2.399999999999999911e-01,-2.413520903493805436e-01,-1.042264281431636193e-02,-4.332682969428950509e-02
2.409999999999999920e-01,-1.368073607159836225e-01,2.315271623755447636e-02,-1.688396842453069591e-01
2.419999999999999929e-01,-7.834864252953623043e-02,9.808159946273180274e-02,-1.642826745600008687e-01
2.429999999999999938e-01,-4.938899380712713158e-03,1.793814390807387527e-01,-1.401562506472124880e-01
2.439999999999999947e-01,3.603190674828057188e-02,2.312966896902894365e-01,-6.182113569424120547e-02
2.449999999999999956e-01,1.493763485574851058e-01,1.799597443741742520e-01,-9.438128292664445251e-03
2.459999999999999964e-01,2.845839950843986887e-01,6.800301815261539096e-02,6.765206146314268164e-03
2.469999999999999973e-01,2.948137832436943939e-01,-1.420552177396056104e-01,6.892236683816221898e-02
2.479999999999999982e-01,1.665986922049074725e-01,-2.593789487038504205e-01,1.296826191701652975e-01
2.489999999999999991e-01,-2.136331023925656589e-02,-2.340521922882172479e-01,1.856267095954163282e-01
2.500000000000000000e-01,-2.469809558581058662e-01,-1.518461877934091653e-01,2.061583775499356008e-01
2.510000000000000009e-01,-3.314328468728666710e-01,-3.085899907007980461e-03,6.471062355702920932e-02
2.520000000000000018e-01,-3.035399590902347899e-01,2.021078821708603007e-02,-6.965906986352357610e-02
2.530000000000000027e-01,-1.214666265788089811e-01,9.188761588418681292e-02,-1.348795752235071865e-01
2.540000000000000036e-01,2.474235461450921894e-02,1.438780401357411809e-01,-2.095976768221552156e-01
2.550000000000000044e-01,6.635299939209773901e-02,1.654106317984247454e-01,-1.467025834560541087e-01
2.560000000000000053e-01,9.986151431379941545e-02,1.677057611319648367e-01,-7.210441626171465446e-02
2.570000000000000062e-01,1.552033015074445466e-01,1.703360437784703918e-01,-1.079587802469771096e-02
2.580000000000000071e-01,2.163703529311427898e-01,-2.773749018906014607e-02,3.707793207113183054e-02
2.590000000000000080e-01,2.616240095413345790e-01,-1.568635368154382426e-01,7.615821388143356740e-02
2.600000000000000089e-01,1.585539992108943308e-01,-2.855979182807768524e-01,1.364447174669280172e-01
2.610000000000000098e-01,-5.710452914976484745e-02,-3.092849142494354941e-01,1.538077511788974450e-01
2.620000000000000107e-01,-2.666384007044436677e-01,-1.246337415846976715e-01,1.401406857261882632e-01
2.630000000000000115e-01,-3.357639451067468972e-01,-2.446495009635404200e-02,6.156297762162084991e-02
2.640000000000000124e-01,-2.888559981910856500e-01,1.433399664635522375e-01,-6.910830007235145567e-02
2.650000000000000133e-01,-1.062628215784124225e-01,1.165190456998885654e-01,-1.599689513612171377e-01
2.660000000000000142e-01,1.282318075250382140e-02,1.293090687842625430e-01,-2.154517815040968565e-01
2.670000000000000151e-01,1.421362043024421984e-01,1.751268923556280888e-01,-1.548814559631764565e-01
2.680000000000000160e-01,1.511134284210471357e-01,1.379705834888700633e-01,-6.205064412003435947e-02
2.690000000000000169e-01,1.555239962119260300e-01,1.109019216775540551e-01,5.892956915516978089e-02
2.700000000000000178e-01,1.643692221638477780e-01,-2.660930993167886366e-02,6.640697670804672492e-02
2.710000000000000187e-01,1.990492631797626533e-01,-1.872046746360370995e-01,1.372218288317004209e-01
2.720000000000000195e-01,9.852519678881059562e-02,-2.938824700579797389e-01,8.933097492353127278e-02
2.730000000000000204e-01,-4.809516015620191043e-02,-2.784384204958934017e-01,9.774755709515267621e-02
2.740000000000000213e-01,-2.471153271554369091e-01,-9.559479107306995127e-02,1.408444747777266859e-01
2.750000000000000222e-01,-3.647619251830658826e-01,4.425359925923673388e-02,2.568384855335372266e-02
2.760000000000000231e-01,-3.017316135287760881e-01,1.684959500729499571e-01,-5.038511748093967707e-02
2.770000000000000240e-01,-1.159010337757830911e-01,1.903776562466865385e-01,-1.500155473083478186e-01
2.780000000000000249e-01,9.047639759134480653e-02,1.729357918880852496e-01,-2.521561399143096849e-01
2.790000000000000258e-01,2.022054493838383316e-01,1.533155457139232236e-01,-2.074975413913691391e-01
2.800000000000000266e-01,2.358953311285898191e-01,1.063859878737131726e-01,-5.885828268989429235e-02
2.810000000000000275e-01,2.026868971666719865e-01,5.000009603232765526e-02,1.205563793835520876e-02
2.819999999999999729e-01,1.398576993704691851e-01,-9.237028508644830327e-02,1.380546169595305017e-01
2.829999999999999738e-01,1.062015073874705839e-01,-2.085453137832199155e-01,1.414099683086160741e-01
2.839999999999999747e-01,3.818920747589981540e-02,-2.902133674289595344e-01,9.887512715194479718e-02
2.849999999999999756e-01,-8.632911560802719597e-02,-2.139420679815508264e-01,9.730812076066691629e-02
2.859999999999999765e-01,-2.297686258615373733e-01,-2.667736893046488214e-02,7.230004765363207131e-02
2.869999999999999774e-01,-3.167448822206033188e-01,1.091310884747029725e-01,2.304098070613096530e-02
2.879999999999999782e-01,-2.870313975125057815e-01,1.991342157382575973e-01,-8.020965559664240685e-02
2.889999999999999791e-01,-1.214365323971428462e-01,2.062690601926791267e-01,-1.761376078503910370e-01
2.899999999999999800e-01,1.513641836782498307e-01,1.329542704115936058e-01,-2.094956624920746580e-01
2.909999999999999809e-01,2.735277652629884981e-01,8.703118816575620975e-02,-1.577674361280790305e-01
2.919999999999999818e-01,2.901142127959592809e-01,1.664540109570376370e-03,-8.546554546348784920e-02
2.929999999999999827e-01,2.120473238351313072e-01,-1.168933423514745620e-02,8.296379570724371488e-02
2.939999999999999836e-01,1.053336682124137863e-01,-8.176402062798596160e-02,1.236283606852324468e-01
2.949999999999999845e-01,4.121010702363763628e-02,-2.076825871867533368e-01,1.843428449733431063e-01
2.959999999999999853e-01,-3.507785882265618271e-02,-2.577206482996515224e-01,1.287833025268369791e-01
2.969999999999999862e-01,-1.401608168535656562e-01,-1.832828399832946986e-01,5.248811456414907706e-02
2.979999999999999871e-01,-2.139916839845324159e-01,-6.168821211943624483e-02,3.747653079189628561e-02
2.989999999999999880e-01,-3.201037343733706964e-01,1.551041301055032517e-01,-1.420708962951514748e-02
2.999999999999999889e-01,-2.487018058834312983e-01,2.629760844753477600e-01,-3.787360229225440050e-02
3.009999999999999898e-01,-8.679618480066161879e-02,2.505744512260077994e-01,-1.152049550662429950e-01
3.019999999999999907e-01,1.645237979184081822e-01,1.503550225389232442e-01,-1.933298646095051587e-01
3.029999999999999916e-01,2.947910625687386044e-01,2.413735871492123444e-02,-1.738372413058824617e-01
3.039999999999999925e-01,3.423952831941229347e-01,-3.834813637259214952e-02,-9.190312440964634733e-02
3.049999999999999933e-01,2.218420487730972668e-01,-1.030506611926685634e-01,1.060436487359791430e-01
3.059999999999999942e-01,5.767800917597053906e-02,-1.024693280406988732e-01,1.440394601163455524e-01
3.069999999999999951e-01,-4.490525269328522057e-02,-1.842329854386998977e-01,1.796517072154392991e-01
3.079999999999999960e-01,-8.552144344199952286e-02,-2.046027166461810709e-01,1.667354849499916580e-01
3.089999999999999969e-01,-1.323701148080733137e-01,-1.458663032544512406e-01,7.607236517242810248e-02
3.099999999999999978e-01,-2.298632426070795209e-01,1.759096059778737786e-02,3.753596838863721558e-02
3.109999999999999987e-01,-2.372980481360178195e-01,1.850949040500257103e-01,-1.571603492459322515e-02
3.119999999999999996e-01,-2.082694079981967650e-01,2.561032235685365976e-01,-6.436478290816560754e-02
3.130000000000000004e-01,-6.584146961073825133e-02,2.555848804258680218e-01,-1.238006990643692046e-01
3.140000000000000013e-01,1.756111825303984519e-01,1.238740191808222757e-01,-1.364975247606250719e-01
3.150000000000000022e-01,3.228138449614178507e-01,-2.903630724908457320e-02,-1.390959245692363067e-01
3.160000000000000031e-01,3.719730267127310253e-01,-1.063837864145272816e-01,-5.933633698051398592e-02
3.170000000000000040e-01,2.150050004534347359e-01,-1.244646765441827507e-01,5.288338667700000911e-02
3.180000000000000049e-01,4.619914967290107005e-02,-1.484214659660566260e-01,1.531433360224118412e-01
3.190000000000000058e-01,-9.907523645503943377e-02,-1.204158299581250674e-01,2.398125365306190415e-01
3.200000000000000067e-01,-1.862910016690172976e-01,-1.305870121842654663e-01,1.441193955743083344e-01
3.210000000000000075e-01,-1.844267884442751804e-01,-8.733748904298978266e-02,4.806053405726409128e-02
3.220000000000000084e-01,-2.150928995402305588e-01,4.356299607533675733e-02,-4.217006737582328774e-02
3.230000000000000093e-01,-2.275930192244923767e-01,1.859774964557022459e-01,-8.561798989502784896e-02
3.240000000000000102e-01,-1.375917633789502659e-01,3.241415373803869238e-01,-1.114943212476523365e-01
3.250000000000000111e-01,-7.378687630973028433e-02,2.257567454077886449e-01,-1.132112305796706131e-01
3.260000000000000120e-01,1.772359997418873623e-01,1.108222937964770949e-01,-1.359409645004970024e-01
3.270000000000000129e-01,3.080600706467977457e-01,-5.944243126592316934e-02,-1.503704540132727863e-01
3.280000000000000138e-01,3.695473514783831348e-01,-1.623669263331450896e-01,-5.214129153957734741e-02
3.290000000000000147e-01,2.272951692532958479e-01,-1.906045844093868513e-01,5.072439513191129290e-02
3.300000000000000155e-01,2.693995795260886034e-02,-1.839073127638674865e-01,1.583570236203545867e-01
3.310000000000000164e-01,-1.733162294727236263e-01,-9.960860175232129354e-02,1.962453394401025841e-01
3.320000000000000173e-01,-2.524572880920601392e-01,-1.184588723156367041e-01,1.665471148532543522e-01
3.330000000000000182e-01,-2.276012516396249963e-01,-4.477207347429540407e-02,7.478398143026786238e-02
3.340000000000000191e-01,-1.402708886270872535e-01,7.130303414957618602e-02,-5.123282723420433810e-02
3.350000000000000200e-01,-1.324289013949753457e-01,1.912988233660651016e-01,-1.164285384824672170e-01
3.360000000000000209e-01,-6.198501420255956434e-02,2.779942275198218349e-01,-1.288532681531768809e-01
3.370000000000000218e-01,4.777170617968290976e-03,2.259125366814256630e-01,-1.122267126321804392e-01
3.380000000000000226e-01,1.861352748145015390e-01,7.995947416789263296e-02,-7.103272564234039410e-02
3.390000000000000235e-01,3.337503993262309621e-01,-9.735712190675284428e-02,-7.774267198737871976e-02
3.400000000000000244e-01,3.648418773677931659e-01,-2.105013856243538040e-01,-1.873945400532702268e-02
3.410000000000000253e-01,1.945660528265596712e-01,-2.005716177400947708e-01,3.897680631115935102e-02
3.420000000000000262e-01,-1.924656935494164015e-02,-1.333769203597912345e-01,1.391778960892642858e-01
3.430000000000000271e-01,-1.945703214820411753e-01,-9.759350189793276897e-02,1.701910911607540933e-01
3.439999999999999725e-01,-3.002273541924679323e-01,-2.106670390446072419e-02,1.345860123583873247e-01
3.449999999999999734e-01,-2.493651596661828063e-01,1.888486053783303489e-02,1.061784920883073746e-01
3.459999999999999742e-01,-1.550119291350837147e-01,9.524916249371956356e-02,-5.847402827130143699e-02
3.469999999999999751e-01,-8.286316588129195859e-02,1.618123982448530229e-01,-1.647588167994336605e-01
3.479999999999999760e-01,-1.857384842487059401e-02,2.498817240559423059e-01,-1.385731417739020366e-01
3.489999999999999769e-01,6.102875267887872268e-02,2.022788748082710863e-01,-1.216630968480279379e-01
3.499999999999999778e-01,1.933766282957442018e-01,3.365895410597580933e-02,-7.485906862506896964e-02
3.509999999999999787e-01,2.698947511763970519e-01,-1.424702393054677330e-01,-3.584843043258548190e-02
3.519999999999999796e-01,3.002128071923109154e-01,-2.501181042723249481e-01,2.085192520712841543e-02
3.529999999999999805e-01,1.903659663958910397e-01,-2.585224738236794328e-01,4.958278975315177223e-02
3.539999999999999813e-01,-5.755651326734450429e-02,-1.343904199902195562e-01,1.268713858859347454e-01
3.549999999999999822e-01,-2.385049616312193699e-01,-4.897099882281641392e-02,1.965430090701676957e-01
3.559999999999999831e-01,-3.322495775245684624e-01,4.627318381174634621e-02,1.767316159730160929e-01
3.569999999999999840e-01,-3.143856402429212604e-01,7.747813938222200547e-02,6.449622456736947562e-02
3.579999999999999849e-01,-1.506384709292624413e-01,1.437129993469329625e-01,-6.794366419994515849e-02
3.589999999999999858e-01,-2.516620181771766010e-02,1.801540243005496089e-01,-1.410834300567460897e-01
3.599999999999999867e-01,7.185665131575161291e-02,2.183353407132991308e-01,-1.933630109094075233e-01
3.609999999999999876e-01,8.062137262341402544e-02,1.220814918045964037e-01,-1.317071947104638541e-01
3.619999999999999885e-01,1.830256403048487468e-01,5.328041562141025157e-05,-7.258716945985155267e-02
3.629999999999999893e-01,2.658398791420734097e-01,-1.895325794016160248e-01,-3.918514655161405708e-03
3.639999999999999902e-01,2.329502559608011281e-01,-2.798318081314621342e-01,7.907807861777887970e-02
3.649999999999999911e-01,1.522652749267365546e-01,-2.676075483154300438e-01,3.895346409400973070e-02
3.659999999999999920e-01,-1.697359383265313257e-02,-1.307980961702945311e-01,1.375067445854303017e-01
3.669999999999999929e-01,-2.179129054243769681e-01,-5.432816993970177033e-03,1.816521938685729809e-01
3.679999999999999938e-01,-3.579319094454063155e-01,1.297050262483742111e-01,1.350785511561492236e-01
3.689999999999999947e-01,-2.985824292756787401e-01,1.411446478919144987e-01,8.193751958058063944e-02
3.699999999999999956e-01,-1.220391616267734181e-01,1.583848381478439871e-01,-3.083424591066413062e-02
3.709999999999999964e-01,2.915943997231521326e-02,1.660068064582730096e-01,-1.703181089216970479e-01
3.719999999999999973e-01,1.424197050605483517e-01,1.613800884356744181e-01,-2.169843290651925216e-01
3.729999999999999982e-01,1.776555908965792296e-01,8.783655351830318980e-02,-1.637936399894547590e-01
3.739999999999999991e-01,1.741108548162725034e-01,-4.065740580635102130e-02,-1.044384739026155001e-01
3.750000000000000000e-01,1.886665015548541491e-01,-2.078925057444952762e-01,4.931995777830528588e-02
3.760000000000000009e-01,1.947676218966325201e-01,-2.887238226804647034e-01,1.020621571743379613e-01
3.770000000000000018e-01,1.234875287930159993e-01,-2.590107949875289362e-01,1.070585703224809643e-01
3.780000000000000027e-01,-5.121353017399508240e-02,-1.131647276598248125e-01,1.410257029334727463e-01
3.790000000000000036e-01,-2.923597930007800216e-01,5.348752160418770996e-02,9.450135213163249337e-02
3.800000000000000044e-01,-3.646633518438147092e-01,1.620070395299303134e-01,1.234111817731998739e-01
3.810000000000000053e-01,-2.995249068575907003e-01,1.794846844275682363e-01,2.314421272651667055e-02
3.820000000000000062e-01,-1.243262133073319564e-01,1.669947325213345102e-01,-5.210720648893308465e-02
3.830000000000000071e-01,8.484468267394940089e-02,1.036145354425936499e-01,-1.831810103548852375e-01
3.840000000000000080e-01,1.950454305904489871e-01,4.062600713951095704e-02,-2.181954307144088889e-01
3.850000000000000089e-01,2.143830951656600092e-01,2.602558441790280355e-02,-1.620012896969695859e-01
3.860000000000000098e-01,1.804711051872895378e-01,-7.192796267375199670e-02,-4.635821785240881038e-02
3.870000000000000107e-01,1.532333955367475575e-01,-1.711365744746824180e-01,5.285416807795544764e-02
3.880000000000000115e-01,1.157914930036619966e-01,-2.429021193607071583e-01,1.243952718415624048e-01
3.890000000000000124e-01,4.370345868783426929e-02,-2.314219164661494577e-01,1.407207228087300754e-01
3.900000000000000133e-01,-9.470441206248157717e-02,-5.809181325429039339e-02,1.330970957530755450e-01
3.910000000000000142e-01,-2.583623670280806861e-01,1.007714298270123154e-01,8.151037382300516110e-02
3.920000000000000151e-01,-3.576963130773846422e-01,2.326121645686676509e-01,9.849679125764376764e-02
3.930000000000000160e-01,-3.000947100993937022e-01,2.393145977827411119e-01,4.010510148152195142e-02
3.940000000000000169e-01,-1.008325821383745519e-01,1.533129651865373366e-01,-2.774669012793143028e-02
3.950000000000000178e-01,1.305619537163043853e-01,7.643785503123469438e-02,-1.082384652453565604e-01
3.960000000000000187e-01,2.854941698362068458e-01,3.001401286366145102e-02,-1.744940520023720021e-01
3.970000000000000195e-01,2.641320081818227528e-01,5.831922361714518381e-03,-1.845230035789335865e-01
3.980000000000000204e-01,2.052791336169138559e-01,-1.058246873136548943e-01,-9.095885850465727784e-02
3.990000000000000213e-01,9.721918474136548305e-02,-1.853046237690451903e-01,4.666232766201453691e-02
4.000000000000000222e-01,6.831381313087572793e-02,-2.681087206221805519e-01,1.680313514150175713e-01
4.010000000000000231e-01,-2.992345996819696652e-02,-1.627639945769705221e-01,1.550216011737657329e-01
4.020000000000000240e-01,-9.277759893646526923e-02,-4.593696760507486043e-02,1.362410063368511837e-01
4.030000000000000249e-01,-2.496739467489473563e-01,1.445006067577446485e-01,6.995243284327731792e-02
4.040000000000000258e-01,-3.215020374352139942e-01,2.197063379045350873e-01,4.376523167428643217e-03
4.050000000000000266e-01,-2.511068492620175951e-01,2.189121182581358349e-01,-8.267274596943027798e-03
4.060000000000000275e-01,-9.399389805852977064e-02,1.594145359102943915e-01,-7.539529429488289747e-02
4.069999999999999729e-01,1.720421969815502938e-01,3.733897224330916254e-02,-1.235121273653470436e-01
4.079999999999999738e-01,3.101522806298822044e-01,-4.165880050630123982e-02,-2.008788136026964655e-01
4.089999999999999747e-01,3.049548353440706405e-01,-9.082686194681113823e-02,-1.701864285648063413e-01
4.099999999999999756e-01,2.034705627784443582e-01,-1.693244111793945073e-01,-9.722375675157704511e-02
4.109999999999999765e-01,8.487112354176040707e-02,-1.522793593584359229e-01,5.465937312529745018e-02
4.119999999999999774e-01,-3.055515544214361737e-02,-1.794322701829683675e-01,1.301912345874771948e-01
4.129999999999999782e-01,-1.212401896855810346e-01,-1.218893134452879445e-01,1.873535069298571110e-01
4.139999999999999791e-01,-1.385745777958085900e-01,-1.171658680158181587e-02,1.868822413390651138e-01
4.149999999999999800e-01,-1.967757887819431839e-01,2.331082956684153995e-01,8.553754203944122225e-02
4.159999999999999809e-01,-2.590118318045983581e-01,2.920139931652650511e-01,2.783481947915219384e-02
4.169999999999999818e-01,-2.261228829862292344e-01,2.825570849070325186e-01,-3.998085064443429593e-02
4.179999999999999827e-01,-5.243141760055220618e-02,1.208475760016975153e-01,-9.700475508061104368e-02
4.189999999999999836e-01,1.428443562372318787e-01,-1.111206993869424909e-03,-1.274267377376111510e-01
4.199999999999999845e-01,2.970205508031825703e-01,-9.074008622210533170e-02,-1.176255553403413034e-01
4.209999999999999853e-01,3.522524468891602978e-01,-1.586875894962254119e-01,-1.549875572325388751e-01
4.219999999999999862e-01,2.229996260094047611e-01,-1.995903394663483266e-01,-9.799655742439190853e-02
4.229999999999999871e-01,6.282893514473203954e-03,-1.504640398237964694e-01,4.721083067271484440e-02
4.239999999999999880e-01,-1.207790575207989686e-01,-1.350014950023289695e-01,1.708992982225017720e-01
4.249999999999999889e-01,-1.607439594600134081e-01,-1.092925752626948410e-01,1.996458005597067653e-01
4.259999999999999898e-01,-1.627960917055992218e-01,6.763330001948647530e-02,1.593426991656943792e-01
4.269999999999999907e-01,-1.768459318499748245e-01,1.974763308110369098e-01,6.306978228875288750e-02
4.279999999999999916e-01,-1.994570455081995097e-01,2.799316528217219435e-01,-3.522903578240546563e-02
4.289999999999999925e-01,-2.015925586344085307e-01,2.519609175384862620e-01,-5.938830463544896021e-02
4.299999999999999933e-01,-1.363495526450572704e-02,1.034360595293579987e-01,-1.084776427687679096e-01
4.309999999999999942e-01,1.958826532990427804e-01,-7.760834247391491802e-02,-1.259648728508870053e-01
4.319999999999999951e-01,3.300884612617454028e-01,-1.558095469412782985e-01,-1.321686534179611072e-01
4.329999999999999960e-01,3.462473542212390898e-01,-1.630405278077306230e-01,-8.433705553716544512e-02
4.339999999999999969e-01,2.056600050114664735e-01,-1.413316960566730063e-01,-6.820833751575892945e-02
4.349999999999999978e-01,4.944474607553748548e-03,-1.045274038886004342e-01,5.685914670231554530e-02
4.359999999999999987e-01,-1.924628100549047871e-01,-8.708497636482886994e-02,1.567766013269145942e-01
4.369999999999999996e-01,-2.604643676219031700e-01,-3.790305334861434478e-02,2.073541915061598018e-01
4.380000000000000004e-01,-2.185814344616084648e-01,6.527621790456776540e-02,2.145480269419590691e-01
4.390000000000000013e-01,-1.690552940494757794e-01,1.978514850508763800e-01,8.845661217707032065e-02
4.400000000000000022e-01,-1.237246512473461763e-01,3.106334637793693454e-01,-4.914344786046903613e-02
4.410000000000000031e-01,-8.842641535851193668e-02,2.421059597970677546e-01,-1.358873285264843300e-01
4.420000000000000040e-01,-1.449500896069392131e-03,8.012317118210789124e-02,-1.238912267140956092e-01
4.430000000000000049e-01,1.309943030531452168e-01,-1.102366637345471856e-01,-1.324376277690928194e-01
4.440000000000000058e-01,3.072069754074238657e-01,-2.397902731420638589e-01,-8.708182160368463376e-02
4.450000000000000067e-01,3.313710940752765399e-01,-2.480553207836808105e-01,-7.411187835116177236e-02
4.460000000000000075e-01,2.117092604637756115e-01,-1.429507893211559022e-01,-4.367733750072448629e-02
4.470000000000000084e-01,-3.809994710534728157e-02,-6.861852070108050150e-02,2.545137980805948705e-02
4.480000000000000093e-01,-2.017205477418765325e-01,-2.675510077541981557e-02,1.507653330653612178e-01
4.490000000000000102e-01,-2.908780904680139390e-01,6.136902710616855966e-02,2.116239961312713913e-01
4.500000000000000111e-01,-2.466701202946693094e-01,1.067738420250681775e-01,1.651548316141076000e-01
4.510000000000000120e-01,-1.408836452100937220e-01,1.717466467036134203e-01,1.011920180293818111e-01
4.520000000000000129e-01,-5.448711959293664475e-02,2.069200061776138855e-01,-2.969548647273728345e-02
4.530000000000000138e-01,-1.112416579725609110e-02,1.960842938677303249e-01,-1.223571305125161768e-01
4.540000000000000147e-01,6.439094639662011621e-02,3.691199163650443760e-02,-1.883100572931968586e-01
4.550000000000000155e-01,1.694182959841455949e-01,-1.615048708589332804e-01,-1.136672217294807385e-01
4.560000000000000164e-01,2.653404365338546955e-01,-2.783537941796896953e-01,-7.841956721537322872e-02
4.570000000000000173e-01,3.080785170714806509e-01,-2.411467022493319345e-01,-5.808397815835289468e-02
4.580000000000000182e-01,1.565387867352382723e-01,-1.340578869781120230e-01,-1.682059697300663029e-02
4.590000000000000191e-01,-4.278392200328220984e-02,-3.384636949973453962e-02,3.971639126991000079e-02
4.600000000000000200e-01,-2.577699025384255771e-01,6.028591915369319043e-02,8.974161968619034924e-02
4.610000000000000209e-01,-3.256610205956865234e-01,1.225592267412780878e-01,1.905333657158651550e-01
4.620000000000000218e-01,-2.608425629951697799e-01,1.312498217311151849e-01,1.997708865063807515e-01
4.630000000000000226e-01,-1.384163316789670806e-01,1.776035477569797572e-01,9.647418482368687320e-02
4.640000000000000235e-01,-1.897005662416380301e-02,1.800993696581107140e-01,-8.074838548723994869e-02
4.650000000000000244e-01,5.496910786078373912e-02,1.471918782890344890e-01,-1.757396138293513543e-01
4.660000000000000253e-01,1.048405597200428585e-01,-4.131928705586033340e-02,-1.842648558738778364e-01
4.670000000000000262e-01,1.826500853694059123e-01,-2.043392273347004184e-01,-1.481194816931347691e-01
4.680000000000000271e-01,2.457039099561422468e-01,-2.971216290918874958e-01,-5.369571314864042544e-02
4.689999999999999725e-01,2.832016201181625226e-01,-2.902103212147882361e-01,-6.237305115023445042e-03
4.699999999999999734e-01,1.390476983141481493e-01,-1.365872929552854609e-01,5.827215861655795498e-02
4.709999999999999742e-01,-6.343372480593513496e-02,-1.787479167777470540e-02,1.055911554236647898e-01
4.719999999999999751e-01,-2.763458953804503460e-01,1.179032569998799823e-01,1.102558923822231501e-01
4.729999999999999760e-01,-3.646373212254204743e-01,1.213068533573160024e-01,1.214473265361324938e-01
4.739999999999999769e-01,-3.074539145654765493e-01,1.174153989681830518e-01,1.427189095485933146e-01
4.749999999999999778e-01,-9.167847580525409490e-02,1.590816166609769766e-01,9.691856852948281531e-02
4.759999999999999787e-01,5.262416370563501034e-02,1.614437412316320763e-01,-6.602829500556556264e-02
4.769999999999999796e-01,1.390268104967876395e-01,9.443302790758642540e-02,-1.698152667910655389e-01
4.779999999999999805e-01,1.911222584747162556e-01,-6.213757917429674205e-02,-1.955951668356833151e-01
4.789999999999999813e-01,2.044330301023716823e-01,-1.783442009430726838e-01,-1.560962024408762416e-01
4.799999999999999822e-01,1.957600541949134076e-01,-2.950337518394569591e-01,-5.647647528418531238e-02
4.809999999999999831e-01,1.860065778671289027e-01,-2.265466828849239389e-01,3.079616982243831361e-02
4.819999999999999840e-01,9.309355284048020929e-02,-1.077378421513801171e-01,8.919823309706512160e-02
4.829999999999999849e-01,-9.690703655385075888e-02,6.703619464780399828e-02,9.697336124533680046e-02
4.839999999999999858e-01,-2.737807328592047895e-01,1.872970579386351309e-01,9.967496157199980111e-02
4.849999999999999867e-01,-3.892048728933406587e-01,1.833388990560189391e-01,1.148026082245578450e-01
4.859999999999999876e-01,-3.149973590398223444e-01,1.281455702736408742e-01,1.210083693248465292e-01
4.869999999999999885e-01,-7.995204488076582128e-02,1.583542329193927678e-01,7.280325861896833062e-02
4.879999999999999893e-01,1.053698834744475621e-01,6.116225794764246909e-02,-3.437529073029072652e-02
4.889999999999999902e-01,2.272088519179508992e-01,1.211033089880750833e-02,-1.625753181691132754e-01
4.899999999999999911e-01,2.295665998733301127e-01,-8.580335826061392945e-02,-2.044767584470725263e-01
4.909999999999999920e-01,1.950680385567755415e-01,-2.011258975108771163e-01,-1.843532116275138355e-01
4.919999999999999929e-01,1.373302030139988139e-01,-2.633323750402079000e-01,-6.469053502807739497e-02
4.929999999999999938e-01,1.082188707415671497e-01,-1.927229971516171425e-01,4.350355692008300683e-03
4.939999999999999947e-01,3.624882445556577154e-02,-5.609042925580773331e-02,1.293888441585060445e-01
4.949999999999999956e-01,-9.783717218675883065e-02,1.277209238967517424e-01,1.164614380718903414e-01
4.959999999999999964e-01,-2.274108976146881900e-01,2.081616793323192716e-01,7.621069279970847654e-02
4.969999999999999973e-01,-3.366794618285756657e-01,2.235946064872992578e-01,6.851349608739730479e-02
4.979999999999999982e-01,-2.883143624524709403e-01,1.602825839299690525e-01,5.077404474211745511e-02
4.989999999999999991e-01,-9.894264600101751461e-02,5.838093206204062607e-02,2.027519762224899713e-02
5.000000000000000000e-01,1.106315939494846162e-01,-2.203497690465570924e-02,-1.214253019602547570e-02
5.010000000000000009e-01,2.549856084045032945e-01,-3.462561709006550803e-02,-1.202942250006668462e-01
5.020000000000000018e-01,2.626947051365679520e-01,-1.174890176500494460e-01,-2.127551177175956154e-01
5.030000000000000027e-01,2.029783684382497344e-01,-1.882660601337917128e-01,-1.967095879310395978e-01
5.040000000000000036e-01,1.130911691244564227e-01,-2.530078344521732858e-01,-9.307830938812354515e-02
5.050000000000000044e-01,4.337151657722628645e-02,-1.740333213535599222e-01,6.548779821405903423e-02
5.060000000000000053e-01,-1.369576730980547052e-02,-2.301868643069457723e-02,1.693393942285996712e-01
5.070000000000000062e-01,-1.067925937000576420e-01,1.565719995510031770e-01,1.737028480949253106e-01
5.080000000000000071e-01,-2.522670718980986604e-01,2.491566095925408231e-01,1.436283804662278896e-01
5.090000000000000080e-01,-3.220636340858805124e-01,2.592317404072221887e-01,6.696955942310588161e-02
5.100000000000000089e-01,-2.696294286371180848e-01,1.352650608704183965e-01,3.491212681291761682e-02
5.110000000000000098e-01,-6.719871224632840978e-02,2.192638124731862564e-02,4.116483600247366342e-02
5.120000000000000107e-01,1.464525515540713030e-01,-5.370204028474879349e-02,-4.257746147386370222e-02
5.130000000000000115e-01,3.078319856865491255e-01,-7.361478569986339149e-02,-9.108861943978936726e-02
5.140000000000000124e-01,3.015371498933598349e-01,-1.054959694119756847e-01,-1.440566223890035191e-01
5.150000000000000133e-01,2.132351225846153830e-01,-2.012342483914826285e-01,-1.721058764168344746e-01
5.160000000000000142e-01,8.533121953730030129e-02,-1.905819871589492509e-01,-9.651425761498730327e-02
5.170000000000000151e-01,-2.290631548741555237e-02,-1.455908965628504859e-01,3.011780202239918575e-02
5.180000000000000160e-01,-7.323418937684594843e-02,3.011942244817946909e-02,1.568848351549269049e-01
5.190000000000000169e-01,-1.486319603335687634e-01,2.014449850174560575e-01,2.015127349626374964e-01
5.200000000000000178e-01,-1.920674635332914881e-01,2.590228451001769794e-01,1.090826099700239332e-01
5.210000000000000187e-01,-2.749838694140362971e-01,2.457179306260096341e-01,5.451872310646346809e-02
5.220000000000000195e-01,-1.906998953536225561e-01,1.164208104225036150e-01,8.687994877359156778e-03
5.230000000000000204e-01,-7.175693615875607112e-02,-1.519910006130291771e-02,-4.501755353320852776e-02
5.240000000000000213e-01,1.610206663373880132e-01,-1.098247830197443681e-01,-5.776350209896372739e-02
5.250000000000000222e-01,3.320598088477694776e-01,-1.581732316088986512e-01,-1.329042732729525389e-01
5.260000000000000231e-01,3.534004195747798560e-01,-1.730212384450034724e-01,-1.648841357053554557e-01
5.270000000000000240e-01,2.065012249860141424e-01,-1.224467725871336704e-01,-1.672874821186909611e-01
5.280000000000000249e-01,3.270396182881337571e-02,-1.628106566701498781e-01,-1.158385710057619061e-01
5.290000000000000258e-01,-8.242222529182827162e-02,-9.090524084334486443e-02,3.576271509967789142e-02
5.300000000000000266e-01,-1.554021672934216280e-01,3.082319104499839021e-02,1.620922208810687826e-01
5.310000000000000275e-01,-1.374527536989291476e-01,2.111716934435405590e-01,2.180361408794014300e-01
5.320000000000000284e-01,-2.074788363674428815e-01,2.728023451976362979e-01,1.539443617419185562e-01
5.330000000000000293e-01,-2.381904612221105166e-01,2.772254072374252809e-01,8.239463744981648241e-02
5.340000000000000302e-01,-1.748729949490262781e-01,8.765179881324974831e-02,-1.090231059596863394e-02
5.350000000000000311e-01,-3.015623447513874483e-02,-9.445849040052003986e-02,-1.036166989151854900e-01
5.360000000000000320e-01,1.599884129266121446e-01,-2.046927996456219534e-01,-1.214452548506732010e-01
5.370000000000000329e-01,3.156413089417734463e-01,-2.050304071379627224e-01,-1.256434934757550970e-01
5.380000000000000338e-01,3.349092308838335641e-01,-1.636846487026832608e-01,-1.183842633600363514e-01
5.390000000000000346e-01,2.247776637546664014e-01,-1.073839374966257393e-01,-1.389950604084415064e-01
5.400000000000000355e-01,7.930685851910049267e-03,-5.584148685500137793e-02,-3.720741670330687811e-02
5.410000000000000364e-01,-1.701165771891934020e-01,-2.887549310507215531e-03,1.137277020025601222e-02
5.420000000000000373e-01,-2.434485693737011014e-01,6.719655542236327439e-02,1.650576997818672953e-01
5.430000000000000382e-01,-1.887789553878931603e-01,2.151867623598257284e-01,2.160247172035689445e-01
5.440000000000000391e-01,-1.636364647179706366e-01,2.553170960704126413e-01,1.846525947034383663e-01
5.450000000000000400e-01,-1.305045682222471803e-01,2.526308117954580990e-01,4.837458275622982112e-02
5.460000000000000409e-01,-9.465131881041265183e-02,3.600201288693120893e-02,1.046352154235916966e-02
5.470000000000000417e-01,3.957420682240617160e-02,-9.639944377187027735e-02,-1.391248070866826225e-01
5.480000000000000426e-01,1.972986770105127352e-01,-2.510044993873800645e-01,-1.568407555552516763e-01
5.490000000000000435e-01,3.126127953458081588e-01,-2.371238988030517914e-01,-8.122050432385537200e-02
5.500000000000000444e-01,2.944044887958866541e-01,-1.398682351695306469e-01,-1.149249005198020313e-01
5.510000000000000453e-01,2.081615831843191822e-01,-1.103408886182857956e-01,-8.552283710908178960e-02
5.520000000000000462e-01,1.127355087033670572e-02,-4.715038129889343593e-03,-2.130001010096812045e-02
5.530000000000000471e-01,-1.932890434896943899e-01,4.261829840088504628e-02,3.282181772762347849e-02
5.540000000000000480e-01,-2.776752996191622080e-01,1.074271233680185872e-01,1.043310014219627768e-01
5.550000000000000488e-01,-2.547145200361677908e-01,2.060189321006096752e-01,2.066729664639687380e-01
5.560000000000000497e-01,-1.502596158701348106e-01,2.628807242604012662e-01,2.122290514636504810e-01
5.570000000000000506e-01,-9.339003982004340232e-02,1.592364988320293939e-01,1.205310558381492980e-01
5.580000000000000515e-01,-2.218261534516343184e-02,1.703873417373134511e-02,-9.328188030491034238e-04
5.590000000000000524e-01,9.643258641055563185e-02,-1.508922259848485270e-01,-1.377995086530565683e-01
5.600000000000000533e-01,1.848898375940264960e-01,-2.502983158473778835e-01,-1.630993937234802849e-01
5.610000000000000542e-01,2.727768240997009985e-01,-2.338305791684100188e-01,-1.311012803075553013e-01
5.620000000000000551e-01,2.972429359447299468e-01,-1.131868160895713044e-01,-8.058131331569282074e-02
5.629999999999999449e-01,1.963031988717653109e-01,-5.727583875502499644e-02,-3.686172699992694424e-02
5.639999999999999458e-01,-3.993092644748866271e-02,2.776037117399696857e-02,-9.024056998877282021e-03
5.649999999999999467e-01,-2.425139476384793324e-01,7.264015373629861827e-02,3.051050407357793273e-02
5.659999999999999476e-01,-3.441854828415027989e-01,1.588710249277463515e-01,1.179394796530693207e-01
5.669999999999999485e-01,-2.789562189790544267e-01,1.758780486716803593e-01,1.757464317624579109e-01
5.679999999999999494e-01,-1.573646405312316421e-01,1.931368565173711693e-01,1.569909031557323864e-01
5.689999999999999503e-01,-5.958823830835159596e-03,8.718903522619840529e-02,9.311578592027880408e-02
5.699999999999999512e-01,5.368284147782110410e-02,-1.373588101399300133e-02,-2.732708017736843603e-02
5.709999999999999520e-01,1.304332580352766946e-01,-1.927379624262585689e-01,-1.362302522343569189e-01
5.719999999999999529e-01,1.888402951374061334e-01,-2.753105274132057190e-01,-1.670387734900790622e-01
5.729999999999999538e-01,2.182355837575123136e-01,-2.601600578378007733e-01,-1.418844272345244351e-01
5.739999999999999547e-01,2.325876371060630610e-01,-9.194752595789150440e-02,-6.949441072997654401e-02
5.749999999999999556e-01,1.469178528434378905e-01,4.972524704854552197e-02,2.032660765594924632e-02
5.759999999999999565e-01,-7.797117152823154762e-02,1.052830887898024009e-01,3.092848722442542025e-02
5.769999999999999574e-01,-2.512841239469130739e-01,1.743219765306987246e-01,7.012095988763122900e-02
5.779999999999999583e-01,-3.414492449868405388e-01,1.567266864093501688e-01,1.088867224568225434e-01
5.789999999999999591e-01,-2.966774387228750531e-01,1.655196941469015970e-01,1.657792543296511267e-01
5.799999999999999600e-01,-1.109219073862173777e-01,1.497106318092125965e-01,1.953176081161120681e-01
5.809999999999999609e-01,4.502151575735462152e-02,9.353799922601123418e-02,9.742208248731491771e-02
5.819999999999999618e-01,1.496446506179448799e-01,-7.542831870549276951e-02,-1.049508464809664234e-02
5.829999999999999627e-01,2.208694937888463494e-01,-1.780032088980427196e-01,-1.490891899930247011e-01
5.839999999999999636e-01,1.923393386491552837e-01,-2.934115835451430176e-01,-2.352591618227258263e-01
5.849999999999999645e-01,1.671152719896838446e-01,-2.160008288550752109e-01,-1.635784976318852835e-01
5.859999999999999654e-01,1.903578402768216493e-01,-6.803786107295624330e-02,-8.082109079500852944e-02
5.869999999999999662e-01,8.022290971022533190e-02,1.050688156862304712e-01,3.670985176857107651e-02
5.879999999999999671e-01,-6.771644829654410724e-02,1.796253354153248827e-01,5.925112678061148636e-02
5.889999999999999680e-01,-2.731741469694197177e-01,1.736072257569154786e-01,1.006076534723879395e-01
5.899999999999999689e-01,-3.461491740975948250e-01,1.594973456299486891e-01,7.650921661108196770e-02
5.909999999999999698e-01,-3.129798953834829200e-01,1.180712290349966581e-01,1.057973984376905513e-01
5.919999999999999707e-01,-9.600145020518263683e-02,1.017458106847622251e-01,1.063283135810236396e-01
5.929999999999999716e-01,1.253130807157537552e-01,5.810552548325294969e-02,6.013347781016189358e-02
5.939999999999999725e-01,2.449532852538382488e-01,-6.224273323717308126e-02,-4.694687771195958648e-02
5.949999999999999734e-01,2.633527956662504166e-01,-1.931737469407090457e-01,-1.449659597785301068e-01
5.959999999999999742e-01,1.634245909306673572e-01,-2.838249592068179950e-01,-2.246829409595490767e-01
5.969999999999999751e-01,1.508709039654526352e-01,-2.286603808879761890e-01,-2.145235208126708426e-01
5.979999999999999760e-01,1.342468171684675360e-01,-3.302225940602064591e-02,-9.355747209642850670e-02
5.989999999999999769e-01,4.216687908024556453e-02,1.166638707311185019e-01,2.080740891037005311e-02
5.999999999999999778e-01,-7.470119091731901306e-02,2.052494910495053504e-01,1.078999208843795521e-01
6.009999999999999787e-01,-2.466536036699011059e-01,2.391522203586938233e-01,1.531128263399189338e-01
6.019999999999999796e-01,-3.382339577205359382e-01,1.373771635011398484e-01,9.334857587282784086e-02
6.029999999999999805e-01,-2.970360018258915158e-01,2.988388128479876546e-02,1.030663044982612631e-01
6.039999999999999813e-01,-7.265656115320505426e-02,3.990900696671120101e-02,9.003255679493972485e-02
6.049999999999999822e-01,1.082073565034348539e-01,-4.931611278378718322e-02,5.064335572479346237e-02
6.059999999999999831e-01,3.044763345819773148e-01,-1.310103798658903973e-01,-7.963515667594661673e-02
6.069999999999999840e-01,2.857836425138574610e-01,-2.040775331868190379e-01,-1.356888528463009447e-01
6.079999999999999849e-01,1.785111720924230094e-01,-2.353126781484596031e-01,-1.927423836441808924e-01
6.089999999999999858e-01,8.028654410695616750e-02,-1.639197169900126760e-01,-1.721978499831000042e-01
6.099999999999999867e-01,3.296833526952396703e-02,-1.420841850527849136e-02,-6.923506247717436946e-02
6.109999999999999876e-01,-1.463975743374646560e-02,1.303954304574158618e-01,3.782852014194864471e-02
6.119999999999999885e-01,-1.224170655713643918e-01,2.649123572140141269e-01,1.439137144935112578e-01
6.129999999999999893e-01,-2.417736684381598389e-01,2.169695886836636722e-01,1.307879606124846827e-01
6.139999999999999902e-01,-3.319297568822134892e-01,1.028117318678715558e-01,1.229013674719946353e-01
6.149999999999999911e-01,-2.560823137795948945e-01,-7.453677354614504126e-03,7.993496111306643004e-02
6.159999999999999920e-01,-7.614143733704925587e-02,-5.646302528915243119e-02,4.132157169343699671e-02
6.169999999999999929e-01,1.431702970877693215e-01,-1.205270406635744057e-01,2.873373785519432733e-02
6.179999999999999938e-01,3.089196845306514394e-01,-1.460022794387650369e-01,-3.925830871332849220e-02
6.189999999999999947e-01,3.405071491784555371e-01,-1.846892015397910425e-01,-1.281159867533646080e-01
6.199999999999999956e-01,1.942581638450575077e-01,-1.742177430217582423e-01,-2.064235160894583032e-01
6.209999999999999964e-01,8.042205237051638922e-02,-9.662312058202768283e-02,-1.797709573383438619e-01
6.219999999999999973e-01,-5.694140504698657484e-02,-4.925151563143074715e-03,-1.086638376261309519e-01
6.229999999999999982e-01,-1.247145483886965833e-01,2.075295597522710533e-01,4.070348749341919786e-02
6.239999999999999991e-01,-1.175866941348599481e-01,2.802012685031823325e-01,1.633917655619830933e-01
6.250000000000000000e-01,-1.983331542944924142e-01,2.450918569924127599e-01,2.033629044044180934e-01
6.260000000000000009e-01,-2.595235476775314964e-01,1.090755167251941105e-01,1.594870709788323571e-01
6.270000000000000018e-01,-1.962730266330713347e-01,-3.671261500026234276e-02,6.549613085761736564e-02
6.280000000000000027e-01,-4.031982178283008422e-02,-1.084925654431570657e-01,2.203091387794050247e-03
6.290000000000000036e-01,1.419554805508733974e-01,-1.732339532035092611e-01,-5.818757284694196785e-02
6.300000000000000044e-01,3.296345049649275771e-01,-1.627770838974540446e-01,-3.531528006658286867e-02
6.310000000000000053e-01,3.311548094964065769e-01,-1.716677732799207490e-01,-8.330231058118937881e-02
6.320000000000000062e-01,2.151013771524648843e-01,-1.442720167056963376e-01,-1.663081811036398738e-01
6.330000000000000071e-01,5.357707838102727937e-02,-1.950775900937345986e-02,-1.649016322460374606e-01
6.340000000000000080e-01,-9.903625736635912613e-02,6.124144134233999726e-02,-7.868783647733512687e-02
6.350000000000000089e-01,-1.376516620591182738e-01,1.988598570083430772e-01,2.621532043127534559e-02
6.360000000000000098e-01,-1.942380620782193090e-01,2.762615634857886193e-01,1.253632640970296641e-01
6.370000000000000107e-01,-2.055760321135041424e-01,2.599034650748150432e-01,2.020979541317999562e-01
6.380000000000000115e-01,-1.933356136908122302e-01,6.914449595034691254e-02,1.327717457295947701e-01
6.390000000000000124e-01,-1.205672242539453654e-01,-9.932347373347288899e-02,5.072354359627254811e-02
6.400000000000000133e-01,-5.208278400301818815e-03,-1.584233293957354183e-01,-1.316868705836697802e-02
6.410000000000000142e-01,1.624249046216735826e-01,-1.762853313704864922e-01,-5.943193879109260475e-02
6.420000000000000151e-01,3.300649571211026756e-01,-1.422188198577491181e-01,-1.065017011983554057e-01
6.430000000000000160e-01,3.401787945458685236e-01,-1.382114951033832084e-01,-9.190276097409509626e-02
6.440000000000000169e-01,2.214146809868155763e-01,-7.573505992792202435e-02,-1.075126724850152260e-01
6.450000000000000178e-01,2.414071495495898056e-02,1.827741756771003589e-02,-1.157384857306802822e-01
6.460000000000000187e-01,-2.102072322937768856e-01,7.666086128718829773e-02,-8.226493505902543468e-02
6.470000000000000195e-01,-2.284194205773378006e-01,2.403013364331753332e-01,2.715275285299870167e-02
6.480000000000000204e-01,-2.116388492556910139e-01,2.517528934761503190e-01,1.418357105782417638e-01
6.490000000000000213e-01,-1.662083549166439300e-01,2.481232704389098320e-01,2.067926814303439886e-01
6.500000000000000222e-01,-1.328743923209420863e-01,5.227602683475256196e-02,2.021230832869511107e-01
6.510000000000000231e-01,-9.555995781505588482e-02,-1.490820014673436833e-01,7.924978240706886945e-02
6.520000000000000240e-01,2.063662360459605702e-02,-2.220458173677419822e-01,-2.892311799352330348e-02
6.530000000000000249e-01,1.715963670681035502e-01,-2.145226413414252631e-01,-1.139473765934222171e-01
6.540000000000000258e-01,3.265964990193997997e-01,-1.380451858140757382e-01,-1.152442017170993566e-01
6.550000000000000266e-01,3.438417188367672295e-01,-5.315111653065595493e-02,-1.070330237040911098e-01
6.560000000000000275e-01,2.026801879308714471e-01,2.023881687558782422e-02,-1.039740517190397284e-01
6.570000000000000284e-01,-1.561281044922046939e-02,4.222251932282796751e-03,-8.595677873597341867e-02
6.580000000000000293e-01,-2.142532993137218900e-01,1.182388238154754995e-01,-4.527765965754847882e-02
6.590000000000000302e-01,-2.750462253652787292e-01,2.284933986328644973e-01,9.917635044717456466e-03
6.600000000000000311e-01,-2.725738348420764234e-01,2.350866327725008309e-01,1.440396198432540298e-01
6.610000000000000320e-01,-1.252415364911686757e-01,1.587758114730950521e-01,2.041481442077355268e-01
6.620000000000000329e-01,-7.315896177442016146e-02,5.385299252180703738e-02,1.693765476152624405e-01
6.630000000000000338e-01,2.066928439083828492e-02,-1.538652515526375553e-01,1.430324547583374240e-01
6.640000000000000346e-01,8.641991567001279517e-02,-2.667257912504475970e-01,-4.752892542654755387e-02
6.650000000000000355e-01,1.725517340595522364e-01,-2.121013950728621589e-01,-1.575909669430828053e-01
6.660000000000000364e-01,2.913974843252786773e-01,-1.183567453421721094e-01,-1.649855575667387442e-01
6.670000000000000373e-01,2.856065793362237981e-01,-2.292416390565535714e-02,-1.374367066408668236e-01
6.680000000000000382e-01,1.617720254559042725e-01,4.227908240218349739e-02,-1.344485827865509464e-01
6.690000000000000391e-01,-4.197907015886944565e-02,1.260556025232811017e-01,-4.146131133262876550e-02
6.700000000000000400e-01,-2.481727060065516410e-01,1.298003929876721252e-01,-3.204383684366502588e-02
6.710000000000000409e-01,-3.539434031838943340e-01,1.924410740309391854e-01,3.826419445800927077e-02
6.720000000000000417e-01,-2.628400456097577109e-01,2.065590686914156593e-01,1.122635524272426050e-01
6.730000000000000426e-01,-1.265018003175996664e-01,1.201177572547206113e-01,1.942659789370579926e-01
6.740000000000000435e-01,6.251475021483025689e-03,-1.557060351568511324e-02,1.499763011938366475e-01
6.750000000000000444e-01,8.096829885289809348e-02,-1.792786759643632821e-01,1.229932312649490850e-01
6.760000000000000453e-01,1.359330381230091922e-01,-2.949309650305062536e-01,-8.146143350642310113e-03
6.770000000000000462e-01,1.881895237596075687e-01,-2.373613113288785825e-01,-1.321106087012525743e-01
6.780000000000000471e-01,2.082690159064345958e-01,-1.264559335814085805e-01,-2.091616864878250714e-01
6.790000000000000480e-01,2.537884490907575397e-01,6.124093686700662897e-02,-1.502573712771689551e-01
6.800000000000000488e-01,1.538156798462325114e-01,1.278089773323439760e-01,-6.838230576699431962e-02
6.810000000000000497e-01,-6.020208148007726717e-02,1.370452406922671174e-01,-1.178669862706087368e-03
6.820000000000000506e-01,-2.681808973652108907e-01,1.582223416632979884e-01,3.331076138403599174e-02
6.830000000000000515e-01,-3.628822523829801638e-01,1.330644021135088395e-01,7.360545955382526151e-02
6.840000000000000524e-01,-3.039621592595707078e-01,1.658476416270468212e-01,1.223570562017035068e-01
6.850000000000000533e-01,-1.201051736524035851e-01,7.365745222772468459e-02,1.789870550230952262e-01
6.860000000000000542e-01,3.863405631958927861e-02,-8.694222282388970602e-02,1.704382592882263958e-01
6.870000000000000551e-01,1.754633647417908893e-01,-1.794934122646673902e-01,1.290655109211311102e-01
6.879999999999999449e-01,2.007885965348316093e-01,-3.133616810691061128e-01,-5.313515387457427158e-02
6.889999999999999458e-01,1.558285157426609613e-01,-2.636864895973460299e-01,-1.506302196123040504e-01
6.899999999999999467e-01,1.869566401626995555e-01,-7.227513649600179890e-02,-2.391454527497797189e-01
6.909999999999999476e-01,1.747396024071256604e-01,8.519837356709397680e-02,-1.706636078496186759e-01
6.919999999999999485e-01,1.023820275179255501e-01,1.619071077395060898e-01,-6.357818649746244111e-02
6.929999999999999494e-01,-9.375018396455463143e-02,2.142338168385931885e-01,1.559522283948193248e-02
6.939999999999999503e-01,-2.775119227447923609e-01,1.271668764520170469e-01,8.638406583148963702e-02
6.949999999999999512e-01,-3.366238702489481316e-01,1.596133023601595535e-01,8.421721579303979854e-02
6.959999999999999520e-01,-2.938715965309444678e-01,1.223080587848007911e-01,1.253197180248842579e-01
6.969999999999999529e-01,-1.169660626183939567e-01,4.476641030776844221e-02,1.196353027464362728e-01
6.979999999999999538e-01,6.928143806037381780e-02,-1.048589309193177083e-01,8.430900797552956516e-02
6.989999999999999547e-01,2.297852176680454939e-01,-2.237059980350726840e-01,7.303257342963226373e-02
6.999999999999999556e-01,2.362301603154261243e-01,-2.795031699474727627e-01,-3.130373264188550907e-03
7.009999999999999565e-01,2.075328387567137445e-01,-1.960277307750243336e-01,-1.459154764056277420e-01
7.019999999999999574e-01,1.354736040235166861e-01,-3.103196929026849973e-02,-2.100891446166165966e-01
7.029999999999999583e-01,1.338909028276339119e-01,1.308690741775352939e-01,-1.748522978240024117e-01
7.039999999999999591e-01,3.740345081949481010e-02,2.117496768129833173e-01,-1.014061026940714372e-01
7.049999999999999600e-01,-9.682637492648467348e-02,2.109721533545030614e-01,5.122162839202873408e-02
7.059999999999999609e-01,-2.642613553315990016e-01,9.001172270616762672e-02,1.474305987769244097e-01
7.069999999999999618e-01,-3.126147124530628263e-01,7.325448630895965707e-02,1.566088876239882799e-01
7.079999999999999627e-01,-2.488039009028858994e-01,8.630571447717722347e-03,1.261495926666768297e-01
7.089999999999999636e-01,-9.626243443090004570e-02,-1.321212002226562592e-02,1.257220748606930616e-01
7.099999999999999645e-01,1.434621637354611123e-01,-1.357408490880575858e-01,6.357758021111847846e-02
7.109999999999999654e-01,2.334757759164747815e-01,-2.057032112963614878e-01,4.918939513890823595e-02
7.119999999999999662e-01,2.927997742460812791e-01,-2.411550482544041474e-01,8.876800108624214886e-04
7.129999999999999671e-01,1.896810955549418642e-01,-2.115487744877359577e-01,-9.948800430219578717e-02
7.139999999999999680e-01,9.102987448057499320e-02,-3.672102826814032522e-02,-1.651850029916129836e-01
7.149999999999999689e-01,2.202948206985322691e-02,2.020652533513811466e-01,-1.608101874904425688e-01
7.159999999999999698e-01,-1.267794751630858287e-02,2.862980016100865610e-01,-1.216912390710354758e-01
7.169999999999999707e-01,-1.014597924372021148e-01,2.303526422844777433e-01,1.552530046376631237e-02
7.179999999999999716e-01,-2.516222332058553057e-01,1.173192728601805818e-01,9.714796027486188867e-02
7.189999999999999725e-01,-3.068797768008703075e-01,4.055895503140070218e-02,1.745696483456031789e-01
7.199999999999999734e-01,-2.514503266844144158e-01,-5.331998002893313660e-02,1.278284715904731972e-01
7.209999999999999742e-01,-6.048439144638637771e-02,-9.379257418856773443e-02,9.540119770815802536e-02
7.219999999999999751e-01,1.552792074798500788e-01,-1.815022875186664275e-01,4.970499301377066109e-02
7.229999999999999760e-01,3.134085466811004084e-01,-1.948830631224304222e-01,3.654731381452820671e-02
7.239999999999999769e-01,2.937940598702460937e-01,-2.210458319148900230e-01,-5.816377158554789789e-02
7.249999999999999778e-01,2.255235996910056884e-01,-1.186392065761032594e-01,-9.655210088763109544e-02
7.259999999999999787e-01,7.675076305772252083e-02,1.695329936627028647e-02,-1.399113607559669958e-01
7.269999999999999796e-01,-6.091007605228720978e-02,2.075688219881813845e-01,-1.851875518246918761e-01
7.279999999999999805e-01,-1.173152427001006443e-01,2.969370186821855273e-01,-6.975322198224270798e-02
7.289999999999999813e-01,-1.325197117487498799e-01,2.392586546385842006e-01,5.479291300811104520e-02
7.299999999999999822e-01,-2.243412370034811865e-01,1.208585680738447493e-01,1.147890488007338172e-01
7.309999999999999831e-01,-2.636286348818716041e-01,-4.507641195516370186e-02,1.929882573212402253e-01
7.319999999999999840e-01,-2.319557038656377967e-01,-1.554243325130697517e-01,1.512751157124074541e-01
7.329999999999999849e-01,-6.298293169495992883e-02,-1.706181174318958382e-01,6.410005237851630622e-02
7.339999999999999858e-01,1.629244511937530948e-01,-1.289221990684560060e-01,-1.350143360236624431e-03
7.349999999999999867e-01,3.362238290973578181e-01,-1.563508955071905293e-01,-4.990660032586712730e-02
7.359999999999999876e-01,3.379888512441219794e-01,-1.490417023981907563e-01,-5.022520622545210978e-02
7.369999999999999885e-01,2.225261396828193128e-01,-5.166937015667213973e-02,-9.109833201717533468e-02
7.379999999999999893e-01,1.929439614459180566e-02,7.956812471010125953e-02,-1.538156895375100974e-01
7.389999999999999902e-01,-1.218560014010003495e-01,1.924851172571947766e-01,-1.652826091968399858e-01
7.399999999999999911e-01,-1.930315369934594294e-01,3.039850710555385138e-01,-9.106143892992485389e-02
7.409999999999999920e-01,-1.532116246471071919e-01,2.620464633609047023e-01,6.023191415263602633e-02
7.419999999999999929e-01,-2.081304377857523535e-01,3.088898284527683696e-02,1.402115888645777964e-01
7.429999999999999938e-01,-1.709853228422413829e-01,-1.022749597776016484e-01,2.237807742002285993e-01
7.439999999999999947e-01,-1.482882187295468390e-01,-2.188625032411489757e-01,1.931890939157485110e-01
7.449999999999999956e-01,-4.103695489510769678e-03,-1.901600921600569150e-01,1.174695262430822534e-01
7.459999999999999964e-01,2.064991107406723148e-01,-1.125248592818907378e-01,-4.076777439755684823e-02
7.469999999999999973e-01,3.090904400184809053e-01,-8.174243565657351995e-02,-6.108781134501409249e-02
7.479999999999999982e-01,3.440270760729384758e-01,-9.347905168058649739e-02,-7.969736109126111800e-02
7.489999999999999991e-01,2.163902447315681210e-01,3.806867146043938031e-03,-1.479283641314760034e-01
7.500000000000000000e-01,-3.483038466139235650e-03,1.057851989064233084e-01,-1.192611740245867746e-01
7.510000000000000009e-01,-1.717403136452990142e-01,2.068065713130883554e-01,-1.192073902082659564e-01
7.520000000000000018e-01,-2.259427517697661647e-01,2.871797927357934710e-01,-7.918225173110526871e-02
7.530000000000000027e-01,-2.028889184259325962e-01,2.098497225220243567e-01,-1.503926345650603846e-02
7.540000000000000036e-01,-1.776028831457695245e-01,5.739360751059541937e-02,1.064476464818186197e-01
7.550000000000000044e-01,-1.260829524477766195e-01,-1.456235633883276315e-01,2.131417752786473052e-01
7.560000000000000053e-01,-9.264302343430083631e-02,-2.154824207790406732e-01,2.254310444798196811e-01
7.570000000000000062e-01,2.591286314478472019e-02,-1.726332962690757811e-01,9.496996775550485548e-02
7.580000000000000071e-01,1.908651041814334870e-01,-1.578320274767452680e-01,-2.024758192203346754e-02
7.590000000000000080e-01,3.323250265250363711e-01,-6.147278634256804486e-02,-1.152867097320175865e-01
7.600000000000000089e-01,3.434110356715786017e-01,5.064361125295920203e-03,-1.346203855509101599e-01
7.610000000000000098e-01,1.853765686816471747e-01,6.738667065208227280e-02,-1.012867175407386466e-01
7.620000000000000107e-01,-5.126683654148990466e-02,1.077412502802921473e-01,-1.046210627731070514e-01
7.630000000000000115e-01,-2.213780048853282445e-01,1.938052870837115582e-01,-8.688368020848036277e-02
7.640000000000000124e-01,-2.844256898733056871e-01,2.309690310501976984e-01,-3.846828325853646202e-02
7.650000000000000133e-01,-2.563733610216028524e-01,1.518987375210429092e-01,2.686980883445341459e-02
7.660000000000000142e-01,-1.721335753058873264e-01,2.178232846834364175e-02,9.984218254928187153e-02
7.670000000000000151e-01,-5.360198516349924669e-02,-1.629447944432209361e-01,1.817433345329010075e-01
7.680000000000000160e-01,-1.459026593420742436e-03,-2.793122578386660337e-01,1.805290124401482954e-01
7.690000000000000169e-01,8.221927595836139857e-02,-2.244090156835056860e-01,1.344214853575633195e-01
7.700000000000000178e-01,1.501383284927761963e-01,-1.248346353043039564e-01,-1.208697659125418725e-02
7.710000000000000187e-01,2.772483230871428672e-01,-2.737642848125071415e-02,-1.320651210831374489e-01
7.720000000000000195e-01,2.797274125936176081e-01,4.777399367780049005e-02,-1.600009397921764998e-01
7.730000000000000204e-01,1.692934328143838874e-01,1.164082381843657976e-01,-1.609407407517647326e-01
7.740000000000000213e-01,-5.254448099708285136e-02,1.374137821489062883e-01,-8.520796095153072847e-02
7.750000000000000222e-01,-2.633712257957759872e-01,2.357315524678401941e-01,-1.135635379662281071e-02
7.760000000000000231e-01,-3.169238073327270144e-01,1.900164921613615998e-01,1.316163176415931051e-02
7.770000000000000240e-01,-2.874679126817339947e-01,1.339120403668214720e-01,4.210648355913514107e-02
7.780000000000000249e-01,-1.132890899781550664e-01,-6.711470342879344297e-02,1.094936636679346847e-01
7.790000000000000258e-01,-2.590954879468423261e-02,-1.714943044933906480e-01,1.440709905189708762e-01
7.800000000000000266e-01,4.283672604388532451e-02,-2.650148161559917059e-01,1.544177255652108005e-01
7.810000000000000275e-01,1.254568915732853507e-01,-2.115273444467624941e-01,1.422223199001725058e-01
7.820000000000000284e-01,1.897219464567896086e-01,-7.903355442963037880e-02,-5.391150167526052167e-02
7.830000000000000293e-01,2.382968173904191078e-01,4.553046772064966302e-02,-1.778184015174451016e-01
7.840000000000000302e-01,2.659354701041511393e-01,1.155002021555823766e-01,-2.180088900372909033e-01
7.850000000000000311e-01,1.505618711606771798e-01,1.521426818452579766e-01,-1.479357242770762138e-01
7.860000000000000320e-01,-2.815849642849408210e-02,1.518683779975827930e-01,-9.566612097075391508e-02
7.870000000000000329e-01,-2.294433447166581985e-01,1.663370339282812527e-01,-3.901334774801240579e-02
7.880000000000000338e-01,-3.361049243584760537e-01,1.487659772793512580e-01,3.617986367294639266e-02
7.890000000000000346e-01,-2.956381981129776459e-01,1.023203511826122070e-01,7.175432368794763816e-02
7.900000000000000355e-01,-9.088791219735065097e-02,-8.377761074118525442e-02,1.078891215071309528e-01
7.910000000000000364e-01,8.304401235628830480e-02,-1.986749878364142963e-01,1.279271974942581824e-01
7.920000000000000373e-01,1.735668217404351121e-01,-2.996978847498147913e-01,1.547081961746014644e-01
7.930000000000000382e-01,1.701141728615103432e-01,-2.517945332986770701e-01,4.521766808166481633e-02
7.940000000000000391e-01,1.756735356071477128e-01,-4.279359001840753185e-02,-1.211743495869382209e-02
7.950000000000000400e-01,2.006306153393077607e-01,7.489496535054723791e-02,-1.165721485585086287e-01
7.960000000000000409e-01,1.602196248840342396e-01,1.828952604308029806e-01,-2.242584773776119811e-01
7.970000000000000417e-01,1.378300447227733816e-01,1.638966441102725768e-01,-1.659369091487084280e-01
7.980000000000000426e-01,-7.566046065179506119e-02,1.571457847421823539e-01,-6.011333488309040379e-02
7.990000000000000435e-01,-2.382123695385175988e-01,1.112800515951410385e-01,-3.776949830622580630e-03
8.000000000000000444e-01,-3.588199474279719081e-01,7.675419330936933404e-02,5.642745001747288824e-02
8.010000000000000453e-01,-2.931119082502877671e-01,-1.124165307892716417e-02,8.568970385573079773e-02
8.020000000000000462e-01,-1.069384712117870811e-01,-1.067860773808435720e-01,9.490125670530151492e-02
8.030000000000000471e-01,9.167411761404223314e-02,-2.197691694754979330e-01,1.408653207636468563e-01
8.040000000000000480e-01,2.198718894120667011e-01,-2.565478321970223741e-01,1.215937210226727544e-01
8.050000000000000488e-01,1.979071585792552823e-01,-2.280398776226377211e-01,9.742877645872749515e-02
8.060000000000000497e-01,1.842217813598022724e-01,-5.205744686715163549e-02,-2.196350398406851992e-02
8.070000000000000506e-01,1.510378632550887501e-01,1.682277070717488887e-01,-1.550227299298249928e-01
8.080000000000000515e-01,1.277519932490348842e-01,2.492193167587518354e-01,-1.982355839139182396e-01
8.090000000000000524e-01,4.188360602530310367e-02,2.410652844089029023e-01,-2.133975801389597915e-01
8.100000000000000533e-01,-8.422946255071224464e-02,1.255209827195813976e-01,-9.578302880702097011e-02
8.110000000000000542e-01,-2.528856920171490552e-01,5.122053087410731453e-02,4.047994979371630740e-03
8.120000000000000551e-01,-3.521570094382898142e-01,-1.054366494595770573e-02,1.072731313947453691e-01
8.129999999999999449e-01,-2.820008952328988960e-01,-3.142554706542300541e-02,1.230871586728555511e-01
8.139999999999999458e-01,-8.363773088830661617e-02,-1.230918683377858341e-01,1.170940553186111538e-01
8.149999999999999467e-01,1.571759198206122421e-01,-2.240992743972679557e-01,1.046062226153137154e-01
8.159999999999999476e-01,2.829469478096802715e-01,-2.586910943218276859e-01,6.451474031355387828e-02
8.169999999999999485e-01,2.780841023661682621e-01,-1.555174459556145639e-01,5.573761812521907388e-02
8.179999999999999494e-01,2.398476515914590990e-01,-7.787301121473071130e-04,-2.325170107683884393e-02
8.189999999999999503e-01,7.805424423988714666e-02,1.799010313923553317e-01,-1.585914876810456398e-01
8.199999999999999512e-01,5.607352469504092024e-02,2.416808293666282137e-01,-2.071485598735834932e-01
8.209999999999999520e-01,-4.440015090530816805e-02,2.423890876033791553e-01,-2.085188749915141138e-01
8.219999999999999529e-01,-1.527042815788026697e-01,1.199219710482281875e-01,-8.333566609743998932e-02
8.229999999999999538e-01,-2.296902255831723416e-01,-2.082793129246635847e-03,-3.263458743970090292e-03
8.239999999999999547e-01,-3.048798684737982767e-01,-6.729072899444074607e-02,1.616231848681264904e-01
8.249999999999999556e-01,-2.785893321225296759e-01,-8.597838298349994024e-02,1.928367432702652595e-01
8.259999999999999565e-01,-9.555986087263915185e-02,-1.495657049153525375e-01,1.410166389723654101e-01
8.269999999999999574e-01,1.526582291850932804e-01,-2.134796004404939107e-01,9.585176985931180560e-02
8.279999999999999583e-01,3.262474094897393484e-01,-2.026659538757422663e-01,4.140060882300618944e-03
8.289999999999999591e-01,3.216610017789860998e-01,-1.331745594952045697e-01,3.762083431516805715e-02
8.299999999999999600e-01,1.904653894666670511e-01,4.020118081109615160e-02,-4.753390809542348827e-02
8.309999999999999609e-01,6.542806986199839470e-02,2.081169616334905548e-01,-1.102656092624956230e-01
8.319999999999999618e-01,-4.172646438779416267e-02,2.881361404472672638e-01,-1.974703302404214322e-01
8.329999999999999627e-01,-6.618343967742874867e-02,2.351196363864328787e-01,-1.821628214546690272e-01
8.339999999999999636e-01,-1.374861563239824225e-01,1.154662409161202191e-01,-1.034637384454392683e-01
8.349999999999999645e-01,-2.113726348511457409e-01,-5.954993250233312635e-02,2.602335469409881169e-02
8.359999999999999654e-01,-2.705494201975558455e-01,-1.146326258888346467e-01,1.240524375245111860e-01
8.369999999999999662e-01,-2.219084436874351196e-01,-1.363869176951439666e-01,2.021309784947357691e-01
8.379999999999999671e-01,-9.102804194204348887e-02,-1.458492345442370941e-01,1.764840713105202685e-01
8.389999999999999680e-01,1.616768811804291939e-01,-1.293662284172419907e-01,1.105586975257241977e-01
8.399999999999999689e-01,3.279883530939381453e-01,-1.368189622972235675e-01,2.767477365487405749e-02
8.409999999999999698e-01,3.202143503102511390e-01,-5.967385069073434523e-02,-3.778457077053547220e-02
8.419999999999999707e-01,2.143994559259341237e-01,9.544959187900765862e-02,-7.282771542694888023e-02
8.429999999999999716e-01,1.443911804737877183e-02,2.144991898653632045e-01,-6.336337349668631769e-02
8.439999999999999725e-01,-1.091784258999611984e-01,2.698260751376578281e-01,-1.219787105000722655e-01
8.449999999999999734e-01,-1.315870676880862844e-01,2.542313053731551364e-01,-1.621738876518564187e-01
8.459999999999999742e-01,-1.673389824473158205e-01,8.527800555664775961e-02,-8.132799519454486648e-02
8.469999999999999751e-01,-1.497963864659712374e-01,-9.819226447567380722e-02,5.112972883490014830e-02
8.479999999999999760e-01,-2.059455016854526976e-01,-1.859078284342094156e-01,1.354618294874992968e-01
8.489999999999999769e-01,-1.601209122363072834e-01,-1.640725622868923483e-01,2.147138126356097076e-01
8.499999999999999778e-01,-3.158355802369862408e-02,-1.417074358162747627e-01,1.753642561171897540e-01
8.509999999999999787e-01,1.936037176443397290e-01,-8.963336407167755981e-02,1.125929548228114530e-01
8.519999999999999796e-01,3.550283715949739127e-01,-9.326531147560497559e-02,1.171067887642766392e-03
8.529999999999999805e-01,3.541154446216500107e-01,1.769545274731287171e-02,-1.237565193870344693e-01
8.539999999999999813e-01,2.025884508614677892e-01,1.085524147201966938e-01,-7.933772476646513971e-02
8.549999999999999822e-01,-6.671316481385514835e-03,2.353639925393326560e-01,-1.008488829859982699e-01
8.559999999999999831e-01,-1.549082639825356544e-01,2.753654766226300010e-01,-1.278333838217715346e-01
8.569999999999999840e-01,-2.535111221228062983e-01,1.883168566683603995e-01,-1.203826283430294297e-01
8.579999999999999849e-01,-2.072252599177592525e-01,2.961045275415715577e-02,-9.109739523771269443e-02
8.589999999999999858e-01,-1.609853919441337211e-01,-1.494200822204221624e-01,2.167766119830366253e-02
8.599999999999999867e-01,-1.899502469112668290e-01,-2.147512714236850528e-01,1.307011722011254817e-01
8.609999999999999876e-01,-1.001981433111341913e-01,-2.194711583371823094e-01,2.004097154289928573e-01
8.619999999999999885e-01,3.468864726963570566e-02,-1.126610665455569510e-01,1.821872754056742261e-01
8.629999999999999893e-01,1.657934590106980022e-01,-3.626325274966364642e-02,1.009524827806577985e-01
8.639999999999999902e-01,3.118297320928536953e-01,-3.388242567323443422e-02,5.257797559648276324e-03
8.649999999999999911e-01,2.968364554471834005e-01,5.038253112518964461e-02,-9.846783689870806933e-02
8.659999999999999920e-01,2.373793703019554946e-01,1.228116343250994780e-01,-1.058073267992629823e-01
8.669999999999999929e-01,-8.038275238232485062e-03,2.198296923578305639e-01,-1.255510303920528981e-01
8.679999999999999938e-01,-2.127401124170130164e-01,2.130164940115321925e-01,-9.334824293439886178e-02
8.689999999999999947e-01,-2.947888707703226197e-01,1.661134078096410394e-01,-7.998088124146809919e-02
8.699999999999999956e-01,-2.525469555799189636e-01,-2.832898055473306864e-02,-8.254386647615076511e-02
8.709999999999999964e-01,-1.562063779603692082e-01,-1.659771711216292134e-01,1.976918770746535770e-02
8.719999999999999973e-01,-4.773690938584886079e-02,-2.465524173303583200e-01,8.233019617025597037e-02
8.729999999999999982e-01,3.019167471694223989e-02,-2.496884341639938609e-01,1.887350312687580967e-01
8.739999999999999991e-01,9.474925860248582798e-02,-8.612317232334636141e-02,1.973849116611807175e-01
8.750000000000000000e-01,1.885617482540244971e-01,-2.149873408812502662e-02,1.120334133770637397e-01
8.760000000000000009e-01,2.719970547844432485e-01,4.516365776496975709e-02,-3.731580799975154489e-02
8.770000000000000018e-01,2.942878335478288920e-01,1.107309008134110262e-01,-1.282678725457719604e-01
8.780000000000000027e-01,1.609695896956330474e-01,1.513844597247018531e-01,-1.635359578252433277e-01
8.790000000000000036e-01,-2.598385655243262704e-02,1.724031696430327332e-01,-1.547282577008378124e-01
8.800000000000000044e-01,-2.487107828439496515e-01,1.753021902818280298e-01,-1.036327099976360050e-01
8.810000000000000053e-01,-3.241037964767061186e-01,1.074905878409011112e-01,-2.985046715666065179e-02
8.820000000000000062e-01,-2.549906938119397282e-01,-4.379824358477644314e-02,2.717383849449074920e-02
8.830000000000000071e-01,-1.276120242207361422e-01,-2.174591279438267133e-01,3.567914433025789339e-02
8.840000000000000080e-01,-1.632130579149149857e-02,-2.778190263963692952e-01,1.072658050448179051e-01
8.850000000000000089e-01,8.664888451558183657e-02,-2.389840891339687357e-01,1.867148879363257630e-01
8.860000000000000098e-01,1.321562781509747209e-01,-8.886114423517632588e-02,1.930099387973453484e-01
8.870000000000000107e-01,1.538177071804815998e-01,3.119816096243079734e-02,1.011533104172637060e-01
8.880000000000000115e-01,2.617238928508328621e-01,1.228618318599881687e-01,-2.935886102527803312e-02
8.890000000000000124e-01,2.299102031077289443e-01,1.431532300214094500e-01,-1.568428382963538703e-01
8.900000000000000133e-01,1.316253798206378500e-01,1.484058748788998627e-01,-2.123330155700325905e-01
8.910000000000000142e-01,-8.614557082784281283e-02,1.611763998131557074e-01,-1.621917017540951411e-01
8.920000000000000151e-01,-2.742695576601022478e-01,1.326484314812367837e-01,-1.008131604324107450e-01
8.930000000000000160e-01,-3.548523221589462429e-01,8.959062514426342771e-02,-9.774257492024060121e-03
8.940000000000000169e-01,-2.930438046619632253e-01,-7.974480633726337142e-02,3.655645787602888191e-02
8.950000000000000178e-01,-1.240976765286714439e-01,-2.262041801636694160e-01,7.434039106122304619e-02
8.960000000000000187e-01,6.285343195746019573e-02,-3.092531593732856798e-01,1.292811715370497938e-01
8.970000000000000195e-01,1.518239888088227241e-01,-2.209320929617817064e-01,1.338107646777963178e-01
8.980000000000000204e-01,1.576081464955657874e-01,-3.484147501077623776e-02,1.668276976500405184e-01
8.990000000000000213e-01,2.129005171521484441e-01,8.059927119636101089e-02,1.142498640220970529e-01
9.000000000000000222e-01,1.664153719316991964e-01,1.886463681166459239e-01,-1.779924021653967944e-02
9.010000000000000231e-01,2.042676152822386904e-01,1.719503961519433799e-01,-1.490385307289210925e-01
9.020000000000000240e-01,1.149374772458603700e-01,1.728834194227443777e-01,-2.221759269666702397e-01
9.030000000000000249e-01,-7.857869190403797555e-02,1.088443372252687336e-01,-1.662263802325735784e-01
9.040000000000000258e-01,-2.354879290043685736e-01,6.104760583548543562e-02,-7.684907610863292438e-02
9.050000000000000266e-01,-3.667986161578237203e-01,1.368817365384400637e-02,3.652372290758920930e-03
9.060000000000000275e-01,-2.887080195350932299e-01,-9.947352349341562205e-02,1.181916396991000151e-01
9.070000000000000284e-01,-1.035616620977609786e-01,-1.748087113711863649e-01,8.772038931630310454e-02
9.080000000000000293e-01,1.404599576491460944e-01,-2.650816210010277785e-01,6.471779398935660621e-02
9.090000000000000302e-01,2.497066420674984299e-01,-2.197943796275657613e-01,1.122298945136403214e-01
9.100000000000000311e-01,2.150533176484710485e-01,6.368725428105861085e-03,1.217952551917967363e-01
9.110000000000000320e-01,2.095628023055197409e-01,1.480155750335560016e-01,8.893667147451304877e-02
9.120000000000000329e-01,1.215064121890904042e-01,2.533980752319462404e-01,-2.706843776820724076e-03
9.130000000000000338e-01,1.369743431745898132e-01,1.939703300383371076e-01,-1.250851276029767978e-01
9.140000000000000346e-01,4.180065870818926166e-02,1.170891442589916676e-01,-2.113973788053802871e-01
9.150000000000000355e-01,-7.044862845916366467e-02,2.914747588323409258e-02,-2.035372882387179450e-01
9.160000000000000364e-01,-2.602792152519035618e-01,3.016652314339356936e-03,-1.005376139091709448e-01
9.170000000000000373e-01,-3.216873725269282502e-01,-8.951992368456029858e-02,3.881777349852458953e-02
9.180000000000000382e-01,-2.669962874448947310e-01,-1.349757738558844122e-01,7.746052653581855796e-02
9.190000000000000391e-01,-7.451120695073996936e-02,-2.113049020187904858e-01,1.673392451272665837e-01
9.200000000000000400e-01,1.221395289907125092e-01,-2.421090653206696419e-01,1.005834928822280511e-01
9.210000000000000409e-01,2.642102808769788425e-01,-1.387671707959086120e-01,1.144071666278951988e-01
9.220000000000000417e-01,2.722489967110263143e-01,1.550265320714741026e-02,8.602943538961445313e-02
9.230000000000000426e-01,1.984042964878320603e-01,1.839752751453045954e-01,2.381619383610016766e-02
9.240000000000000435e-01,7.762261749127444266e-02,2.360091409316043831e-01,-1.291423026661158921e-02
9.250000000000000444e-01,2.073378531143845252e-02,2.100256335791355067e-01,-1.201252549123593694e-01
9.260000000000000453e-01,-3.227757158139447653e-03,1.186562266736701510e-01,-1.752160978479399278e-01
9.270000000000000462e-01,-1.257515814841391744e-01,-1.038771155786656283e-02,-1.840717993391831619e-01
9.280000000000000471e-01,-2.149506371234072566e-01,-4.957109319516988383e-02,-1.039696474181761032e-01
9.290000000000000480e-01,-2.945444193971196722e-01,-7.407692343534770518e-02,4.267932045238525401e-02
9.300000000000000488e-01,-2.556710393715137530e-01,-1.471219411454026127e-01,1.256314924291767887e-01
9.310000000000000497e-01,-7.053532562632568170e-02,-2.004735806785936381e-01,1.793281194014595403e-01
9.320000000000000506e-01,1.594041775941737737e-01,-1.770321771881694928e-01,1.310903040071484393e-01
9.330000000000000515e-01,3.300278107805231231e-01,-1.239397959283873724e-01,7.547435708490109196e-02
9.340000000000000524e-01,3.182282063506086112e-01,6.542014606296053802e-02,5.959480025745952231e-02
9.350000000000000533e-01,1.821651631438047370e-01,2.038001616071817290e-01,1.401310421120155643e-02
9.360000000000000542e-01,4.866192124682860998e-02,2.856005972128152770e-01,-2.519671172878294035e-02
9.370000000000000551e-01,-9.180419528279530617e-02,2.412586954198379929e-01,-1.107894860999153047e-01
9.379999999999999449e-01,-8.440991362148532462e-02,6.753045536267741900e-02,-1.818019052230935573e-01
9.389999999999999458e-01,-1.430582441052004883e-01,-5.837179320019648260e-02,-1.832522947850017681e-01
9.399999999999999467e-01,-2.024605424488985228e-01,-1.190608689459142361e-01,-1.335013703834495857e-01
9.409999999999999476e-01,-2.572774617140549669e-01,-1.450576940462219855e-01,2.766876186600664492e-02
9.419999999999999485e-01,-2.184426750804911999e-01,-1.475829392123007844e-01,1.789271845429235286e-01
9.429999999999999494e-01,-6.000180523854867914e-02,-1.446073796980757997e-01,1.802209167941060952e-01
9.439999999999999503e-01,2.008371260647177359e-01,-1.645643663159313264e-01,1.701237825148529670e-01
9.449999999999999512e-01,3.255615633620115301e-01,-7.089694906722106282e-02,6.949382849993362976e-02
9.459999999999999520e-01,3.244179050488799620e-01,1.154936256394958199e-01,2.193911664733937811e-02
9.469999999999999529e-01,1.994669566539514494e-01,2.306907275755274433e-01,-2.050836654670505632e-02
9.479999999999999538e-01,1.078048981443699775e-02,3.001997851508633186e-01,-3.828410730377149185e-02
9.489999999999999547e-01,-1.423031729680633850e-01,2.050177191734069426e-01,-9.696237594243690971e-02
9.499999999999999556e-01,-1.688749358030254277e-01,3.178337794215471690e-02,-1.698181558895845433e-01
9.509999999999999565e-01,-1.759418521149625492e-01,-1.263055415340934295e-01,-1.428740652724433957e-01
9.519999999999999574e-01,-1.944282667680873877e-01,-1.963609731913993350e-01,-1.028586269450321861e-01
9.529999999999999583e-01,-1.859008030046234994e-01,-1.855514537314372214e-01,-4.092076631953833928e-03
9.539999999999999591e-01,-1.650610498116344138e-01,-1.377451743131033746e-01,1.357622950397611161e-01
9.549999999999999600e-01,-5.865358631019782637e-02,-8.600398824251159757e-02,2.008768029970662006e-01
9.559999999999999609e-01,1.547806206741950130e-01,-8.242693862091826640e-02,2.026450193255414645e-01
9.569999999999999618e-01,3.378420635035244146e-01,2.764750172975362005e-02,8.098608217496350292e-02
9.579999999999999627e-01,3.769168510782337500e-01,1.057926942300384393e-01,6.376480351430679171e-03
9.589999999999999636e-01,2.168067511709618478e-01,2.467401727489806351e-01,-9.139944437366867569e-02
9.599999999999999645e-01,9.786268059922408058e-03,2.414023373480138346e-01,-1.090139370301836247e-01
9.609999999999999654e-01,-2.012850802766681657e-01,1.805558163673405547e-01,-1.254470726796736713e-01
9.619999999999999662e-01,-2.444008365569343977e-01,-9.306427335867533800e-05,-1.190771412381447375e-01
9.629999999999999671e-01,-2.038375899668865288e-01,-1.586575432415344156e-01,-1.627354427127332692e-01
9.639999999999999680e-01,-1.847525847770592478e-01,-2.608505417574185636e-01,-6.319336093772093266e-02
9.649999999999999689e-01,-1.280467196529270213e-01,-2.142826255841483174e-01,1.727019641082983697e-02
9.659999999999999698e-01,-1.021566345310153806e-01,-1.513873177468528231e-01,1.201128930281227664e-01
9.669999999999999707e-01,5.325145178302110802e-03,-8.462001707298526243e-02,2.189277706756094233e-01
9.679999999999999716e-01,1.644906449543708515e-01,2.997220338800534595e-03,2.241996837122461339e-01
9.689999999999999725e-01,2.981535717535255259e-01,4.370475449107528998e-02,1.215845886180947216e-01
9.699999999999999734e-01,3.220276551687074607e-01,1.311819295595890167e-01,-1.555119803832689940e-02
9.709999999999999742e-01,2.200493792802425685e-01,2.180268488332823551e-01,-1.266125891923890467e-01
9.719999999999999751e-01,-1.577222153852735412e-02,2.413581208060667782e-01,-1.363379478355297159e-01
9.729999999999999760e-01,-2.135114802507417919e-01,1.497663875445766901e-01,-1.269086119951822744e-01
9.739999999999999769e-01,-3.302939765919504223e-01,-1.803087948718655117e-02,-9.907914317705363016e-02
9.749999999999999778e-01,-2.516050204056676787e-01,-1.693739043722189419e-01,-9.979573943558220361e-02
9.759999999999999787e-01,-1.635962152717357343e-01,-3.047277077628408604e-01,-7.179389697489704791e-02
9.769999999999999796e-01,-6.840820600549626929e-02,-2.096452434917621399e-01,1.660453659610498095e-02
9.779999999999999805e-01,-1.470168181995402685e-03,-1.021820172507098140e-01,1.317773652866554013e-01
9.789999999999999813e-01,6.314224106661420199e-02,2.748007274568819991e-02,1.967263833830733555e-01
9.799999999999999822e-01,1.863174049633083695e-01,9.071043993803526440e-02,1.998479574715315288e-01
9.809999999999999831e-01,2.800868074211025904e-01,5.378541127622573498e-02,1.175955746988669171e-01
9.819999999999999840e-01,2.809090879312108324e-01,1.486312267828312217e-01,-3.893769581713722727e-02
9.829999999999999849e-01,1.695718134380884146e-01,1.660536590289539149e-01,-1.185491243958612939e-01
9.839999999999999858e-01,-4.833115650773692901e-02,2.014831567111927124e-01,-1.575471250869547868e-01
9.849999999999999867e-01,-2.543243746737657296e-01,1.081092966399031380e-01,-1.351344846826585122e-01
9.859999999999999876e-01,-3.315298985461859749e-01,-5.632022697713802949e-03,-8.034443850425819489e-02
9.869999999999999885e-01,-2.683705680818875283e-01,-2.057985557311855229e-01,-1.687629758046200676e-02
9.879999999999999893e-01,-1.483736805545116666e-01,-2.873386261683678056e-01,-1.747247038072858791e-02
9.889999999999999902e-01,-3.533287400598206229e-02,-2.362948259712523980e-01,1.095602900282593301e-02
9.899999999999999911e-01,9.026999149336119299e-02,-9.948131289217367057e-02,7.523026424072773444e-02
9.909999999999999920e-01,1.370681475548038430e-01,4.147599697604392038e-02,1.441871562536823359e-01
9.919999999999999929e-01,1.920488088783929015e-01,1.215830339268577781e-01,1.954632693720114722e-01
9.929999999999999938e-01,2.559448433296576120e-01,1.282016793000479438e-01,1.107983633128678119e-01
9.939999999999999947e-01,2.587770990808457294e-01,1.291850869419102765e-01,-3.575527540645009883e-02
9.949999999999999956e-01,1.576466402883419660e-01,1.477028022460803169e-01,-1.377044552408651090e-01
9.959999999999999964e-01,-6.714157087272042135e-02,1.441536672167244848e-01,-1.995488436437362345e-01
9.969999999999999973e-01,-2.320606059105143892e-01,4.690676448605516496e-02,-1.763485985431060832e-01
9.979999999999999982e-01,-3.429433327270501319e-01,-1.263727433760150343e-01,-8.153410281883304023e-02
9.989999999999999991e-01,-2.845698535676580709e-01,-2.449362614676622862e-01,1.574762666257442656e-02
1.000000000000000000e+00,-1.272139741180009498e-01,-2.892123061825381258e-01,5.558783134359108341e-02
1.000999999999999890e+00,7.771179631214820971e-02,-2.138096796231158392e-01,6.633101611780428675e-02
1.002000000000000002e+00,1.287113371244552884e-01,-4.369400449721461133e-02,9.803861820647674641e-02
1.002999999999999892e+00,1.913168657928822902e-01,1.209760852180049445e-01,1.360925836422164914e-01
1.004000000000000004e+00,1.688537453284068568e-01,2.076955618760249755e-01,1.559745556725009308e-01
1.004999999999999893e+00,1.982955465839277009e-01,1.942942540557848208e-01,1.119313804135027568e-01
1.006000000000000005e+00,1.673905937687953094e-01,1.284579420116021553e-01,2.983409897331010079e-03
1.006999999999999895e+00,1.030927471284309033e-01,1.133585567272745176e-01,-1.540777923055642595e-01
1.008000000000000007e+00,-8.114607402969753469e-02,7.219102234733340562e-02,-2.276950256296896846e-01
1.008999999999999897e+00,-2.881038571711806440e-01,-2.535764306263508724e-03,-2.274430375528136428e-01
1.010000000000000009e+00,-3.538713774895227426e-01,-1.242942249625804685e-01,-1.060727156675346783e-01
1.010999999999999899e+00,-2.955922154779145883e-01,-2.181914736390993814e-01,4.360257166160634926e-03
1.012000000000000011e+00,-9.299054362236128246e-02,-2.576945627544065531e-01,7.286743872434262026e-02
1.012999999999999901e+00,1.050983514629369453e-01,-1.986223114411891921e-01,8.915659340192909343e-02
1.014000000000000012e+00,1.787479671450026286e-01,-3.022965578005906706e-02,1.066206078806021806e-01
1.014999999999999902e+00,2.140707005029313659e-01,1.627354077778545016e-01,1.172640955858672146e-01
1.016000000000000014e+00,1.611765032436990319e-01,2.162658083446394042e-01,1.335333691658144029e-01
1.016999999999999904e+00,1.398134643701062496e-01,2.373072026558975256e-01,1.131255930759260120e-01
1.018000000000000016e+00,1.627647450033664345e-01,1.556154356531904148e-01,-4.542872490032417998e-02
1.018999999999999906e+00,7.333314536789667902e-03,3.162739723216095866e-02,-1.050089328612014983e-01
1.020000000000000018e+00,-6.959416201172745342e-02,1.505358715612081571e-03,-2.130739485129983235e-01
1.020999999999999908e+00,-2.566643930597093393e-01,-4.132506119176364290e-02,-1.886133034162747191e-01
1.022000000000000020e+00,-3.429031688989976900e-01,-1.379183624691404375e-01,-1.356341435547958885e-01
1.022999999999999909e+00,-2.906324928771630289e-01,-2.205656518376606090e-01,8.041725146203847424e-04
1.024000000000000021e+00,-9.892871533723759936e-02,-2.380205700115329281e-01,1.129467583006230624e-01
1.024999999999999911e+00,1.298013407539559683e-01,-1.166392937728615437e-01,1.197317781247391882e-01
1.026000000000000023e+00,2.504696404078284311e-01,2.049962312850209245e-02,1.240442293438665383e-01
1.026999999999999913e+00,2.777451104505758717e-01,2.085512964396658564e-01,9.908644786160464291e-02
1.028000000000000025e+00,1.988184160150308355e-01,2.737550226998310965e-01,9.680600576431784565e-02
1.028999999999999915e+00,1.009777981238577649e-01,2.304121499579210586e-01,3.248312686424423279e-02
1.030000000000000027e+00,2.724397458606075614e-02,1.086917606070182257e-01,1.324757952793273463e-02
1.030999999999999917e+00,-5.052176993333289123e-02,-2.481365688530708102e-02,-8.419171138391309817e-02
1.032000000000000028e+00,-8.895850412024701448e-02,-9.677310772964529961e-02,-1.876756908984177075e-01
1.032999999999999918e+00,-2.539135393879598523e-01,-1.300272215062626691e-01,-1.610895698049066016e-01
1.034000000000000030e+00,-3.164815576407843944e-01,-1.266922327020325867e-01,-1.182172048610248827e-01
1.034999999999999920e+00,-2.560119107601967481e-01,-1.727678805691209851e-01,1.339473412224007412e-02
1.036000000000000032e+00,-6.691297876732101024e-02,-2.016337851652732771e-01,1.310280888338149208e-01
1.036999999999999922e+00,1.860226372687946994e-01,-1.195114371491408783e-01,1.481188037698639992e-01
1.038000000000000034e+00,3.490770365533960029e-01,3.565726356908488492e-02,1.428818542613790599e-01
1.038999999999999924e+00,2.924564859966567454e-01,2.345788698864081367e-01,8.881976871321592415e-02
1.040000000000000036e+00,2.003755048150313578e-01,2.740803162972162421e-01,4.151344594818002359e-02
1.040999999999999925e+00,5.325088392752703320e-02,2.185958077933759236e-01,3.197819626631021733e-02
1.042000000000000037e+00,-4.809429834376659912e-02,8.254274069376679734e-02,-1.574094015897782584e-02
1.042999999999999927e+00,-1.051162168324809992e-01,-7.981664622297661438e-02,-1.203806347452992948e-01
1.044000000000000039e+00,-1.173531182382291232e-01,-1.161615052778075391e-01,-2.095392806169384670e-01
1.044999999999999929e+00,-2.238104762818386717e-01,-1.177702952915775092e-01,-1.906142180441921796e-01
1.046000000000000041e+00,-2.609135050822377067e-01,-1.433246546430132218e-01,-1.212426500770305976e-01
1.046999999999999931e+00,-2.100091067015091018e-01,-1.667055199409326338e-01,-1.378407367294668014e-02
1.048000000000000043e+00,-3.450237780092400147e-02,-1.342395847739528136e-01,1.552291332584010142e-01
1.048999999999999932e+00,1.962218359051595973e-01,-1.963632841926512412e-02,1.740869185161991184e-01
1.050000000000000044e+00,3.529406448397116036e-01,1.043160450785667465e-01,1.691453719281234280e-01
1.050999999999999934e+00,3.465354563227112106e-01,2.451037190047989089e-01,9.951294450262805624e-02
1.052000000000000046e+00,1.755510318691120286e-01,3.112296762040264175e-01,8.524973286727702271e-03
1.052999999999999936e+00,1.924739987064131783e-02,2.343305926416111851e-01,-1.469466941156875005e-02
1.054000000000000048e+00,-9.741540039208790303e-02,4.617990563363275069e-02,-7.416004744447811381e-02
1.054999999999999938e+00,-1.311031321764524193e-01,-1.202029330930698137e-01,-1.158454121366823547e-01
1.056000000000000050e+00,-1.532760382952545741e-01,-1.790827418687028494e-01,-1.589107104684811256e-01
1.056999999999999940e+00,-1.974766261069046402e-01,-2.099856191938321293e-01,-1.683568647847692723e-01
1.058000000000000052e+00,-2.016089669526792971e-01,-1.316253120051336933e-01,-1.070266616841374641e-01
1.058999999999999941e+00,-1.830281243377830658e-01,-6.575438902942566666e-02,3.075073031824709924e-02
1.060000000000000053e+00,3.116353823914167886e-03,-5.702718587960623614e-02,1.206516902444262906e-01
1.060999999999999943e+00,1.565964970724456617e-01,-3.936999210713420724e-03,1.517139570909563084e-01
1.062000000000000055e+00,3.227725133445153993e-01,1.243988275986253472e-01,1.704360087650315658e-01
1.062999999999999945e+00,3.565971188348406873e-01,1.964046674750492827e-01,1.144829272283177796e-01
1.064000000000000057e+00,1.897408472096344390e-01,2.496268936677925876e-01,2.343676282326360300e-02
1.064999999999999947e+00,5.708015253974182924e-04,1.807958306843005236e-01,-8.388666594562141365e-02
1.066000000000000059e+00,-1.663251801986343481e-01,3.639032576493165388e-02,-1.076726067775048978e-01
1.066999999999999948e+00,-2.150448075819892113e-01,-1.652956400834390271e-01,-8.231753134268240957e-02
1.068000000000000060e+00,-2.114764076186783637e-01,-2.570191277095660864e-01,-1.179758894412022835e-01
1.068999999999999950e+00,-1.794453775719881128e-01,-2.192401438970504324e-01,-9.947842921489538637e-02
1.070000000000000062e+00,-1.322972236106353394e-01,-1.289342583981848145e-01,-1.163831537414935363e-01
1.070999999999999952e+00,-8.357111522461604936e-02,-5.228828132725598515e-02,-1.927857472523494473e-02
1.072000000000000064e+00,3.752454544317257445e-02,-1.692269239454462487e-03,1.049414711625199365e-01
1.072999999999999954e+00,1.946330848138223268e-01,5.135065675331365598e-02,2.034146358687974609e-01
1.074000000000000066e+00,3.004259463952687059e-01,1.238295047911705249e-01,2.099289036591940882e-01
1.074999999999999956e+00,3.394109673312029063e-01,2.285358133027109162e-01,1.146500297813507346e-01
1.076000000000000068e+00,2.110474556813260183e-01,2.471939217626231977e-01,-2.010469120023317124e-02
1.076999999999999957e+00,-2.063522278866384771e-02,1.636534835071349059e-01,-1.058592370354131118e-01
1.078000000000000069e+00,-2.149137633129774849e-01,-5.419676551684513705e-02,-1.244744021245529630e-01
1.078999999999999959e+00,-3.130909560197931985e-01,-1.919802556181889330e-01,-1.157589977320495622e-01
1.080000000000000071e+00,-2.479024935905940474e-01,-2.700881221209586736e-01,-8.839637313596848678e-02
1.080999999999999961e+00,-1.662256987018031207e-01,-2.473699993995230051e-01,-6.266838564669717504e-02
1.082000000000000073e+00,-5.244099695906723202e-02,-1.186300345044280918e-01,-6.206196030231708044e-02
1.082999999999999963e+00,-1.121180043550444941e-02,-8.476319120555936282e-03,3.427411868345923811e-03
1.084000000000000075e+00,4.666815645295203929e-02,6.608607246914714739e-02,1.220807339754988730e-01
1.084999999999999964e+00,1.606725174349197538e-01,1.063373164245476066e-01,2.119737199849159592e-01
1.086000000000000076e+00,2.804140251807778483e-01,1.514917244488687420e-01,1.942032375947163048e-01
1.086999999999999966e+00,3.165889933324455563e-01,1.960935531384281061e-01,1.174312755734115976e-01
1.088000000000000078e+00,1.709441377378885796e-01,2.104100300511760335e-01,-4.783921816472577054e-02
1.088999999999999968e+00,-5.327270790135336942e-02,8.951850348815883207e-02,-1.316274231413737950e-01
1.090000000000000080e+00,-2.633078273361270094e-01,-7.710285308927836145e-02,-1.307727017834890426e-01
1.090999999999999970e+00,-3.288937152014242971e-01,-2.464143778898663928e-01,-1.233312398590588194e-01
1.092000000000000082e+00,-2.445769194800311297e-01,-2.914540764601391554e-01,-9.235113062394904870e-02
1.092999999999999972e+00,-1.219369938135220627e-01,-2.092018701254092783e-01,-5.691690688712081753e-02
1.094000000000000083e+00,1.123718477341193421e-02,-7.142286081206514203e-02,-1.267112722491451834e-02
1.094999999999999973e+00,9.112797798177574293e-02,6.861870710902133463e-02,2.929396359520934287e-02
1.096000000000000085e+00,1.372769545783407985e-01,1.448678931810301052e-01,1.116833826977360611e-01
1.096999999999999975e+00,1.768556133029376143e-01,1.445242328148736988e-01,1.717409167398513681e-01
1.098000000000000087e+00,2.350598346183181975e-01,1.068856068485455890e-01,1.859810661956072531e-01
1.098999999999999977e+00,2.320890105142857096e-01,1.458704778449679273e-01,1.389118379783281232e-01
1.100000000000000089e+00,1.480701454953141372e-01,1.192693395039572529e-01,1.643410757274572356e-03
1.100999999999999979e+00,-5.536405773770591149e-02,3.397209428019415389e-02,-1.190373951950248060e-01
1.102000000000000091e+00,-2.557465542725357865e-01,-1.045684896924219676e-01,-1.885052197425618747e-01
1.102999999999999980e+00,-3.709245659974108600e-01,-2.297915246506357645e-01,-1.605873142587014302e-01
1.104000000000000092e+00,-2.863181479306173838e-01,-2.949920740120327012e-01,-1.020014669954033698e-01
1.104999999999999982e+00,-1.173626177430653061e-01,-1.930598087634086413e-01,-5.205113730449400546e-03
1.106000000000000094e+00,4.413524807011643541e-02,-2.003751669613614006e-02,4.677106354332323523e-02
1.106999999999999984e+00,1.586965961400606251e-01,1.415645149246918255e-01,3.833283813174340887e-02
1.108000000000000096e+00,1.808176275578263492e-01,1.586804127523982755e-01,1.179308237957494843e-01
1.108999999999999986e+00,1.785705415359389869e-01,2.103242404210918792e-01,1.277589242366696520e-01
1.110000000000000098e+00,1.791049671461992787e-01,1.428698313423318045e-01,1.379679429820352410e-01
1.110999999999999988e+00,1.530564631106485218e-01,1.247258355273285352e-01,1.255214722118201398e-01
1.112000000000000099e+00,8.182480001055165986e-02,5.704831629615772504e-02,-3.542318533992349933e-03
1.112999999999999989e+00,-1.321062612695260430e-01,1.046451383855920986e-02,-1.464698223655673814e-01
1.114000000000000101e+00,-2.820113821869802417e-01,-9.651779907965678251e-02,-1.946546826974402677e-01
1.114999999999999991e+00,-3.277031295547795375e-01,-2.033976632379220217e-01,-1.902523980401821802e-01
1.116000000000000103e+00,-2.578444240769424689e-01,-2.736290627865015090e-01,-6.853955126631615380e-02
1.116999999999999993e+00,-1.100451131766103235e-01,-1.736358039185407209e-01,-1.294272432333173385e-02
1.118000000000000105e+00,1.226541247822867109e-01,-1.596081882521221268e-02,7.573182777476138161e-02
1.118999999999999995e+00,2.491997801434357174e-01,1.637866476152859407e-01,1.135732143715703496e-01
1.120000000000000107e+00,2.666861634832891625e-01,2.450646135590938135e-01,1.020548406304733757e-01
1.120999999999999996e+00,1.993556155747728542e-01,1.741329661699846931e-01,1.050353637081942876e-01
1.122000000000000108e+00,1.749441596022640599e-01,7.597738985224912478e-02,1.321819905200131151e-01
1.122999999999999998e+00,9.301039737822469622e-02,5.437387370508425105e-02,1.164405509802468874e-01
1.124000000000000110e+00,3.459592471835696431e-02,-2.628420266856838945e-03,1.535183964854794185e-02
1.125000000000000000e+00,-1.045756335395608971e-01,-2.513592852723514973e-02,-1.094062228746715965e-01
1.125999999999999890e+00,-2.449847902307258907e-01,-1.395412137827055921e-01,-2.128390855454634634e-01
1.127000000000000002e+00,-3.157906982008016339e-01,-2.217595300047437434e-01,-1.663910474709846821e-01
1.127999999999999892e+00,-2.600661051266875412e-01,-2.407310075426372098e-01,-1.354599829287371215e-01
1.129000000000000004e+00,-8.366805245501082733e-02,-1.432329974520545057e-01,4.370572483667222591e-02
1.129999999999999893e+00,1.260605732220172748e-01,5.554180086618551015e-04,1.140734546154940077e-01
1.131000000000000005e+00,2.987196603024809272e-01,2.105891560924372241e-01,1.495411374748115418e-01
1.131999999999999895e+00,2.948784591292734625e-01,2.589312053508041611e-01,1.190141062313201242e-01
1.133000000000000007e+00,1.824967372304760194e-01,2.469509400492235773e-01,1.121245508133054680e-01
1.133999999999999897e+00,9.839510526355028930e-02,8.803616752439245852e-02,9.180418357906203197e-02
1.135000000000000009e+00,1.440225154988553947e-02,-2.039823665340156911e-02,5.221020767001526008e-02
1.135999999999999899e+00,-1.628656429926556015e-02,-1.115514767906243682e-01,1.966877399967800061e-02
1.137000000000000011e+00,-9.517112423675390398e-02,-1.105901926395416457e-01,-1.222963629759494103e-01
1.137999999999999901e+00,-2.607311951603619171e-01,-1.494133048873705905e-01,-1.789008929490464583e-01
1.139000000000000012e+00,-3.106878912525637415e-01,-1.648515778497186557e-01,-1.916047279644094437e-01
1.139999999999999902e+00,-2.435654852936795789e-01,-1.841131683867090196e-01,-1.539058923360295539e-01
1.141000000000000014e+00,-8.232541126187983838e-02,-9.549123066063860965e-02,1.511346608264258103e-02
1.141999999999999904e+00,1.756931775799423778e-01,4.101748558622082125e-02,1.357160971568868446e-01
1.143000000000000016e+00,3.117827472709422953e-01,1.717964117775421518e-01,1.877288880131678106e-01
1.143999999999999906e+00,3.101296290133964684e-01,2.860223860089489145e-01,1.053543138102176896e-01
1.145000000000000018e+00,2.450308682334735866e-01,2.268420915158184670e-01,9.282432396832206167e-02
1.145999999999999908e+00,7.618781662362179852e-02,6.876034669839276026e-02,2.509509346920530976e-03
1.147000000000000020e+00,-1.506603324839499852e-02,-6.402427771792040812e-02,-5.777434491926946789e-03
1.147999999999999909e+00,-1.302004786039984707e-01,-1.415732050997145497e-01,-8.698613398764275945e-03
1.149000000000000021e+00,-1.513014914162736368e-01,-1.601462528313948308e-01,-8.694658142170856585e-02
1.149999999999999911e+00,-2.168176360785971646e-01,-1.364920364492397675e-01,-1.944071223877069654e-01
1.151000000000000023e+00,-2.207993585441139495e-01,-1.528451355391226285e-01,-1.816125810137062813e-01
1.151999999999999913e+00,-2.228851113605390399e-01,-1.223427612447472307e-01,-1.193826271550123275e-01
1.153000000000000025e+00,-4.803923211059302895e-02,-6.691675380186941358e-02,1.748178622158475318e-02
1.153999999999999915e+00,1.604209192346433277e-01,1.212984975317351749e-01,1.220395364045741005e-01
1.155000000000000027e+00,3.233815532720688557e-01,3.052282727509655347e-01,1.845509514641421045e-01
1.155999999999999917e+00,3.650866107286270812e-01,2.905669046627017416e-01,1.241735566386752698e-01
1.157000000000000028e+00,1.915900583425534098e-01,2.012227012614929145e-01,1.284130584220828375e-01
1.157999999999999918e+00,1.497785053217148138e-02,3.025185839415675884e-02,2.656647026926414398e-02
1.159000000000000030e+00,-8.801345318133090012e-02,-1.268794384753098581e-01,-4.024348291767428087e-02
1.159999999999999920e+00,-1.810912651966948561e-01,-1.881328725668267587e-01,-5.542806488205307552e-02
1.161000000000000032e+00,-1.874657224267308187e-01,-1.827148191642968822e-01,-4.591007311781783451e-02
1.161999999999999922e+00,-1.918999449873373953e-01,-1.077131513911672167e-01,-1.140166403366643239e-01
1.163000000000000034e+00,-2.096813940656138686e-01,-1.044074662664907921e-01,-1.669723702447173108e-01
1.163999999999999924e+00,-1.612665501074083407e-01,-4.743673013540083971e-02,-1.314603487036934137e-01
1.165000000000000036e+00,-2.139426813526609794e-02,3.823700443071814670e-03,-7.612207038278634777e-03
1.165999999999999925e+00,1.793019997123678488e-01,1.017099518599758196e-01,1.114010602209087319e-01
1.167000000000000037e+00,3.466518012467496579e-01,2.383063919080853632e-01,2.094243071269510093e-01
1.167999999999999927e+00,3.329651561434787133e-01,2.683221129861917964e-01,1.892267648477664321e-01
1.169000000000000039e+00,2.250146257458240373e-01,1.721545931091995052e-01,1.236658638380917774e-01
1.169999999999999929e+00,6.229298008287723239e-03,6.307959522052006794e-03,8.432163561302415469e-03
1.171000000000000041e+00,-1.638011066012268757e-01,-1.590757167223716406e-01,-8.875937843882744649e-02
1.171999999999999931e+00,-2.160900054895813216e-01,-2.600275520107345750e-01,-1.205821807772979315e-01
1.173000000000000043e+00,-2.555266252792853243e-01,-1.934190212754640370e-01,-1.309079214450979411e-01
1.173999999999999932e+00,-1.596067946634620316e-01,-1.224376022414474657e-01,-9.723807413269563993e-02
1.175000000000000044e+00,-1.395319031219255101e-01,-4.621489938204772357e-02,-1.248829235611410293e-01
1.175999999999999934e+00,-8.434121367694669136e-02,2.759099699429342842e-02,-9.114457869011627356e-02
1.177000000000000046e+00,-1.110239043162879365e-02,6.895462801028230670e-02,-1.480917637768370231e-03
1.177999999999999936e+00,2.030913068964119994e-01,1.450098035789070261e-01,1.275551010574103861e-01
1.179000000000000048e+00,3.110806156121059263e-01,2.608596308403551278e-01,2.084115663669176277e-01
1.179999999999999938e+00,3.892156262134081612e-01,2.073680036102741875e-01,1.901014702655363098e-01
