time,acc_x,acc_y,acc_z
0.000000000000000000e+00,3.851587270518884720e-01,3.086558941731707972e-01,2.258839347276427323e-01
1.000000000000000021e-03,3.720965064450424409e-01,3.114967933887712870e-01,2.228928286995977281e-01
2.000000000000000042e-03,3.456107691124070125e-01,2.763454723867955209e-01,2.121565678255724896e-01
3.000000000000000062e-03,2.940931235631670804e-01,2.141827670376751369e-01,1.738303207334278011e-01
4.000000000000000083e-03,1.930947130129435085e-01,1.180784776793546570e-01,1.340456610961232586e-01
5.000000000000000104e-03,7.706115615763371729e-02,-6.432933347688579370e-03,7.480262374098714528e-02
6.000000000000000125e-03,-7.231360118263618908e-02,-1.459338172982390935e-01,4.358681840713929563e-03
7.000000000000000146e-03,-2.149484179707500109e-01,-2.566557327457705262e-01,-7.610575208790612556e-02
8.000000000000000167e-03,-3.640480591363673413e-01,-3.448116808347460038e-01,-1.627118101953480278e-01
8.999999999999999320e-03,-4.504299025447567884e-01,-4.051551244378035488e-01,-2.263235481945901073e-01
1.000000000000000021e-02,-4.975926955215132508e-01,-3.915426813051840482e-01,-2.822123949935300691e-01
1.099999999999999936e-02,-4.719515795099453181e-01,-3.260464901402732596e-01,-2.973355063116780994e-01
1.200000000000000025e-02,-3.899881804639602212e-01,-2.140941545039065919e-01,-2.729745876752161515e-01
1.299999999999999940e-02,-2.442312446649853308e-01,-8.596410576071175647e-02,-2.111452296899785641e-01
1.400000000000000029e-02,-6.289303482987239347e-02,6.562305245996835623e-02,-1.288038824739564381e-01
1.499999999999999944e-02,1.176167244204261164e-01,1.907151618565539608e-01,-1.388672805541896205e-02
1.600000000000000033e-02,2.582333729510230547e-01,2.584097680136591690e-01,9.544922438481281968e-02
1.700000000000000122e-02,3.515963470853703532e-01,2.884070455062097138e-01,1.775781073225991269e-01
1.799999999999999864e-02,3.843609376522337251e-01,2.784682614624243158e-01,2.310661965517031569e-01
1.899999999999999953e-02,3.532454700164234795e-01,2.037230816370155517e-01,2.389918369119769515e-01
2.000000000000000042e-02,2.806922405878716775e-01,1.283354589830144610e-01,2.261209171554390551e-01
2.100000000000000130e-02,1.675945955150174305e-01,5.233832294544516622e-02,1.798003033446035070e-01
2.199999999999999872e-02,5.246593818335106019e-02,-2.516903435984613885e-02,1.016322034317260342e-01
2.299999999999999961e-02,-3.346441890472328512e-02,-4.171471739756724834e-02,3.583052125646967595e-02
2.400000000000000050e-02,-8.421600580122148849e-02,-5.353934484881239797e-02,-3.145987957928356171e-02
2.500000000000000139e-02,-1.090955185890387646e-01,-4.652560631333454988e-02,-5.646286342114597429e-02
2.599999999999999881e-02,-9.272215339525222144e-02,-9.353656751639117389e-03,-8.377270544959675158e-02
2.699999999999999969e-02,-6.180777651911244230e-02,9.622233985071728182e-03,-7.158860174453508807e-02
2.800000000000000058e-02,-7.457745850707190455e-03,1.088270290257528986e-02,-5.127622712134945193e-02
2.900000000000000147e-02,6.649510565149110205e-05,-2.322447606941314968e-03,-3.110940301908906094e-02
2.999999999999999889e-02,-4.045536321572978065e-03,-4.707361465542340973e-02,-5.663783901780727707e-03
3.099999999999999978e-02,-2.863927093965477552e-02,-8.389109122432947263e-02,-3.808225088633453593e-03
3.200000000000000067e-02,-8.916176942793881122e-02,-1.281368034676424739e-01,-1.664578842030265890e-02
3.300000000000000155e-02,-1.369314650916329534e-01,-1.570782038792098712e-01,-5.399615921908205995e-02
3.400000000000000244e-02,-1.816465584153485191e-01,-1.577811850905905533e-01,-7.032568512721175391e-02
3.500000000000000333e-02,-1.867802082303507971e-01,-1.432082497855553804e-01,-9.294050980766965786e-02
3.599999999999999728e-02,-1.643548394380636435e-01,-9.161585653237258597e-02,-1.102408104077364920e-01
3.699999999999999817e-02,-1.156214407272281725e-01,-2.798550682574284243e-02,-9.346313932494985932e-02
3.799999999999999906e-02,-3.479346654296113645e-02,4.060650834980947949e-02,-6.969044550923571280e-02
3.899999999999999994e-02,3.527377186939591874e-02,8.698981957789607422e-02,-3.767876506833510442e-02
4.000000000000000083e-02,1.162493988909329007e-01,1.211271664724149766e-01,1.873298622506990377e-02
4.100000000000000172e-02,1.627812187833427571e-01,1.297192183346846661e-01,6.253354894059076630e-02
4.200000000000000261e-02,1.963801185773021984e-01,1.295932998503958600e-01,9.982394577014964965e-02
4.299999999999999656e-02,1.797037040559611998e-01,1.083205635687602003e-01,1.203192196983889212e-01
4.399999999999999745e-02,1.527029261692472994e-01,8.493284799547760888e-02,1.196716528842591970e-01
4.499999999999999833e-02,1.207378811162853338e-01,8.352002148838398587e-02,1.043193401573679902e-01
4.599999999999999922e-02,9.589395273152695465e-02,7.303074245555200850e-02,8.679162091844537519e-02
4.700000000000000011e-02,7.378886493234775024e-02,7.699173179121557298e-02,5.706686140113119421e-02
4.800000000000000100e-02,6.575605288600935849e-02,8.610339326128733928e-02,3.636191374591812159e-02
4.900000000000000189e-02,7.818360046361542970e-02,8.575433356071902880e-02,3.139049161361456841e-02
5.000000000000000278e-02,8.208882431056681306e-02,6.712071995765321597e-02,2.550821718562538282e-02
5.099999999999999672e-02,5.778779324019678310e-02,2.091726255787463434e-02,2.765911771218588361e-02
5.199999999999999761e-02,1.464446849689418455e-02,-6.226521405981365331e-02,9.763034623521118713e-03
5.299999999999999850e-02,-6.055584080008533099e-02,-1.515780188522578009e-01,-4.847196706090710003e-03
5.399999999999999939e-02,-1.640194205801836225e-01,-2.447257684029152114e-01,-4.065669375711914585e-02
5.500000000000000028e-02,-2.662844279065410547e-01,-3.128035544241480337e-01,-7.311140458946616127e-02
5.600000000000000117e-02,-3.548723848138162773e-01,-3.617454795710496329e-01,-1.326152533359663543e-01
5.700000000000000205e-02,-4.001924319464322255e-01,-3.418449036664314988e-01,-1.792752941312153458e-01
5.800000000000000294e-02,-3.983371573421732870e-01,-2.564379330808140844e-01,-2.200886563528825779e-01
5.899999999999999689e-02,-3.328398704656196361e-01,-1.318651831370870053e-01,-2.291348127979101201e-01
5.999999999999999778e-02,-2.004175904488249282e-01,1.839585289177764552e-02,-2.013126010974358449e-01
6.099999999999999867e-02,-2.834839116897044237e-02,1.793828652160049664e-01,-1.404726192724383427e-01
6.199999999999999956e-02,1.682406500451497089e-01,3.331653116245535395e-01,-5.064436659202243424e-02
6.300000000000000044e-02,3.642264523690885714e-01,4.324578149283988537e-01,7.126547632241939101e-02
6.400000000000000133e-02,5.036516451707006015e-01,4.648556232439643443e-01,1.858639477125995088e-01
6.500000000000000222e-02,5.715044909795713446e-01,4.433743579743128493e-01,2.637760747495144220e-01
6.600000000000000311e-02,5.688688514829782772e-01,3.557920412727549886e-01,3.296214639874106012e-01
6.700000000000000400e-02,4.870249931487822259e-01,2.274470813826304505e-01,3.483001541518002120e-01
6.800000000000000488e-02,3.300819402005041314e-01,7.218566030728353067e-02,3.134550699214317948e-01
6.900000000000000577e-02,1.449592162142736007e-01,-6.758377953950926720e-02,2.333416787659891578e-01
7.000000000000000666e-02,-4.516718180513276670e-02,-1.929914859628632795e-01,1.286000148803369825e-01
7.099999999999999367e-02,-2.273137326839154149e-01,-2.826234675851455047e-01,1.157228638321241079e-02
7.199999999999999456e-02,-3.559373778805217103e-01,-3.441609646182272608e-01,-1.057748922366853750e-01
7.299999999999999545e-02,-4.445122075862801836e-01,-3.560296310126100372e-01,-2.030459155748894629e-01
7.399999999999999634e-02,-4.680761068553969673e-01,-3.480093101753634066e-01,-2.648930394634685936e-01
7.499999999999999722e-02,-4.561589839228489263e-01,-3.022505948459487946e-01,-2.951929972851395911e-01
7.599999999999999811e-02,-4.045644459168621920e-01,-2.523063093595536710e-01,-2.850071519109067530e-01
7.699999999999999900e-02,-3.361670015381194032e-01,-1.972608751958002948e-01,-2.568923726092853244e-01
7.799999999999999989e-02,-2.439079551242117061e-01,-1.076829741943927804e-01,-2.181772694060924445e-01
7.900000000000000078e-02,-1.374283124502159448e-01,-1.211581931374165755e-02,-1.500440060322709435e-01
8.000000000000000167e-02,-2.410865774322287422e-02,8.755792993106091548e-02,-8.751479048348437262e-02
8.100000000000000255e-02,9.119767926248287249e-02,1.886165158360255389e-01,-1.767267048672059235e-02
8.200000000000000344e-02,2.066120696294309611e-01,3.198729078871767606e-01,4.262903664336444715e-02
8.300000000000000433e-02,3.361159026810743300e-01,3.934048051888691666e-01,1.056581065517713802e-01
8.400000000000000522e-02,4.365331814524658349e-01,4.495280448672421270e-01,1.789836293130691314e-01
8.500000000000000611e-02,5.016229678569468220e-01,4.549645407849317036e-01,2.340370872012051406e-01
8.599999999999999312e-02,5.477707872483362772e-01,3.940655422104533123e-01,2.822087357239880245e-01
8.699999999999999400e-02,5.087045938251187893e-01,2.900064786075323142e-01,3.028810506066064168e-01
8.799999999999999489e-02,4.091206417132969841e-01,1.343489056814216875e-01,3.059958885965280428e-01
8.899999999999999578e-02,2.489479220220481570e-01,-6.432053677770659117e-02,2.634806343931750949e-01
8.999999999999999667e-02,3.882297261202977828e-02,-2.420902642601235610e-01,1.841438306175758877e-01
9.099999999999999756e-02,-1.902763798788803251e-01,-4.023437950263029084e-01,7.671033945423939848e-02
9.199999999999999845e-02,-4.039257727860225966e-01,-5.083602772220939814e-01,-4.137606357632560988e-02
9.299999999999999933e-02,-5.648063907607353551e-01,-5.288056617591380126e-01,-1.756544125879644647e-01
9.400000000000000022e-02,-6.535797788081539883e-01,-4.820079951464801282e-01,-2.893213036559442175e-01
9.500000000000000111e-02,-6.622311994797536183e-01,-3.790762882529087885e-01,-3.757853076744801513e-01
9.600000000000000200e-02,-5.618967505760534831e-01,-2.277899794463358329e-01,-4.067604847924145006e-01
9.700000000000000289e-02,-4.043577620952927276e-01,-4.672714358803323198e-02,-3.861689470624281584e-01
9.800000000000000377e-02,-1.999769408712772090e-01,1.229977985745951269e-01,-3.159503861067054498e-01
9.900000000000000466e-02,3.713283149592834509e-02,2.488494413558870189e-01,-1.961808331617652945e-01
1.000000000000000056e-01,2.327094426211726019e-01,3.266309843358827791e-01,-7.154148481541189319e-02
1.010000000000000064e-01,3.814316500431016443e-01,3.653130856460649056e-01,6.510132446193900302e-02
1.019999999999999934e-01,4.715045406357371016e-01,3.370227502084927051e-01,1.850166893482226016e-01
1.029999999999999943e-01,4.873446169049383547e-01,2.861755926086736457e-01,2.619992921041326972e-01
1.039999999999999952e-01,4.387368065221600721e-01,2.209382588680951220e-01,3.069558285067326975e-01
1.049999999999999961e-01,3.524794034003820298e-01,1.482067067468026966e-01,3.102355138871178974e-01
1.059999999999999970e-01,2.425369299875887452e-01,9.014838218104720413e-02,2.691948889213894303e-01
1.069999999999999979e-01,1.435734860957179893e-01,2.086452872944043538e-02,1.963223501743213972e-01
1.079999999999999988e-01,3.738383481890929921e-02,-3.010261737174706534e-02,1.307590999663268139e-01
1.089999999999999997e-01,-4.046777998200331433e-02,-8.255454855068362907e-02,4.656126648997740286e-02
1.100000000000000006e-01,-9.911071826810072261e-02,-1.235742800672362390e-01,-4.670598896937916931e-03
1.110000000000000014e-01,-1.481186402432204674e-01,-1.746525659761445359e-01,-5.955784229410360231e-02
1.120000000000000023e-01,-1.855786445480328284e-01,-2.074594732459061619e-01,-9.667020561044739613e-02
1.130000000000000032e-01,-2.316481228043809071e-01,-2.516008141351786520e-01,-1.136104599381381197e-01
1.140000000000000041e-01,-2.624006760273430161e-01,-2.532369921542611535e-01,-1.390839366089565154e-01
1.150000000000000050e-01,-2.878345231307365415e-01,-2.405811626180602014e-01,-1.437536289219394081e-01
1.160000000000000059e-01,-3.034518078516216799e-01,-1.815630220413993190e-01,-1.539378061985994250e-01
1.170000000000000068e-01,-2.650089587254319534e-01,-1.095245927004870889e-01,-1.617969198111886275e-01
1.179999999999999938e-01,-2.042975783007184853e-01,-2.010745507677829183e-02,-1.550040872184142438e-01
1.189999999999999947e-01,-1.120148214543232740e-01,8.833268064331130376e-02,-1.377257621351412886e-01
1.199999999999999956e-01,6.947410813416906097e-03,1.855528345680567126e-01,-1.023195098837516998e-01
1.209999999999999964e-01,1.293114650792817066e-01,2.392037364661817600e-01,-5.491217746735743699e-02
1.219999999999999973e-01,2.363140423038052607e-01,2.623835510207528920e-01,1.636979099578104654e-02
1.229999999999999982e-01,3.153139860092902258e-01,2.422549813584537193e-01,8.974476418469008732e-02
1.239999999999999991e-01,3.388903586229699560e-01,1.786239146613510242e-01,1.455885173218646189e-01
1.250000000000000000e-01,3.094019728411984693e-01,1.074926124259836385e-01,1.904415953477141821e-01
1.260000000000000009e-01,2.302357881838331954e-01,1.363008977897938248e-02,2.124990535849127227e-01
1.270000000000000018e-01,1.263418759373842459e-01,-5.374296979438906302e-02,1.841886504556864146e-01
1.280000000000000027e-01,2.294318038840691479e-02,-9.743949846585760188e-02,1.448689229138022116e-01
1.290000000000000036e-01,-7.877661951612306701e-02,-1.019844052643530952e-01,9.150818870001897753e-02
1.300000000000000044e-01,-1.416099253187812490e-01,-7.387194545760687736e-02,1.228290228657505541e-02
1.310000000000000053e-01,-1.484248833951178348e-01,-3.017008247441196542e-02,-5.499714033189670448e-02
1.320000000000000062e-01,-1.268303125592294411e-01,1.004696114155352073e-02,-8.894360924600662466e-02
1.330000000000000071e-01,-8.890622588693847250e-02,4.419881303862187305e-02,-1.121185874873276700e-01
1.340000000000000080e-01,-2.628995882443091112e-02,4.854192876449330007e-02,-1.008552847368029554e-01
1.350000000000000089e-01,2.799628968072056384e-02,2.196758622077250173e-02,-7.308100011753652925e-02
1.360000000000000098e-01,4.537829589333759739e-02,-2.247011975257528354e-02,-4.174357252385690192e-02
1.370000000000000107e-01,2.629943223341897965e-02,-9.742088845146837373e-02,7.621983321047174666e-03
1.380000000000000115e-01,-1.857277664034802031e-02,-1.525429005860232667e-01,2.081289227737858488e-02
1.390000000000000124e-01,-9.659966311200492151e-02,-1.978880525852035610e-01,3.101474129940055488e-02
1.400000000000000133e-01,-1.619339871652063223e-01,-1.997241286779059544e-01,-5.126551490394613180e-04
1.409999999999999865e-01,-2.149261846668966414e-01,-1.666180595076772186e-01,-3.203023343240755938e-02
1.419999999999999873e-01,-2.386451167803273765e-01,-9.975336817696728309e-02,-6.414767566512079300e-02
1.429999999999999882e-01,-2.058143526938376044e-01,-7.380214300410564872e-03,-1.130475222950244885e-01
1.439999999999999891e-01,-1.363578729853083538e-01,1.028545185761848696e-01,-1.224081029763907785e-01
1.449999999999999900e-01,-1.729983768090816512e-02,1.885325934176656226e-01,-1.153511143543856365e-01
1.459999999999999909e-01,1.011435451314528083e-01,2.397460321833964902e-01,-7.465948340227435143e-02
1.469999999999999918e-01,2.175125622545869830e-01,2.720699798069698416e-01,-2.250776130438780082e-02
1.479999999999999927e-01,2.999954110896420612e-01,2.576139521171451063e-01,4.460050053009100707e-02
1.489999999999999936e-01,3.395042753563677906e-01,2.079084894799632655e-01,1.188130850920170040e-01
1.499999999999999944e-01,3.341692351428706687e-01,1.535322923057423350e-01,1.693332778487963430e-01
1.509999999999999953e-01,2.825209496144269750e-01,7.063182066274757698e-02,2.105679963951920530e-01
1.519999999999999962e-01,1.978653872340953579e-01,7.943745280966840391e-03,2.070783561092267022e-01
1.529999999999999971e-01,1.010585411718538246e-01,-4.944537058505897587e-02,1.789740737154772721e-01
1.539999999999999980e-01,-2.917593418914355145e-04,-9.572391420727204003e-02,1.344766248260190200e-01
1.549999999999999989e-01,-8.752635184178009231e-02,-1.326047390892828304e-01,7.595231137449343084e-02
1.559999999999999998e-01,-1.541186225321627135e-01,-1.648539166832054814e-01,1.430292693922223827e-03
1.570000000000000007e-01,-1.973977941417556226e-01,-2.033337681834186950e-01,-5.912692826221448844e-02
1.580000000000000016e-01,-2.301228173563792112e-01,-2.338416949158892422e-01,-9.065135492952183793e-02
1.590000000000000024e-01,-2.550620584725541429e-01,-2.474021686657766339e-01,-1.341967041150237683e-01
1.600000000000000033e-01,-2.719181077667884305e-01,-2.620368568707331924e-01,-1.490953517065604916e-01
1.610000000000000042e-01,-2.823750103227943287e-01,-2.357264308661886354e-01,-1.478150079464305156e-01
1.620000000000000051e-01,-2.918146044995883481e-01,-1.811185029899898269e-01,-1.570730331258260171e-01
1.630000000000000060e-01,-2.793269186515163760e-01,-9.788775786244324761e-02,-1.673763158778579230e-01
1.640000000000000069e-01,-2.141019250516694450e-01,2.339900992506698668e-02,-1.525516026310776430e-01
1.650000000000000078e-01,-1.183026344177892236e-01,1.729915578272568089e-01,-1.385892845711712562e-01
1.660000000000000087e-01,-3.197605732127594292e-03,3.108924120756297871e-01,-1.153647352003501630e-01
1.670000000000000095e-01,1.682783055382854609e-01,4.231261005359521210e-01,-6.969527196838257166e-02
1.680000000000000104e-01,3.252627061680020693e-01,4.823867479132754044e-01,-1.080709960648041507e-02
1.690000000000000113e-01,4.680752609335001035e-01,4.829525495624399367e-01,7.303974797600218394e-02
1.700000000000000122e-01,5.610693331764461389e-01,4.015833841265530890e-01,1.600251299824684281e-01
1.710000000000000131e-01,5.873380774077835431e-01,2.751593634590065451e-01,2.364212681132922822e-01
1.719999999999999862e-01,5.251834334590705922e-01,9.682053151617360520e-02,3.056533538870818689e-01
1.729999999999999871e-01,3.954502493772780736e-01,-1.062629940802329309e-01,3.306561692927030838e-01
1.739999999999999880e-01,1.932129595700593505e-01,-2.910682607847924208e-01,3.189209000426013185e-01
1.749999999999999889e-01,-4.648308375587596741e-02,-4.138582595688595211e-01,2.659421194494546170e-01
1.759999999999999898e-01,-2.829804626101334875e-01,-4.913976318278308608e-01,1.572110117527388273e-01
1.769999999999999907e-01,-4.788478871830445516e-01,-5.033621117388952237e-01,3.143208184806094846e-02
1.779999999999999916e-01,-6.046539932931334071e-01,-4.431019418848586300e-01,-1.172355834529079238e-01
1.789999999999999925e-01,-6.427760081744281484e-01,-3.349241488560120161e-01,-2.331516697123172943e-01
1.799999999999999933e-01,-6.178750729059074853e-01,-1.940260412882091889e-01,-3.383719603746898619e-01
1.809999999999999942e-01,-4.949544056719009100e-01,-5.330368429489116405e-02,-3.912168859394947185e-01
1.819999999999999951e-01,-3.298498011900419802e-01,8.625497340320671669e-02,-3.856350915304235794e-01
1.829999999999999960e-01,-1.353658737570073711e-01,2.005189734650402733e-01,-3.419575663902600926e-01
1.839999999999999969e-01,5.778127234132454659e-02,2.717711703890292041e-01,-2.500889808975145789e-01
1.849999999999999978e-01,2.263461391780293708e-01,3.192137695648754603e-01,-1.299568671273869658e-01
1.859999999999999987e-01,3.417994973215601195e-01,3.492551669967940975e-01,-1.771468216965588205e-02
1.869999999999999996e-01,4.090517653674070053e-01,3.358141563839587840e-01,1.064600609765405520e-01
1.880000000000000004e-01,4.454851170087936740e-01,3.259585336480500528e-01,2.004787505456093188e-01
1.890000000000000013e-01,4.430332716098714374e-01,2.729878687005436455e-01,2.570201852476734494e-01
1.900000000000000022e-01,4.067888557858282961e-01,2.111934464235663556e-01,2.846721774831858509e-01
1.910000000000000031e-01,3.581622306075783468e-01,1.315670044428373098e-01,2.865015628426516026e-01
1.920000000000000040e-01,2.814847041535826766e-01,3.196193140266798127e-02,2.542047011961173220e-01
1.930000000000000049e-01,1.830742275412454156e-01,-8.500993638868435676e-02,2.148388465892354937e-01
1.940000000000000058e-01,6.916493410151247634e-02,-2.147651758361172614e-01,1.838055436158284595e-01
1.950000000000000067e-01,-5.601673861178842195e-02,-3.244580591767254885e-01,1.259556883840517727e-01
1.960000000000000075e-01,-1.950897980615732830e-01,-4.145617223089715919e-01,5.342986359956883313e-02
1.970000000000000084e-01,-3.397803935259677277e-01,-4.589057734207875883e-01,-2.108986737633055872e-02
1.980000000000000093e-01,-4.526301097563542042e-01,-4.294668141801866179e-01,-8.031723194903457597e-02
1.990000000000000102e-01,-5.234432380137782337e-01,-3.542890275997415683e-01,-1.607931677830877204e-01
2.000000000000000111e-01,-5.408153335810925721e-01,-2.232967637492391244e-01,-2.266609571067054185e-01
2.010000000000000120e-01,-4.982426978121587968e-01,-6.056225017419596124e-02,-2.725608948185667679e-01
2.020000000000000129e-01,-3.788065605672717440e-01,1.164915249144298365e-01,-3.170698935982328992e-01
2.030000000000000138e-01,-2.070053382011018406e-01,2.699681339669572355e-01,-3.168466220734312278e-01
2.039999999999999869e-01,-2.515716314498818787e-03,3.711359433767445482e-01,-2.650000492253895001e-01
2.049999999999999878e-01,2.097657780900132052e-01,4.229251044392156045e-01,-1.816189718681528731e-01
2.059999999999999887e-01,3.927974023742154541e-01,4.171476576304220529e-01,-8.504386594799037691e-02
2.069999999999999896e-01,5.084998182238888997e-01,3.395680844083769911e-01,3.851125059636466286e-02
2.079999999999999905e-01,5.621864625190992060e-01,2.240083314019734317e-01,1.671451897752559701e-01
2.089999999999999913e-01,5.207167170899897890e-01,9.520957546274461114e-02,2.617695051435469655e-01
2.099999999999999922e-01,4.027075553303519073e-01,-2.194933733010932114e-02,3.194469221669126169e-01
2.109999999999999931e-01,2.488882135446622845e-01,-1.173450487302587497e-01,3.458603253098941899e-01
2.119999999999999940e-01,8.851432321299082528e-02,-1.777616979213166304e-01,3.075460791953057993e-01
2.129999999999999949e-01,-7.995435100257518302e-02,-2.037808893994028370e-01,2.378755190632573513e-01
2.139999999999999958e-01,-1.954129993408748045e-01,-1.967489725687500135e-01,1.353283228823885243e-01
2.149999999999999967e-01,-2.672438113739574184e-01,-1.585200874050386732e-01,2.776163875710278145e-02
2.159999999999999976e-01,-3.059425537644645532e-01,-1.188738766326314367e-01,-6.904143518937341795e-02
2.169999999999999984e-01,-2.717749679531409890e-01,-8.942155120226037701e-02,-1.493646619651523844e-01
2.179999999999999993e-01,-2.141407257848999546e-01,-7.421588068505106939e-02,-1.893577915294965552e-01
2.190000000000000002e-01,-1.635853222336420276e-01,-7.329294520560569737e-02,-1.978525182894806944e-01
2.200000000000000011e-01,-1.114678022577964833e-01,-6.732077970062233518e-02,-1.806584073808727431e-01
2.210000000000000020e-01,-6.988726462906541537e-02,-6.529372484079661032e-02,-1.350782744443117800e-01
2.220000000000000029e-01,-6.317809784442851573e-02,-4.883026473078111440e-02,-1.011917922264980868e-01
2.230000000000000038e-01,-5.477571408107038964e-02,-9.575611741109614147e-03,-6.152575876846579778e-02
2.240000000000000047e-01,-4.090854629834621281e-02,3.555497398444316948e-02,-2.893211518144760824e-02
2.250000000000000056e-01,-2.751481971111241140e-02,8.916283177407655081e-02,-1.341638304940452435e-02
2.260000000000000064e-01,-3.892232438212086653e-03,1.402504023761911855e-01,-5.300688000124270834e-03
2.270000000000000073e-01,4.439741698475127563e-02,1.767543864803940712e-01,-3.911924037265757104e-03
2.280000000000000082e-01,1.171989677935525026e-01,1.818393110353121456e-01,-4.152010111910100576e-04
2.290000000000000091e-01,1.745137088841141049e-01,1.633407512847622478e-01,7.947880246141210761e-03
2.300000000000000100e-01,2.089424664937958587e-01,1.207408927753985117e-01,4.078949769083729804e-02
2.310000000000000109e-01,2.221893715346389131e-01,5.216512156563867658e-02,6.285025613619438234e-02
2.320000000000000118e-01,2.102933138091301890e-01,-7.410409378168672338e-03,9.403733720837942345e-02
2.330000000000000127e-01,1.506209895354742034e-01,-4.029552613970052016e-02,1.155345426720052471e-01
2.340000000000000135e-01,8.085904586721635867e-02,-7.439809454355723883e-02,1.324937068188238309e-01
2.349999999999999867e-01,-7.379127836639046752e-04,-7.870337458290722898e-02,1.240300907709444428e-01
2.359999999999999876e-01,-6.753896292496525122e-02,-5.543645917692949232e-02,8.945229891656526766e-02
2.369999999999999885e-01,-1.181442541130707097e-01,-3.998243615174162241e-02,4.412640848227952078e-02
2.379999999999999893e-01,-1.242882721960129749e-01,-9.810884099230894953e-03,-4.296850496742376027e-03
2.389999999999999902e-01,-1.237877529323597875e-01,-1.305459807065909245e-03,-4.451058899926153833e-02
2.399999999999999911e-01,-8.025864474375585256e-02,-1.836415406291262709e-02,-6.966895390561224366e-02
2.409999999999999920e-01,-4.629708237653989283e-02,-4.601476503644833654e-02,-9.565266667821263613e-02
2.419999999999999929e-01,-9.061668879540008686e-03,-1.010019267786783637e-01,-8.485346122193498930e-02
2.429999999999999938e-01,-1.206863797318872937e-02,-1.562682676689310657e-01,-7.119267902645780299e-02
2.439999999999999947e-01,-4.748748418460545934e-02,-1.939976999226388776e-01,-4.159873532701217208e-02
2.449999999999999956e-01,-9.038623805151214941e-02,-1.994083773477974830e-01,-8.730378618236400018e-03
2.459999999999999964e-01,-1.559684351542379166e-01,-1.502696519354918547e-01,-3.350050576199484643e-03
2.469999999999999973e-01,-2.015932199426844207e-01,-8.914715506185494354e-02,-4.932058963880917371e-03
2.479999999999999982e-01,-2.108645377838481161e-01,2.680014272663724939e-02,-4.077860538490560988e-02
2.489999999999999991e-01,-1.871533541415068835e-01,1.555961839421758919e-01,-6.092592084072236125e-02
2.500000000000000000e-01,-1.064654654525642036e-01,2.668942483948332223e-01,-9.480331122054386217e-02
2.510000000000000009e-01,1.117420500384467760e-02,3.394663619020412693e-01,-1.058631265242979125e-01
2.520000000000000018e-01,1.621097777994764677e-01,3.792185342092026512e-01,-1.025720538072279892e-01
2.530000000000000027e-01,2.936549758504098384e-01,3.466977607231743752e-01,-6.625886830687061080e-02
2.540000000000000036e-01,4.049662325088708714e-01,2.711024573853252906e-01,-7.824900458133533798e-03
2.550000000000000044e-01,4.557756011547158259e-01,1.479989575110236544e-01,7.531501028356013538e-02
2.560000000000000053e-01,4.344615171840983670e-01,6.436766490445117693e-03,1.526224970514567514e-01
2.570000000000000062e-01,3.554256948184122966e-01,-1.323503514525324887e-01,2.143183043686059386e-01
2.580000000000000071e-01,2.206001957374285893e-01,-2.500938325057503464e-01,2.628266405360796809e-01
2.590000000000000080e-01,3.781019236099573966e-02,-3.099244362322389201e-01,2.674784319044281045e-01
2.600000000000000089e-01,-1.366362260428702902e-01,-3.407239646171962844e-01,2.273810604162414817e-01
2.610000000000000098e-01,-2.866406669689970932e-01,-3.395087056318303875e-01,1.636971146387959930e-01
2.620000000000000107e-01,-4.005460146649514330e-01,-3.010335657620528682e-01,5.877165259936262265e-02
2.630000000000000115e-01,-4.647952327162194197e-01,-2.414816894272778514e-01,-4.727168687128716074e-02
2.640000000000000124e-01,-4.621357416335959978e-01,-1.678311252312958413e-01,-1.439113896270465265e-01
2.650000000000000133e-01,-4.006539451863410095e-01,-8.098197239899113109e-02,-2.288443150564177520e-01
2.660000000000000142e-01,-3.126396512565993158e-01,-4.839296462099613658e-03,-2.749950267814958993e-01
2.670000000000000151e-01,-1.979880803754144880e-01,8.288156954542232058e-02,-2.883527753625190204e-01
2.680000000000000160e-01,-9.325038058788678863e-02,1.529628811926229681e-01,-2.579070850937627557e-01
2.690000000000000169e-01,1.441791102678711273e-02,2.223963812996705425e-01,-2.049614441836072332e-01
2.700000000000000178e-01,1.141157451120543842e-01,2.928719844991347632e-01,-1.397849893550648648e-01
2.710000000000000187e-01,1.973972102229906433e-01,3.529893536307723845e-01,-6.744904945061973300e-02
2.720000000000000195e-01,2.719235612141009950e-01,3.734340616726661843e-01,7.004040646008833672e-03
2.730000000000000204e-01,3.420570315592415533e-01,3.763106886379117277e-01,6.978209006947547199e-02
2.740000000000000213e-01,4.084103365792708384e-01,3.266978317908834084e-01,1.192690165564888466e-01
2.750000000000000222e-01,4.397805619101681218e-01,2.099529000231735443e-01,1.602418328794083524e-01
2.760000000000000231e-01,4.452366795337571181e-01,6.615256765946068984e-02,2.020762956045500935e-01
2.770000000000000240e-01,3.914490675592177116e-01,-1.015756480013204205e-01,2.252599789748483405e-01
2.780000000000000249e-01,2.841327643891284338e-01,-2.731936973486880360e-01,2.465254042019908720e-01
2.790000000000000258e-01,1.476155966138979203e-01,-4.165439890971769366e-01,2.413976453878176054e-01
2.800000000000000266e-01,-5.137395177279648062e-02,-5.240707449603367873e-01,2.231449820487450275e-01
2.810000000000000275e-01,-2.524622413053811409e-01,-5.437965799927289012e-01,1.773083890232802218e-01
2.819999999999999729e-01,-4.506108622086828497e-01,-4.943976474072417915e-01,1.080606626844728274e-01
2.829999999999999738e-01,-6.002125300903292660e-01,-3.711054322819153373e-01,1.069917960543861034e-02
2.839999999999999747e-01,-6.646384579991941877e-01,-2.063628495914394401e-01,-9.421415574764990808e-02
2.849999999999999756e-01,-6.582440756293551631e-01,-1.596019435697947422e-02,-2.128766607403325961e-01
2.859999999999999765e-01,-5.435668201289555190e-01,1.738499915541845964e-01,-3.050987988236255610e-01
2.869999999999999774e-01,-3.724577937756552992e-01,3.353324547655904264e-01,-3.645110417686572846e-01
2.879999999999999782e-01,-1.345828402414990244e-01,4.332161563150929151e-01,-3.877933199935453823e-01
2.889999999999999791e-01,1.108943611843828808e-01,4.739668782340539788e-01,-3.603002191173717561e-01
2.899999999999999800e-01,3.347202767366474485e-01,4.520659156130401590e-01,-2.836237388231290235e-01
2.909999999999999809e-01,5.048930693171131967e-01,3.684728447427338405e-01,-1.676937021928771865e-01
2.919999999999999818e-01,5.976785575533516415e-01,2.695274153207222745e-01,-1.172441225854257453e-02
2.929999999999999827e-01,6.129444065442392064e-01,1.434547245278277872e-01,1.250070018260334426e-01
2.939999999999999836e-01,5.486385697998031885e-01,3.060076131491344664e-02,2.644452987310504377e-01
2.949999999999999845e-01,4.150653051482327549e-01,-6.907662743890097268e-02,3.409150640053724146e-01
2.959999999999999853e-01,2.613318430796738312e-01,-1.556521509602922515e-01,3.775926441934971400e-01
2.969999999999999862e-01,8.750387113457570865e-02,-2.027983767120138392e-01,3.660162099138803415e-01
2.979999999999999871e-01,-5.555759875466651648e-02,-2.481590680376355995e-01,3.130366813929075231e-01
2.989999999999999880e-01,-1.729876286560510512e-01,-2.811913274950763042e-01,2.248090318490649497e-01
2.999999999999999889e-01,-2.664386086795517694e-01,-2.934558811149044488e-01,1.050000981781240988e-01
3.009999999999999898e-01,-3.262903579974858470e-01,-2.728151999622817070e-01,1.042805520164518697e-02
3.019999999999999907e-01,-3.360055019974728663e-01,-2.676227547102439930e-01,-8.855172191789005554e-02
3.029999999999999916e-01,-3.490996531458857022e-01,-2.196855947052069602e-01,-1.476290869036031017e-01
3.039999999999999925e-01,-3.541138258519117010e-01,-1.360529341549684690e-01,-2.010866540225717536e-01
3.049999999999999933e-01,-3.229652166298218607e-01,-4.652368264207423082e-02,-2.211860853401187987e-01
3.059999999999999942e-01,-2.678690508776985779e-01,6.628953773834692087e-02,-2.181231652693033929e-01
3.069999999999999951e-01,-2.026823973390742828e-01,1.857690538441690020e-01,-2.216492402281305119e-01
3.079999999999999960e-01,-1.122249968277474197e-01,2.958687066664359988e-01,-1.942578284238701269e-01
3.089999999999999969e-01,7.400642336637846749e-03,3.534838763469441147e-01,-1.701251548555952064e-01
3.099999999999999978e-01,1.463893173703422756e-01,3.643338886005295651e-01,-1.304700265869693510e-01
3.109999999999999987e-01,2.673775216374649211e-01,3.299255568189287668e-01,-9.631797652379303631e-02
3.119999999999999996e-01,3.751272052119923872e-01,2.499958619850081443e-01,-1.917296089878168727e-02
3.130000000000000004e-01,4.427105950907918031e-01,1.381472523635177696e-01,2.794711992314904275e-02
3.140000000000000013e-01,4.603351650609695533e-01,2.222308287298608177e-03,1.032020064651134328e-01
3.150000000000000022e-01,4.045480575023974179e-01,-1.124110242565004580e-01,1.787367158999063621e-01
3.160000000000000031e-01,2.963632344957970455e-01,-2.102948603381247228e-01,2.415592058713490753e-01
3.170000000000000040e-01,1.301472438662887865e-01,-2.561787417380645415e-01,2.689488301304907569e-01
3.180000000000000049e-01,-2.846711927420402313e-02,-2.494063865941333336e-01,2.660487964429795738e-01
3.190000000000000058e-01,-1.759965397768457340e-01,-2.172486869740161142e-01,2.260764671475735677e-01
3.200000000000000067e-01,-2.896350359547946174e-01,-1.367166263525799452e-01,1.537628003349597317e-01
3.210000000000000075e-01,-3.431530631330298453e-01,-6.616933431017683886e-02,7.660833030824062972e-02
3.220000000000000084e-01,-3.435279480185540191e-01,3.826757269340187381e-03,-2.848431582621875277e-02
3.230000000000000093e-01,-2.935632565532274585e-01,3.347820405656349446e-02,-1.150572963248214370e-01
3.240000000000000102e-01,-1.882924104511454477e-01,5.716747849540682741e-02,-1.952789846625418990e-01
3.250000000000000111e-01,-8.637883259596504382e-02,4.232820150893580602e-02,-2.238428503619754595e-01
3.260000000000000120e-01,1.451465067768963274e-03,4.824408303867082186e-03,-2.353230919466915705e-01
3.270000000000000129e-01,6.437005759948552508e-02,-2.552363695353512124e-02,-1.876688553043209806e-01
3.280000000000000138e-01,8.459313560641761043e-02,-5.245739629134555521e-02,-1.242883841428096409e-01
3.290000000000000147e-01,8.788364819966265618e-02,-3.937177401667823345e-02,-6.433568661281818812e-02
3.300000000000000155e-01,4.084906709695503707e-02,-1.987767088275791544e-02,1.017794130280976102e-02
3.310000000000000164e-01,-7.952143712181048568e-03,3.931458289393264388e-02,4.165127530284690183e-02
3.320000000000000173e-01,-3.906997684963598588e-02,9.875308812497601840e-02,6.479298078619973034e-02
3.330000000000000182e-01,-3.280900665767109287e-02,1.503463466991853403e-01,6.793745198878881064e-02
3.340000000000000191e-01,-1.638000800601595655e-02,1.817445939989096870e-01,4.793387442183709435e-02
3.350000000000000200e-01,2.377978042549311333e-02,1.847361707881629289e-01,3.302729905275172961e-02
3.360000000000000209e-01,1.046331490716279344e-01,1.642339056517473639e-01,-5.909238643928329746e-03
3.370000000000000218e-01,1.662213738981188071e-01,9.978737918049489231e-02,-9.502379336597964812e-03
3.380000000000000226e-01,2.155924893246101148e-01,3.461974203134673966e-02,-9.428273701891098230e-03
3.390000000000000235e-01,2.152364347018353441e-01,-3.602980278557854632e-02,1.130880915700985430e-02
3.400000000000000244e-01,1.904194031088253802e-01,-9.610413080614904624e-02,4.888593957675980983e-02
3.410000000000000253e-01,1.341648464650958272e-01,-1.399877071707941734e-01,8.218115412479529147e-02
3.420000000000000262e-01,4.713729259500895608e-02,-1.475738196330775576e-01,1.123555558222119055e-01
3.430000000000000271e-01,-4.296129370239878259e-02,-1.510477899450643480e-01,1.198633140681701903e-01
3.439999999999999725e-01,-1.315985776935654772e-01,-1.249610386920766425e-01,1.104220963749331930e-01
3.449999999999999734e-01,-1.762844113546612468e-01,-1.195715565946939840e-01,7.915459076127268068e-02
3.459999999999999742e-01,-2.087250444413532580e-01,-1.062828541838635732e-01,2.848097891843895391e-02
3.469999999999999751e-01,-1.998359865438855409e-01,-9.310434541438671052e-02,-2.162803819468875691e-02
3.479999999999999760e-01,-1.869134829909394613e-01,-1.016491242642635906e-01,-7.470062588437595408e-02
3.489999999999999769e-01,-1.540233002603934587e-01,-1.019185102078182525e-01,-1.188023622405437879e-01
3.499999999999999778e-01,-1.275961006758513372e-01,-7.293367552042706592e-02,-1.398667053126764759e-01
3.509999999999999787e-01,-9.571932467245614085e-02,-2.757790344065598476e-02,-1.363902235403952057e-01
3.519999999999999796e-01,-9.188312129056674937e-02,4.974055091251781968e-02,-1.214227629722955115e-01
3.529999999999999805e-01,-7.324404859789469813e-02,1.268192848392565852e-01,-9.214680104130879013e-02
3.539999999999999813e-01,-6.687333771685258221e-02,2.307843135475181606e-01,-8.036828198136994339e-02
3.549999999999999822e-01,-1.434708433590548352e-02,3.058653604886508171e-01,-5.370133743409923055e-02
3.559999999999999831e-01,5.548306967988226451e-02,3.579553792090640618e-01,-3.891416075335461106e-02
3.569999999999999840e-01,1.500936133935548145e-01,3.685761183980093558e-01,-2.015699400375144112e-02
3.579999999999999849e-01,2.374904763687469000e-01,3.175618971177958660e-01,-1.664988222618190433e-02
3.589999999999999858e-01,3.387929779999682700e-01,2.044372680919375740e-01,5.836935430149396697e-03
3.599999999999999867e-01,4.071683703922086006e-01,5.638038381498308022e-02,3.489029287398826701e-02
3.609999999999999876e-01,4.333547397903407816e-01,-1.240620537828245329e-01,6.302282852173954342e-02
3.619999999999999885e-01,3.857970345096983777e-01,-2.852421490462240805e-01,1.252032601004602064e-01
3.629999999999999893e-01,2.744655607415307230e-01,-4.125699359992440196e-01,1.733115695201065953e-01
3.639999999999999902e-01,1.040406497364222693e-01,-4.825672366077152775e-01,2.140164239472771290e-01
3.649999999999999911e-01,-9.117976275990712087e-02,-4.960118300848642137e-01,2.412010987518726501e-01
3.659999999999999920e-01,-2.968213591797462247e-01,-4.170508550639465128e-01,2.271770483548648523e-01
3.669999999999999929e-01,-4.642475941725245359e-01,-3.079072030309915053e-01,1.813879396614356820e-01
3.679999999999999938e-01,-5.801431383774717787e-01,-1.389174076793266988e-01,9.043916538100085778e-02
3.689999999999999947e-01,-6.130213111517255342e-01,1.937801937865225865e-02,-1.679119621410784038e-02
3.699999999999999956e-01,-5.582275425048237594e-01,1.613757912885429857e-01,-1.299659527657992253e-01
3.709999999999999964e-01,-4.305350795531467378e-01,2.752914635780439601e-01,-2.482947823172705348e-01
3.719999999999999973e-01,-2.395501019237297469e-01,3.450559508829900701e-01,-3.183532099377296976e-01
3.729999999999999982e-01,-4.101434493097613071e-02,3.817164275108557714e-01,-3.571433029601381870e-01
3.739999999999999991e-01,1.644673588845169676e-01,3.685446600572654385e-01,-3.463337228127207901e-01
3.750000000000000000e-01,3.369460220482947688e-01,3.325052938182290196e-01,-2.840460953207635808e-01
3.760000000000000009e-01,4.444244175964940369e-01,2.741048505685079184e-01,-1.810152121484016052e-01
3.770000000000000018e-01,4.960043300207048755e-01,2.108094910154507118e-01,-6.557624847925389022e-02
3.780000000000000027e-01,5.020736338384957920e-01,1.258359760239544378e-01,4.808393464941036755e-02
3.790000000000000036e-01,4.560639447817065872e-01,2.921643575058327155e-02,1.718622136026915492e-01
3.800000000000000044e-01,3.731890069813262323e-01,-6.199295019911167659e-02,2.478912428408694968e-01
3.810000000000000053e-01,2.674694227158446180e-01,-1.712519192267567825e-01,3.036895487109796399e-01
3.820000000000000062e-01,1.634096577872838074e-01,-2.658034505204037723e-01,3.141942803842647791e-01
3.830000000000000071e-01,4.764458423800810305e-02,-3.622928006745417817e-01,2.925112477998764726e-01
3.840000000000000080e-01,-6.901944254413831803e-02,-4.220623356101851908e-01,2.404717364080318220e-01
3.850000000000000089e-01,-1.868699044850303803e-01,-4.416920667368985365e-01,1.746825601247111448e-01
3.860000000000000098e-01,-2.938443612202130684e-01,-4.067502473328527546e-01,1.158945372969607396e-01
3.870000000000000107e-01,-3.910546872039444843e-01,-3.197794089433591558e-01,3.348648910833360026e-02
3.880000000000000115e-01,-4.791128150874410796e-01,-1.807493508966532270e-01,-2.918665011059652994e-02
3.890000000000000124e-01,-5.139944166724528252e-01,-7.792753813389314589e-03,-9.440900490908110676e-02
3.900000000000000133e-01,-5.145365548229065000e-01,1.738129326010829367e-01,-1.626019099504300847e-01
3.910000000000000142e-01,-4.379321348188230933e-01,3.292862535366082311e-01,-2.100610526475672202e-01
3.920000000000000151e-01,-2.995943716585662275e-01,4.626883423606836798e-01,-2.610604735528494480e-01
3.930000000000000160e-01,-1.144369762030846421e-01,5.138303484322979120e-01,-2.918990946880585802e-01
3.940000000000000169e-01,8.704290176736201312e-02,4.971815975948403743e-01,-2.969416180028105479e-01
3.950000000000000178e-01,3.259648262590407741e-01,4.124619335029247602e-01,-2.757669024543679681e-01
3.960000000000000187e-01,4.948549161191791446e-01,2.881678587028910776e-01,-2.100520457745015945e-01
3.970000000000000195e-01,6.186293540291580850e-01,1.214048103371138526e-01,-1.289508823366022350e-01
3.980000000000000204e-01,6.498300042416129685e-01,-6.347423893458786770e-02,-8.336578209093373562e-03
3.990000000000000213e-01,6.034203848414979587e-01,-2.063671433988744641e-01,1.048147985315798225e-01
4.000000000000000222e-01,4.607188275163848767e-01,-3.000525824131925479e-01,2.268004339795061386e-01
4.010000000000000231e-01,2.678840135094293640e-01,-3.632090340495868763e-01,3.102926158344783691e-01
4.020000000000000240e-01,5.226439646309247178e-02,-3.424089720139676940e-01,3.885167064624704958e-01
4.030000000000000249e-01,-1.613891568636640628e-01,-3.048202051788548306e-01,3.835212541066861380e-01
4.040000000000000258e-01,-3.313320059751567737e-01,-2.330008771562508407e-01,3.381874282809699817e-01
4.050000000000000266e-01,-4.329872233492509381e-01,-1.486734969298263431e-01,2.518386331637159081e-01
4.060000000000000275e-01,-4.809195016107010168e-01,-8.171406539806620739e-02,1.247564471106726997e-01
4.069999999999999729e-01,-4.606395751549157147e-01,-2.464826269263627537e-02,-4.250796225408692841e-03
4.079999999999999738e-01,-3.867953730677541890e-01,2.512927200538643893e-02,-1.332492118155505223e-01
4.089999999999999747e-01,-2.680634843434715475e-01,6.052863278047315720e-02,-2.294158953235784781e-01
4.099999999999999756e-01,-1.581868263215016890e-01,9.461234263583748194e-02,-2.962283775602794766e-01
4.109999999999999765e-01,-5.490528155500360580e-02,1.251099314999637169e-01,-3.121518188921618697e-01
4.119999999999999774e-01,2.425864808827978697e-02,1.539957258219227521e-01,-2.858763370447789387e-01
4.129999999999999782e-01,8.841290309816780824e-02,1.870024113682297040e-01,-2.351946676145143245e-01
4.139999999999999791e-01,1.250642261220782925e-01,2.071082421374751126e-01,-1.524689199790290883e-01
4.149999999999999800e-01,1.558535931564049293e-01,2.206872105447222898e-01,-7.364476602070951783e-02
4.159999999999999809e-01,1.885836102388338542e-01,1.903465424486784352e-01,-8.155452022313961977e-03
4.169999999999999818e-01,2.086815154086974766e-01,1.338895370331359136e-01,5.060762063558055940e-02
4.179999999999999827e-01,2.319999865163410169e-01,7.517333311746755842e-02,8.039926901936406134e-02
4.189999999999999836e-01,2.543885532810222228e-01,-2.041706825486612129e-02,1.050237198477048800e-01
4.199999999999999845e-01,2.422041500075987341e-01,-1.059897672899469401e-01,1.206563408910777679e-01
4.209999999999999853e-01,2.193876929970850209e-01,-1.852738322769232060e-01,1.274872279202967085e-01
4.219999999999999862e-01,1.588031569595762249e-01,-2.263669766681024043e-01,1.340773484954705663e-01
4.229999999999999871e-01,6.422846109901705902e-02,-2.165950070564066077e-01,1.371941870016062937e-01
4.239999999999999880e-01,-4.596689651520773079e-02,-1.916075902316588531e-01,1.374602181495142295e-01
4.249999999999999889e-01,-1.574976812703152984e-01,-1.333074630459731569e-01,1.341918289995194247e-01
4.259999999999999898e-01,-2.356992769051482195e-01,-5.467074911545237448e-02,1.175418484853973933e-01
4.269999999999999907e-01,-2.822749034069564900e-01,5.778585882473931748e-03,8.558343825113418069e-02
4.279999999999999916e-01,-2.879850639731744710e-01,5.734174889406137149e-02,2.899888094110734602e-02
4.289999999999999925e-01,-2.512886432162391159e-01,7.133198824739223065e-02,-3.037066546480483159e-02
4.299999999999999933e-01,-1.739176555477936759e-01,4.989898435318884662e-02,-8.966381944954687766e-02
4.309999999999999942e-01,-6.620124790916319391e-02,4.152959905257549988e-02,-1.498335378731978362e-01
4.319999999999999951e-01,6.962701697402781317e-03,-1.245509143421962700e-02,-1.686532377050167786e-01
4.329999999999999960e-01,7.967997940968739312e-02,-4.470823769964232808e-02,-1.700926470182054229e-01
4.339999999999999969e-01,1.153381744236209733e-01,-5.804653121670017707e-02,-1.570557225224097631e-01
4.349999999999999978e-01,1.113734718901637777e-01,-4.760310720547199920e-02,-1.105546361659080629e-01
4.359999999999999987e-01,7.433312065939665092e-02,1.423514219425202473e-03,-6.163694961695408842e-02
4.369999999999999996e-01,2.040632302637431644e-02,7.782328423430920350e-02,2.568492318433123096e-03
4.380000000000000004e-01,-3.401271342492896005e-02,1.550886453097302942e-01,5.544744113577795147e-02
4.390000000000000013e-01,-6.270809394553382432e-02,2.069745896958405385e-01,7.666757491781489575e-02
4.400000000000000022e-01,-4.930985948545064251e-02,2.337606736806440710e-01,8.898827773770373595e-02
4.410000000000000031e-01,4.901879510288664234e-03,2.129960018881718598e-01,6.973867323090901515e-02
4.420000000000000040e-01,6.478095404217992792e-02,1.748115390806337655e-01,3.727469280371629307e-02
4.430000000000000049e-01,1.552200484580802120e-01,6.835897929307394039e-02,-1.426846474323592833e-03
4.440000000000000058e-01,2.306772354916595269e-01,-4.509311676823605369e-02,-1.229610197505945010e-02
4.450000000000000067e-01,2.657685605202026458e-01,-1.478897039489319443e-01,-3.252307785158516790e-02
4.460000000000000075e-01,2.641896621817312885e-01,-2.411287643113372570e-01,-1.196722233938030816e-02
4.470000000000000084e-01,2.050067620850332950e-01,-2.957201848697220692e-01,1.884657769397636573e-02
4.480000000000000093e-01,1.072726397356383171e-01,-3.004888593577934586e-01,7.317191003873856070e-02
4.490000000000000102e-01,-3.066519332160495825e-02,-2.738455576825467586e-01,1.113422927553829184e-01
4.500000000000000111e-01,-1.774766347797710753e-01,-2.127967178504670265e-01,1.345991145509528586e-01
4.510000000000000120e-01,-2.801580482563445496e-01,-1.335402016406433134e-01,1.426339928440618909e-01
4.520000000000000129e-01,-3.585418590492719382e-01,-4.542742710987251326e-02,1.314496888840229194e-01
4.530000000000000138e-01,-3.912875276779227973e-01,2.506024696982876374e-02,7.947214626283873040e-02
4.540000000000000147e-01,-3.638477385848448153e-01,9.979668575043544598e-02,8.194883784677789787e-04
4.550000000000000155e-01,-2.869396357298707456e-01,1.508636695466723798e-01,-8.858129248132712297e-02
4.560000000000000164e-01,-1.750037851335621286e-01,1.948486267197590827e-01,-1.513258698527690793e-01
4.570000000000000173e-01,-6.832244367314681266e-02,2.155190531800525167e-01,-2.133054442358954250e-01
4.580000000000000182e-01,4.534171579594307305e-02,2.422098122132518294e-01,-2.389965023524573406e-01
4.590000000000000191e-01,1.381929749843219812e-01,2.570220934061555051e-01,-2.255209644831367155e-01
4.600000000000000200e-01,2.057789660575475299e-01,2.603074722693725085e-01,-1.782948016705194483e-01
4.610000000000000209e-01,2.532479599477801546e-01,2.438240757008584281e-01,-1.322956404014228038e-01
4.620000000000000218e-01,2.782133717138301487e-01,2.122906629308730087e-01,-5.440242750099802405e-02
4.630000000000000226e-01,2.974834676516994736e-01,1.235033957728872284e-01,2.771211636117325641e-02
4.640000000000000235e-01,2.977446099650570277e-01,2.475282851784382093e-02,8.983525009809117945e-02
4.650000000000000244e-01,2.988559694633523001e-01,-1.198617882767893522e-01,1.352927968635347644e-01
4.660000000000000253e-01,2.738711008931390967e-01,-2.659298327405764661e-01,1.634120557592206036e-01
4.670000000000000262e-01,2.301892777866818285e-01,-3.908353982294807683e-01,1.805822794760049421e-01
4.680000000000000271e-01,1.435366725051791525e-01,-4.703317164709221454e-01,1.862107478856659948e-01
4.689999999999999725e-01,3.669978255725162702e-02,-4.964120074753718415e-01,1.788894618821786908e-01
4.699999999999999734e-01,-1.124846185587105307e-01,-4.478171457483675066e-01,1.671868486208649696e-01
4.709999999999999742e-01,-2.725410209626010771e-01,-3.416812137798845850e-01,1.514304595337527815e-01
4.719999999999999751e-01,-4.247472974104529730e-01,-1.692153858249740572e-01,1.187331595632768466e-01
4.729999999999999760e-01,-5.304289029509533515e-01,2.256957555823985856e-02,8.754477143962025032e-02
4.739999999999999769e-01,-5.898817850793331985e-01,2.128176143004646970e-01,3.008231020714022610e-02
4.749999999999999778e-01,-5.614454436820441874e-01,3.746293120558204515e-01,-4.455197646876492279e-02
4.759999999999999787e-01,-4.706177539386083852e-01,4.847059874144312164e-01,-1.208242530177079527e-01
4.769999999999999796e-01,-2.907256686150421765e-01,5.239578530470423434e-01,-2.135025558899856790e-01
4.779999999999999805e-01,-5.648235525478459418e-02,4.948803644890377718e-01,-2.805256906906598569e-01
4.789999999999999813e-01,1.838726038110953809e-01,4.001723962072590846e-01,-3.361419322560842415e-01
4.799999999999999822e-01,4.079720063106663797e-01,2.599020052581204610e-01,-3.431507830855675123e-01
4.809999999999999831e-01,5.748239129616780074e-01,1.005990612355677355e-01,-2.975861667031616253e-01
4.819999999999999840e-01,6.557792609873609457e-01,-4.932885264256783864e-02,-2.078767513806703826e-01
4.829999999999999849e-01,6.562338512677093894e-01,-1.762683656092206563e-01,-9.296977762027601455e-02
4.839999999999999858e-01,5.611616540609727366e-01,-2.662841514990086922e-01,4.688432957463987971e-02
4.849999999999999867e-01,4.018955464990068283e-01,-3.256491269560520818e-01,1.816698798176978880e-01
4.859999999999999876e-01,2.019267725161212890e-01,-3.498227373748167834e-01,2.977908903852637956e-01
4.869999999999999885e-01,8.082568194052639453e-04,-3.417989429990359040e-01,3.826536017305655069e-01
4.879999999999999893e-01,-1.788073669469896487e-01,-3.165053803714596992e-01,4.131837030972455582e-01
4.889999999999999902e-01,-3.221706526856505937e-01,-2.769128524844712280e-01,3.854864398777700929e-01
4.899999999999999911e-01,-4.160339483454584264e-01,-2.239145581022385645e-01,3.009953919351521789e-01
4.909999999999999920e-01,-4.492610295923040731e-01,-1.544061552718396513e-01,1.953527065239542837e-01
4.919999999999999929e-01,-4.535036277672023219e-01,-5.188688356651909722e-02,6.630485771020132313e-02
4.929999999999999938e-01,-4.124137315936867720e-01,4.834573086282284438e-02,-6.104898220867448905e-02
4.939999999999999947e-01,-3.571296169369861939e-01,1.603202812571376534e-01,-1.716051779924829546e-01
4.949999999999999956e-01,-2.756689812612412305e-01,2.670026657968112560e-01,-2.392530657313316489e-01
4.959999999999999964e-01,-1.933042303707619702e-01,3.577974906499550856e-01,-2.898703609876518428e-01
4.969999999999999973e-01,-8.380108587215101545e-02,4.131691572236479426e-01,-2.903349011399177781e-01
4.979999999999999982e-01,1.546505475701240480e-02,4.167566301489923908e-01,-2.810645559521985914e-01
4.989999999999999991e-01,1.350783319593266973e-01,3.658084325189633890e-01,-2.484779369036221042e-01
5.000000000000000000e-01,2.665831156641157440e-01,2.636687451655006509e-01,-1.807105654809177675e-01
5.010000000000000009e-01,3.832582477157083778e-01,1.197148928297208786e-01,-1.367031455128790707e-01
5.020000000000000018e-01,4.631929446029871555e-01,-3.538139071889094545e-02,-7.103309014157012380e-02
5.030000000000000027e-01,5.055016917850965186e-01,-1.902757927046752617e-01,-3.789142511946880405e-03
5.040000000000000036e-01,4.868078929424437540e-01,-3.157686495730707699e-01,5.686523143899772925e-02
5.050000000000000044e-01,4.017399552538350460e-01,-3.941300187537498667e-01,1.285634995841789252e-01
5.060000000000000053e-01,2.708222799399252478e-01,-3.936933813910333257e-01,1.853282692065579274e-01
5.070000000000000062e-01,8.253881108203228734e-02,-3.575121055948333182e-01,2.392130874437021770e-01
5.080000000000000071e-01,-1.110930769552302688e-01,-2.669256103635119781e-01,2.749679400217483471e-01
5.090000000000000080e-01,-2.980989689505238460e-01,-1.408499488712407766e-01,2.989191820327655180e-01
5.100000000000000089e-01,-4.428475390557054525e-01,-1.834835678587775840e-02,2.627644760369953203e-01
5.110000000000000098e-01,-5.106176086082679921e-01,9.746052258914854327e-02,2.155354641454430287e-01
5.120000000000000107e-01,-5.106789723508303735e-01,1.506944471522705664e-01,1.321351982435634842e-01
5.130000000000000115e-01,-4.400309047507587890e-01,1.747264586455709034e-01,1.652144972511233184e-02
5.140000000000000124e-01,-3.027850283878270599e-01,1.864540526522742714e-01,-9.729942562956080121e-02
5.150000000000000133e-01,-1.531079899388433363e-01,1.577347761224880685e-01,-2.003249934036646918e-01
5.160000000000000142e-01,3.735188457375818605e-03,1.070363503899146307e-01,-2.890460333743047339e-01
5.170000000000000151e-01,1.510276258315038644e-01,7.708488583052387766e-02,-3.170198756645660199e-01
5.180000000000000160e-01,2.446216194989347670e-01,5.191401884060489053e-02,-3.024767234022320839e-01
5.190000000000000169e-01,2.814078781355663916e-01,4.468991057407265682e-02,-2.705044496843450053e-01
5.200000000000000178e-01,2.622735302320580719e-01,6.185780584492889256e-02,-1.715414841483419439e-01
5.210000000000000187e-01,2.199157800640154925e-01,6.121497704652208161e-02,-7.654412083002203049e-02
5.220000000000000195e-01,1.473718819491715015e-01,6.643567025700516937e-02,2.409181778146965783e-02
5.230000000000000204e-01,9.472418359138094768e-02,5.712718071604486886e-02,1.170839924268019666e-01
5.240000000000000213e-01,4.776727914358738086e-02,2.343371378946806222e-02,1.698613809106768180e-01
5.250000000000000222e-01,3.036547641632984448e-02,-1.917706008461745465e-02,1.843335456337812095e-01
5.260000000000000231e-01,3.824253025300358710e-02,-8.466034303517000481e-02,1.662357275124838607e-01
5.270000000000000240e-01,5.055381473281139043e-02,-1.241364422540323642e-01,1.476191081939197403e-01
5.280000000000000249e-01,5.911774310359595858e-02,-1.606931522463445061e-01,9.612556179399868450e-02
5.290000000000000258e-01,6.043237270213181606e-02,-1.742860429313594917e-01,5.156896313118856240e-02
5.300000000000000266e-01,2.026166931785057870e-02,-1.575377332737765701e-01,2.500291518088096007e-02
5.310000000000000275e-01,-3.592683189888921935e-02,-1.229303970661707324e-01,5.464497299940336041e-03
5.320000000000000284e-01,-9.171490543416797869e-02,-6.353311296898322968e-02,5.344383239834936059e-03
5.330000000000000293e-01,-1.467155631603926647e-01,1.409183010045366282e-03,9.098456312945367094e-03
5.340000000000000302e-01,-2.024822166061954754e-01,2.215233294012160931e-02,1.049555167371139623e-02
5.350000000000000311e-01,-2.171770270952625703e-01,5.758050396743049498e-02,1.070990685798704767e-02
5.360000000000000320e-01,-1.940344513936229087e-01,5.273070182278882800e-02,6.623713510154855683e-03
5.370000000000000329e-01,-1.473739481240944060e-01,4.141830998832828764e-02,-2.458732586619240615e-02
5.380000000000000338e-01,-8.502937106671107359e-02,3.095824971159136935e-02,-4.847916453070835741e-02
5.390000000000000346e-01,-1.885261730114932283e-02,2.089251237355801635e-02,-9.053208327647663256e-02
5.400000000000000355e-01,3.949395305221034547e-02,3.986575729337032276e-02,-1.206409451944562145e-01
5.410000000000000364e-01,8.278698367779771528e-02,5.236085626213179967e-02,-1.183395884986961077e-01
5.420000000000000373e-01,9.496242130313939378e-02,1.113147650099939046e-01,-1.179023903386554328e-01
5.430000000000000382e-01,8.538123320529078519e-02,1.469078298711459785e-01,-8.634011043763634152e-02
5.440000000000000391e-01,7.319751841257100822e-02,1.877662641787266884e-01,-5.660592154427902811e-02
5.450000000000000400e-01,4.029588324446892883e-02,2.230756950093742419e-01,-1.618119534687771296e-02
5.460000000000000409e-01,4.521007838521712285e-02,1.964756155247369129e-01,3.336283376557226676e-02
5.470000000000000417e-01,6.174742215701485570e-02,1.335531063461378176e-01,6.961835370442658044e-02
5.480000000000000426e-01,1.055282232447790902e-01,1.655270468517747173e-02,7.623684987914190747e-02
5.490000000000000435e-01,1.595391703582328957e-01,-1.047550611143162891e-01,6.935552749593179578e-02
5.500000000000000444e-01,2.095712041108895307e-01,-2.320801297393523255e-01,6.263147267888281855e-02
5.510000000000000453e-01,2.307253881548265162e-01,-3.443605274032356944e-01,3.926665869888114335e-02
5.520000000000000462e-01,2.258566454281647762e-01,-4.169243992319855430e-01,3.661712961469460598e-02
5.530000000000000471e-01,1.526892079711307804e-01,-3.947042029429276844e-01,3.622767750497704609e-02
5.540000000000000480e-01,3.992915499487136727e-02,-3.399715695945056404e-01,4.248243902079577861e-02
5.550000000000000488e-01,-9.573067671334135886e-02,-2.365449501097795226e-01,7.536777349633941303e-02
5.560000000000000497e-01,-2.543628317960505147e-01,-9.205655319681975424e-02,9.504452582370478964e-02
5.570000000000000506e-01,-3.871664003591122061e-01,6.679829669354768462e-02,1.185748068254672272e-01
5.580000000000000515e-01,-4.693593564973775889e-01,2.092525686288340403e-01,1.040943007491811484e-01
5.590000000000000524e-01,-4.857251759650937917e-01,3.175557315462159136e-01,8.861604602705173972e-02
5.600000000000000533e-01,-4.399881874323263165e-01,3.698520491164023483e-01,4.157189063811848190e-02
5.610000000000000542e-01,-3.092174862067682550e-01,3.841318879070266812e-01,-3.245276121242364475e-02
5.620000000000000551e-01,-1.386575534043840152e-01,3.457328865303537779e-01,-1.245145446465823619e-01
5.629999999999999449e-01,5.239829266886299186e-02,2.860271359829532622e-01,-1.843270672731916471e-01
5.639999999999999458e-01,2.406764009220433154e-01,2.040018077195192014e-01,-2.610332180505680610e-01
5.649999999999999467e-01,3.858560455736081973e-01,1.096934127643797718e-01,-2.796212669909338699e-01
5.659999999999999476e-01,4.716326986250772846e-01,2.437960797575791996e-02,-2.685637162100290576e-01
5.669999999999999485e-01,5.015961900806542584e-01,-7.735007758242926079e-02,-2.110861886611238858e-01
5.679999999999999494e-01,4.754871283533859683e-01,-1.517788844251331259e-01,-1.230587195745423551e-01
5.689999999999999503e-01,3.797930415922697311e-01,-2.196396330597149560e-01,-7.138075256117721451e-03
5.699999999999999512e-01,2.601186385938599743e-01,-2.847586112178403517e-01,1.044533618522092561e-01
5.709999999999999520e-01,1.495843517926982447e-01,-3.350691231637142886e-01,2.031871874991402205e-01
5.719999999999999529e-01,1.178782221885542672e-02,-3.698192267808754763e-01,2.750033560801262156e-01
5.729999999999999538e-01,-9.874879487285442847e-02,-3.748991048592379971e-01,3.029358534504650868e-01
5.739999999999999547e-01,-1.894759936985168924e-01,-3.387682890378624356e-01,2.978535818883877306e-01
5.749999999999999556e-01,-2.684618934435076265e-01,-2.525479474788712153e-01,2.592138233362988875e-01
5.759999999999999565e-01,-3.445206987322089742e-01,-1.230506807987718221e-01,1.916331252888003045e-01
5.769999999999999574e-01,-4.039497365046155752e-01,3.826266895006449203e-02,1.074439086609782212e-01
5.779999999999999583e-01,-4.325150588879286273e-01,2.051222000568926618e-01,2.440731273505106561e-02
5.789999999999999591e-01,-4.494502695221504474e-01,3.719958842364378682e-01,-4.652433573697140057e-02
5.799999999999999600e-01,-4.059239441082071465e-01,4.758404563826933997e-01,-1.139812346859461895e-01
5.809999999999999609e-01,-3.180872233687835893e-01,5.342305688399778818e-01,-1.633363084878582672e-01
5.819999999999999618e-01,-1.903347695493899372e-01,5.252109318267910165e-01,-1.986347625277632145e-01
5.829999999999999627e-01,-1.979615261860316264e-02,4.302690822820530170e-01,-2.308069057105648914e-01
5.839999999999999636e-01,1.778655663598182057e-01,2.823307093918661637e-01,-2.442326358349171112e-01
5.849999999999999645e-01,3.640273679117214667e-01,9.435742544684548594e-02,-2.360813784009579142e-01
5.859999999999999654e-01,5.332897757383712189e-01,-1.086905988803031631e-01,-2.372739551621846910e-01
5.869999999999999662e-01,6.364936041779950537e-01,-2.723760141428923087e-01,-1.912463434786817740e-01
5.879999999999999671e-01,6.641268363666511521e-01,-4.067792720998469891e-01,-1.350888951528040893e-01
5.889999999999999680e-01,5.913709631028074565e-01,-4.678905077403959778e-01,-5.664872540800260786e-02
5.899999999999999689e-01,4.475207411914770561e-01,-4.626682954462023045e-01,4.413594625951269140e-02
5.909999999999999698e-01,2.339092474052716086e-01,-3.917402115039366750e-01,1.677082414381291520e-01
5.919999999999999707e-01,-1.217048978428366020e-02,-3.001805908980214044e-01,2.595415467425274958e-01
5.929999999999999716e-01,-2.501749889133718652e-01,-1.801985972811371572e-01,3.434425147053221661e-01
5.939999999999999725e-01,-4.460598014670359990e-01,-5.870061238594920239e-02,3.899063771814414436e-01
5.949999999999999734e-01,-5.726843043696228097e-01,5.991924390575998488e-02,3.870691397472381667e-01
5.959999999999999742e-01,-6.146897860930544688e-01,1.464534367359272560e-01,3.195922512030253682e-01
5.969999999999999751e-01,-5.755347901581093772e-01,1.942523424625729467e-01,2.168774329161881620e-01
5.979999999999999760e-01,-4.649960810738401062e-01,2.382821548500139164e-01,8.182471080015663034e-02
5.989999999999999769e-01,-3.132687101475616909e-01,2.462175717260047803e-01,-6.815445487711932482e-02
5.999999999999999778e-01,-1.449303654650412054e-01,2.511022900681478820e-01,-2.031617639182634882e-01
6.009999999999999787e-01,1.703547612019426852e-02,2.569845748998828006e-01,-3.039909114721041083e-01
6.019999999999999796e-01,1.515521236342856626e-01,2.269876184154800414e-01,-3.718425218580336811e-01
6.029999999999999805e-01,2.533517167729276154e-01,2.041606672809846701e-01,-3.693907253710088656e-01
6.039999999999999813e-01,3.177889626102265441e-01,1.541756669850728456e-01,-3.472802054269839012e-01
6.049999999999999822e-01,3.302094958472195363e-01,8.001994785638666396e-02,-2.619457211524626739e-01
6.059999999999999831e-01,3.357786442791460546e-01,-1.340410174184791976e-02,-1.650273251357894377e-01
6.069999999999999840e-01,3.252739400761804345e-01,-1.162190950592382616e-01,-4.638354156685709634e-02
6.079999999999999849e-01,2.889816233839338500e-01,-2.192698846273669622e-01,4.633486237881131314e-02
6.089999999999999858e-01,2.597449486243356698e-01,-2.876901312677798694e-01,1.444529556349759269e-01
6.099999999999999867e-01,1.993932178155472523e-01,-3.276679792294188154e-01,1.929646046015368044e-01
6.109999999999999876e-01,1.359777767772259727e-01,-3.219912598855311781e-01,2.131092920759245779e-01
6.119999999999999885e-01,3.943330735539407605e-02,-2.676760762213796219e-01,2.174743947309464298e-01
6.129999999999999893e-01,-7.124950787796485718e-02,-1.783443884466494045e-01,2.156607969677432346e-01
6.139999999999999902e-01,-1.817635213374765302e-01,-6.621148685456548777e-02,1.910922838731924089e-01
6.149999999999999911e-01,-2.944230383719962929e-01,5.638947462100982883e-02,1.568061363993481228e-01
6.159999999999999920e-01,-3.653914374855173897e-01,1.516327380226542842e-01,1.330694625917697160e-01
6.169999999999999929e-01,-4.154930764610527127e-01,2.228540260549533303e-01,9.997285805677876003e-02
6.179999999999999938e-01,-3.923909060018189177e-01,2.367465540077511033e-01,5.475369955953750950e-02
6.189999999999999947e-01,-3.238095665506587895e-01,2.151050752357565599e-01,-1.861914922301238090e-03
6.199999999999999956e-01,-2.030397202676657020e-01,1.636940879728755738e-01,-5.883586002576775276e-02
6.209999999999999964e-01,-5.655120361727541956e-02,7.361246431149036373e-02,-1.257128933405382287e-01
6.219999999999999973e-01,9.519997652725932513e-02,9.225676995152204060e-03,-1.803621638954130413e-01
6.229999999999999982e-01,2.189218761776991207e-01,-2.978849980306405576e-02,-2.177567308236963706e-01
6.239999999999999991e-01,2.994028355235339167e-01,-4.961368961765161983e-02,-2.399585984100253977e-01
6.250000000000000000e-01,3.227888258540922983e-01,-3.467417018252472172e-02,-2.373015982524426248e-01
6.260000000000000009e-01,2.926565221882363454e-01,3.498876377230481383e-03,-1.826316306270232281e-01
6.270000000000000018e-01,2.052068163670974776e-01,3.381215560217715188e-02,-1.149753716409508686e-01
6.280000000000000027e-01,1.092531058808778738e-01,6.499840403048028070e-02,-2.323075151590220030e-02
6.290000000000000036e-01,1.527170679447920239e-02,8.512571913379203548e-02,6.265389325479649163e-02
6.300000000000000044e-01,-4.738250122613738013e-02,6.548753198792188479e-02,1.486028785955159914e-01
6.310000000000000053e-01,-7.317435790969811782e-02,1.250528421991857139e-02,1.847907660114812556e-01
6.320000000000000062e-01,-7.172247542380372209e-02,-5.938698399236121139e-02,2.040248836465138882e-01
6.330000000000000071e-01,-3.473131628442900631e-02,-1.185987894284704497e-01,1.913423708361147169e-01
6.340000000000000080e-01,1.844527777051392647e-02,-1.798151942895575561e-01,1.385334113002104628e-01
6.350000000000000089e-01,5.595108488843127115e-02,-2.117784785599353126e-01,9.102817684327936532e-02
6.360000000000000098e-01,8.944031246927829082e-02,-2.092658057675253203e-01,2.530592546133491466e-02
6.370000000000000107e-01,6.947489788341665307e-02,-1.723836165304538648e-01,-2.402350839465680274e-02
6.380000000000000115e-01,7.978243116209635111e-03,-1.083240617492371716e-01,-6.103041657328452108e-02
6.390000000000000124e-01,-5.027185003088988080e-02,-1.973908148322105205e-02,-6.665901737179306952e-02
6.400000000000000133e-01,-1.402720172404134658e-01,4.481830984971594406e-02,-4.930136972743384693e-02
6.410000000000000142e-01,-2.087919862409343408e-01,1.080762875278096918e-01,-2.553908617361208208e-02
6.420000000000000151e-01,-2.541084685022029777e-01,1.528864679296710605e-01,1.472046476404292002e-02
6.430000000000000160e-01,-2.558102186819972701e-01,1.830873205384860314e-01,3.897682339988683270e-02
6.440000000000000169e-01,-2.191627478959435882e-01,1.737550761519758569e-01,3.821341681044527344e-02
6.450000000000000178e-01,-1.321542121125221514e-01,1.729470230242552975e-01,1.974958293403430987e-02
6.460000000000000187e-01,-4.458306515666922432e-02,1.580182029053004145e-01,-1.236244492261870387e-02
6.470000000000000195e-01,6.528914832804783019e-02,1.388742412744660981e-01,-6.757711785462480747e-02
6.480000000000000204e-01,1.523387450414900035e-01,1.147162652990920545e-01,-1.083228813225922682e-01
6.490000000000000213e-01,2.112520983799005547e-01,9.906031851837551749e-02,-1.389017913261339221e-01
6.500000000000000222e-01,2.512143003543554354e-01,6.980011399315715070e-02,-1.506012315705653193e-01
6.510000000000000231e-01,2.440870059879451659e-01,3.824662550392510935e-02,-1.322362515772944058e-01
6.520000000000000240e-01,2.099439196414225051e-01,-2.739116304855544054e-02,-9.441236868464207566e-02
6.530000000000000249e-01,1.798203090558111450e-01,-1.085140316275546579e-01,-3.458534779474792265e-02
6.540000000000000258e-01,1.447941942386765657e-01,-2.113414243619349264e-01,3.559471677392596345e-02
6.550000000000000266e-01,1.184304612344664331e-01,-2.973547899987443177e-01,8.464071607923132068e-02
6.560000000000000275e-01,1.024474641581072792e-01,-3.572278557289110257e-01,1.300788811501027431e-01
6.570000000000000284e-01,5.762758813004725117e-02,-3.910114094647749727e-01,1.509205294201587388e-01
6.580000000000000293e-01,2.305279437782844706e-02,-3.507255343202930753e-01,1.633901947545834676e-01
6.590000000000000302e-01,-4.348503605477444661e-02,-2.595307579276366350e-01,1.467056253834458923e-01
6.600000000000000311e-01,-1.231900939897922487e-01,-1.180532798044597320e-01,1.084568718374114837e-01
6.610000000000000320e-01,-2.239815409235604016e-01,5.818537640371226893e-02,9.296920817484112531e-02
6.620000000000000329e-01,-3.204416858891506736e-01,2.231223425812189909e-01,6.815754346150895704e-02
6.630000000000000338e-01,-4.055890394508014363e-01,3.753590416816962594e-01,3.853470943926842751e-02
6.640000000000000346e-01,-4.454190257356238081e-01,4.786953249751625949e-01,2.628029786870694426e-02
6.650000000000000355e-01,-4.210779573765746076e-01,5.047401991666718990e-01,2.817734934810875534e-03
6.660000000000000364e-01,-3.307323936179425994e-01,4.768806022174006953e-01,-3.470459929985120207e-02
6.670000000000000373e-01,-1.913841354946195783e-01,3.718317653723007821e-01,-6.825759196782986427e-02
6.680000000000000382e-01,8.367778753968093883e-03,2.168274052610887903e-01,-1.073465712633358410e-01
6.690000000000000391e-01,2.230117325602067324e-01,5.130126953256920058e-02,-1.651617149958962139e-01
6.700000000000000400e-01,4.137306760835710584e-01,-1.141181505611836983e-01,-2.143802916452808849e-01
6.710000000000000409e-01,5.647104848827074752e-01,-2.484696283140208906e-01,-2.285667960882479532e-01
6.720000000000000417e-01,6.353194190371069805e-01,-3.414606941021747777e-01,-2.401057231242120782e-01
6.730000000000000426e-01,6.084183378107270723e-01,-3.920674474567827916e-01,-1.912289381477657868e-01
6.740000000000000435e-01,5.001238410226227504e-01,-4.066941490157698902e-01,-1.311717589866503442e-01
6.750000000000000444e-01,3.408282180362430802e-01,-3.609442781783728238e-01,-3.903321795450455378e-02
6.760000000000000453e-01,1.217089867426526667e-01,-2.961405102600529471e-01,8.067117205454925333e-02
6.770000000000000462e-01,-9.318028574218945037e-02,-2.224624131841563823e-01,2.016199452470603670e-01
6.780000000000000471e-01,-2.840172380533983465e-01,-1.450578806295673984e-01,3.054062884246602771e-01
6.790000000000000480e-01,-4.292025735589435897e-01,-6.251107368927719121e-02,3.625202559868391239e-01
6.800000000000000488e-01,-5.165225700303937018e-01,3.730830892913874347e-02,3.798996324711801931e-01
6.810000000000000497e-01,-5.221284089121981387e-01,1.386953428674672639e-01,3.422843592191173179e-01
6.820000000000000506e-01,-4.973457280243502865e-01,2.399112739324971710e-01,2.553471578119851926e-01
6.830000000000000515e-01,-4.173398543924963788e-01,3.184215260382801671e-01,1.318159007025391516e-01
6.840000000000000524e-01,-3.114782533665630959e-01,3.874421461996260252e-01,4.224392810553058257e-03
6.850000000000000533e-01,-1.805704957666679489e-01,4.269223371913914988e-01,-1.335108207308594586e-01
6.860000000000000542e-01,-6.106767486866946509e-02,4.085540077901139711e-01,-2.320259434301309154e-01
6.870000000000000551e-01,4.850614450916544695e-02,3.452691732848907624e-01,-3.006322149964595902e-01
6.879999999999999449e-01,1.610878135828343050e-01,2.417057713287730225e-01,-3.256426375291770481e-01
6.889999999999999458e-01,2.559903497747677004e-01,8.095564181395051295e-02,-3.316956316068561672e-01
6.899999999999999467e-01,3.617901078886348598e-01,-9.249512037914338347e-02,-2.808877007457329933e-01
6.909999999999999476e-01,4.363951841306392687e-01,-2.517118809495246801e-01,-2.145424024261398943e-01
6.919999999999999485e-01,4.817208997013661120e-01,-4.042192935767591755e-01,-1.478681037622715244e-01
6.929999999999999494e-01,4.893595728060468053e-01,-4.808210584690598699e-01,-6.157385478623265268e-02
6.939999999999999503e-01,4.506054659079793412e-01,-5.025814129531798180e-01,2.444109715574494662e-02
6.949999999999999512e-01,3.472708175104328165e-01,-4.504641368379080912e-01,8.552263230148053619e-02
6.959999999999999520e-01,1.866457208282589486e-01,-3.274268968179937511e-01,1.475397949302728051e-01
6.969999999999999529e-01,-1.122799732048397441e-02,-1.772311479794757283e-01,1.948209822838388727e-01
6.979999999999999538e-01,-2.081091013580639859e-01,-7.320613943145371817e-04,2.357649316711546705e-01
6.989999999999999547e-01,-4.032686095630687029e-01,1.382910632065245948e-01,2.702786990050546345e-01
6.999999999999999556e-01,-5.518539304363997422e-01,2.673843872051349102e-01,2.757980581303572376e-01
7.009999999999999565e-01,-6.217848540918133882e-01,3.382720383543129650e-01,2.644592193582916417e-01
7.019999999999999574e-01,-6.158494985854162662e-01,3.478195327938810588e-01,2.302123128114489936e-01
7.029999999999999583e-01,-5.113987994727544617e-01,3.057222202425865509e-01,1.697860301008509709e-01
7.039999999999999591e-01,-3.491153297605084083e-01,2.463196401626401855e-01,6.390027684640310623e-02
7.049999999999999600e-01,-1.356357993316366084e-01,1.606750663825629866e-01,-4.438285411962939603e-02
7.059999999999999609e-01,6.368672379722710442e-02,9.589678787915156821e-02,-1.623589491779443561e-01
7.069999999999999618e-01,2.598764283623399285e-01,1.779983245313780313e-02,-2.674359832742601029e-01
7.079999999999999627e-01,4.004464520754199008e-01,-2.466662470834589047e-02,-3.496724345723782323e-01
7.089999999999999636e-01,4.722207597659001110e-01,-4.988081779513350855e-02,-3.734557773778020562e-01
7.099999999999999645e-01,4.579846357699226544e-01,-7.021986838793146946e-02,-3.535018536353299878e-01
7.109999999999999654e-01,4.009240346857879111e-01,-8.043939347104117621e-02,-2.889098673249486660e-01
7.119999999999999662e-01,2.956375892139647688e-01,-1.088283111646810158e-01,-1.858369075300756179e-01
7.129999999999999671e-01,1.822929566706467941e-01,-1.283854368308058880e-01,-5.726554658140912968e-02
7.139999999999999680e-01,6.355460083076683309e-02,-1.542629671168054550e-01,7.048942489959264535e-02
7.149999999999999689e-01,-1.642288312972272138e-02,-1.843316633389103509e-01,1.844357299327825939e-01
7.159999999999999698e-01,-6.896741435088368788e-02,-1.719683636304417673e-01,2.626373446753934027e-01
7.169999999999999707e-01,-1.146546733629165427e-01,-1.565806074423097549e-01,2.852484884604596371e-01
7.179999999999999716e-01,-1.278851569617094064e-01,-1.106635445975547860e-01,2.976559696377854558e-01
7.189999999999999725e-01,-1.360244241399277687e-01,-4.143596203052001686e-02,2.512028296606912403e-01
7.199999999999999734e-01,-1.577141463109433539e-01,3.888817995859694676e-02,1.803437920494194435e-01
7.209999999999999742e-01,-1.761078175974964133e-01,1.045853482831011344e-01,9.839516744976833929e-02
7.219999999999999751e-01,-1.960901965726373208e-01,1.596572697041476752e-01,2.043855390755131007e-02
7.229999999999999760e-01,-2.111534896644815529e-01,1.880120663700024508e-01,-2.944892708584838717e-02
7.239999999999999769e-01,-2.065190559222205846e-01,1.883003498093241412e-01,-7.253365353796142889e-02
7.249999999999999778e-01,-1.824639538790913673e-01,1.584145298216147746e-01,-9.625354431360697016e-02
7.259999999999999787e-01,-1.163130881066572891e-01,9.469253576822460328e-02,-1.052967946599151633e-01
7.269999999999999796e-01,-3.364156119333668038e-02,2.627158047308946615e-02,-1.004991500457426690e-01
7.279999999999999805e-01,5.544201773980929338e-02,-1.661690917072027041e-02,-9.651861965817949696e-02
7.289999999999999813e-01,1.442526482095134177e-01,-4.559503882980299461e-02,-1.077899059467420928e-01
7.299999999999999822e-01,2.176324894132005972e-01,-4.496237956886628417e-02,-1.075831164594503730e-01
7.309999999999999831e-01,2.633001943639719511e-01,-1.995983892696396103e-02,-1.115172079595145166e-01
7.319999999999999840e-01,2.443769003003425366e-01,1.650076071443910136e-02,-1.072393360530079359e-01
7.329999999999999849e-01,2.019442937928659643e-01,5.589506729791289541e-02,-8.319668649078307276e-02
7.339999999999999858e-01,1.246765477690869733e-01,7.405138166208577455e-02,-5.547845213116826824e-02
7.349999999999999867e-01,4.290770062575555849e-02,6.049796322827954986e-02,-1.817308910056159368e-02
7.359999999999999876e-01,-3.408531406880035974e-02,2.215759518119633786e-02,4.290991679022831268e-02
7.369999999999999885e-01,-7.385059764995861864e-02,-5.066195765657260236e-02,7.938605791288037838e-02
7.379999999999999893e-01,-8.920383392109179632e-02,-1.256425826836377047e-01,1.299454410728830001e-01
7.389999999999999902e-01,-5.131356617732309167e-02,-2.126345093811036757e-01,1.594887699440182272e-01
7.399999999999999911e-01,-1.335609061080618790e-02,-2.556649980150781931e-01,1.556893193733814018e-01
7.409999999999999920e-01,2.902488841831657104e-02,-2.707358138685307392e-01,1.344487842804062416e-01
7.419999999999999929e-01,6.264114060987054089e-02,-2.293311762863288472e-01,9.094717628384434149e-02
7.429999999999999938e-01,5.324465501027125791e-02,-1.432966477412253858e-01,3.608892582584011938e-02
7.439999999999999947e-01,1.638092841588760853e-02,-2.812162795116334574e-02,-7.275764233817288984e-03
7.449999999999999956e-01,-4.896272736387521918e-02,1.036019886908752796e-01,-3.712063880961386647e-02
7.459999999999999964e-01,-1.353483910079046060e-01,2.175654691911556304e-01,-6.456444521149926064e-02
7.469999999999999973e-01,-2.195421967160585408e-01,3.003999602745148767e-01,-5.552245827561611002e-02
7.479999999999999982e-01,-2.933903101335107455e-01,3.479845235946765203e-01,-3.931079092416318865e-02
7.489999999999999991e-01,-3.051637460582721784e-01,3.289866578098138983e-01,-2.149874896889908231e-03
7.500000000000000000e-01,-2.718003672715113561e-01,2.850875257412139874e-01,2.442466461204951395e-02
7.510000000000000009e-01,-1.899245248735211278e-01,2.101913693179887632e-01,3.617213253080310553e-02
7.520000000000000018e-01,-5.126308393576649997e-02,9.852945828846750020e-02,1.176413955524612497e-02
7.530000000000000027e-01,9.998778196698168697e-02,1.380751177793785624e-02,-9.837166321597401106e-03
7.540000000000000036e-01,2.478974424186788650e-01,-8.411522182080019561e-02,-5.681394604193671510e-02
7.550000000000000044e-01,3.803258722360144950e-01,-1.508450989697577571e-01,-1.048254695676593684e-01
7.560000000000000053e-01,4.339764129737742060e-01,-2.092315053899912181e-01,-1.570158847719516360e-01
7.570000000000000062e-01,4.187048352379827976e-01,-2.397525494066996832e-01,-1.709391272822700925e-01
7.580000000000000071e-01,3.770505132365202239e-01,-2.683056084617036485e-01,-1.596779276982663309e-01
7.590000000000000080e-01,2.778656487969001776e-01,-2.799409658283716906e-01,-1.161302143672559989e-01
7.600000000000000089e-01,1.404216087461745421e-01,-2.683725592808159921e-01,-5.493940513969209488e-02
7.610000000000000098e-01,2.417709830197787083e-02,-2.634553807789164481e-01,3.125839004951390387e-02
7.620000000000000107e-01,-9.727052867106317224e-02,-2.167921851935400712e-01,1.173628162828534716e-01
7.630000000000000115e-01,-2.008453844673921407e-01,-1.575993969029278741e-01,2.003801072538098083e-01
7.640000000000000124e-01,-2.715711855046772927e-01,-4.659701940983977664e-02,2.426180333570439329e-01
7.650000000000000133e-01,-3.090754878831690755e-01,7.755451610924403438e-02,2.600807261271532167e-01
7.660000000000000142e-01,-3.235814158670767826e-01,2.198893994629643744e-01,2.399738310646561401e-01
7.670000000000000151e-01,-3.335010616018510010e-01,3.472597484239604571e-01,1.879656472211478080e-01
7.680000000000000160e-01,-3.259971594746559065e-01,4.469030330817105323e-01,1.129056161865494429e-01
7.690000000000000169e-01,-2.951178747354885057e-01,4.953489292104502062e-01,2.701374094429463690e-02
7.700000000000000178e-01,-2.515884675163325146e-01,4.775454207082176494e-01,-4.979202727056684236e-02
7.710000000000000187e-01,-1.779486320023444812e-01,3.917876378926677394e-01,-1.264559405735743991e-01
7.720000000000000195e-01,-6.268935224089737523e-02,2.466486410459388379e-01,-1.741810225684755908e-01
7.730000000000000204e-01,6.795723213819716835e-02,5.121225179710911513e-02,-2.028362848476217561e-01
7.740000000000000213e-01,2.221643522251837422e-01,-1.360046708968035423e-01,-2.176229130237563592e-01
7.750000000000000222e-01,3.760238459143919743e-01,-3.208939794051910432e-01,-2.060867915087001845e-01
7.760000000000000231e-01,5.028408577364892329e-01,-4.604884816142185699e-01,-1.923289482347861346e-01
7.770000000000000240e-01,5.855439226563968758e-01,-5.313212048116675579e-01,-1.724025372780221277e-01
7.780000000000000249e-01,5.977413028418656626e-01,-5.230782210673945443e-01,-1.367225127136299789e-01
7.790000000000000258e-01,5.187075013111324129e-01,-4.411485826443887204e-01,-9.425909712148071440e-02
7.800000000000000266e-01,3.668451720590177878e-01,-3.186980414054331745e-01,-4.134515627015890316e-02
7.810000000000000275e-01,1.633329017757713664e-01,-1.626117829218640398e-01,1.981555346580318733e-02
7.820000000000000284e-01,-9.984189480002837735e-02,-7.462385308673099432e-03,9.764653877744698673e-02
7.830000000000000293e-01,-3.211092891425647022e-01,1.347534374325584927e-01,1.851840214012774599e-01
7.840000000000000302e-01,-5.214343630444919775e-01,2.507045456079611823e-01,2.558423957915573199e-01
7.850000000000000311e-01,-6.485923236596687902e-01,3.228694149746519360e-01,3.102008532988535516e-01
7.860000000000000320e-01,-6.780149568724219700e-01,3.405673728750708285e-01,3.370171445381063835e-01
7.870000000000000329e-01,-6.254379170832110590e-01,3.502207007412010409e-01,3.178270367383602135e-01
7.880000000000000338e-01,-4.843672162563745776e-01,3.137872693892533871e-01,2.629984610370229015e-01
7.890000000000000346e-01,-2.865099760268203233e-01,2.720370850130715557e-01,1.552926749997677047e-01
7.900000000000000355e-01,-7.608032117463450761e-02,2.131652228172398744e-01,2.556198971624949398e-02
7.910000000000000364e-01,1.195450720043567255e-01,1.548910281099711295e-01,-1.173173874720162824e-01
7.920000000000000373e-01,2.880601791856797766e-01,6.862872719270002309e-02,-2.553572940356075849e-01
7.930000000000000382e-01,4.050194888820867756e-01,-7.669263244300848596e-03,-3.519585124959157540e-01
7.940000000000000391e-01,4.665257440863967986e-01,-1.006673453472397978e-01,-4.077929683092481605e-01
7.950000000000000400e-01,4.679432735881664529e-01,-2.133415968796953943e-01,-4.127432572011671130e-01
7.960000000000000409e-01,4.325870836884100901e-01,-3.031056797868522668e-01,-3.506847484497595535e-01
7.970000000000000417e-01,3.756275743393639455e-01,-3.543604173184631834e-01,-2.602838837654236070e-01
7.980000000000000426e-01,2.895280910939689312e-01,-3.944806577122358937e-01,-1.275958377996966875e-01
7.990000000000000435e-01,1.907813090076075635e-01,-3.765271048387819897e-01,7.108954020824405362e-03
8.000000000000000444e-01,9.622962338268105376e-02,-2.906839137152213426e-01,1.235590037796387569e-01
8.010000000000000453e-01,-4.437975692639408755e-03,-1.786922957450466920e-01,2.180758225380197424e-01
8.020000000000000462e-01,-9.986817672031809978e-02,-3.526657052254402597e-02,2.765976387119127300e-01
8.030000000000000471e-01,-2.059184944338326717e-01,1.170942937362824537e-01,3.050514788686339851e-01
8.040000000000000480e-01,-3.240983977486169287e-01,2.488986113507533904e-01,2.898034411846891478e-01
8.050000000000000488e-01,-4.089873517685143067e-01,3.429786039936736919e-01,2.576834750913890026e-01
8.060000000000000497e-01,-4.589091211032569340e-01,3.802545642906102197e-01,2.191494553583535065e-01
8.070000000000000506e-01,-4.689185653844616386e-01,3.676142608902838171e-01,1.466785155502582094e-01
8.080000000000000515e-01,-4.088189431442125210e-01,2.832739526213038928e-01,7.861721522028825015e-02
8.090000000000000524e-01,-3.163631057614831876e-01,1.757840870107910958e-01,2.974913371825367928e-02
8.100000000000000533e-01,-1.581729083354923848e-01,6.590230889575486584e-02,-4.497305286310622485e-02
8.110000000000000542e-01,2.528737304331122454e-02,-5.493253450128944559e-02,-9.665252488218749327e-02
8.120000000000000551e-01,1.990085964736997559e-01,-1.290626414570432146e-01,-1.481248683145195699e-01
8.129999999999999449e-01,3.535922859085720016e-01,-1.774126638463617844e-01,-2.154718003729300391e-01
8.139999999999999458e-01,4.532307803682611436e-01,-1.678076325518097489e-01,-2.327259694612827667e-01
8.149999999999999467e-01,4.993486258389573940e-01,-1.519332636392714542e-01,-2.617926294474086091e-01
8.159999999999999476e-01,4.440842677709786468e-01,-1.091066394999111872e-01,-2.550957000889141901e-01
8.169999999999999485e-01,3.509775232562354907e-01,-6.235002263173661935e-02,-2.345231452868466460e-01
8.179999999999999494e-01,2.122036004056310488e-01,-3.469369725989648878e-02,-1.762742056356226550e-01
8.189999999999999503e-01,5.176341462994819842e-02,-2.482247368187098790e-02,-6.963787267408573511e-02
8.199999999999999512e-01,-1.001575177703350056e-01,-3.437673626139812338e-02,3.021265381238836395e-02
8.209999999999999520e-01,-2.036891529445549742e-01,-5.409024797902960841e-02,1.399469871061577719e-01
8.219999999999999529e-01,-2.495707041526964987e-01,-7.510065779548263931e-02,2.210908931469223460e-01
8.229999999999999538e-01,-2.494741250743691685e-01,-9.861054943416945606e-02,2.912414255606597391e-01
8.239999999999999547e-01,-2.123639874139772177e-01,-8.592391020777570554e-02,3.040215148050425809e-01
8.249999999999999556e-01,-1.485144791803512665e-01,-4.088126170499918610e-02,2.767566038977860576e-01
8.259999999999999565e-01,-8.996248373533236031e-02,2.701802725487648799e-04,2.107441843636772005e-01
8.269999999999999574e-01,-4.710194574324635952e-02,6.565394791630937976e-02,1.284958638743983750e-01
8.279999999999999583e-01,-1.659944102027853877e-02,1.277190264189799473e-01,2.118567724136493496e-02
8.289999999999999591e-01,-2.059154536273913663e-02,1.561180983227066221e-01,-6.708791507027286882e-02
8.299999999999999600e-01,-3.497594722494683922e-02,1.682784028565936507e-01,-1.290963050197055650e-01
8.309999999999999609e-01,-6.558371562644813024e-02,1.573524186655909651e-01,-1.719511033115010135e-01
8.319999999999999618e-01,-8.472378101069526213e-02,1.272195498165183403e-01,-1.683168735549675499e-01
8.329999999999999627e-01,-7.729480981746043866e-02,6.700433008870840257e-02,-1.358175413322061653e-01
8.339999999999999636e-01,-4.348241056128984011e-02,2.871012157315889698e-02,-1.021542626538506082e-01
8.349999999999999645e-01,1.605239350767760642e-02,-1.271383909834634257e-02,-6.391470046497815805e-02
8.359999999999999654e-01,8.329369677154824236e-02,-3.795582451449165673e-02,-3.234259438124501701e-02
8.369999999999999662e-01,1.402793565283399491e-01,-3.474941298535009354e-02,-9.212926449990190697e-03
8.379999999999999671e-01,1.988926066259765757e-01,-3.617506583141488763e-02,-1.191418520821931016e-03
8.389999999999999680e-01,2.205733997324204609e-01,-3.280495828688932691e-02,-3.964075909073942056e-03
8.399999999999999689e-01,2.070544672555628685e-01,-4.791248301755392236e-02,-2.608176114296567941e-02
8.409999999999999698e-01,1.645059727400091099e-01,-7.051973951039725019e-02,-1.834424286038387891e-02
8.419999999999999707e-01,1.064013932922410755e-01,-1.114637671887598741e-01,-3.074169660210246055e-02
8.429999999999999716e-01,2.309956577342513889e-02,-1.561061098148828485e-01,-1.916404870124715359e-02
8.439999999999999725e-01,-2.549388802358537598e-02,-2.068632445539725639e-01,-1.684221795369906561e-04
8.449999999999999734e-01,-7.176718776824678181e-02,-2.237196958303317440e-01,4.003290584728148166e-02
8.459999999999999742e-01,-7.920601394457917055e-02,-2.226312500098703573e-01,6.826015969383361637e-02
8.469999999999999751e-01,-8.140418641098136343e-02,-1.702378407974719232e-01,1.141112442356258944e-01
8.479999999999999760e-01,-7.315063243918203117e-02,-6.825151503116268226e-02,1.396252996165821825e-01
8.489999999999999769e-01,-7.431894207106296002e-02,5.151813350067923486e-02,1.221603483432058129e-01
8.499999999999999778e-01,-8.978031430152155767e-02,1.964557057317582178e-01,1.063959461224068953e-01
8.509999999999999787e-01,-1.152299305356397352e-01,3.154352890483342331e-01,6.279650698142552612e-02
8.519999999999999796e-01,-1.625494898325130777e-01,3.925207857961379720e-01,2.694031478616777664e-02
8.529999999999999805e-01,-2.062391084079164827e-01,4.326089459666843662e-01,-1.739999410753328979e-02
8.539999999999999813e-01,-2.484651882612540497e-01,3.984126772903391345e-01,-4.602678676916996392e-02
8.549999999999999822e-01,-2.354531174899796575e-01,2.985178155568868896e-01,-6.430754673369631913e-02
8.559999999999999831e-01,-1.871960126390074808e-01,1.585590390148678697e-01,-6.753956793147834758e-02
8.569999999999999840e-01,-8.928079881353298553e-02,8.899662403093145041e-04,-7.232693617529803443e-02
8.579999999999999849e-01,4.578838073749448567e-02,-1.621161770691146309e-01,-5.686486338482214103e-02
8.589999999999999858e-01,2.067762407238795952e-01,-2.918654706713225688e-01,-5.509919897687723389e-02
8.599999999999999867e-01,3.455246205453948449e-01,-3.871484781339920578e-01,-6.394061835413118733e-02
8.609999999999999876e-01,4.702624037567407767e-01,-4.146137567810369018e-01,-7.477035853101894614e-02
8.619999999999999885e-01,5.212385720333065908e-01,-3.941593308044244459e-01,-9.943472846541548393e-02
8.629999999999999893e-01,4.926719885131666254e-01,-3.369032081688383973e-01,-1.115774806992401308e-01
8.639999999999999902e-01,4.001530561694536248e-01,-2.541890952844979568e-01,-1.211753243705609856e-01
8.649999999999999911e-01,2.349847969816832582e-01,-1.479240950138293875e-01,-1.048469640983026863e-01
8.659999999999999920e-01,4.654193182493668313e-02,-5.457138007406400065e-02,-6.502784297387173562e-02
8.669999999999999929e-01,-1.619320550753234056e-01,5.815909315680975467e-02,-5.116562477216719113e-03
8.679999999999999938e-01,-3.521324648193362994e-01,1.431218936178361156e-01,7.917470847371807507e-02
8.689999999999999947e-01,-4.792979540889459322e-01,2.252004744590780094e-01,1.652247280586910949e-01
8.699999999999999956e-01,-5.359437146630399162e-01,2.716618441862145850e-01,2.420663608380582699e-01
8.709999999999999964e-01,-5.345849561386551985e-01,3.314235599927829456e-01,2.948645283835964470e-01
8.719999999999999973e-01,-4.577668753368488441e-01,3.566723995756840848e-01,2.985849239501163765e-01
8.729999999999999982e-01,-3.381218178146572773e-01,3.652075867851456437e-01,2.597835391662629001e-01
8.739999999999999991e-01,-2.095040664542068554e-01,3.307848686515166281e-01,1.851972462775226258e-01
8.750000000000000000e-01,-6.467740538493754743e-02,2.694496469771441305e-01,7.131716537653609578e-02
8.760000000000000009e-01,8.260278043076800525e-02,1.676609179405196548e-01,-4.654547988172495765e-02
8.770000000000000018e-01,1.895314795064819979e-01,2.024839408758023415e-02,-1.701228911882623207e-01
8.780000000000000027e-01,2.771649784293039875e-01,-1.416079296962422795e-01,-2.600676179541623334e-01
8.790000000000000036e-01,3.507442773940676051e-01,-3.006242926759231104e-01,-3.199050281370285354e-01
8.800000000000000044e-01,4.038283746071380520e-01,-4.295875329950726296e-01,-3.334588610593056668e-01
8.810000000000000053e-01,4.267801452760623393e-01,-5.002411914664802728e-01,-3.108872285276180203e-01
8.820000000000000062e-01,4.293124297226706410e-01,-5.370954270069167036e-01,-2.407041295050948715e-01
8.830000000000000071e-01,4.030494459227507709e-01,-4.636435983060344102e-01,-1.609104458443647856e-01
8.840000000000000080e-01,3.355112297139217215e-01,-3.425668225527607191e-01,-7.246090219610437644e-02
8.850000000000000089e-01,2.312657936088785005e-01,-1.782149952133486592e-01,2.441419233733393632e-02
8.860000000000000098e-01,8.051049641213307850e-02,1.670564043224016110e-02,9.849316792636621243e-02
8.870000000000000107e-01,-9.962908746094573109e-02,2.062305876120867909e-01,1.657658343476713370e-01
8.880000000000000115e-01,-2.979119808653752921e-01,3.608841506305475733e-01,2.131926165317925004e-01
8.890000000000000124e-01,-4.657892408828497310e-01,4.485099710655175431e-01,2.380138254016977706e-01
8.900000000000000133e-01,-5.881961132451917207e-01,4.714559680310187462e-01,2.535788026671793038e-01
8.910000000000000142e-01,-6.503920373301760316e-01,4.227078211237795258e-01,2.455533153134442648e-01
8.920000000000000151e-01,-6.206659342306015681e-01,3.512616581535717986e-01,2.361152246026908819e-01
8.930000000000000160e-01,-5.117180125509407373e-01,2.091782672005716992e-01,2.115570444361359603e-01
8.940000000000000169e-01,-3.221184647596155304e-01,8.952803355740741875e-02,1.545952839642236731e-01
8.950000000000000178e-01,-8.814021001101042530e-02,-3.268786164050761778e-02,7.929262908234244178e-02
8.960000000000000187e-01,1.550792809696002195e-01,-1.149523091483763554e-01,-1.170358820401949662e-02
8.970000000000000195e-01,3.745929517094871430e-01,-1.859940598843210779e-01,-1.125594092495394855e-01
8.980000000000000204e-01,5.242852023959617691e-01,-2.251164983833243705e-01,-2.105117885453661741e-01
8.990000000000000213e-01,5.982906042292643889e-01,-2.327234592726722395e-01,-2.993251528385965088e-01
9.000000000000000222e-01,5.977210900222660328e-01,-2.322700220762597689e-01,-3.554726150157022091e-01
9.010000000000000231e-01,5.147666416351371899e-01,-2.210138036495604974e-01,-3.826169004012203723e-01
9.020000000000000240e-01,3.744697778117824782e-01,-2.070466640010202863e-01,-3.394501146335777153e-01
9.030000000000000249e-01,2.030789319693504513e-01,-2.016573265371925106e-01,-2.641438291742151945e-01
9.040000000000000258e-01,3.702479421720184655e-02,-1.648440519333673748e-01,-1.469818194065538597e-01
9.050000000000000266e-01,-1.192082741127950124e-01,-9.618544220430548519e-02,-7.762658000118670236e-03
9.060000000000000275e-01,-2.276048484436834218e-01,-3.025570227428339351e-02,1.409130695220030816e-01
9.070000000000000284e-01,-2.840583519625479725e-01,4.921357846631992800e-02,2.626726978313885241e-01
9.080000000000000293e-01,-3.201263649151151469e-01,1.411725175712567892e-01,3.481555764316835999e-01
9.090000000000000302e-01,-3.138333947282691549e-01,2.118596579041274186e-01,3.847080544659356449e-01
9.100000000000000311e-01,-2.907162599465866748e-01,2.839244257787706949e-01,3.579745651433526299e-01
9.110000000000000320e-01,-2.743665413898948024e-01,2.994383164303602851e-01,3.056355559113867471e-01
9.120000000000000329e-01,-2.273564743654927223e-01,2.726794165749529819e-01,2.057660176458737111e-01
9.130000000000000338e-01,-1.890584791344785409e-01,2.129124868048487551e-01,9.292155632937487697e-02
9.140000000000000346e-01,-1.375975092127370569e-01,1.178875776430195060e-01,-1.482925452975556065e-02
9.150000000000000355e-01,-7.608981407813293629e-02,7.133913192932703207e-03,-1.128826695405262398e-01
9.160000000000000364e-01,1.367336710428793296e-02,-9.317109365582471048e-02,-1.726695645222449949e-01
9.170000000000000373e-01,1.069479496700196236e-01,-1.582072361702174801e-01,-2.057273454314141325e-01
9.180000000000000382e-01,2.158561664695831384e-01,-2.116555447693622138e-01,-2.187711440805532315e-01
9.190000000000000391e-01,3.044382393231624406e-01,-2.000331401731123837e-01,-2.054684210493217811e-01
9.200000000000000400e-01,3.488711734233372330e-01,-1.581573741469172456e-01,-1.749285364128836950e-01
9.210000000000000409e-01,3.669930429844673880e-01,-9.779884426265642028e-02,-1.584471270744929050e-01
9.220000000000000417e-01,3.297702553744109033e-01,-3.964413591720639118e-02,-1.198402226435829471e-01
9.230000000000000426e-01,2.542059040644126244e-01,1.833417113958222752e-02,-8.335123269904207155e-02
9.240000000000000435e-01,1.222320459727977149e-01,3.427940914827618674e-02,-6.636656335930585238e-02
9.250000000000000444e-01,-5.698612052744308522e-03,3.648118482110719596e-02,-1.425222233757847921e-02
9.260000000000000453e-01,-1.356674043800874807e-01,2.439625196062582410e-04,3.330078174094159432e-02
9.270000000000000462e-01,-2.277565570400515160e-01,-4.703234385783602173e-02,7.705440725498259591e-02
9.280000000000000471e-01,-2.680319307597999745e-01,-8.365765168924560458e-02,1.341680242840837534e-01
9.290000000000000480e-01,-2.743611005949626036e-01,-1.130403236683567153e-01,1.774554603814463560e-01
9.300000000000000488e-01,-2.115320475210085704e-01,-1.072081943696758938e-01,2.058147875835142082e-01
9.310000000000000497e-01,-1.390743615970262415e-01,-5.417746383140062405e-02,2.126693794829502826e-01
9.320000000000000506e-01,-5.056082385001491736e-02,3.769934926994665449e-03,1.966287391220123970e-01
9.330000000000000515e-01,2.703632639548681979e-02,8.231422024341986110e-02,1.412157033083284718e-01
9.340000000000000524e-01,5.662574563274865025e-02,1.649352424055693100e-01,7.489295416933776373e-02
9.350000000000000533e-01,6.890288373842305691e-02,2.288499782627606560e-01,-7.963703644524396455e-03
9.360000000000000542e-01,3.905360369207176024e-02,2.427419323645978178e-01,-8.968532703884109225e-02
9.370000000000000551e-01,-1.659512978562410063e-02,2.415638247057672328e-01,-1.406594314119137545e-01
9.379999999999999449e-01,-6.904946000277961682e-02,1.719000130257619108e-01,-1.754802855217718061e-01
9.389999999999999458e-01,-1.010311843989957076e-01,9.401203281191342076e-02,-1.763890678932900080e-01
9.399999999999999467e-01,-1.055942051093002321e-01,6.421928452414790017e-03,-1.523696581003115558e-01
9.409999999999999476e-01,-6.927843633395935896e-02,-7.953512748845897873e-02,-1.030690395715250091e-01
9.419999999999999485e-01,-6.784441988967194158e-03,-1.388256708787824478e-01,-4.604449203061930507e-02
9.429999999999999494e-01,9.427736744682668757e-02,-1.993363961394599426e-01,1.116451177737647418e-02
9.439999999999999503e-01,1.885036892041721812e-01,-2.073364191022724345e-01,3.898428151779313039e-02
9.449999999999999512e-01,2.708168283706980928e-01,-2.105561819853829508e-01,4.442947222624173825e-02
9.459999999999999520e-01,3.119396704338828208e-01,-1.984980164114853174e-01,4.742512444030190510e-02
9.469999999999999529e-01,2.825329190392957823e-01,-1.734155576860921255e-01,1.556358133884124667e-02
9.479999999999999538e-01,2.305295216848682327e-01,-1.381368828439758223e-01,-1.648074040201389159e-02
9.489999999999999547e-01,1.335401748838044300e-01,-1.157567834003838669e-01,-4.204043794191291566e-02
9.499999999999999556e-01,5.299534138631367512e-03,-9.083774237884685576e-02,-4.863532112801481622e-02
9.509999999999999565e-01,-1.050225148646619783e-01,-4.452612448032139403e-02,-4.568015146427076983e-02
9.519999999999999574e-01,-1.991320045063481592e-01,1.074288959277263332e-02,-6.605843452035278264e-03
9.529999999999999583e-01,-2.610201479244741996e-01,9.634205717444960237e-02,3.760449812379748624e-02
9.539999999999999591e-01,-2.839052405457669903e-01,1.825862831099642758e-01,8.409929775456002898e-02
9.549999999999999600e-01,-2.811267260897132303e-01,2.787325657248224675e-01,1.384532213166225767e-01
9.559999999999999609e-01,-2.494101643642114285e-01,3.386805655397203130e-01,1.738403387764253516e-01
9.569999999999999618e-01,-2.061723197807731611e-01,3.803640240683238694e-01,1.700194403685732492e-01
9.579999999999999627e-01,-1.649835902551430034e-01,3.748368547517614835e-01,1.385006824887985710e-01
9.589999999999999636e-01,-1.200712786867232373e-01,3.126764280455739953e-01,9.878542877340470985e-02
9.599999999999999645e-01,-6.715258737671793432e-02,1.884380496029946506e-01,2.399973559548004842e-02
9.609999999999999654e-01,-2.026755898357470928e-02,2.904384694703327635e-02,-5.226302287017627751e-02
9.619999999999999662e-01,3.670208695334566118e-02,-1.631733092220546133e-01,-1.050251930801064382e-01
9.629999999999999671e-01,1.204921518295552219e-01,-3.259708657054369296e-01,-1.558589676498639554e-01
9.639999999999999680e-01,2.084888881683011896e-01,-4.558057963092294607e-01,-1.940652353596503399e-01
9.649999999999999689e-01,3.132395929747065488e-01,-5.241952296770653330e-01,-1.798560397198908367e-01
9.659999999999999698e-01,3.887517768750811675e-01,-5.072212292775235554e-01,-1.698686081664398106e-01
9.669999999999999707e-01,4.440658723812921926e-01,-4.285196679064708913e-01,-1.305403099457569382e-01
9.679999999999999716e-01,4.521593542396376564e-01,-2.950436021981635570e-01,-9.756522480277372844e-02
9.689999999999999725e-01,3.811822759097626689e-01,-1.262670388775584129e-01,-6.015541978903186926e-02
9.699999999999999734e-01,2.562023590059349654e-01,5.573428463122530319e-02,-3.259093566188729640e-02
9.709999999999999742e-01,6.864814981867978227e-02,2.048007744452838563e-01,6.158310186000372395e-03
9.719999999999999751e-01,-1.400004301921052574e-01,3.381861774022043021e-01,4.439535180566730327e-02
9.729999999999999760e-01,-3.601638257063400905e-01,4.041657526672275402e-01,6.808288504543123787e-02
9.739999999999999769e-01,-5.194121433023084489e-01,4.299302117656338407e-01,1.081112172123391835e-01
9.749999999999999778e-01,-6.291560754729279559e-01,3.936318954227427946e-01,1.642716579569437618e-01
9.759999999999999787e-01,-6.477704947930978951e-01,3.350355394733346981e-01,2.028973740891389099e-01
9.769999999999999796e-01,-5.882746646468303142e-01,2.513140628380898800e-01,2.380699684220067558e-01
9.779999999999999805e-01,-4.322069871375558980e-01,1.619797541983437894e-01,2.397893613644666577e-01
9.789999999999999813e-01,-2.219609439086000779e-01,6.193896770922847905e-02,2.359908404309246366e-01
9.799999999999999822e-01,5.021128424381690949e-03,-3.233887743478741639e-02,1.795785283836319191e-01
9.809999999999999831e-01,2.278112893217260904e-01,-1.180819332657195020e-01,8.789157438544449585e-02
9.819999999999999840e-01,3.987322692253252865e-01,-2.061973199231423859e-01,-3.223016805006435198e-02
9.829999999999999849e-01,5.096048831399208057e-01,-2.779351692223621662e-01,-1.489893296897842057e-01
9.839999999999999858e-01,5.602596171811476955e-01,-3.479882159839315370e-01,-2.655156021567905422e-01
9.849999999999999867e-01,5.349866570225132456e-01,-3.849125330483877949e-01,-3.454165442574773093e-01
9.859999999999999876e-01,4.662155875305508679e-01,-4.034303725238778116e-01,-3.924238793042017504e-01
9.869999999999999885e-01,3.483669175893953085e-01,-3.539981950577849035e-01,-3.686107897862092031e-01
9.879999999999999893e-01,2.271161405579376624e-01,-2.734803974959943984e-01,-3.091434817506625854e-01
9.889999999999999902e-01,8.602848274788989225e-02,-1.366023363377530386e-01,-2.065799372095149800e-01
9.899999999999999911e-01,-3.005606014817932201e-02,1.622347057113531291e-02,-6.765280570657673798e-02
9.909999999999999920e-01,-1.456251365628426497e-01,1.799144021100198276e-01,6.398975655818629760e-02
9.919999999999999929e-01,-2.444291052419360344e-01,3.215061690376343484e-01,1.876910179501121434e-01
9.929999999999999938e-01,-3.413801654107431194e-01,4.364422030829241961e-01,2.907245022877475993e-01
9.939999999999999947e-01,-3.953478446929429846e-01,4.785246689546960308e-01,3.472891461508995636e-01
9.949999999999999956e-01,-4.488923288837826653e-01,4.500239466926472254e-01,3.501231690533140317e-01
9.959999999999999964e-01,-4.625900202169467290e-01,3.741086237818507798e-01,3.242165473222399230e-01
9.969999999999999973e-01,-4.453502884769653947e-01,2.331661535842928512e-01,2.542806372418038308e-01
9.979999999999999982e-01,-3.648602184691443484e-01,7.349991988359463879e-02,1.727937734080281229e-01
9.989999999999999991e-01,-2.401618240597055698e-01,-7.886508906454101075e-02,9.226924817766868347e-02
1.000000000000000000e+00,-6.128000453365142070e-02,-2.240925400326209127e-01,7.700975402061023892e-03
1.000999999999999890e+00,1.236150519011881554e-01,-3.083990317594125785e-01,-6.817978473266164685e-02
1.002000000000000002e+00,3.176086143818140917e-01,-3.375600316099915399e-01,-1.343862961522790944e-01
1.002999999999999892e+00,4.622599838081948853e-01,-3.144822055807818817e-01,-1.921336161376319129e-01
1.004000000000000004e+00,5.750546225913674148e-01,-2.600713523714125452e-01,-2.272236064521785670e-01
1.004999999999999893e+00,5.908994569063573676e-01,-1.777393606353173672e-01,-2.608885717010517857e-01
1.006000000000000005e+00,5.421509329741023286e-01,-1.016232439831043222e-01,-2.624884791325181044e-01
1.006999999999999895e+00,4.170490910617564717e-01,-2.521392588997159803e-02,-2.488683890100106544e-01
1.008000000000000007e+00,2.265204684436844251e-01,1.781025477422404010e-02,-2.338471552896940198e-01
1.008999999999999897e+00,1.916314590203963344e-02,5.248272835430815852e-02,-1.784602943111997242e-01
1.010000000000000009e+00,-1.682800447308831771e-01,5.899961019900092085e-02,-9.979386175862207942e-02
1.010999999999999899e+00,-3.374078026169309852e-01,7.694018073717615036e-02,5.627419356127155367e-03
1.012000000000000011e+00,-4.390793476498991432e-01,6.942905141057356677e-02,1.077261915987438728e-01
1.012999999999999901e+00,-4.559486359690538282e-01,8.595351086770604276e-02,2.200067000245199411e-01
1.014000000000000012e+00,-4.052224367670118621e-01,1.138166854461351851e-01,2.871242819815693625e-01
1.014999999999999902e+00,-3.202557218496152602e-01,1.445140446766765840e-01,3.426064849572262871e-01
1.016000000000000014e+00,-2.105156643229866009e-01,1.581986935362144353e-01,3.561473488834510648e-01
1.016999999999999904e+00,-9.855851624637351760e-02,1.507182623446074732e-01,3.077829145546824297e-01
1.018000000000000016e+00,1.354852611529846216e-03,1.369831955891107345e-01,2.315444082344364218e-01
1.018999999999999906e+00,7.361304087742949476e-02,1.014435246662870049e-01,1.212743812515670733e-01
1.020000000000000018e+00,1.077335158760207301e-01,3.063566185678690684e-02,-2.863531757604637767e-03
1.020999999999999908e+00,1.158170069954940345e-01,-3.178450792741058240e-02,-1.227256883564955825e-01
1.022000000000000020e+00,1.105091694420305831e-01,-1.010496844953939766e-01,-2.288968457552273406e-01
1.022999999999999909e+00,1.210327820984853781e-01,-1.460443234062003270e-01,-2.743851056840099778e-01
1.024000000000000021e+00,1.169601228289711969e-01,-1.598724997231540379e-01,-2.807297599849022385e-01
1.024999999999999911e+00,1.337213388426265748e-01,-1.594246052196897911e-01,-2.569935728586510426e-01
1.026000000000000023e+00,1.599130556116034607e-01,-1.281948739688109906e-01,-2.034846738376813735e-01
1.026999999999999913e+00,1.797227464283028542e-01,-6.450297170165110450e-02,-1.229965636307458199e-01
1.028000000000000025e+00,1.854962117536288757e-01,-2.634927636709388787e-02,-4.547961330334820279e-02
1.028999999999999915e+00,1.517082324789840453e-01,1.848746219213224379e-02,2.263856738781717254e-02
1.030000000000000027e+00,1.030755646086093241e-01,5.232422643640295169e-03,5.973035249066691033e-02
1.030999999999999917e+00,2.444295651005994746e-02,9.034014868079590348e-04,8.862503986112227339e-02
1.032000000000000028e+00,-5.153431557476608610e-02,-2.374930354279642178e-02,9.882164364517588562e-02
1.032999999999999918e+00,-1.378779296001282906e-01,-6.379067084796699594e-02,9.070512619799642184e-02
1.034000000000000030e+00,-1.925169917658037799e-01,-7.465624881798998969e-02,8.736798980367674328e-02
1.034999999999999920e+00,-2.116741316948979601e-01,-7.249586167302024542e-02,8.077300223202321661e-02
1.036000000000000032e+00,-2.087757337155817516e-01,-4.713902673518477471e-02,8.401617314527015656e-02
1.036999999999999922e+00,-1.710306537174067498e-01,2.250472277430048615e-02,8.532703486290164896e-02
1.038000000000000034e+00,-1.051485057749191876e-01,1.171524944472700641e-01,9.123725460749480820e-02
1.038999999999999924e+00,-4.180244594861996787e-02,1.976797044844142148e-01,9.277741591448682157e-02
1.040000000000000036e+00,8.514907144606219738e-03,2.647803199271130947e-01,8.672623541726000307e-02
1.040999999999999925e+00,4.288773441853814539e-02,3.070436348180995978e-01,5.627258340369754169e-02
1.042000000000000037e+00,3.519574801812382775e-02,2.820389365767921319e-01,2.264251211406586792e-02
1.042999999999999927e+00,-1.162326182642972085e-02,2.160567078684170750e-01,-3.093374979355639071e-02
1.044000000000000039e+00,-3.871752729464471993e-02,9.371173448091908720e-02,-7.126534086134606039e-02
1.044999999999999929e+00,-7.023115446073542600e-02,-3.916485047718427231e-02,-1.131329573562070007e-01
1.046000000000000041e+00,-6.024645115242858312e-02,-1.689177243242583615e-01,-1.349942876523285429e-01
1.046999999999999931e+00,-5.011508836103774345e-02,-2.922737740584993027e-01,-1.302201194302490539e-01
1.048000000000000043e+00,1.439648936000244295e-02,-3.529580174516255830e-01,-1.165659518398058231e-01
1.048999999999999932e+00,1.225425147516869401e-01,-3.859844906692879163e-01,-7.896503957795247830e-02
1.050000000000000044e+00,2.207054703579371668e-01,-3.455604240368670421e-01,-2.847584026023967582e-02
1.050999999999999934e+00,3.029875370317928196e-01,-2.741184912353378800e-01,4.854093949846218468e-03
1.052000000000000046e+00,3.408714282529503592e-01,-1.690269712628194865e-01,3.615122142378773828e-02
1.052999999999999936e+00,3.398292261795126668e-01,-5.225272729168069230e-02,4.712636521470444512e-02
1.054000000000000048e+00,2.580417314687469266e-01,5.353480055697780460e-02,2.513379486449519168e-02
1.054999999999999938e+00,1.282065538608690436e-01,1.347518640823540392e-01,-9.407140289844816367e-04
1.056000000000000050e+00,-3.017785401330273093e-02,2.176527851635496613e-01,-1.948779831313261074e-02
1.056999999999999940e+00,-1.926781578631457659e-01,2.440527097943911983e-01,-3.216596091866125162e-02
1.058000000000000052e+00,-3.418126208820329026e-01,2.876101889354111818e-01,-2.656133972898028911e-02
1.058999999999999941e+00,-4.426159028556106434e-01,2.876410033180807346e-01,-8.393330912877189701e-03
1.060000000000000053e+00,-4.806329910518056803e-01,2.880253877322347944e-01,3.951039226562658158e-02
1.060999999999999943e+00,-4.354884850605329483e-01,2.723240141113693058e-01,9.664929019703624724e-02
1.062000000000000055e+00,-3.624503291314634112e-01,2.375685332215344003e-01,1.529901673509546089e-01
1.062999999999999945e+00,-2.319560247095000249e-01,1.521223475376576040e-01,1.835751670929780532e-01
1.064000000000000057e+00,-8.388589386142461524e-02,8.549767275609915229e-02,1.900051310304530505e-01
1.064999999999999947e+00,6.986225458867943716e-02,-3.266183308728102391e-02,1.619221764196528413e-01
1.066000000000000059e+00,1.889124149632933347e-01,-1.672060281363460799e-01,9.439911205088687141e-02
1.066999999999999948e+00,2.844176838649630779e-01,-2.965805371106455812e-01,1.881654437602942390e-02
1.068000000000000060e+00,3.423476693587267361e-01,-4.085507958580389398e-01,-8.048634241015228952e-02
1.068999999999999950e+00,3.613095806816153388e-01,-4.795700470726348974e-01,-1.742067382770679795e-01
1.070000000000000062e+00,3.680620842582852381e-01,-4.936912311417535615e-01,-2.426798400132505751e-01
1.070999999999999952e+00,3.451902615042805600e-01,-4.322022384530084804e-01,-2.849812019675520558e-01
1.072000000000000064e+00,3.111921998340897444e-01,-3.102823594790404815e-01,-2.794464551614305181e-01
1.072999999999999954e+00,2.580720326956056354e-01,-1.418878899490932100e-01,-2.427143632901617443e-01
1.074000000000000066e+00,1.961636710323562127e-01,6.878023925898882340e-02,-1.796711361002829854e-01
1.074999999999999956e+00,9.036354278006196450e-02,2.524949085715972319e-01,-8.363847332650570232e-02
1.076000000000000068e+00,-3.626276042832386748e-02,4.129627267146442349e-01,1.595302790655456215e-02
1.076999999999999957e+00,-1.749684136402264167e-01,5.104988599238506897e-01,1.007220174347544239e-01
1.078000000000000069e+00,-3.246891203001756598e-01,5.456682420442423576e-01,1.654390875612328504e-01
1.078999999999999959e+00,-4.552824174915585109e-01,4.916390050551415203e-01,2.186095519469704318e-01
1.080000000000000071e+00,-5.508240277976603760e-01,3.729269149641637471e-01,2.330096819888986537e-01
1.080999999999999961e+00,-5.834021430398099728e-01,2.282378475480205393e-01,2.262239382684262112e-01
1.082000000000000073e+00,-5.493242150988251193e-01,6.324180795034080316e-02,2.224906267505052937e-01
1.082999999999999963e+00,-4.247518470267314661e-01,-8.838400712199774578e-02,1.902913571900999024e-01
1.084000000000000075e+00,-2.366419639140051046e-01,-2.158106691890722961e-01,1.506382457636875061e-01
1.084999999999999964e+00,-1.859823791390100359e-02,-3.134318705407485028e-01,1.102069292372771514e-01
1.086000000000000076e+00,2.337645802502751335e-01,-3.482021646538063231e-01,6.447832041968684647e-02
1.086999999999999966e+00,4.442593619091194102e-01,-3.573659623358348969e-01,-3.093761800659010439e-03
1.088000000000000078e+00,6.075126831903089331e-01,-3.252073935336897148e-01,-7.498326931050264266e-02
1.088999999999999968e+00,6.897240203127135150e-01,-2.752258784737585673e-01,-1.468891584072768985e-01
1.090000000000000080e+00,6.663413377069872245e-01,-2.097088931556895797e-01,-2.336029170817723877e-01
1.090999999999999970e+00,5.500234687085202578e-01,-1.623543928545833903e-01,-2.909891264399678268e-01
1.092000000000000082e+00,3.799824252986790385e-01,-8.226176343880377273e-02,-3.247235632835496766e-01
1.092999999999999972e+00,1.651570160942596732e-01,-1.323236501633051447e-02,-3.233783776148537181e-01
1.094000000000000083e+00,-4.524456470428223076e-02,7.595164664493518625e-02,-2.867985207643503065e-01
1.094999999999999973e+00,-2.352393346990615808e-01,1.617481984715045118e-01,-1.953404883308119400e-01
1.096000000000000085e+00,-3.810450021249071062e-01,2.372468328004044280e-01,-8.402124739870157899e-02
1.096999999999999975e+00,-4.660470369886515196e-01,3.055818825490562718e-01,5.634257213492326055e-02
1.098000000000000087e+00,-4.748901780242393844e-01,3.448261041485400913e-01,1.920618017521092125e-01
1.098999999999999977e+00,-4.466574292422115788e-01,3.519642127122861175e-01,3.202845353200942102e-01
1.100000000000000089e+00,-3.853626336426058674e-01,3.025991963771550441e-01,3.928738102700483070e-01
1.100999999999999979e+00,-2.995765719007204009e-01,2.163942401661864967e-01,4.151745627920067627e-01
1.102000000000000091e+00,-2.133626912155070221e-01,1.014892754350626841e-01,4.005697896373048295e-01
1.102999999999999980e+00,-1.160803517951296410e-01,-4.140466758791882390e-02,3.024678920463121368e-01
1.104000000000000092e+00,-2.200010617321178016e-02,-1.764187585544589598e-01,1.797351737206733246e-01
1.104999999999999982e+00,7.128071692289354722e-02,-2.741504043271920654e-01,4.725689977248918872e-02
1.106000000000000094e+00,1.536045224610530502e-01,-3.423772718259799897e-01,-7.178491976955284071e-02
1.106999999999999984e+00,2.569203039926624688e-01,-3.514751127713145462e-01,-1.889497842162677910e-01
1.108000000000000096e+00,3.416109484958355091e-01,-3.054997851633667882e-01,-2.624928387325443091e-01
1.108999999999999986e+00,3.928167490464190004e-01,-2.145788878756525186e-01,-3.072728691284212221e-01
1.110000000000000098e+00,4.262669241405324660e-01,-1.070362797879253064e-01,-3.037523992549108209e-01
1.110999999999999988e+00,4.091926934931249260e-01,2.965629137009348753e-03,-2.721022116640157695e-01
1.112000000000000099e+00,3.376491427223387021e-01,8.223804339636851812e-02,-2.252029540591813928e-01
1.112999999999999989e+00,2.317175314356828553e-01,1.424056774300062889e-01,-1.628131951452409798e-01
1.114000000000000101e+00,6.447888637412714508e-02,1.534186845371708352e-01,-1.033436592871890131e-01
1.114999999999999991e+00,-1.090455061994537872e-01,1.365351452692227241e-01,-2.614428751060019970e-02
1.116000000000000103e+00,-2.595043664380327630e-01,9.672240117126658376e-02,3.206373710707477453e-02
1.116999999999999993e+00,-3.817225941731550165e-01,4.960869846616625112e-02,8.223583589508368097e-02
1.118000000000000105e+00,-4.450974337898288002e-01,2.229804085218938664e-02,1.193694335946942908e-01
1.118999999999999995e+00,-4.386437631145232996e-01,2.242840185221449574e-03,1.776230624524469670e-01
1.120000000000000107e+00,-3.705578695408868750e-01,1.274300374052102225e-02,2.119326995671318159e-01
1.120999999999999996e+00,-2.539009217222612524e-01,3.754130833999702599e-02,2.328011851366462992e-01
1.122000000000000108e+00,-1.092999678486283877e-01,7.445332388070731444e-02,2.454258022729248201e-01
1.122999999999999998e+00,2.998184889573763529e-02,1.053338644356191650e-01,2.266493077315053783e-01
1.124000000000000110e+00,1.531300525866646500e-01,1.074066427833719334e-01,1.831930044650977030e-01
1.125000000000000000e+00,2.151083258064432346e-01,1.047360992395385132e-01,1.189446127003732090e-01
1.125999999999999890e+00,2.376318651400634863e-01,5.684317211344767917e-02,2.353252295733787233e-02
1.127000000000000002e+00,2.018778991054163696e-01,-1.840065435926225342e-03,-7.457530994745524555e-02
1.127999999999999892e+00,1.461605974120549767e-01,-6.813203188641389629e-02,-1.727646920491266724e-01
1.129000000000000004e+00,8.866602043601785887e-02,-1.400460639941209229e-01,-2.360382490246994147e-01
1.129999999999999893e+00,2.381472592599405413e-02,-1.739581714821872016e-01,-2.674924716857172147e-01
1.131000000000000005e+00,-7.060680517135492149e-03,-1.850268378452349649e-01,-2.712168499408514899e-01
1.131999999999999895e+00,-6.349202432805877913e-03,-1.716041819374889976e-01,-2.212889996793535596e-01
1.133000000000000007e+00,2.730530968973653855e-02,-1.348265972096868437e-01,-1.661530260701659101e-01
1.133999999999999897e+00,7.134740449543636176e-02,-8.697916114435401413e-02,-7.321185420666202759e-02
1.135000000000000009e+00,1.059013981391344200e-01,-5.140400147472764386e-02,1.260623279794486143e-02
1.135999999999999899e+00,1.283173409731979964e-01,-4.417562033371234473e-03,9.903327903971224921e-02
1.137000000000000011e+00,1.013899425455811049e-01,2.445649416910225180e-02,1.442402632481898928e-01
1.137999999999999901e+00,6.799222927725578902e-02,3.352969059309335309e-02,1.625277274104824921e-01
1.139000000000000012e+00,-9.434008109698329217e-03,5.670220392169527529e-02,1.520712131471116113e-01
1.139999999999999902e+00,-8.765151153393410666e-02,5.401971068560469658e-02,1.153297666758201084e-01
1.141000000000000014e+00,-1.571517426366864922e-01,8.274047498223807695e-02,6.473927771112837626e-02
1.141999999999999904e+00,-2.134304261097321187e-01,1.105445810407321705e-01,2.242570683294167755e-02
1.143000000000000016e+00,-2.334008250396928386e-01,1.496975459411986342e-01,-8.019645802366857576e-03
1.143999999999999906e+00,-2.257984550028673820e-01,2.032924558835898787e-01,-1.880985909081126992e-02
1.145000000000000018e+00,-1.771818301477304791e-01,2.387758544793587290e-01,-1.648345131575734744e-03
1.145999999999999908e+00,-1.204802190265753942e-01,2.452561314160861816e-01,9.054088825303670957e-03
1.147000000000000020e+00,-4.668754926929328392e-02,1.985804524048448150e-01,4.050822736535039659e-02
1.147999999999999909e+00,1.211535110731353296e-02,1.228703959792249306e-01,5.742383756297387426e-02
1.149000000000000021e+00,5.588258748359204581e-02,-8.041458165173671208e-03,5.544848492704011755e-02
1.149999999999999911e+00,9.136466388135645877e-02,-1.445749757699854032e-01,2.770296988143264305e-02
1.151000000000000023e+00,8.631135379242754757e-02,-2.839390059718157056e-01,8.682286144484727131e-03
1.151999999999999913e+00,9.986890370208460765e-02,-3.933372873988408291e-01,-3.519494468520705660e-02
1.153000000000000025e+00,1.078968740617005234e-01,-4.436596856748008522e-01,-8.634642175810652853e-02
1.153999999999999915e+00,1.471731652937376955e-01,-4.354217968897642344e-01,-1.232764554696812731e-01
1.155000000000000027e+00,1.677733971560738113e-01,-3.583550719721665390e-01,-1.435763530190903581e-01
1.155999999999999917e+00,2.215689104429263978e-01,-2.401415288018980687e-01,-1.414702953032561938e-01
1.157000000000000028e+00,2.499507364090739481e-01,-7.553074535405980561e-02,-1.055506228584070366e-01
1.157999999999999918e+00,2.620263097110652195e-01,9.806785484541324927e-02,-8.617947242907325611e-02
1.159000000000000030e+00,2.233909589463207446e-01,2.564500564740865851e-01,-2.883438032890360547e-02
1.159999999999999920e+00,1.385163527039134923e-01,3.718268829951280607e-01,9.274635922354194581e-03
1.161000000000000032e+00,1.465249010478593752e-02,4.431278856610526562e-01,3.891057830192542338e-02
1.161999999999999922e+00,-1.523613283047568767e-01,4.454837817553580770e-01,6.206249267983077883e-02
1.163000000000000034e+00,-3.085276335187291386e-01,3.872751524236356935e-01,7.013612760627987996e-02
1.163999999999999924e+00,-4.434018606057187895e-01,3.033713304761343488e-01,6.942849828658471945e-02
1.165000000000000036e+00,-5.261186629368515000e-01,1.877890921132899515e-01,7.627741956057264294e-02
1.165999999999999925e+00,-5.458270182054978381e-01,7.705210767604708799e-02,8.192936930069759371e-02
1.167000000000000037e+00,-4.762092637428793629e-01,-3.292508748257644280e-02,8.441157197580644034e-02
1.167999999999999927e+00,-3.297048365792441538e-01,-1.307707508741202396e-01,1.047272490634674896e-01
1.169000000000000039e+00,-1.432356326394226831e-01,-2.074635760059647394e-01,1.217849509386330076e-01
1.169999999999999929e+00,8.361015982440303529e-02,-2.824135731530409421e-01,1.411758104902698374e-01
1.171000000000000041e+00,2.844716570161847646e-01,-3.144223264914881577e-01,1.150788030650050642e-01
1.171999999999999931e+00,4.509472668248841187e-01,-3.517839287460551301e-01,8.241493632107235734e-02
1.173000000000000043e+00,5.500991474000715975e-01,-3.635344888450103285e-01,2.867829733319372104e-02
1.173999999999999932e+00,5.771462758073361288e-01,-3.374085241132807056e-01,-5.125636886248437218e-02
1.175000000000000044e+00,5.259834746517026982e-01,-2.857840635815407371e-01,-1.411140741140709809e-01
1.175999999999999934e+00,4.203341293657176791e-01,-1.988035525963599559e-01,-2.253431020110457927e-01
1.177000000000000046e+00,2.734051029806339739e-01,-7.922809393064929318e-02,-2.827837062469044094e-01
1.177999999999999936e+00,1.178783468877529633e-01,7.290639416467163680e-02,-3.208798058762534211e-01
1.179000000000000048e+00,-2.646380306732242643e-02,2.359086067315534496e-01,-3.082989085917492433e-01
1.179999999999999938e+00,-1.832369161636214216e-01,3.673333938143583666e-01,-2.416231060459959612e-01
