time,acc_x,acc_y,acc_z
0.000000000000000000e+00,1.832120440138609863e-01,1.566890540940172605e-01,8.150561692040603212e-02
1.000000000000000021e-03,2.833277699735186617e-01,2.417980168008441177e-01,1.516783411036951856e-01
2.000000000000000042e-03,2.791102594998547959e-01,1.604750440850899462e-01,1.547791661865644541e-01
3.000000000000000062e-03,2.131251975000056018e-02,-1.548334220445477492e-02,-9.034164027189069482e-03
4.000000000000000083e-03,-2.240636387905803051e-01,-1.913940745223010054e-01,-1.020879407062958572e-01
5.000000000000000104e-03,-2.824535139361978864e-01,-2.263431505695839563e-01,-1.863935503433535590e-01
6.000000000000000125e-03,-1.889488530206898664e-01,-1.294416561513922481e-01,-1.425533288221604022e-01
7.000000000000000146e-03,3.435484547446120140e-02,5.886046108315307057e-02,-3.819325344793347669e-03
8.000000000000000167e-03,2.484369183148639471e-01,2.539962708859714313e-01,1.076154390309528724e-01
8.999999999999999320e-03,2.682486103508299191e-01,2.642106035899796090e-01,1.535927210870187132e-01
1.000000000000000021e-02,1.375307347765520050e-01,6.845927812649547917e-02,1.244868721477499912e-01
1.099999999999999936e-02,-1.228531794426825779e-01,-9.744559503708685733e-02,-3.401482665194802829e-02
1.200000000000000025e-02,-2.467084065561159500e-01,-2.484721347656837220e-01,-1.535596461150476599e-01
1.299999999999999940e-02,-2.852044127950381647e-01,-1.916661203074970787e-01,-1.541384451201015249e-01
1.400000000000000029e-02,-1.334714863978802846e-01,-6.200177024460200303e-02,-8.368970922209582886e-02
1.499999999999999944e-02,1.327433591584733785e-01,1.491522066538173430e-01,4.736565188355631312e-02
1.600000000000000033e-02,2.914331494123771349e-01,2.462946948293220362e-01,1.841444066122554790e-01
1.700000000000000122e-02,2.550094343532751107e-01,1.616051375082905028e-01,1.753982964078554807e-01
1.799999999999999864e-02,4.279642141640067204e-02,-7.279961825546514553e-03,6.657403631441197178e-02
1.899999999999999953e-02,-1.917112460929303874e-01,-1.878570376855656643e-01,-7.531714353607671386e-02
2.000000000000000042e-02,-2.746929979419110990e-01,-2.459401063380942110e-01,-1.783581539387985582e-01
2.100000000000000130e-02,-2.162481584892034514e-01,-1.662561927556104879e-01,-1.486293358510843710e-01
2.199999999999999872e-02,4.265136895736559896e-04,9.583903836594380443e-02,-5.334129705913069619e-02
2.299999999999999961e-02,2.106519429225188755e-01,1.982978116577815142e-01,9.267135947415988673e-02
2.400000000000000050e-02,2.616849176690165257e-01,1.894372357050648770e-01,1.796966598739794807e-01
2.500000000000000139e-02,1.865857963317245627e-01,1.169077971768695406e-01,1.705146113896960081e-01
2.599999999999999881e-02,-8.012032718407363641e-02,-1.010902379613954349e-01,4.245900937616679111e-02
2.699999999999999969e-02,-2.311565889862188528e-01,-2.646968405120718182e-01,-8.705819395101127567e-02
2.800000000000000058e-02,-2.632126317962044104e-01,-1.941376897873177687e-01,-2.260738307425072258e-01
2.900000000000000147e-02,-1.312216427094256288e-01,-7.166835790490139191e-02,-1.054797125974703126e-01
2.999999999999999889e-02,8.159007559826306211e-02,1.310184756913186921e-01,3.392003064458279371e-02
3.099999999999999978e-02,2.674303739930680157e-01,2.388707133849818642e-01,1.331089536329713163e-01
3.200000000000000067e-02,2.982434501743366217e-01,1.726483530556956747e-01,1.864155382173387221e-01
3.300000000000000155e-02,1.204773829369426147e-01,-2.273917316677440820e-02,1.216283596061666222e-01
3.400000000000000244e-02,-1.363084906684726427e-01,-2.142879804158289714e-01,-2.122234122438712914e-02
3.500000000000000333e-02,-2.926305608116547829e-01,-2.513789337306097105e-01,-1.307862057163254321e-01
3.599999999999999728e-02,-2.585575292951571291e-01,-1.590526564883443517e-01,-1.555985210068376590e-01
3.699999999999999817e-02,-7.964903507438102215e-02,5.080467349319555542e-02,-7.123717298507906137e-02
3.799999999999999906e-02,2.176399447971730239e-01,2.271550519689931324e-01,3.854295197901350806e-02
3.899999999999999994e-02,2.999002735099048911e-01,2.428265605616830580e-01,2.141507135389006666e-01
4.000000000000000083e-02,2.340886719823873641e-01,9.698424429415097858e-02,1.229079818434264809e-01
4.100000000000000172e-02,-2.348360578565189538e-02,-1.087539951086971823e-01,5.067898653412388627e-02
4.200000000000000261e-02,-2.124051416008550242e-01,-2.637484953802296528e-01,-6.938773486419629044e-02
4.299999999999999656e-02,-3.146574703117271388e-01,-1.895968436354568409e-01,-1.619787222284725658e-01
4.399999999999999745e-02,-1.448996139236930214e-01,-3.066503908047672061e-02,-1.545409100380249756e-01
4.499999999999999833e-02,8.003365043420253289e-02,1.451035107012684788e-01,-2.914736021593499621e-02
4.599999999999999922e-02,2.637762128641636394e-01,2.523598593098943521e-01,1.087059294651444435e-01
4.700000000000000011e-02,2.655898198166593005e-01,1.791205348171921174e-01,1.441384805018437465e-01
4.800000000000000100e-02,1.165427006285459505e-01,-2.347245386935940120e-02,1.029341795741386817e-01
4.900000000000000189e-02,-1.146195481738633282e-01,-1.681649456692970168e-01,3.579601558132745887e-02
5.000000000000000278e-02,-2.505774524017825855e-01,-2.651513181642726202e-01,-1.171538535191734010e-01
5.099999999999999672e-02,-2.830991029829867944e-01,-1.802966004610303541e-01,-1.644886301181587573e-01
5.199999999999999761e-02,-8.696956467458683004e-02,4.178692722037941065e-02,-1.400785942220716951e-01
5.299999999999999850e-02,1.645395426676236339e-01,1.913924021250572871e-01,-1.333143422859078484e-02
5.399999999999999939e-02,2.983681791744697831e-01,2.465652290615955033e-01,1.214120449710587440e-01
5.500000000000000028e-02,2.222574663801452355e-01,8.334962426551704995e-02,1.982723976978981451e-01
5.600000000000000117e-02,6.111239776307639260e-02,-8.864284039852349251e-02,1.077619158597749871e-01
5.700000000000000205e-02,-2.141734982103444818e-01,-2.495137227204743957e-01,-4.679591498184491882e-02
5.800000000000000294e-02,-3.585075511755099753e-01,-2.103684693644698456e-01,-1.500580170511454647e-01
5.899999999999999689e-02,-2.019707012872840324e-01,-3.090561230035573925e-02,-1.683008324485789908e-01
5.999999999999999778e-02,2.741392812720014338e-02,1.118255402024895401e-01,-8.592664330982838217e-02
6.099999999999999867e-02,2.291728893489019259e-01,2.195234200004465563e-01,6.694550888945319245e-02
6.199999999999999956e-02,2.955041957255267193e-01,1.830990395751297406e-01,1.637076314538890298e-01
6.300000000000000044e-02,1.664621123265890290e-01,1.320405575830559119e-02,1.552864898809486471e-01
6.400000000000000133e-02,-5.815963791666457772e-02,-1.322687845785266991e-01,5.735483699487493869e-02
6.500000000000000222e-02,-2.426233562669425636e-01,-2.366289654572151235e-01,-1.232171656703481832e-01
6.600000000000000311e-02,-2.604822508207756404e-01,-1.488439365534963421e-01,-1.560126055035595538e-01
6.700000000000000400e-02,-1.467047414984802289e-01,6.874703274378991813e-02,-1.649202535580231443e-01
6.800000000000000488e-02,9.471849535819462651e-02,2.177569767165186687e-01,-3.005107783777161146e-02
6.900000000000000577e-02,2.957998490138616932e-01,2.272618925954937863e-01,1.114913448436320176e-01
7.000000000000000666e-02,2.805957985993862147e-01,9.460939048558802966e-02,1.891523932978802225e-01
7.099999999999999367e-02,1.074262592702650981e-01,-1.125796015570641601e-01,1.341514727888925562e-01
7.199999999999999456e-02,-1.938050475049158394e-01,-2.506547473795917580e-01,3.026080963073585900e-02
7.299999999999999545e-02,-3.172044015238096870e-01,-2.042308907694475040e-01,-1.119565629277152613e-01
7.399999999999999634e-02,-2.562607383169197006e-01,-2.905474593280207851e-02,-1.922186645927342619e-01
7.499999999999999722e-02,-1.462778066112689450e-02,1.468938547537202155e-01,-1.201179566453792896e-01
7.599999999999999811e-02,2.221531623684507850e-01,2.655969664377020867e-01,1.488270281711205449e-02
7.699999999999999900e-02,3.312432669645729022e-01,1.959026756813109504e-01,1.493350442933443212e-01
7.799999999999999989e-02,2.122146039312449717e-01,1.002864489840069734e-02,1.893432962477177295e-01
7.900000000000000078e-02,-3.465460187063637565e-02,-1.990689281045708581e-01,1.158206720827452546e-01
8.000000000000000167e-02,-2.383145701007899631e-01,-2.470357500365172321e-01,-2.091710709964982040e-02
8.100000000000000255e-02,-3.075955089085453120e-01,-1.369295234217539348e-01,-1.614598489629466560e-01
8.200000000000000344e-02,-1.502189568622581683e-01,5.854847112795596303e-02,-1.999091801647431554e-01
8.300000000000000433e-02,7.777146390656138053e-02,2.511529493718749895e-01,-1.072330854430496722e-01
8.400000000000000522e-02,2.915734787960244101e-01,2.049265126116082414e-01,8.931202047373820729e-02
8.500000000000000611e-02,2.842560391109111850e-01,9.459968640017744901e-02,1.875753055957169735e-01
8.599999999999999312e-02,9.305239193187357649e-02,-7.841529025740680281e-02,1.502159916875599188e-01
8.699999999999999400e-02,-1.111069687212585116e-01,-2.242853289016893958e-01,3.323514868187402854e-02
8.799999999999999489e-02,-2.842849377185857063e-01,-2.485257500017970522e-01,-6.724079937768591420e-02
8.899999999999999578e-02,-3.069849830028434923e-01,-3.906300957727906753e-02,-1.770509374169235428e-01
8.999999999999999667e-02,-2.225555291512847783e-02,1.374832557387077880e-01,-1.625752089618942020e-01
9.099999999999999756e-02,1.739153633226717954e-01,2.290840014093211696e-01,-2.096849664173406833e-02
9.199999999999999845e-02,2.961468868949287403e-01,1.734746425146598547e-01,1.135707418125819074e-01
9.299999999999999933e-02,2.018613730662330852e-01,9.846756571231532473e-03,1.871999430621770211e-01
9.400000000000000022e-02,1.440976458923896994e-03,-1.982954726120323974e-01,1.404017078830203935e-01
9.500000000000000111e-02,-2.254349046036722704e-01,-2.529533007798329125e-01,2.995599733127005115e-02
9.600000000000000200e-02,-3.235981494449940987e-01,-1.497913602770122310e-01,-1.420557568268767668e-01
9.700000000000000289e-02,-1.756547081691014478e-01,4.469601426805257238e-02,-1.545496039446143666e-01
9.800000000000000377e-02,9.076522585396373799e-03,2.045232045469530247e-01,-1.513519077049541028e-01
9.900000000000000466e-02,2.327819807246750416e-01,2.277260443997107531e-01,1.218045664973539666e-02
1.000000000000000056e-01,3.005723070215278736e-01,1.022355327004137865e-01,1.376131029398946770e-01
1.010000000000000064e-01,1.281823262924315643e-01,-1.184920892712276047e-01,1.978637612416878910e-01
1.019999999999999934e-01,-8.170749054928459765e-02,-2.555971005368536941e-01,9.616568204614948934e-02
1.029999999999999943e-01,-2.820092128981902535e-01,-2.244266166050146172e-01,-3.181875137644474966e-02
1.039999999999999952e-01,-2.962121440141102235e-01,-6.850254638217340153e-02,-1.321417079346935697e-01
1.049999999999999961e-01,-8.611911703704179522e-02,1.157503087805676345e-01,-1.541443269757662160e-01
1.059999999999999970e-01,1.501477764607233312e-01,2.351367462916150453e-01,-9.327068075770889033e-02
1.069999999999999979e-01,3.060934237487961673e-01,1.541253499836272856e-01,3.524294580503252450e-02
1.079999999999999988e-01,2.038547404184853362e-01,1.707379515876346343e-02,1.232155699487846173e-01
1.089999999999999997e-01,5.582617550783784688e-02,-1.683284060024812234e-01,1.263754263138927025e-01
1.100000000000000006e-01,-1.967407295014549640e-01,-2.450167053957229280e-01,7.020864002087745526e-02
1.110000000000000014e-01,-3.208725083481957507e-01,-1.189274534543806328e-01,-1.168377574653553658e-01
1.120000000000000023e-01,-2.409975519954617729e-01,4.164470855436876173e-02,-1.664525152627363558e-01
1.130000000000000032e-01,3.515119954031767358e-03,1.886762131796524133e-01,-1.359412963733696300e-01
1.140000000000000041e-01,2.357755286958648777e-01,2.158525018858969968e-01,-2.041550195275290344e-02
1.150000000000000050e-01,3.080258971700404191e-01,1.112674799319526703e-01,1.221760846976722159e-01
1.160000000000000059e-01,1.845526107234651547e-01,-9.236046559817256973e-02,1.428632116158770338e-01
1.170000000000000068e-01,-4.962386880621689339e-02,-2.400929004791865773e-01,1.435435994887692968e-01
1.179999999999999938e-01,-2.638690237727179810e-01,-2.287299545685650137e-01,7.425849505263483821e-03
1.189999999999999947e-01,-2.961694491780136884e-01,-7.946350647673039447e-02,-1.226321484434201164e-01
1.199999999999999956e-01,-1.420444265187534028e-01,1.267573256333744680e-01,-1.811010362930315643e-01
1.209999999999999964e-01,6.856232886761498557e-02,2.017146818020263688e-01,-1.075838643322096499e-01
1.219999999999999973e-01,3.007682244886987766e-01,1.913550782788796811e-01,1.133289731533563237e-02
1.229999999999999982e-01,2.690908204284431782e-01,6.273624059684460496e-04,1.141726278398387112e-01
1.239999999999999991e-01,7.272617637937614510e-02,-1.816800893703683362e-01,1.703557420087463137e-01
1.250000000000000000e-01,-1.724407475912699828e-01,-2.384265648169139051e-01,1.184881438368576151e-01
1.260000000000000009e-01,-2.738144503030113808e-01,-1.301627433815490120e-01,-5.485340461087875874e-02
1.270000000000000018e-01,-2.491699209298141870e-01,4.385679960320280901e-02,-1.454871115373515267e-01
1.280000000000000027e-01,-1.857827227543950438e-02,1.768014784074833645e-01,-1.710067613921019691e-01
1.290000000000000036e-01,1.731391847690399166e-01,2.283278616863107791e-01,-6.801641695004426169e-02
1.300000000000000044e-01,3.085766298666612895e-01,8.900515353738228108e-02,5.267720660869770061e-02
1.310000000000000053e-01,2.505776935295686569e-01,-1.312014265783671141e-01,1.674689756459339651e-01
1.320000000000000062e-01,-2.112249799548908749e-02,-2.188313268252979338e-01,1.407923872532468590e-01
1.330000000000000071e-01,-1.991290410192066707e-01,-2.213615673879458789e-01,9.288166924168149430e-02
1.340000000000000080e-01,-2.893898627177584615e-01,-6.789043291740232133e-02,-1.050421795828509475e-01
1.350000000000000089e-01,-1.891704663909729855e-01,1.309940570314070407e-01,-1.906858376618545958e-01
1.360000000000000098e-01,5.677511056958291918e-02,2.444984221269465852e-01,-1.398338730712582745e-01
1.370000000000000107e-01,2.767723337502754899e-01,1.473766870090609249e-01,-4.419078124518906192e-02
1.380000000000000115e-01,2.799043661278785566e-01,-1.569144317037764929e-03,1.274073237171199913e-01
1.390000000000000124e-01,1.521663096777099156e-01,-1.511738556644053877e-01,1.659906967976618464e-01
1.400000000000000133e-01,-1.413484455073968638e-01,-2.217430823082821578e-01,1.593416314526254207e-01
1.409999999999999865e-01,-2.962428875275646689e-01,-1.449944221893731955e-01,1.601219041707372878e-03
1.419999999999999873e-01,-2.940577538057906892e-01,3.318339813856298337e-02,-1.130506043822502998e-01
1.429999999999999882e-01,-5.404529708865217497e-02,1.872474387097993742e-01,-1.745742031265984096e-01
1.439999999999999891e-01,1.503661762719720740e-01,2.542157263627791708e-01,-9.312033821981136050e-02
1.449999999999999900e-01,2.724518016556288780e-01,1.092686535564954542e-01,1.053502690242445923e-02
1.459999999999999909e-01,2.596286506219459000e-01,-6.766327344334320537e-02,9.816754510031047709e-02
1.469999999999999918e-01,6.271974771162050488e-02,-2.022019386434931454e-01,1.640048257557472078e-01
1.479999999999999927e-01,-2.292362769938289524e-01,-2.371019797732139556e-01,1.211563341538949984e-01
1.489999999999999936e-01,-2.883742059513549338e-01,-7.966022098144477648e-02,-5.598734757688936248e-02
1.499999999999999944e-01,-1.811010419838373908e-01,1.294989023851942922e-01,-1.633244680784095570e-01
1.509999999999999953e-01,1.890058110506630945e-02,2.198642483981202433e-01,-1.351158646356065696e-01
1.519999999999999962e-01,2.309166141582608689e-01,2.318313785081823342e-01,-8.781469917511101897e-02
1.529999999999999971e-01,3.054221981851806822e-01,-2.650195820945015074e-02,7.813591494575884699e-02
1.539999999999999980e-01,1.520157492036684210e-01,-1.736420189728202224e-01,1.968903175798780436e-01
1.549999999999999989e-01,-1.016864983508356524e-01,-2.216607101334326646e-01,1.972712272784180876e-01
1.559999999999999998e-01,-2.737649397384991912e-01,-1.181093657222157672e-01,1.026143096348399765e-02
1.570000000000000007e-01,-2.742499534967288710e-01,5.910829168347781631e-02,-8.108217011548093933e-02
1.580000000000000016e-01,-1.006622183564053613e-01,2.187309530005196179e-01,-1.773084444878432753e-01
1.590000000000000024e-01,1.603705164014285200e-01,2.439035477639158733e-01,-1.572963793260160614e-01
1.600000000000000033e-01,2.957009702740163171e-01,1.303119768395207267e-01,-4.946390366692606996e-03
1.610000000000000042e-01,2.731166189089865859e-01,-1.064452513874463019e-01,1.277890975780122396e-01
1.620000000000000051e-01,3.819199965705393635e-02,-2.434902820067710860e-01,2.046468961744280224e-01
1.630000000000000060e-01,-1.645261116124724921e-01,-2.066598141520487597e-01,1.547164402331653033e-01
1.640000000000000069e-01,-2.845285566342641848e-01,-4.424499935492803154e-02,7.809167321529686227e-03
1.650000000000000078e-01,-2.182365846699149681e-01,1.015987930930679628e-01,-1.752371060976135320e-01
1.660000000000000087e-01,2.056307376654639609e-03,2.633706324330969406e-01,-2.062011204204655390e-01
1.670000000000000095e-01,2.280290628666750419e-01,1.666154560582066291e-01,-1.230761054833133250e-01
1.680000000000000104e-01,3.214325993931468894e-01,1.355970093695640921e-02,3.346169887169912760e-02
1.690000000000000113e-01,1.875988604524995162e-01,-1.370683312067792758e-01,1.784282690578691821e-01
1.700000000000000122e-01,-2.520068171822012829e-02,-2.098436610345939812e-01,1.918439422951048468e-01
1.710000000000000131e-01,-2.514204963540005999e-01,-1.268618362855230830e-01,7.961607655569348518e-02
1.719999999999999862e-01,-2.653157230181910631e-01,3.974556048146910686e-02,-4.142122291607027579e-02
1.729999999999999871e-01,-1.456590056929324417e-01,1.975720589647290137e-01,-1.675252186459272319e-01
1.739999999999999880e-01,7.738032481453727129e-02,2.313772156892651977e-01,-1.633728145161021661e-01
1.749999999999999889e-01,2.725681696712771163e-01,1.113605919373811814e-01,-5.417526800462154485e-02
1.759999999999999898e-01,2.871174925719618964e-01,-9.158291678257614310e-02,7.655521585956699682e-02
1.769999999999999907e-01,1.018956782688340001e-01,-2.288005358548728663e-01,1.731345089891732081e-01
1.779999999999999916e-01,-1.433573781579666750e-01,-2.121289034291329589e-01,1.908924318304653922e-01
1.789999999999999925e-01,-2.603290554863685879e-01,-7.177050058645516317e-02,5.114616937676923908e-02
1.799999999999999933e-01,-2.413885676076256703e-01,1.172011770758399213e-01,-1.050637862939509531e-01
1.809999999999999942e-01,-9.158924772138765658e-02,2.524437809568040869e-01,-2.147478767341772787e-01
1.819999999999999951e-01,2.226703464100731056e-01,1.888150533993120106e-01,-1.211060834311100259e-01
1.829999999999999960e-01,2.850687700763880894e-01,3.625360018247512917e-02,-9.138815251201698117e-03
1.839999999999999969e-01,2.416146451000043549e-01,-1.557723189710665257e-01,1.136375558411953784e-01
1.849999999999999978e-01,-2.004717901453116624e-02,-2.268159204411777929e-01,1.695803721717768775e-01
1.859999999999999987e-01,-2.167187247925840554e-01,-1.294000151750782368e-01,1.446184572378293176e-01
1.869999999999999996e-01,-3.137285313361651284e-01,4.473569445386074012e-02,-1.474401305234302080e-02
1.880000000000000004e-01,-2.108800957356736505e-01,2.277492433220922874e-01,-1.269755675213957435e-01
1.890000000000000013e-01,4.450970104606092465e-02,2.524880809275996119e-01,-1.781811806428595657e-01
1.900000000000000022e-01,2.717824218591782248e-01,1.184082210223706827e-01,-1.185035153986410822e-01
1.910000000000000031e-01,2.847715489225485785e-01,-8.496245895313694896e-02,2.660924575793532573e-02
1.920000000000000040e-01,1.412939893905922617e-01,-2.303190555911671933e-01,1.414440592165319144e-01
1.930000000000000049e-01,-9.208088783212439732e-02,-2.142488302215239671e-01,1.674890164386741154e-01
1.940000000000000058e-01,-2.694712654439593846e-01,-6.209207000682120947e-02,1.060056949291254130e-01
1.950000000000000067e-01,-2.721260967483394300e-01,1.566840864567084768e-01,-7.800297436313288757e-02
1.960000000000000075e-01,-1.243321993516684904e-01,2.434898072887954346e-01,-1.652296154079534451e-01
1.970000000000000084e-01,1.657076551440767320e-01,2.288263946414139383e-01,-1.562059144588487103e-01
1.980000000000000093e-01,3.079585558251145549e-01,1.570180448569749587e-02,-4.715140889453457718e-02
1.990000000000000102e-01,2.804192379567342353e-01,-1.783014785092505716e-01,1.011799175470296519e-01
2.000000000000000111e-01,4.619884991407909730e-02,-1.942546811021229336e-01,1.586966964871941999e-01
2.010000000000000120e-01,-1.828490310167671384e-01,-1.753619428105345768e-01,1.560307625767067830e-01
2.020000000000000129e-01,-2.865387518610806317e-01,3.259894490441368753e-02,5.454636950981821275e-02
2.030000000000000138e-01,-2.361257034707281988e-01,1.748282939089109700e-01,-1.327244367996785746e-01
2.039999999999999869e-01,1.645323188937320921e-02,2.487163724151996713e-01,-1.826743450195004170e-01
2.049999999999999878e-01,2.150911116591976147e-01,1.117559514265448056e-01,-1.264389675082121800e-01
2.059999999999999887e-01,2.989410918299265640e-01,-4.522181926608105640e-02,1.108786448845176104e-02
2.069999999999999896e-01,1.538134052996076584e-01,-1.923957412442898196e-01,1.436253707700850535e-01
2.079999999999999905e-01,-5.338406718527388684e-02,-2.066700800316175757e-01,1.692145505207834633e-01
2.089999999999999913e-01,-2.772514785357075295e-01,-1.418886354402494956e-02,1.473086021066101481e-01
2.099999999999999922e-01,-3.125538166602522816e-01,1.122196307266864618e-01,9.258015386976311753e-03
2.109999999999999931e-01,-1.263259404288575860e-01,2.545491075640217704e-01,-1.492432966156928553e-01
2.119999999999999940e-01,9.782463601005285392e-02,1.629278160549940402e-01,-1.532696369868452313e-01
2.129999999999999949e-01,3.083046763420894121e-01,3.092755111633444312e-02,-9.001080283907066104e-02
2.139999999999999958e-01,2.905864921669304435e-01,-1.530667574624659244e-01,3.911859907642575157e-02
2.149999999999999967e-01,1.020494490383731384e-01,-2.461883375621075898e-01,1.843819946785842656e-01
2.159999999999999976e-01,-1.786185628317563945e-01,-1.620068302554079631e-01,1.863567866059739897e-01
2.169999999999999984e-01,-3.024737505111130265e-01,3.003836649445221565e-02,8.998887064141976311e-02
2.179999999999999993e-01,-2.256017520983887303e-01,1.986668115837744719e-01,-5.138374681692648577e-02
2.190000000000000002e-01,-2.374054885005506821e-02,2.229924639511405293e-01,-1.750874274643163531e-01
2.200000000000000011e-01,2.469955998402738051e-01,1.212429333116339242e-01,-1.945188418010993514e-01
2.210000000000000020e-01,3.149452138396413581e-01,-9.740069240992635380e-02,-5.607569192035645467e-02
2.220000000000000029e-01,2.139059206650065215e-01,-2.076881818360415133e-01,7.410501440453247379e-02
2.230000000000000038e-01,-6.004066314458232634e-02,-2.114391244714111384e-01,1.984279615630974158e-01
2.240000000000000047e-01,-2.789961274760976440e-01,-6.217053754946147426e-02,1.242083972184313545e-01
2.250000000000000056e-01,-2.954219690844008817e-01,1.101400157908698496e-01,4.497259913800932124e-02
2.260000000000000064e-01,-1.876724377832589552e-01,2.354249882035270025e-01,-1.213733244804127281e-01
2.270000000000000073e-01,5.670147394295380755e-02,2.044033001007140304e-01,-1.359719173737937714e-01
2.280000000000000082e-01,2.730285866508215253e-01,1.754638223525830862e-03,-1.467772923821468456e-01
2.290000000000000091e-01,2.787714426503015153e-01,-1.631712559456582334e-01,-1.330140073025466371e-02
2.300000000000000100e-01,8.638678398490981514e-02,-2.897811062811819216e-01,1.451670843718440851e-01
2.310000000000000109e-01,-1.159360745513879354e-01,-1.708666932811579997e-01,1.871991421903009545e-01
2.320000000000000118e-01,-2.538283172033681256e-01,3.224319069821034167e-02,1.507023891259189341e-01
2.330000000000000127e-01,-2.440396797666223583e-01,2.340493255935851002e-01,-1.095647575532567378e-02
2.340000000000000135e-01,-7.035331255991739141e-02,2.304145226358888521e-01,-1.196721062754598774e-01
2.349999999999999867e-01,1.842566473746996836e-01,1.052168876107626022e-01,-2.244521441724424138e-01
2.359999999999999876e-01,3.130200263426419771e-01,-5.999040176021673554e-02,-1.434817592313202550e-01
2.369999999999999885e-01,2.503040986900791354e-01,-2.288092321669120133e-01,7.794920233155308575e-02
2.379999999999999893e-01,3.558135040100759983e-03,-2.150732985580215972e-01,1.610347961420801888e-01
2.389999999999999902e-01,-1.554349714309830044e-01,-9.862080930401236067e-02,1.935342656722570387e-01
2.399999999999999911e-01,-2.845679374061230171e-01,1.784141215939577529e-01,1.039111062962800452e-01
2.409999999999999920e-01,-1.719622622223292430e-01,2.153096429268639422e-01,-6.945878393308081711e-02
2.419999999999999929e-01,5.473932905133383625e-02,2.006226235219344678e-01,-1.676484334273471710e-01
2.429999999999999938e-01,2.461820110785886695e-01,2.909629416160916526e-02,-1.274828761038985236e-01
2.439999999999999947e-01,2.863283913906691791e-01,-1.511400643968758006e-01,-4.846230860844012722e-02
2.449999999999999956e-01,1.488931297484041572e-01,-2.250598431549195866e-01,9.685288336159018907e-02
2.459999999999999964e-01,-1.104179497145373195e-01,-1.243965161443005979e-01,1.628255994857528421e-01
2.469999999999999973e-01,-2.698480582021108853e-01,2.621706855111850115e-02,1.286120813174648492e-01
2.479999999999999982e-01,-2.689623605649733573e-01,1.695174401950076959e-01,3.895012692297596113e-02
2.489999999999999991e-01,-9.288854940460536391e-02,2.288639453656095557e-01,-1.105659777716576087e-01
2.500000000000000000e-01,1.232222290778100249e-01,1.438309020012153161e-01,-1.797183452626358591e-01
2.510000000000000009e-01,3.260694202690819776e-01,-1.054568574448780660e-01,-1.423890998820164233e-01
2.520000000000000018e-01,2.485085904153104819e-01,-2.204581244333134182e-01,7.502380478544772718e-03
2.530000000000000027e-01,4.205573358123851357e-02,-2.251279606988141335e-01,1.460770663014794302e-01
2.540000000000000036e-01,-1.881325995373058224e-01,-7.707512058689515444e-02,1.844693338683444095e-01
2.550000000000000044e-01,-3.007832397331952068e-01,1.242505213245586604e-01,9.755455949854285880e-02
2.560000000000000053e-01,-2.195160126332415806e-01,2.422186900242559726e-01,-2.406411844260680430e-02
2.570000000000000062e-01,-2.487392026773858900e-02,1.846170700477828830e-01,-1.187528490615801097e-01
2.580000000000000071e-01,2.400982267536830861e-01,3.398274029577307703e-02,-1.582524239592552617e-01
2.590000000000000080e-01,2.988303280323172939e-01,-1.584423784583547656e-01,-1.048418450186068968e-01
2.600000000000000089e-01,1.610159584963673507e-01,-2.245414963096200867e-01,4.833303773201183540e-02
2.610000000000000098e-01,-4.016357398859056460e-02,-1.593767759607663537e-01,1.366247152450696667e-01
2.620000000000000107e-01,-2.598445141260026237e-01,2.585445325213688722e-02,1.412365502466606249e-01
2.630000000000000115e-01,-2.722062049180306031e-01,2.105948741837306570e-01,4.862778469077167626e-02
2.640000000000000124e-01,-1.347895159794462450e-01,2.730842145798801357e-01,-1.214982972208327322e-01
2.650000000000000133e-01,9.779300104789277748e-02,1.249966474620281404e-01,-1.947317637511739863e-01
2.660000000000000142e-01,2.868887454638215928e-01,-6.275882857498729650e-02,-1.467161961649358914e-01
2.670000000000000151e-01,2.701188361793461779e-01,-2.487982511694340204e-01,-4.961170059006361766e-02
2.680000000000000160e-01,7.278735903724595224e-02,-2.242139184211932590e-01,7.548011250442052122e-02
2.690000000000000169e-01,-1.488967589828865679e-01,-6.117885255493550611e-02,1.604183987810298140e-01
2.700000000000000178e-01,-2.737930078702488501e-01,1.109868144030066311e-01,1.564908450223101710e-01
2.710000000000000187e-01,-2.547188187949196436e-01,2.290179563974756582e-01,4.803833872063888871e-02
2.720000000000000195e-01,-6.300618711268939076e-02,1.907155135188866035e-01,-1.136879745159790900e-01
2.730000000000000204e-01,1.984191279757960280e-01,2.120411115377384553e-02,-1.842141987707265616e-01
2.740000000000000213e-01,2.802400394047351861e-01,-1.799051635319182385e-01,-8.288521218362965293e-02
2.750000000000000222e-01,2.315545318916667483e-01,-2.702242605529137087e-01,-5.134479956680868158e-03
2.760000000000000231e-01,-3.863817252602495811e-02,-1.508580731939248298e-01,1.432735752904131243e-01
2.770000000000000240e-01,-2.233740883012100831e-01,3.021657096609787346e-02,2.003493607978032165e-01
2.780000000000000249e-01,-2.887256444376023468e-01,1.880748954218094959e-01,9.834606364730920369e-02
2.790000000000000258e-01,-1.816798578630716143e-01,2.146684317432938915e-01,-3.547906968814108775e-02
2.800000000000000266e-01,7.365830144316605488e-02,1.244165352673537311e-01,-1.179618038506984601e-01
2.810000000000000275e-01,2.594548620813265649e-01,-5.506383207633965687e-02,-2.183432631882708808e-01
2.819999999999999729e-01,3.268593824239533485e-01,-2.088907614816807035e-01,-1.091522827552728753e-01
2.829999999999999738e-01,9.903979130919682294e-02,-2.322164760883412282e-01,5.704046335457860217e-02
2.839999999999999747e-01,-1.138820705718170123e-01,-1.094566696256656646e-01,1.395012724587258723e-01
2.849999999999999756e-01,-2.711868380369893972e-01,1.160336940656747501e-01,1.730576968344217648e-01
2.859999999999999765e-01,-3.033540897808787995e-01,2.431765706622510959e-01,6.115760146935983466e-02
2.869999999999999774e-01,-9.045426651905909277e-02,1.824415127540919279e-01,-8.977843566490668892e-02
2.879999999999999782e-01,1.869379595578904152e-01,9.370138195317267993e-02,-1.888297175387071147e-01
2.889999999999999791e-01,2.667664452303619149e-01,-1.310081047396209897e-01,-1.561701480270023257e-01
2.899999999999999800e-01,2.547127124973139201e-01,-2.817274235502007507e-01,-3.318225224768543702e-02
2.909999999999999809e-01,-1.232539350386644209e-02,-1.721019850263035278e-01,9.509695191659765789e-02
2.919999999999999818e-01,-2.370507575321868232e-01,-1.028257763166235544e-02,1.469316101022605792e-01
2.929999999999999827e-01,-2.666854944682555684e-01,2.201833517155057929e-01,1.232446339114558892e-01
2.939999999999999836e-01,-2.173844853037511515e-01,2.247073912335646462e-01,8.728252044982743804e-03
2.949999999999999845e-01,4.052306561061101015e-02,1.432499860521127821e-01,-1.084454416146036632e-01
2.959999999999999853e-01,2.426527040906222010e-01,-7.171345854429723998e-02,-1.896444534252883785e-01
2.969999999999999862e-01,2.721405934604037569e-01,-1.988808145609432532e-01,-1.430368672981353340e-01
2.979999999999999871e-01,1.540762488586806256e-01,-2.062055879208695985e-01,5.097241605920393472e-03
2.989999999999999880e-01,-5.330036692142469529e-02,-8.928555233829002513e-02,1.548711622256251641e-01
2.999999999999999889e-01,-2.947381741323038540e-01,1.389799340549352225e-01,1.618028612880325068e-01
3.009999999999999898e-01,-2.657753636543458420e-01,2.257198524288160646e-01,1.325561405471529508e-01
3.019999999999999907e-01,-1.339679078084408947e-01,2.255850010086497270e-01,-6.488196585223912627e-02
3.029999999999999916e-01,1.297009195159696815e-01,4.280158060000300788e-03,-1.237689642953772873e-01
3.039999999999999925e-01,2.497164796512426344e-01,-1.627309796153710575e-01,-1.962014097593412221e-01
3.049999999999999933e-01,2.656730239820457862e-01,-2.217157733554926402e-01,-8.380945176152038156e-02
3.059999999999999942e-01,1.074867399622752573e-01,-1.789574926123865817e-01,4.477222979571519185e-02
3.069999999999999951e-01,-1.509227132573467134e-01,1.207309010109014480e-02,1.932546727423005428e-01
3.079999999999999960e-01,-3.076330928754948402e-01,2.237134285132091338e-01,1.931291095675208846e-01
3.089999999999999969e-01,-2.735591957955119669e-01,2.269062079599663551e-01,3.524675993122983186e-02
3.099999999999999978e-01,-4.244709600864678828e-02,1.361147604245800113e-01,-5.687320004825061059e-02
3.109999999999999987e-01,2.021662279195805823e-01,-6.527538652534876917e-02,-2.014800597724332731e-01
3.119999999999999996e-01,3.307142300234641730e-01,-2.130813760927506573e-01,-1.202458777580552446e-01
3.130000000000000004e-01,1.950996447798812317e-01,-2.058446042340907611e-01,-6.849985900712322884e-02
3.140000000000000013e-01,-5.892550379061868571e-02,-9.545176076351204186e-02,8.961424033133534583e-02
3.150000000000000022e-01,-2.731107680774092494e-01,1.029447082020388538e-01,1.757525719908982209e-01
3.160000000000000031e-01,-2.846416665942544388e-01,2.231767993654366344e-01,1.705937956593769622e-01
3.170000000000000040e-01,-1.518637622425062228e-01,1.997855751690799098e-01,2.567867969343929496e-03
3.180000000000000049e-01,9.374801385999557979e-02,2.673448303167788240e-02,-1.058583970676279379e-01
3.190000000000000058e-01,2.946606879336056695e-01,-1.587875417544394041e-01,-1.851029114278971988e-01
3.200000000000000067e-01,2.661858814822892216e-01,-2.288495469780622571e-01,-9.158215041804637635e-02
3.210000000000000075e-01,1.222383755201668504e-01,-1.651601345637479512e-01,-7.985896107663400037e-03
3.220000000000000084e-01,-1.074255922406066183e-01,4.077752899124740399e-03,1.426130916104110802e-01
3.230000000000000093e-01,-3.247118413507020795e-01,1.997242038006736276e-01,1.615762121970332199e-01
3.240000000000000102e-01,-2.355527894233941932e-01,2.272776339299601989e-01,1.340344964076063405e-01
3.250000000000000111e-01,-6.827536732900754690e-02,1.607473563877260536e-01,-5.535671535250216713e-02
3.260000000000000120e-01,1.719710202303635638e-01,-6.951337034665422410e-02,-1.693938313184066291e-01
3.270000000000000129e-01,3.267826180488562215e-01,-2.021115143783631940e-01,-1.502201314537411625e-01
3.280000000000000138e-01,2.387644227385415374e-01,-1.970815442071185974e-01,-7.969951428555016593e-02
3.290000000000000147e-01,-1.812099196861526387e-02,-7.846909495908130361e-02,7.954654456251196437e-02
3.300000000000000155e-01,-2.095492880498359967e-01,1.374576963499385129e-01,1.869560988574860971e-01
3.310000000000000164e-01,-3.196585667924956020e-01,2.561616631394241228e-01,1.301261544583543761e-01
3.320000000000000173e-01,-1.847114022175803671e-01,2.182506991205439562e-01,6.453922141450874062e-02
3.330000000000000182e-01,2.899875249872290589e-02,7.899885986755931025e-03,-8.790629075243201751e-02
3.340000000000000191e-01,2.577227226213400502e-01,-1.179016112481414136e-01,-1.738891255406772307e-01
3.350000000000000200e-01,2.944551403355657460e-01,-2.310665704011790611e-01,-1.354539871312310240e-01
3.360000000000000209e-01,1.338510225364973882e-01,-1.839615117309411352e-01,-1.921452325055074059e-02
3.370000000000000218e-01,-1.054933164695150832e-01,-3.529328170228375645e-03,1.073589228872075113e-01
3.380000000000000226e-01,-2.798575859506969299e-01,1.869824034167368032e-01,1.441583983724705753e-01
3.390000000000000235e-01,-2.594895246354124718e-01,2.361317323195369078e-01,1.392659053368334454e-01
3.400000000000000244e-01,-6.656969502135857975e-02,1.704305163081869801e-01,3.677586503778299681e-02
3.410000000000000253e-01,1.604932301264161421e-01,-4.008370592364800949e-02,-1.115259124707972671e-01
3.420000000000000262e-01,2.827026441357952113e-01,-1.906834226300425650e-01,-1.551732412992683219e-01
3.430000000000000271e-01,2.317521315543698279e-01,-2.200114077705474791e-01,-1.452543664186360939e-01
3.439999999999999725e-01,9.803097175318455092e-02,-6.313597485928086617e-02,1.045269890126094246e-02
3.449999999999999734e-01,-1.997008735662510470e-01,1.164000889752627027e-01,1.542480275214648255e-01
3.459999999999999742e-01,-3.298534852194899281e-01,2.537021781388920649e-01,1.675452537395822894e-01
3.469999999999999751e-01,-1.981357393084335339e-01,1.674439966877553643e-01,1.333614292548726266e-01
3.479999999999999760e-01,1.580956017757695689e-02,4.632447939943434151e-02,-5.410970464946419922e-02
3.489999999999999769e-01,2.023374755863384389e-01,-1.458570569543131967e-01,-1.457047973573251387e-01
3.499999999999999778e-01,2.697706190946881355e-01,-2.396461730680509716e-01,-1.872417019782789127e-01
3.509999999999999787e-01,1.828444476572949062e-01,-1.867082756515840158e-01,-1.215671518262073925e-01
3.519999999999999796e-01,-7.594384154339298143e-02,1.765960499422959337e-02,7.581841852887556688e-02
3.529999999999999805e-01,-2.341244622434578149e-01,1.563655637686004740e-01,1.640200533817297024e-01
3.539999999999999813e-01,-2.892423561660300013e-01,2.374019646138909589e-01,1.761631232624957799e-01
3.549999999999999822e-01,-1.399648977731954569e-01,1.124498454060210151e-01,4.336919057159251828e-02
3.559999999999999831e-01,9.710322502889244534e-02,-6.583648866943615785e-02,-8.173306416672652952e-02
3.569999999999999840e-01,2.655358327910782301e-01,-2.487686988178338943e-01,-1.650041277567231568e-01
3.579999999999999849e-01,2.408748210440030124e-01,-2.157607333432854380e-01,-1.900718811297774646e-01
3.589999999999999858e-01,7.879543678516690020e-02,-1.024981955448714954e-01,-8.900276538518169661e-03
3.599999999999999867e-01,-1.464376311155041188e-01,1.458152290193580891e-01,1.052249608792072133e-01
3.609999999999999876e-01,-2.895271836414902156e-01,2.175571023222726552e-01,1.803423207699578201e-01
3.619999999999999885e-01,-2.257895968578514656e-01,1.924408784289061980e-01,1.358700069737101002e-01
3.629999999999999893e-01,7.203247993474761086e-03,3.360023952459677971e-02,2.864492342299326116e-02
3.639999999999999902e-01,1.993078006698020266e-01,-1.366524342196669961e-01,-1.243128452554564112e-01
3.649999999999999911e-01,2.905132962876769143e-01,-2.690248566197074864e-01,-2.127380212908444035e-01
3.659999999999999920e-01,2.037059165913978620e-01,-1.594250591651548976e-01,-1.399461463550398799e-01
3.669999999999999929e-01,-9.491505138451419507e-04,2.121741820572116410e-02,5.842005788015505220e-03
3.679999999999999938e-01,-2.236746153552443550e-01,1.835783315985302921e-01,1.557483946032139355e-01
3.689999999999999947e-01,-2.836664195639828634e-01,2.284776531558399271e-01,1.872638388316656965e-01
3.699999999999999956e-01,-1.485545780426572593e-01,1.321137556835582094e-01,1.395905748621349973e-01
3.709999999999999964e-01,5.102893005180816205e-02,-8.916335258329817492e-02,-1.439002018235622550e-02
3.719999999999999973e-01,2.743057629342972037e-01,-2.357239359405761681e-01,-1.817159518480415681e-01
3.729999999999999982e-01,2.765000763787295868e-01,-2.333267506385190426e-01,-1.445615214872442433e-01
3.739999999999999991e-01,9.873188929813155046e-02,-6.573386415319108778e-02,-8.438452344931199334e-02
3.750000000000000000e-01,-1.099656342145793886e-01,6.882170336875666206e-02,5.880926410338666727e-02
3.760000000000000009e-01,-2.771849917967309507e-01,2.178012487733913538e-01,2.040108251856009025e-01
3.770000000000000018e-01,-2.649444020654812548e-01,1.980278182918232266e-01,2.089195865110634320e-01
3.780000000000000027e-01,-6.255190737387889000e-02,6.117650511528710533e-02,5.225720773927095691e-02
3.790000000000000036e-01,1.546572637645755033e-01,-1.567057768194544676e-01,-1.049193481206772971e-01
3.800000000000000044e-01,2.760524445449474285e-01,-2.460818582166629243e-01,-1.813007929709773702e-01
3.810000000000000053e-01,2.366058925399244228e-01,-1.881290816724126291e-01,-1.220508507561971490e-01
3.820000000000000062e-01,7.352313585781840646e-03,-1.610658340854522613e-02,-2.409633697174598174e-02
3.830000000000000071e-01,-2.034541420885042362e-01,1.841369245864470372e-01,1.266040251418104889e-01
3.840000000000000080e-01,-2.907110096126682697e-01,2.406694017788374718e-01,1.664335257477930485e-01
3.850000000000000089e-01,-1.911179243066882805e-01,1.459226022717416971e-01,1.256641315061895192e-01
3.860000000000000098e-01,1.318327592482139952e-02,-4.490747998065846430e-02,2.229348677085970110e-03
3.870000000000000107e-01,2.588355874958764846e-01,-1.950424500899800295e-01,-1.240092309644481999e-01
3.880000000000000115e-01,3.029628805651251588e-01,-2.430161719516056862e-01,-2.130732377951121970e-01
3.890000000000000124e-01,1.800815258506739125e-01,-9.156154149395594188e-02,-1.312153781985323509e-01
3.900000000000000133e-01,-1.003884158659209963e-01,9.799117365151717440e-02,2.921085989615326492e-02
3.910000000000000142e-01,-2.675489715512632261e-01,2.198604699779546645e-01,1.422687954066149396e-01
3.920000000000000151e-01,-2.575213280440680208e-01,2.094670049878471774e-01,1.553487705550281595e-01
3.930000000000000160e-01,-9.891174705366202746e-02,3.597894186588034005e-02,8.285946770868937716e-02
3.940000000000000169e-01,1.280173075465325105e-01,-1.472370938768619297e-01,-1.387232111982024049e-02
3.950000000000000178e-01,2.547901399927615662e-01,-2.461726589592589387e-01,-1.489500355183398517e-01
3.960000000000000187e-01,2.635410315028145489e-01,-1.772481927923172940e-01,-1.970720175101663696e-01
3.970000000000000195e-01,6.046894331505892756e-02,2.846187882554831322e-02,-8.050261444162133684e-02
3.980000000000000204e-01,-1.986929311721365721e-01,1.784348815346702144e-01,8.002589998024810247e-02
3.990000000000000213e-01,-3.272230135008233343e-01,2.199154510950072916e-01,1.838837363524460089e-01
4.000000000000000222e-01,-2.458274846939951519e-01,1.651415937295322156e-01,1.694386526867528719e-01
4.010000000000000231e-01,-2.295562712482478521e-03,-5.920464257999099450e-02,6.904673497354547884e-02
4.020000000000000240e-01,2.213589629891192512e-01,-2.190971587086419647e-01,-1.032579768644636825e-01
4.030000000000000249e-01,2.802324744220729968e-01,-2.168738068407008723e-01,-1.446862407666085759e-01
4.040000000000000258e-01,1.980537678398745782e-01,-8.184475175021316273e-02,-1.268647042539649827e-01
4.050000000000000266e-01,-1.463298280160410351e-02,9.380035909215861389e-02,-7.441634897491297349e-03
4.060000000000000275e-01,-3.014610779141009833e-01,2.121424250318692806e-01,1.540311581985589207e-01
4.069999999999999729e-01,-2.394425137239082624e-01,1.867167186200289208e-01,2.192110562711697963e-01
4.079999999999999738e-01,-1.796503762708959451e-01,4.586367847082822163e-02,1.939452476781060031e-01
4.089999999999999747e-01,7.787729685568746396e-02,-1.475024010132953145e-01,-1.601782917452281713e-02
4.099999999999999756e-01,2.649261845360748602e-01,-2.158301133766457880e-01,-1.453852862289298220e-01
4.109999999999999765e-01,2.737556857677488908e-01,-1.501840179772652994e-01,-1.517667948496453367e-01
4.119999999999999774e-01,1.515021024208141054e-01,2.603815309520422436e-02,-1.077391822758586304e-01
4.129999999999999782e-01,-1.327974659545986813e-01,1.682843793348413608e-01,2.650403744175907489e-02
4.139999999999999791e-01,-2.730994755992655065e-01,2.290234605850101912e-01,1.156051630018828102e-01
4.149999999999999800e-01,-2.206604978077937596e-01,1.326042809640841924e-01,1.870463065801621083e-01
4.159999999999999809e-01,-4.668285178615999564e-02,-3.023818076577150515e-02,9.859704676684379054e-02
4.169999999999999818e-01,2.052465428300924155e-01,-2.134235112995270245e-01,-7.528899549429859950e-02
4.179999999999999827e-01,3.271933135988869257e-01,-2.217807513104600170e-01,-1.629015780238257660e-01
4.189999999999999836e-01,2.122699972067570162e-01,-1.100334198736938052e-01,-2.119824974469889378e-01
4.199999999999999845e-01,1.835025478995015724e-02,9.236820292927755416e-02,-1.044549562685277849e-01
4.209999999999999853e-01,-2.086816449491466219e-01,2.329386604068377220e-01,7.929398779916896345e-02
4.219999999999999862e-01,-3.143919236779196269e-01,1.938676899943179710e-01,1.900168737582732525e-01
4.229999999999999871e-01,-1.642400071252067828e-01,4.629493006213581535e-02,1.757672774709009011e-01
4.239999999999999880e-01,5.447903490239587587e-02,-1.337852959399388753e-01,5.709791143545481229e-02
4.249999999999999889e-01,2.460653697934435946e-01,-2.546146265601032521e-01,-8.467966802981263807e-02
4.259999999999999898e-01,2.826972620958515536e-01,-1.847710991694162252e-01,-1.612712412964070474e-01
4.269999999999999907e-01,1.254800583477919673e-01,9.827646733750576569e-03,-1.456400124957072939e-01
4.279999999999999916e-01,-1.020177512833778249e-01,1.563608205600569567e-01,1.190805187074714909e-02
4.289999999999999925e-01,-2.608947031573640163e-01,2.536977075810388227e-01,1.293252062713088069e-01
4.299999999999999933e-01,-2.670700586731705184e-01,1.545875789838476455e-01,1.691726664576777006e-01
4.309999999999999942e-01,-8.080480007327385528e-02,-6.177709014007042032e-02,1.005329375204064568e-01
4.319999999999999951e-01,1.696286650674408980e-01,-2.103906592933121322e-01,-2.890137288416350786e-02
4.329999999999999960e-01,2.974732787452549210e-01,-2.423121046452832994e-01,-1.112746207696583139e-01
4.339999999999999969e-01,2.357318271135185883e-01,-1.043025757357148725e-01,-1.792256897150384942e-01
4.349999999999999978e-01,3.915599942914332887e-02,1.067518878200822835e-01,-1.112454766903391984e-01
4.359999999999999987e-01,-2.412326969897902462e-01,2.279754163032239878e-01,2.623443903692684182e-02
4.369999999999999996e-01,-3.328434084611567867e-01,2.024577417434276772e-01,1.494653458101504739e-01
4.380000000000000004e-01,-2.458163677549548287e-01,2.134394547908851150e-02,1.719798891778138439e-01
4.390000000000000013e-01,3.005067374738705499e-02,-1.278222472603000037e-01,9.642447284019900478e-02
4.400000000000000022e-01,2.307499312489809939e-01,-2.193637567164936630e-01,-4.873294290377304383e-02
4.410000000000000031e-01,3.112506224946703925e-01,-1.799225220517509938e-01,-1.423420200399831137e-01
4.420000000000000040e-01,1.768008603782183497e-01,-2.991686497912934145e-02,-1.281915933593196499e-01
4.430000000000000049e-01,-6.662608946308849756e-02,1.745951635300718729e-01,-5.166921301612463491e-02
4.440000000000000058e-01,-2.680514179594472024e-01,2.483538635572736797e-01,7.750088562127482872e-02
4.450000000000000067e-01,-3.002740986637538190e-01,1.443721361410842119e-01,1.910642386314252150e-01
4.460000000000000075e-01,-1.160462658844308437e-01,-6.385195216727161671e-02,1.521564004563814576e-01
4.470000000000000084e-01,1.498403728275272406e-01,-1.925202797950290590e-01,6.746638264133802965e-02
4.480000000000000093e-01,2.799461885337651834e-01,-2.417433453537375376e-01,-9.487662395721704889e-02
4.490000000000000102e-01,2.644039003435958435e-01,-1.335652593807365729e-01,-1.892298107794064543e-01
4.500000000000000111e-01,8.999088156472441480e-02,8.576119893668007754e-02,-1.285716017886601170e-01
4.510000000000000120e-01,-1.568103876353437176e-01,2.463515930990531344e-01,3.800230890855431452e-03
4.520000000000000129e-01,-2.782316440212658781e-01,2.378180304242823728e-01,1.264862413950434972e-01
4.530000000000000138e-01,-2.916200748050687963e-01,2.473244586236354042e-02,1.856969672085883594e-01
4.540000000000000147e-01,-5.644700068053711689e-02,-1.225815375455472367e-01,1.305327434556213528e-01
4.550000000000000155e-01,1.791852264901227509e-01,-2.439616724346891086e-01,-1.057348074018378548e-02
4.560000000000000164e-01,3.264866320278764777e-01,-2.243236659811954636e-01,-1.475854650193755280e-01
4.570000000000000173e-01,2.001161828773120599e-01,6.861332911492223213e-03,-2.048827834384615021e-01
4.580000000000000182e-01,-3.561964531696029668e-02,1.828051804128497382e-01,-1.076648995102789663e-01
4.590000000000000191e-01,-2.134168229962958574e-01,2.090782143868349097e-01,2.281029745762901129e-02
4.600000000000000200e-01,-2.892242457979039560e-01,1.102847766007042096e-01,1.687853841551279765e-01
4.610000000000000209e-01,-1.550273924982243368e-01,-6.224207881992610547e-02,1.596785879125208474e-01
4.620000000000000218e-01,7.927703907560565422e-02,-2.027724297701564427e-01,7.508087388558774833e-02
4.630000000000000226e-01,2.737611344889249176e-01,-2.435255917198736464e-01,-8.310000080627201469e-02
4.640000000000000235e-01,3.077328235663101541e-01,-1.212767478825816092e-01,-1.657858558015921913e-01
4.650000000000000244e-01,1.287053772547056274e-01,8.304886190786046896e-02,-1.562683685263548949e-01
4.660000000000000253e-01,-1.573758643040404637e-01,2.136569005652222131e-01,-7.475262644300117998e-02
4.670000000000000262e-01,-2.664992750647404707e-01,2.368290388021411785e-01,9.173707648491610800e-02
4.680000000000000271e-01,-2.612653555779478332e-01,5.775116298402493964e-02,1.794619568854873837e-01
4.689999999999999725e-01,-5.644854152890748517e-02,-1.488739965929572473e-01,1.640468188492270885e-01
4.699999999999999734e-01,1.452807931723561763e-01,-2.225542561188628699e-01,4.318174850780439472e-02
4.709999999999999742e-01,3.168715035751041853e-01,-1.880988525361997066e-01,-9.699750085266055366e-02
4.719999999999999751e-01,2.126827209032051136e-01,-1.812204664978861674e-03,-1.539452712305323934e-01
4.729999999999999760e-01,3.602292906149173052e-02,1.557221092595488521e-01,-1.591974166540106872e-01
4.739999999999999769e-01,-2.362025758442305445e-01,2.560648960246968975e-01,-2.429589373932845159e-02
4.749999999999999778e-01,-3.118514775191945643e-01,1.735819128497404495e-01,1.333087372858448583e-01
4.759999999999999787e-01,-2.130093824325949570e-01,-2.766414173508436811e-02,1.864317874533309716e-01
4.769999999999999796e-01,7.140816337809452463e-02,-2.258211161809981493e-01,1.272602007921361800e-01
4.779999999999999805e-01,2.769427644883463158e-01,-2.339184615665038380e-01,-2.003533914832935844e-02
4.789999999999999813e-01,2.888319422914931711e-01,-1.251235592797476093e-01,-1.387624059417865707e-01
4.799999999999999822e-01,1.302281534758865100e-01,1.281850002188757998e-01,-1.611568372758636070e-01
4.809999999999999831e-01,-9.442886298867808614e-02,2.363563111018771867e-01,-1.070518365808056094e-01
4.819999999999999840e-01,-2.886415596614693158e-01,1.997729677290956962e-01,6.325210236448541856e-02
4.829999999999999849e-01,-2.583882451208447395e-01,4.040175381585650594e-02,1.325802913058276855e-01
4.839999999999999858e-01,-9.455848873842202795e-02,-1.740317166113926617e-01,1.658979712764836467e-01
4.849999999999999867e-01,1.485817295009834171e-01,-2.641774658903162099e-01,4.557386885216407890e-02
4.859999999999999876e-01,2.856201823606169254e-01,-1.789621406622346755e-01,-6.812753986294502184e-02
4.869999999999999885e-01,2.556028844578254744e-01,-8.168522356032697357e-03,-1.426501295380011580e-01
4.879999999999999893e-01,2.487747129602404725e-02,1.714708186288545211e-01,-1.563229018747735455e-01
4.889999999999999902e-01,-1.758530087624173011e-01,2.154774715321970124e-01,-7.839932541258440302e-02
4.899999999999999911e-01,-2.849332920762776555e-01,1.394415429103531834e-01,7.799961923670450936e-02
4.909999999999999920e-01,-2.420312784609424672e-01,-3.208681636098521112e-02,1.910067155374641779e-01
4.919999999999999929e-01,1.781946461447205671e-02,-2.562393390918958347e-01,1.580553156053254027e-01
4.929999999999999938e-01,2.246167931854377853e-01,-2.412935083581545237e-01,3.270447243508421697e-02
4.939999999999999947e-01,3.337050811865499567e-01,-1.224583213555892475e-01,-1.208767625029093518e-01
4.949999999999999956e-01,1.582364705365077451e-01,1.094454441941094397e-01,-1.724263312218076161e-01
4.959999999999999964e-01,-3.661379544153087889e-02,2.065649957888463506e-01,-1.386464059404823590e-01
4.969999999999999973e-01,-2.513856733671949728e-01,2.008686419533216583e-01,-5.205252730395428656e-03
4.979999999999999982e-01,-2.884691442371040138e-01,5.584919074052954041e-02,1.577465665353405821e-01
4.989999999999999991e-01,-1.655966202181010649e-01,-1.367311144330184414e-01,1.905177259661769429e-01
5.000000000000000000e-01,6.817451594098329626e-02,-2.515942287886311357e-01,1.103793673814403298e-01
5.010000000000000009e-01,2.658132729093660718e-01,-2.126216873743808355e-01,-2.020717270385343975e-02
5.020000000000000018e-01,2.840803048119782681e-01,1.494919238994443095e-02,-1.300423605848551045e-01
5.030000000000000027e-01,9.615456381149865839e-02,1.712340355710466611e-01,-2.005317562171567702e-01
5.040000000000000036e-01,-1.414087918689791168e-01,2.162516743568839162e-01,-7.019453493019431334e-02
5.050000000000000044e-01,-3.208428580104032424e-01,1.424123435102120638e-01,4.547619676460386978e-02
5.060000000000000053e-01,-2.310401497522794889e-01,-5.944573472127182706e-02,1.671179588348324641e-01
5.070000000000000062e-01,-4.830835889121502108e-02,-1.947346957623325159e-01,1.787894132155511961e-01
5.080000000000000071e-01,1.957126495408238742e-01,-2.496501493485867307e-01,8.168537759552529920e-02
5.090000000000000080e-01,3.064434175084106426e-01,-1.005209305397126857e-01,-4.701428506557810139e-02
5.100000000000000089e-01,2.070307509664288392e-01,8.488871479595912206e-02,-1.449009940307929012e-01
5.110000000000000098e-01,-1.264987784508323941e-03,2.262515980097538348e-01,-1.574720668453880867e-01
5.120000000000000107e-01,-2.649332615283300774e-01,2.327489961888291325e-01,-6.827176781313999687e-02
5.130000000000000115e-01,-3.094577093392437694e-01,7.178325968973377214e-02,1.142063176322932611e-01
5.140000000000000124e-01,-1.443713158236539229e-01,-1.205461090218904463e-01,1.660914747891019394e-01
5.150000000000000133e-01,6.556943765477386832e-02,-2.493554340487839915e-01,1.384077295389161411e-01
5.160000000000000142e-01,2.390909933848157087e-01,-1.897673578626074276e-01,-2.596200326908433553e-02
5.170000000000000151e-01,3.131821490997301893e-01,-1.939064356834098446e-02,-1.032905357379193118e-01
5.180000000000000160e-01,1.377281498048525954e-01,1.746746337304927454e-01,-1.692036514476086828e-01
5.190000000000000169e-01,-9.870084605645122744e-02,2.024804832872627858e-01,-1.518202014993782489e-01
5.200000000000000178e-01,-2.703927150065721929e-01,1.648561626775742472e-01,-1.880108427772596291e-02
5.210000000000000187e-01,-2.679526666942499413e-01,-7.230972672595777084e-02,1.359769729707912267e-01
5.220000000000000195e-01,-7.553841981888193002e-02,-2.127134598708012025e-01,1.820640082850013830e-01
5.230000000000000204e-01,1.588171316957844581e-01,-2.180611396284445058e-01,1.122981498619521346e-01
5.240000000000000213e-01,3.108400138860188400e-01,-8.774737407107865983e-02,-1.874783130797255670e-02
5.250000000000000222e-01,2.460732423669282631e-01,9.101125226103050359e-02,-1.597231799461926727e-01
5.260000000000000231e-01,2.455601519025088844e-02,2.385107552007406373e-01,-1.604698514304023216e-01
5.270000000000000240e-01,-2.382856988517142172e-01,2.225168019810522535e-01,-8.045854792799468636e-02
5.280000000000000249e-01,-3.517811243950294542e-01,1.272329004706085342e-02,4.364814335015741731e-02
5.290000000000000258e-01,-2.082978380319896183e-01,-1.408307776144271661e-01,1.816384571922308733e-01
5.300000000000000266e-01,3.090186056464098649e-02,-2.479279109576812690e-01,1.575899689658638581e-01
5.310000000000000275e-01,2.411995335458415879e-01,-1.989281455937504661e-01,9.615202823122852294e-02
5.320000000000000284e-01,2.717679465400812955e-01,-5.607540140196625410e-03,-6.536275988724710162e-02
5.330000000000000293e-01,1.395320892101384047e-01,1.719121909338763576e-01,-1.421208547978240755e-01
5.340000000000000302e-01,-9.016681588438651973e-02,2.401837070182995804e-01,-1.865784185680321450e-01
5.350000000000000311e-01,-2.747653212836717040e-01,1.421063984956859871e-01,-5.159525599206542940e-02
5.360000000000000320e-01,-2.990643805101642072e-01,-3.290723481855727800e-02,9.129222822589551367e-02
5.370000000000000329e-01,-1.448934214973472134e-01,-1.795536606268392787e-01,1.995513716371874469e-01
5.380000000000000338e-01,1.140134319182870976e-01,-2.438790259146834394e-01,1.528925855493686869e-01
5.390000000000000346e-01,2.894542297809980513e-01,-1.100039552443234925e-01,2.535453019545091946e-02
5.400000000000000355e-01,2.304390720730646325e-01,9.786190716532915113e-02,-1.213937956155390352e-01
5.410000000000000364e-01,5.095256036798836985e-02,2.620607548836552114e-01,-1.678546848214898801e-01
5.420000000000000373e-01,-1.622743065461664247e-01,2.504431883676660475e-01,-9.179479943008830856e-02
5.430000000000000382e-01,-2.521076048886007337e-01,7.046540559411483551e-02,2.468274646607258090e-03
5.440000000000000391e-01,-2.392788446446061645e-01,-1.022193870410888494e-01,1.484070907628273484e-01
5.450000000000000400e-01,-2.874150448979892122e-02,-2.061258742894384599e-01,1.522766134971678675e-01
5.460000000000000409e-01,2.169492086653913299e-01,-1.761934337741077328e-01,8.996715311024233719e-02
5.470000000000000417e-01,2.798998486153081444e-01,-2.068974453659445240e-02,-1.334880779753657570e-02
5.480000000000000426e-01,2.247588349079222558e-01,1.652136086239289481e-01,-1.164069258945771707e-01
5.490000000000000435e-01,-3.907918816804370477e-02,2.232683766752482368e-01,-1.791304228461702286e-01
5.500000000000000444e-01,-2.331976859307270666e-01,1.536679998014424398e-01,-1.198162756697029596e-01
5.510000000000000453e-01,-2.859031515752206709e-01,-3.047474378131098671e-02,8.808109971144799377e-02
5.520000000000000462e-01,-1.290020840371884081e-01,-1.909764532492763400e-01,1.609788287603650114e-01
5.530000000000000471e-01,9.871210092094079291e-02,-2.499825014840050541e-01,1.836708974530358585e-01
5.540000000000000480e-01,2.592375771718549715e-01,-1.226700421603321295e-01,6.758847746071729168e-02
5.550000000000000488e-01,2.750364402305811584e-01,8.166751872534493140e-02,-6.514349968584426387e-02
5.560000000000000497e-01,1.252361769918959034e-01,2.167676347113753899e-01,-1.713809761362423134e-01
5.570000000000000506e-01,-1.589388388542417041e-01,2.257610436615109240e-01,-1.327494990096000638e-01
5.580000000000000515e-01,-3.031070909201878383e-01,5.057880959345303906e-02,-3.486059630756412064e-02
5.590000000000000524e-01,-2.621862326011239475e-01,-8.411328965085691778e-02,7.552799624170791759e-02
5.600000000000000533e-01,-5.804587994627067454e-02,-2.357113349720086348e-01,1.867127906733165033e-01
5.610000000000000542e-01,1.875888418200309660e-01,-2.022601317254087150e-01,1.552588434622793612e-01
5.620000000000000551e-01,3.300237061508820013e-01,-1.117354623955166618e-02,2.852649890399935884e-02
5.629999999999999449e-01,2.445199010715195520e-01,1.537253435608996188e-01,-1.363394882964624188e-01
5.639999999999999458e-01,1.458466028992320106e-02,2.580479463041096544e-01,-1.655107242918412158e-01
5.649999999999999467e-01,-2.170915051172683796e-01,1.552392308904500806e-01,-1.199954907907604673e-01
5.659999999999999476e-01,-2.935649596664485217e-01,-8.718259699004212923e-03,2.207929243203049854e-02
5.669999999999999485e-01,-1.406142940043897116e-01,-1.833697291943918728e-01,1.782172143604328352e-01
5.679999999999999494e-01,5.535439013541224029e-02,-2.425926052494287999e-01,1.560177154262892552e-01
5.689999999999999503e-01,2.677707309964910132e-01,-1.082330302839001890e-01,1.374363217639064938e-01
5.699999999999999512e-01,2.898602406338683379e-01,1.072107040435035658e-01,-3.046303417908911154e-02
5.709999999999999520e-01,1.351254565618364989e-01,2.094155629705958810e-01,-1.385140178777972964e-01
5.719999999999999529e-01,-7.595756149893763409e-02,2.204188089123046146e-01,-1.503088671374434859e-01
5.729999999999999538e-01,-2.964033145330429164e-01,8.363321841970772219e-02,-1.216098932564951551e-01
5.739999999999999547e-01,-2.794488278451226493e-01,-1.215008163739247637e-01,8.729421106219154014e-02
5.749999999999999556e-01,-8.108468675624949662e-02,-2.238688914120759155e-01,1.392882084525048914e-01
5.759999999999999565e-01,1.655293919124579127e-01,-1.852830677503858603e-01,1.892093276628667442e-01
5.769999999999999574e-01,2.985920340439972565e-01,-3.277780233997435594e-02,3.995627490824621431e-02
5.779999999999999583e-01,2.614824329727912788e-01,1.470860041177101118e-01,-8.111452042033460985e-02
5.789999999999999591e-01,5.941489749159081790e-02,2.508990443707780349e-01,-1.859662143549062618e-01
5.799999999999999600e-01,-2.005970142821761060e-01,1.538011956282715198e-01,-1.529932388648258534e-01
5.809999999999999609e-01,-3.044764361778765638e-01,-6.730801134615385650e-02,-7.914845473208088900e-02
5.819999999999999618e-01,-2.224508588787744157e-01,-1.927563036263895968e-01,8.710126398915227219e-02
5.829999999999999627e-01,1.155135071429976880e-02,-2.631159995143937391e-01,1.639843415890422096e-01
5.839999999999999636e-01,2.357652128358539434e-01,-9.258087180660538873e-02,1.374620904642703256e-01
5.849999999999999645e-01,3.142101195032368510e-01,1.193823012265533279e-01,9.170055100497351633e-03
5.859999999999999654e-01,1.502721170918928650e-01,1.873238288942417340e-01,-1.137344689395755892e-01
5.869999999999999662e-01,-5.587030939663308743e-02,2.308876776373585960e-01,-1.535939443559979634e-01
5.879999999999999671e-01,-2.486472143912928090e-01,6.562524998341461024e-02,-1.290460981382379468e-01
5.889999999999999680e-01,-2.923187130039054948e-01,-1.360644459140389340e-01,3.928870266059281829e-02
5.899999999999999689e-01,-1.318388982378758123e-01,-1.954164808239902129e-01,1.186657659303682055e-01
5.909999999999999698e-01,1.114222838347927041e-01,-1.813110197929719836e-01,1.940557198957250651e-01
5.919999999999999707e-01,2.777322871396068482e-01,-5.157280096037341471e-02,8.865046873967122321e-02
5.929999999999999716e-01,2.552471732886344435e-01,1.541147526810908996e-01,-3.014780909015320545e-02
5.939999999999999725e-01,7.941104849209883187e-02,2.620166370203729223e-01,-1.344224222846897576e-01
5.949999999999999734e-01,-2.045408909079004245e-01,1.687010731284353249e-01,-1.850162144648423712e-01
5.959999999999999742e-01,-2.726973658517183874e-01,6.493885545323360708e-03,-5.985831562633086439e-02
5.969999999999999751e-01,-2.539565563412038984e-01,-2.101222386436749912e-01,7.069237247831755555e-02
5.979999999999999760e-01,-1.384086285357830071e-02,-2.327232966052353025e-01,1.609372258099741604e-01
5.989999999999999769e-01,2.378188619895844902e-01,-1.362322600714650500e-01,1.710486695169162741e-01
5.999999999999999778e-01,2.978169140193590025e-01,7.325037862719799286e-02,4.969976165999611534e-02
6.009999999999999787e-01,2.246124187850242482e-01,2.285738105960948841e-01,-8.596077733891231698e-02
6.019999999999999796e-01,-4.741318726127320693e-02,2.090231037032596051e-01,-1.368329181535146433e-01
6.029999999999999805e-01,-2.404876911112759919e-01,4.696057657770563026e-02,-1.539680192888649990e-01
6.039999999999999813e-01,-3.182234117680003971e-01,-1.427093624705714214e-01,-3.267114278926060850e-02
6.049999999999999822e-01,-1.405756703737033597e-01,-2.258086745544394536e-01,8.901035802652260132e-02
6.059999999999999831e-01,8.158616427086366751e-02,-2.012293262778014347e-01,1.798095323992132122e-01
6.069999999999999840e-01,2.557891308050718737e-01,-2.055156659928716184e-02,1.544322717463110783e-01
6.079999999999999849e-01,2.698809919223333909e-01,1.660431470335048953e-01,2.342912740060329110e-02
6.089999999999999858e-01,8.284685019661321148e-02,2.421591081173724014e-01,-1.207978349563050696e-01
6.099999999999999867e-01,-1.501019377118993636e-01,1.650311065404531652e-01,-1.847040055553626769e-01
6.109999999999999876e-01,-2.835127639624470675e-01,-3.630891951108637661e-02,-1.470164631135927324e-01
6.119999999999999885e-01,-2.652197409632136571e-01,-2.056727519186422881e-01,3.688548040314155313e-02
6.129999999999999893e-01,-6.961437788573952845e-02,-2.162262959259320383e-01,1.539102449438897735e-01
6.139999999999999902e-01,1.753364693430826127e-01,-1.049942513314660736e-01,1.710149746108167446e-01
6.149999999999999911e-01,2.991884431497161545e-01,5.848352444868915034e-02,1.136114167593866159e-01
6.159999999999999920e-01,2.461121004926016265e-01,1.959095435382141037e-01,-5.516607685558008040e-02
6.169999999999999929e-01,3.992115319396320056e-02,2.339963416782787076e-01,-1.325997627772708132e-01
6.179999999999999938e-01,-2.367185646332503057e-01,7.487229008904730532e-02,-1.524161568030422964e-01
6.189999999999999947e-01,-2.858583841747471266e-01,-1.158354050580323591e-01,-9.069413742371174036e-02
6.199999999999999956e-01,-2.073419793364489894e-01,-2.320118828289416124e-01,8.029770050153392513e-02
6.209999999999999964e-01,4.164128344902007228e-02,-1.796718827063467361e-01,1.599682431384538139e-01
6.219999999999999973e-01,2.561596116625365349e-01,-2.583142954553490842e-02,1.642742454323188606e-01
6.229999999999999982e-01,3.102418936241938541e-01,1.684793182367229913e-01,4.878766539310061545e-02
6.239999999999999991e-01,1.800911233432426206e-01,2.218357632087333275e-01,-1.076813214574816602e-01
6.250000000000000000e-01,-9.561350801964510482e-02,1.198042365995786451e-01,-1.800792691895533315e-01
6.260000000000000009e-01,-2.887984657655421894e-01,-3.102210781340236298e-02,-1.335192852186264934e-01
6.270000000000000018e-01,-2.761256323972647309e-01,-1.924932348453284314e-01,-2.402174679005808500e-02
6.280000000000000027e-01,-1.098533238979307464e-01,-2.508031556686100005e-01,1.351787520816206678e-01
6.290000000000000036e-01,1.121411855077537462e-01,-9.725494264259981758e-02,1.538902683337316779e-01
6.300000000000000044e-01,3.035021727544079950e-01,9.658103768141730605e-02,1.730373543223919508e-01
6.310000000000000053e-01,2.165938584738431871e-01,2.042523044316693070e-01,2.289601021187507787e-02
6.320000000000000062e-01,4.009775537050028899e-02,2.096783665873135638e-01,-9.693217251024391357e-02
6.330000000000000071e-01,-1.647670056766752655e-01,7.004211524321987681e-02,-1.423881217952327471e-01
6.340000000000000080e-01,-3.140084684370981205e-01,-1.265837803742214385e-01,-1.248001794577404677e-01
6.350000000000000089e-01,-2.106938522492354249e-01,-2.187808209064885379e-01,-5.237919666931110767e-03
6.360000000000000098e-01,1.519771638418784300e-02,-1.954282885289556349e-01,1.732339930465382760e-01
6.370000000000000107e-01,1.944363931678305402e-01,-1.010964354395770155e-02,1.889926428919302959e-01
6.380000000000000115e-01,3.057621651974284926e-01,1.187657655608374968e-01,6.495021946444902439e-02
6.390000000000000124e-01,1.943290704414298575e-01,2.322158023749178735e-01,-1.196991581119517464e-02
6.400000000000000133e-01,-6.824111509619101845e-02,1.558917387102329855e-01,-1.570723021108762774e-01
6.410000000000000142e-01,-2.524637093025489110e-01,-4.225547506642287482e-02,-1.471501563185493855e-01
6.420000000000000151e-01,-2.773931704388166164e-01,-1.708868878789990275e-01,-8.004966022305048945e-02
6.430000000000000160e-01,-1.387970859216186570e-01,-2.509877340227484877e-01,7.100559367002813593e-02
6.440000000000000169e-01,1.254712005183061252e-01,-1.334516367849226393e-01,1.467135937828541736e-01
6.450000000000000178e-01,2.899844120207707432e-01,9.570206629611054117e-02,1.073498305610128684e-01
6.460000000000000187e-01,2.770759496866793681e-01,1.851802271665387578e-01,8.100481161325180646e-02
6.470000000000000195e-01,1.184242997066480840e-01,2.119594063194758793e-01,-1.028835025721624163e-01
6.480000000000000204e-01,-1.832372795241938579e-01,3.274266812253048831e-02,-1.532732477031927831e-01
6.490000000000000213e-01,-2.801793804052744585e-01,-1.504132996629693464e-01,-1.796174034619210658e-01
6.500000000000000222e-01,-2.101295380019785608e-01,-2.036849088820477938e-01,-3.068764116444623255e-02
6.510000000000000231e-01,-3.886617684814359236e-02,-1.827324724350106455e-01,1.330206651782225302e-01
6.520000000000000240e-01,2.059134231953874128e-01,-3.428129340141532200e-02,1.929743275652172074e-01
6.530000000000000249e-01,3.277984362116372341e-01,1.625382158346325157e-01,1.217501692318225526e-01
6.540000000000000258e-01,2.400018918861028527e-01,2.420420365002309004e-01,1.274433517861596823e-02
6.550000000000000266e-01,-9.873158526459285822e-03,1.621034827747382667e-01,-1.384665244513468840e-01
6.560000000000000275e-01,-2.324237306519193746e-01,-4.139946417704207932e-02,-1.896114074265322358e-01
6.570000000000000284e-01,-3.162800293636037763e-01,-1.819909666128226577e-01,-1.304716128878884440e-01
6.580000000000000293e-01,-1.818889092089901183e-01,-2.243261731765981426e-01,2.031266306872085009e-02
6.590000000000000302e-01,7.000267830743618636e-02,-1.421573073715213242e-01,1.213263157135496262e-01
6.600000000000000311e-01,2.419341113364255891e-01,7.391935903795590623e-02,1.419064167576657154e-01
6.610000000000000320e-01,2.678086673798779627e-01,1.924072627792868806e-01,1.105084816088171412e-01
6.620000000000000329e-01,1.315310676913109267e-01,2.543600736521585692e-01,-8.083729872814207629e-02
6.630000000000000338e-01,-9.862742807441304826e-02,8.321989530013525205e-02,-1.247290004980699807e-01
6.640000000000000346e-01,-2.945375013852661317e-01,-1.259632600049266637e-01,-1.543232334460537536e-01
6.650000000000000355e-01,-2.717375781778769150e-01,-2.197042067334156745e-01,-5.591702325755052577e-02
6.660000000000000364e-01,-5.342117079097562921e-02,-2.023763027849427021e-01,7.886408027823323119e-02
6.670000000000000373e-01,1.624315199788963215e-01,-2.139340155439476560e-02,1.966622376645214554e-01
6.680000000000000382e-01,2.864843399090276632e-01,1.588733335712174399e-01,1.324817561447306224e-01
6.690000000000000391e-01,2.299431578528189080e-01,2.191656964316244516e-01,6.264345671400847748e-02
6.700000000000000400e-01,4.389294866637221543e-02,1.466633684126002479e-01,-8.284383422465133040e-02
6.710000000000000409e-01,-2.041897677353400331e-01,-3.165207844946284210e-02,-1.813272202236021480e-01
6.720000000000000417e-01,-2.954542711646099828e-01,-2.225021882358077518e-01,-1.425826829162958054e-01
6.730000000000000426e-01,-2.135136208982255368e-01,-2.470041372187299078e-01,-2.959192835066302985e-02
6.740000000000000435e-01,3.186141683590559132e-02,-1.534682470535736198e-01,1.354691299779121894e-01
6.750000000000000444e-01,2.551917396289422046e-01,2.468491940351822192e-02,2.064302302733429795e-01
6.760000000000000453e-01,2.987994807208299575e-01,2.395314022280046751e-01,1.371892108822601042e-01
6.770000000000000462e-01,1.622191797318379980e-01,2.509030382772722279e-01,-4.271781199446691470e-03
6.780000000000000471e-01,-7.392289512436409082e-02,1.163196519586479072e-01,-1.457008500758157632e-01
6.790000000000000480e-01,-2.677503058063717689e-01,-1.032853747046509479e-01,-1.942574644997112909e-01
6.800000000000000488e-01,-3.070821033659325017e-01,-2.142875871829071077e-01,-9.241523884047059267e-02
6.810000000000000497e-01,-1.557262836349648238e-01,-2.325868836807507278e-01,5.913206235549293976e-02
6.820000000000000506e-01,1.273676125143609339e-01,-6.051641562268919583e-02,1.722044013893263281e-01
6.830000000000000515e-01,2.883039400380030814e-01,1.723824202230140046e-01,1.641795223671753956e-01
6.840000000000000524e-01,2.412449521700764932e-01,2.831226623480292970e-01,7.183456704331703246e-02
6.850000000000000533e-01,5.178355688320587097e-02,1.750388334430658666e-01,-9.056414270504786757e-02
6.860000000000000542e-01,-1.585975740917953125e-01,-1.985325985058453493e-02,-1.649642924084877837e-01
6.870000000000000551e-01,-2.853361023318878309e-01,-1.782189788626015736e-01,-1.853914289167217511e-01
6.879999999999999449e-01,-2.278053030481796692e-01,-2.532258078066764173e-01,-4.096023650531974147e-02
6.889999999999999458e-01,-1.984130809853230926e-02,-9.020751017642170133e-02,1.042919568440721229e-01
6.899999999999999467e-01,2.412761743632016453e-01,3.100591134880576957e-02,1.998315625762052405e-01
6.909999999999999476e-01,3.240243643575416166e-01,2.336561893810920887e-01,1.508961306995883767e-01
6.919999999999999485e-01,2.263562957917122087e-01,1.796073159759879745e-01,4.066489291077771823e-02
6.929999999999999494e-01,-5.070508361813863552e-02,1.295147652239519165e-01,-1.103836576428624677e-01
6.939999999999999503e-01,-2.665862919607601689e-01,-1.515481389404148282e-01,-1.975735941304287702e-01
6.949999999999999512e-01,-2.832254496215850792e-01,-2.213751047331214139e-01,-1.449614718594672558e-01
6.959999999999999520e-01,-1.352918809794551591e-01,-1.990418193206839048e-01,-1.285178824921365953e-02
6.969999999999999529e-01,6.944015423517078955e-02,-3.774718580764071379e-02,1.375801201595139023e-01
6.979999999999999538e-01,2.443096001985742838e-01,1.340593241343266961e-01,1.772403984928334342e-01
6.989999999999999547e-01,2.904830410546561104e-01,2.503732737037392408e-01,1.415316220653509149e-01
6.999999999999999556e-01,1.181236169964656052e-01,1.920114640700150421e-01,4.555862346829202443e-03
7.009999999999999565e-01,-1.282895953017702262e-01,-1.210237000472107367e-02,-1.333220536104904319e-01
7.019999999999999574e-01,-2.979147541404343902e-01,-1.752554852546319708e-01,-1.833632685790982375e-01
7.029999999999999583e-01,-2.480027843463713799e-01,-2.353581228172989537e-01,-1.297352446318776331e-01
7.039999999999999591e-01,-8.212846279010961592e-02,-1.290209808987316520e-01,3.144684307827418784e-02
7.049999999999999600e-01,2.107903216688261083e-01,6.039531699110623625e-02,1.445635704436205038e-01
7.059999999999999609e-01,2.651335508269172525e-01,2.024823832160247139e-01,1.735640753785179513e-01
7.069999999999999618e-01,2.074671130768180050e-01,2.271535227405780122e-01,8.303055243157421439e-02
7.079999999999999627e-01,-2.070399409036754285e-04,9.846960031312029793e-02,-5.496659987866724106e-02
7.089999999999999636e-01,-2.208564726371015086e-01,-1.097884811400901273e-01,-1.506587894824596430e-01
7.099999999999999645e-01,-2.976612558505499218e-01,-2.601061001864536371e-01,-1.680863670873613824e-01
7.109999999999999654e-01,-2.031975256667823970e-01,-1.952371387948600434e-01,-4.906519817595989680e-02
7.119999999999999662e-01,3.384542674653878008e-02,-6.491095693710771664e-02,8.286247132967909657e-02
7.129999999999999671e-01,2.767419131105418040e-01,1.318639255438635305e-01,1.792694518116930980e-01
7.139999999999999680e-01,3.298673875010517675e-01,2.233075804594778779e-01,1.545480740594959712e-01
7.149999999999999689e-01,1.671423590338951548e-01,1.662820596104315207e-01,4.279408764945250021e-02
7.159999999999999698e-01,-1.129790795031107992e-01,-9.848597443294165865e-03,-6.464697618933021306e-02
7.169999999999999707e-01,-2.994978942478117023e-01,-1.507603541760942911e-01,-1.722980113986509743e-01
7.179999999999999716e-01,-2.913224639279463624e-01,-2.474390026077372129e-01,-1.284319835813136357e-01
7.189999999999999725e-01,-9.966089150487168757e-02,-1.251442410418226459e-01,-2.146990794613025041e-02
7.199999999999999734e-01,1.414068239074760813e-01,3.270718788787387032e-02,1.185039404693557646e-01
7.209999999999999742e-01,2.913343552578697704e-01,2.000502037670295885e-01,1.985747191182515026e-01
7.219999999999999751e-01,2.864529570523472457e-01,2.800475642695524070e-01,1.125083422187491411e-01
7.229999999999999760e-01,5.286119944805964255e-02,1.164560883127484930e-01,1.406630694878564618e-02
7.239999999999999769e-01,-1.962310254814350619e-01,-1.151698009817027496e-01,-1.207148928374428415e-01
7.249999999999999778e-01,-2.991628399119806714e-01,-2.689795833883038556e-01,-2.077669275976866958e-01
7.259999999999999787e-01,-2.586858528120417056e-01,-2.010292004974526814e-01,-9.304679466344949190e-02
7.269999999999999796e-01,1.803397285541550460e-02,-4.477875721087648531e-02,4.168471836586022661e-02
7.279999999999999805e-01,2.094992053817427147e-01,1.619119517081180348e-01,1.435295022998837600e-01
7.289999999999999813e-01,3.318368076342632644e-01,2.695893378090462034e-01,1.636734980920377669e-01
7.299999999999999822e-01,1.896853753217018490e-01,1.736710186878226148e-01,4.015505287456767186e-02
7.309999999999999831e-01,-5.734075061330472928e-02,-2.260262585057039655e-02,-7.283183532782389058e-02
7.319999999999999840e-01,-2.834031143008237663e-01,-1.540193089138677252e-01,-1.765365073084254055e-01
7.329999999999999849e-01,-2.916751180204636418e-01,-2.378871670285123419e-01,-1.497039499360869885e-01
7.339999999999999858e-01,-1.686262959102588499e-01,-1.349452514363672362e-01,-7.206767932003758925e-02
7.349999999999999867e-01,1.189161793125213251e-01,7.304494431037014679e-02,1.092279225179902530e-01
7.359999999999999876e-01,2.731671774834477096e-01,2.334298203890065315e-01,1.420478533510770025e-01
7.369999999999999885e-01,2.703452493486450114e-01,2.369574758632587985e-01,1.246482261541737163e-01
7.379999999999999893e-01,7.250014036727692179e-02,1.142350355737343642e-01,1.242646144133020478e-02
7.389999999999999902e-01,-1.834645989957462975e-01,-1.003508822535011252e-01,-8.568247507878042069e-02
7.399999999999999911e-01,-2.724325473097946038e-01,-2.051952644539120074e-01,-1.764882881823457983e-01
7.409999999999999920e-01,-2.766280936202320517e-01,-1.948251942563553607e-01,-1.414435705129836462e-01
7.419999999999999929e-01,-3.671870574559132905e-02,-3.716436838650078595e-02,8.985751085675149422e-03
7.429999999999999938e-01,1.742542296020366532e-01,1.716378539808322556e-01,1.544261521589513075e-01
7.439999999999999947e-01,3.131873743710641977e-01,2.413590132278718714e-01,2.000229262667789498e-01
7.449999999999999956e-01,2.013894392370498831e-01,1.660059017852851815e-01,1.595105913188481217e-01
7.459999999999999964e-01,-1.010554419819738835e-02,1.373229384535364084e-02,6.167500552512529023e-03
7.469999999999999973e-01,-2.472595199315274217e-01,-1.907425698347169629e-01,-1.334750126185260399e-01
7.479999999999999982e-01,-3.248044559536903408e-01,-2.400928820962052734e-01,-1.749411131020212617e-01
7.489999999999999991e-01,-1.489234848358115815e-01,-9.930162302649453432e-02,-9.804111489542803592e-02
7.500000000000000000e-01,5.756079852604078367e-02,4.203654248327816367e-02,5.729216607868878319e-02
7.510000000000000009e-01,2.577674939253998265e-01,1.864318353780837767e-01,1.239731785340661974e-01
7.520000000000000018e-01,2.947511256917307310e-01,2.211578256510988993e-01,1.967181405253388693e-01
7.530000000000000027e-01,1.147745705856007270e-01,9.856324291683474237e-02,7.356328275436778419e-02
7.540000000000000036e-01,-1.209481778859449463e-01,-9.278343232430462384e-02,-7.033926614094226926e-02
7.550000000000000044e-01,-2.560536899877623451e-01,-2.371528710173993471e-01,-1.702504402457732935e-01
7.560000000000000053e-01,-2.698692059864331583e-01,-2.242459473730142872e-01,-1.806662685449806904e-01
7.570000000000000062e-01,-6.765749676289010972e-02,-2.213480016784195870e-03,-5.932162807339703275e-02
7.580000000000000071e-01,1.846981373538383320e-01,1.397137146165237376e-01,1.051664104376551501e-01
7.590000000000000080e-01,3.297813385805431485e-01,2.303863131817178167e-01,2.047483728026888161e-01
7.600000000000000089e-01,2.544030309167006898e-01,1.807810609899037912e-01,1.296181197854681111e-01
7.610000000000000098e-01,1.800497535020555151e-02,-1.006529330623031487e-02,-1.466301748405851113e-03
7.620000000000000107e-01,-2.022963728372461356e-01,-1.665636234265424620e-01,-1.101956526174983769e-01
7.630000000000000115e-01,-2.811610945148841356e-01,-2.232920085035829949e-01,-1.556154619884490553e-01
7.640000000000000124e-01,-1.918924329325764344e-01,-1.333184188233001166e-01,-1.056084847443796021e-01
7.650000000000000133e-01,4.359885519395755027e-02,6.248222939110690405e-02,-3.625393997043479654e-03
7.660000000000000142e-01,2.361264766770472256e-01,2.104522181540968151e-01,1.196269274296227064e-01
7.670000000000000151e-01,3.072127222527513135e-01,2.667502905966095961e-01,1.823978987747100489e-01
7.680000000000000160e-01,1.766046130999647801e-01,1.093400348788232251e-01,1.147329539672526655e-01
7.690000000000000169e-01,-8.549058868966143143e-02,-1.160598345572527862e-01,-2.848345224609384260e-02
7.700000000000000178e-01,-2.825898839704878984e-01,-2.295581651868945638e-01,-1.629874850011460985e-01
7.710000000000000187e-01,-2.588890374926356430e-01,-2.106299879008847742e-01,-1.922439861424602159e-01
7.720000000000000195e-01,-1.374115089586960547e-01,-2.581054802288764924e-02,-1.011722954318423073e-01
7.730000000000000204e-01,1.441027965825747437e-01,1.224597064255899398e-01,4.819397283148074002e-02
7.740000000000000213e-01,2.838662783608549844e-01,2.230413907967438158e-01,1.537231681107561754e-01
7.750000000000000222e-01,2.578338378558066024e-01,2.070206199126451707e-01,1.894438075984664904e-01
7.760000000000000231e-01,1.049118950639121722e-01,4.193616863354249907e-03,6.674481552834306275e-02
7.770000000000000240e-01,-1.910309954952403855e-01,-1.930007366929205881e-01,-7.357736114881134604e-02
7.780000000000000249e-01,-3.108685573336866792e-01,-2.219989829842724527e-01,-2.134398167030690241e-01
7.790000000000000258e-01,-2.202939642691660871e-01,-1.449314771418531433e-01,-1.699089437869883978e-01
7.800000000000000266e-01,-4.094665020929009330e-02,6.233786504329356243e-02,-7.008723563197555295e-02
7.810000000000000275e-01,2.050989320095538138e-01,2.150071017271800444e-01,9.830590807108652296e-02
7.820000000000000284e-01,3.123309225926552135e-01,2.460382555463518361e-01,1.750351825862034028e-01
7.830000000000000293e-01,1.997536768355498704e-01,1.030053546109538226e-01,1.527512199519505953e-01
7.840000000000000302e-01,-4.369813795893352087e-02,-1.283011954950218914e-01,5.436505671754553182e-02
7.850000000000000311e-01,-2.752458056423275901e-01,-2.322242172690374140e-01,-1.113198003083478160e-01
7.860000000000000320e-01,-3.227562572434972132e-01,-2.128537323358009048e-01,-1.897549970442839740e-01
7.870000000000000329e-01,-1.612037441607405974e-01,-7.670537291774724709e-02,-1.542615803111385686e-01
7.880000000000000338e-01,5.679626686365268906e-02,1.307070312711272053e-01,-5.178424034561024229e-03
7.890000000000000346e-01,2.703933151181757144e-01,2.122418828602491980e-01,1.368315079191177175e-01
7.900000000000000355e-01,3.115194881325674681e-01,2.135763686234015135e-01,1.893342942952352392e-01
7.910000000000000364e-01,1.012940548672654623e-01,-1.377921657128429803e-02,1.350270032657320818e-01
7.920000000000000373e-01,-1.560809596007408928e-01,-1.609936459226859184e-01,-2.900935629875052435e-02
7.930000000000000382e-01,-2.836382255512677197e-01,-2.349923310752824734e-01,-1.095854208942069197e-01
7.940000000000000391e-01,-2.792960007977677850e-01,-1.261274759161393477e-01,-1.637853127159106248e-01
7.950000000000000400e-01,-3.458885999471762035e-02,7.515330367982789306e-02,-9.035531175301235451e-02
7.960000000000000409e-01,2.275918656881896207e-01,2.100172290882416082e-01,6.344420118370454331e-02
7.970000000000000417e-01,2.800623886016071484e-01,2.535204253203424130e-01,1.747684769713223618e-01
7.980000000000000426e-01,2.340356609184457426e-01,1.059404273958438059e-01,1.484852048843513794e-01
7.990000000000000435e-01,-7.439317162379651370e-03,-1.074341826060151994e-01,8.414548236409484516e-02
8.000000000000000444e-01,-2.307432365268949348e-01,-2.143248797197473965e-01,-8.666374851355679310e-02
8.010000000000000453e-01,-3.015647509956729810e-01,-1.996504581845222059e-01,-1.324085379454836564e-01
8.020000000000000462e-01,-1.801680755700538761e-01,-7.328312724706392833e-02,-1.271221740798280098e-01
8.030000000000000471e-01,9.084126356686299253e-02,1.517234130769432865e-01,-2.927511015944804854e-02
8.040000000000000480e-01,2.601624092660212995e-01,2.527735771933694586e-01,1.050078372988422493e-01
8.050000000000000488e-01,2.847658032095972125e-01,1.768057065282501172e-01,1.912828771118933180e-01
8.060000000000000497e-01,1.404639730696859434e-01,8.413747825885506751e-03,1.790848578184970341e-01
8.070000000000000506e-01,-1.041762598204135498e-01,-1.863892245969967221e-01,3.412462295516160982e-02
8.080000000000000515e-01,-2.705879704387929574e-01,-2.624876747726380688e-01,-9.473783463909507541e-02
8.090000000000000524e-01,-2.786245541913779378e-01,-1.676802798856390775e-01,-1.605195929398010035e-01
8.100000000000000533e-01,-8.739590735546177991e-02,8.848205341989331951e-02,-1.275686636644342287e-01
8.110000000000000542e-01,1.406278842889344682e-01,2.247244236553271324e-01,6.948909789305390654e-03
8.120000000000000551e-01,2.972287107606897405e-01,2.138791866531135621e-01,1.393863545657106073e-01
8.129999999999999449e-01,2.445787941347526973e-01,1.238767135119481083e-01,2.154144638845976456e-01
8.139999999999999458e-01,6.168961042926042471e-02,-1.013084792379462529e-01,1.330544976638893540e-01
8.149999999999999467e-01,-2.206781913995564115e-01,-2.095405369822443964e-01,-2.840813668782516885e-02
8.159999999999999476e-01,-2.853662144757467267e-01,-1.869758553052421057e-01,-1.752717026063652095e-01
8.169999999999999485e-01,-2.007526412459230691e-01,-3.512025402508527766e-02,-1.833713330791736373e-01
8.179999999999999494e-01,9.578649769248225726e-03,1.455479729651521503e-01,-7.196384199360744693e-02
8.189999999999999503e-01,2.231462271984242240e-01,2.210895817459204715e-01,7.772836659385748415e-02
8.199999999999999512e-01,2.589857685589693204e-01,1.911009530709805448e-01,1.859462013654810120e-01
8.209999999999999520e-01,1.416222324634399121e-01,2.592152697994554167e-02,1.685754900003524903e-01
8.219999999999999529e-01,-7.099801158142805824e-02,-2.038079412156464376e-01,3.891074466818948002e-02
8.229999999999999538e-01,-2.998904615410611374e-01,-2.662752608103148844e-01,-8.217260292334011007e-02
8.239999999999999547e-01,-2.899799188325013488e-01,-1.174357688615415007e-01,-1.963497247578514238e-01
8.249999999999999556e-01,-1.280226166153356770e-01,3.430437793216761094e-02,-1.768352698320354854e-01
8.259999999999999565e-01,1.204228952892019283e-01,2.186960982872241388e-01,-2.692191608960605061e-03
8.269999999999999574e-01,2.836218046401702275e-01,2.500045287724438903e-01,7.422870050775326467e-02
8.279999999999999583e-01,2.484921122649865477e-01,1.113154509371004353e-01,2.044328862779664913e-01
8.289999999999999591e-01,5.566502764006182880e-02,-8.371949363190342441e-02,1.242304505487793337e-01
8.299999999999999600e-01,-1.799805324923718919e-01,-2.181673079169505480e-01,-3.944095892746478371e-02
8.309999999999999609e-01,-2.881055585161671484e-01,-2.117059132334817850e-01,-1.312874949527959301e-01
8.319999999999999618e-01,-2.394055299733929276e-01,-4.022482865175053268e-02,-1.826182208559158637e-01
8.329999999999999627e-01,-3.996051030936953463e-02,1.141626897112612282e-01,-1.138190448084891865e-01
8.339999999999999636e-01,1.753437903887609672e-01,2.290002001903793105e-01,-1.848867665236625032e-02
8.349999999999999645e-01,3.261861203115640206e-01,1.943431983839026822e-01,1.009799602547884895e-01
8.359999999999999654e-01,1.838919577502813596e-01,-3.368731495347005583e-02,1.754879617973181261e-01
8.369999999999999662e-01,-2.773733700891748907e-02,-1.756009720621277970e-01,6.166912841029665443e-02
8.379999999999999671e-01,-2.439406510359043156e-01,-2.230006802491414919e-01,-4.316466195106234693e-02
8.389999999999999680e-01,-3.059080155482806207e-01,-1.629937375270187339e-01,-1.593603806590027927e-01
8.399999999999999689e-01,-1.479343696462525892e-01,1.837445964411484056e-02,-1.569072779071376544e-01
8.409999999999999698e-01,4.074075133601665760e-02,2.091240709282671806e-01,-5.213157479071726247e-02
8.419999999999999707e-01,2.620122279976522250e-01,2.276212341037211484e-01,5.977755371712425991e-02
8.429999999999999716e-01,2.499043808005629586e-01,1.187960866039443619e-01,1.609539246915089872e-01
8.439999999999999725e-01,9.616974113591747475e-02,-9.989461502463385656e-02,1.687200029939047996e-01
8.449999999999999734e-01,-1.320745703247463709e-01,-2.581298703216351464e-01,7.687892494113438002e-02
8.459999999999999742e-01,-3.009839507660060920e-01,-2.126585664986859470e-01,-7.090219728403507338e-02
8.469999999999999751e-01,-2.602696611547928862e-01,-5.540357325482583861e-02,-1.547739968093100604e-01
8.479999999999999760e-01,-6.479830047627435641e-02,1.465789207259585447e-01,-1.430480950445976451e-01
8.489999999999999769e-01,1.617320867462819778e-01,2.251060956043665628e-01,-7.879036868887634437e-02
8.499999999999999778e-01,2.937880068506391051e-01,1.632480125280978411e-01,1.049528116011099466e-01
8.509999999999999787e-01,2.346801054627060401e-01,7.857485959616508642e-03,1.469220057248728506e-01
8.519999999999999796e-01,2.762930404195993589e-02,-1.669866838722427194e-01,1.391118034598361752e-01
8.529999999999999805e-01,-1.951206118339160467e-01,-2.800508123850100617e-01,-1.016475727927435187e-02
8.539999999999999813e-01,-2.712014705345108800e-01,-1.527912567169223412e-01,-1.061980995006020639e-01
8.549999999999999822e-01,-2.020107232997343238e-01,3.397227468709501652e-02,-1.819021219923718513e-01
8.559999999999999831e-01,3.300463874948783571e-02,1.966804448703535491e-01,-1.067291407341234705e-01
8.569999999999999840e-01,2.213821849302297085e-01,2.382118808090272211e-01,2.324795452262132418e-03
8.579999999999999849e-01,3.086234382571364510e-01,7.054411082515010811e-02,1.663799226974853884e-01
8.589999999999999858e-01,1.464007135362120349e-01,-5.114388289704276114e-02,1.930398755741716266e-01
8.599999999999999867e-01,-6.063280706208319659e-02,-2.445764248603454760e-01,1.221210820233742944e-01
8.609999999999999876e-01,-2.961590667845054314e-01,-2.139648524291305198e-01,-1.990414526305647400e-02
8.619999999999999885e-01,-2.508362168880409193e-01,-5.542101087994625447e-02,-1.449307656034972969e-01
8.629999999999999893e-01,-1.118166299998090418e-01,1.263773738449439077e-01,-1.952720437004788478e-01
8.639999999999999902e-01,1.355041011016252517e-01,2.581559854537303078e-01,-8.027040931506074228e-02
8.649999999999999911e-01,2.925257340678034113e-01,1.969059473234819058e-01,6.175010141064195962e-02
8.659999999999999920e-01,2.529772557290653756e-01,-3.686991005833057267e-03,1.726936697972796253e-01
8.669999999999999929e-01,8.289812823303664702e-02,-1.752234341415719598e-01,1.498160990981768914e-01
8.679999999999999938e-01,-1.811107052551201857e-01,-2.113094775336741005e-01,5.002933118477766866e-02
8.689999999999999947e-01,-2.969461644667879541e-01,-1.511323873167141896e-01,-7.202680269657961432e-02
8.699999999999999956e-01,-2.031566583924634406e-01,3.467188399270722254e-02,-1.715173460999325217e-01
8.709999999999999964e-01,-3.750108047423931362e-02,2.021418240878825601e-01,-1.443442858670775097e-01
8.719999999999999973e-01,2.196664911821492316e-01,2.261222766324928746e-01,-1.332566929260322122e-02
8.729999999999999982e-01,3.122892163756810779e-01,1.009567134547718764e-01,1.125014738597797104e-01
8.739999999999999991e-01,1.930744047348317005e-01,-7.558671175448568313e-02,1.734498715852495487e-01
8.750000000000000000e-01,-8.759756805093903489e-04,-2.278413840439373339e-01,1.555935929211011703e-01
8.760000000000000009e-01,-2.421059905185519168e-01,-1.909397405368933875e-01,1.708738371199114425e-02
8.770000000000000018e-01,-3.304347103930991292e-01,-3.696349349038341447e-02,-1.493534559522490812e-01
8.780000000000000027e-01,-1.740622886092696719e-01,1.245884497410066488e-01,-1.542076915640459844e-01
8.790000000000000036e-01,8.935614327669144652e-02,2.999516461969722325e-01,-7.220005498640949537e-02
8.800000000000000044e-01,2.920073822652169415e-01,1.823867938031391578e-01,3.701488168122189087e-02
8.810000000000000053e-01,2.775084327002276252e-01,-2.099026062956023744e-02,1.681930772647280969e-01
8.820000000000000062e-01,5.902260439416787130e-02,-1.780021854220550093e-01,1.670605719438479908e-01
8.830000000000000071e-01,-1.197573484382847692e-01,-2.284517405067207629e-01,1.032438674332251810e-01
8.840000000000000080e-01,-2.812460677798313546e-01,-1.764672697712484362e-01,-5.886818364702883083e-02
8.850000000000000089e-01,-2.486282924560778151e-01,9.587459555408801848e-03,-1.366459930678997348e-01
8.860000000000000098e-01,-3.164449425412561856e-02,1.908555540181308963e-01,-1.668890823198452833e-01
8.870000000000000107e-01,2.026617224575597842e-01,2.404465532070306222e-01,-9.080295037275602776e-02
8.880000000000000115e-01,3.299272346086133401e-01,1.023016827176419646e-01,4.796100468326174038e-02
8.890000000000000124e-01,2.040104882054865898e-01,-8.225195135111602884e-02,1.685023302984989257e-01
8.900000000000000133e-01,-2.915284852096794097e-02,-2.273418393777669466e-01,1.681759327017917360e-01
8.910000000000000142e-01,-2.477213695307834695e-01,-2.013934626015507490e-01,1.042127421335528048e-01
8.920000000000000151e-01,-3.008251330159452119e-01,-5.686239617919392614e-02,-1.095464046819546039e-01
8.930000000000000160e-01,-2.080583876229565587e-01,1.305866268663097018e-01,-1.869305300050122243e-01
8.940000000000000169e-01,9.066724982934357135e-02,2.114384999639706830e-01,-1.508445508095313525e-01
8.950000000000000178e-01,2.558915826255918624e-01,2.103326068322771969e-01,-2.644486283147917324e-02
8.960000000000000187e-01,2.901875196643418087e-01,6.264845840901827126e-03,1.020450343092906553e-01
8.970000000000000195e-01,1.510180238652032991e-01,-1.669797051048863001e-01,1.752336938835815094e-01
8.980000000000000204e-01,-1.077694298854975918e-01,-2.360981978188389230e-01,1.577713676746985705e-01
8.990000000000000213e-01,-2.704346379193963146e-01,-1.631766818196361546e-01,-1.670277913774841777e-02
9.000000000000000222e-01,-3.080635696046291061e-01,7.414125403020127569e-02,-1.173548417755793938e-01
9.010000000000000231e-01,-3.567178977595651668e-02,2.182931099888713589e-01,-1.914910061346681291e-01
9.020000000000000240e-01,1.729986298867449424e-01,2.094975560347447086e-01,-1.013964884874241357e-01
9.030000000000000249e-01,3.004031597673135767e-01,1.073464569510752670e-01,2.724001894226046536e-02
9.040000000000000258e-01,2.456176598387902199e-01,-5.554616261062954308e-02,1.384627999478286742e-01
9.050000000000000266e-01,2.439395794241693699e-02,-2.024971344527541905e-01,1.538741860282575036e-01
9.060000000000000275e-01,-1.526543372846581592e-01,-2.216771613218028458e-01,9.649881067340815299e-02
9.070000000000000284e-01,-3.273820216362152147e-01,-9.506563503147259786e-02,-8.649711528754389089e-02
9.080000000000000293e-01,-2.067517504020076058e-01,1.647948909341407364e-01,-1.414773107893949333e-01
9.090000000000000302e-01,1.247532125340272517e-02,2.427838297629777153e-01,-1.743324988347995375e-01
9.100000000000000311e-01,2.124715880149855296e-01,1.972624035599595815e-01,-7.293057181230895580e-02
9.110000000000000320e-01,3.043253860997517934e-01,1.054327430372028682e-02,1.070734675201871766e-01
9.120000000000000329e-01,1.748099841592010151e-01,-1.522852789665290474e-01,1.482514559220013128e-01
9.130000000000000338e-01,-5.086487991244893758e-02,-2.661002230420803638e-01,1.551351233228882298e-01
9.140000000000000346e-01,-2.924640974893859546e-01,-1.692028243411021482e-01,3.675851006112874908e-02
9.150000000000000355e-01,-2.843470723565372227e-01,5.791278792700213507e-02,-8.402353822428769436e-02
9.160000000000000364e-01,-1.275009205195821171e-01,1.895377899205729633e-01,-1.823104937354019517e-01
9.170000000000000373e-01,1.111035899182250680e-01,1.981821907545729122e-01,-1.554992970110477823e-01
9.180000000000000382e-01,2.898503480287580314e-01,1.335093347536245312e-01,-4.363794543635098055e-02
9.190000000000000391e-01,2.810444127472042641e-01,-6.740879804121160945e-02,1.009805298389868794e-01
9.200000000000000400e-01,7.805771899296193306e-02,-2.324387980814914267e-01,1.785507943424807231e-01
9.210000000000000409e-01,-1.662924435385791377e-01,-2.194041751036173715e-01,1.112679477386466775e-01
9.220000000000000417e-01,-3.171516080089854528e-01,-5.445725593678220344e-02,3.905759895756082817e-02
9.230000000000000426e-01,-2.763725731206994052e-01,1.140567086681669173e-01,-9.794142269326612527e-02
9.240000000000000435e-01,-2.351420861161096498e-02,2.387988899922761643e-01,-2.034276385162471501e-01
9.250000000000000444e-01,2.176162040985231971e-01,1.888782593051860081e-01,-1.193468208866339253e-01
9.260000000000000453e-01,3.082306269560000644e-01,1.155957326821996020e-02,2.219893370794533138e-02
9.270000000000000462e-01,2.164090771491032350e-01,-1.593081599278678429e-01,1.460666142069187712e-01
9.280000000000000471e-01,-1.455440975806017445e-02,-2.776426462023879882e-01,1.640049171113684978e-01
9.290000000000000480e-01,-2.916645293903016856e-01,-1.570780152298147103e-01,1.006515413168880546e-01
9.300000000000000488e-01,-3.014120511182805107e-01,3.044985626453252173e-02,-3.969189405199501086e-02
9.310000000000000497e-01,-1.397627288586612004e-01,1.832562029591321695e-01,-1.643962520287461926e-01
9.320000000000000506e-01,1.016535213154753370e-01,2.470361541035137887e-01,-1.484344904782354535e-01
9.330000000000000515e-01,2.951216851195899160e-01,1.019693627043259249e-01,-5.472951703481638425e-02
9.340000000000000524e-01,2.998362627982936734e-01,-1.228972971845734286e-01,6.101870839387648487e-02
9.350000000000000533e-01,1.218083663409422202e-01,-2.131610286300228696e-01,1.632599811964492720e-01
9.360000000000000542e-01,-1.257946436180054084e-01,-2.360257989460156913e-01,1.606591904452600861e-01
9.370000000000000551e-01,-2.564312554839555669e-01,-5.842999189659366793e-02,6.004650960102628915e-02
9.379999999999999449e-01,-2.747539302314956911e-01,1.035285898412931643e-01,-1.106567938731927020e-01
9.389999999999999458e-01,-2.326820133277764449e-02,2.393278733505168898e-01,-1.733864991018717328e-01
9.399999999999999467e-01,1.962211901603251873e-01,2.140994686631342292e-01,-1.536231290066103206e-01
9.409999999999999476e-01,3.179845286244300517e-01,4.128016792608703994e-02,-2.639320585088256177e-03
9.419999999999999485e-01,2.519039830423697723e-01,-1.832115883868128681e-01,1.256717880775715113e-01
9.429999999999999494e-01,2.017831735663846299e-02,-2.110268483951955876e-01,1.941308187378271710e-01
9.439999999999999503e-01,-1.950085653595563240e-01,-1.754349248265315853e-01,1.121254935598447605e-01
9.449999999999999512e-01,-3.229826929942668512e-01,3.597490677685585142e-02,-4.301320629044784460e-02
9.459999999999999520e-01,-1.856170757283089889e-01,1.974965300321321338e-01,-1.223898808549726686e-01
9.469999999999999529e-01,4.384892223145558238e-02,2.116900539729077990e-01,-1.650375524666943816e-01
9.479999999999999538e-01,2.479421503429942719e-01,1.354621863802061010e-01,-9.254291439742087788e-02
9.489999999999999547e-01,2.991642507598821776e-01,-5.407139829406246850e-02,4.453704844126910728e-02
9.499999999999999556e-01,1.841343085991961337e-01,-2.144288817602863217e-01,1.420309171716746532e-01
9.509999999999999565e-01,-9.482043982844892693e-02,-2.346976629794603475e-01,1.566167091523031352e-01
9.519999999999999574e-01,-2.936125738891803838e-01,-7.282705760324278965e-02,3.463589699662136118e-02
9.529999999999999583e-01,-2.786557148025430863e-01,1.133999450678038895e-01,-4.942903740523107298e-02
9.539999999999999591e-01,-1.087997316067510351e-01,2.350781642558693318e-01,-1.690647620672074414e-01
9.549999999999999600e-01,1.236960999555298812e-01,1.938275693623767448e-01,-1.753019396969255628e-01
9.559999999999999609e-01,3.043439153967748556e-01,3.467490475759237717e-02,-7.208101556894032369e-02
9.569999999999999618e-01,2.674948954373415066e-01,-1.745112926496086569e-01,1.023447177439059802e-01
9.579999999999999627e-01,3.723438815841702970e-02,-2.327271513974344674e-01,1.406354274295316120e-01
9.589999999999999636e-01,-1.647703152138170757e-01,-1.431256419526566181e-01,1.465021168793740058e-01
9.599999999999999645e-01,-3.211689387556548314e-01,-1.803465973035952566e-03,7.470386179719556985e-02
9.609999999999999654e-01,-2.033209061858225752e-01,1.823867760317228193e-01,-9.234686538111724907e-02
9.619999999999999662e-01,2.879601054349380587e-02,2.360783167384168657e-01,-1.559833114917699715e-01
9.629999999999999671e-01,2.467378100841987054e-01,1.281316982765371149e-01,-1.345739562957618263e-01
9.639999999999999680e-01,2.864223491324926485e-01,-1.096819846220889877e-01,-2.866654928395348176e-02
9.649999999999999689e-01,1.852695107301325639e-01,-2.221744775422142826e-01,1.486908655274930269e-01
9.659999999999999698e-01,-5.171479690638405152e-02,-2.058835812764787943e-01,1.916242508785535315e-01
9.669999999999999707e-01,-2.449107511389634062e-01,-7.711128715284516766e-02,1.080487304109034735e-01
9.679999999999999716e-01,-2.865308952553577426e-01,1.071079403232139404e-01,5.177355671988583506e-03
9.689999999999999725e-01,-1.307523275494120729e-01,2.418737346071626326e-01,-1.881750577073814101e-01
9.699999999999999734e-01,1.053084153837466896e-01,2.068806519847819214e-01,-1.717714673747025300e-01
9.709999999999999742e-01,3.125997026284410008e-01,1.209420821841221232e-02,-7.156395832853659766e-02
9.719999999999999751e-01,2.700702087362933379e-01,-1.462973718432755144e-01,8.996719708448378330e-03
9.729999999999999760e-01,7.662168151241190162e-02,-2.435489493541845851e-01,1.495284552248102583e-01
9.739999999999999769e-01,-1.323799840196734912e-01,-1.483018774122824013e-01,1.907462588248911017e-01
9.749999999999999778e-01,-3.125575443674473153e-01,3.826814983447181934e-02,1.188200657319377629e-01
9.759999999999999787e-01,-2.255261318811175308e-01,2.081171573223404569e-01,-6.212816201493399221e-02
9.769999999999999796e-01,-2.669023141480101474e-02,2.472855512099077224e-01,-1.537318488496841329e-01
9.779999999999999805e-01,2.084726316990251072e-01,1.244481130650751805e-01,-1.330786611229666516e-01
9.789999999999999813e-01,3.379662626998606867e-01,-7.800957944008517220e-02,-6.460473963612772819e-02
9.799999999999999822e-01,2.338694037655194846e-01,-2.425528883803640678e-01,4.948716796356010528e-02
9.809999999999999831e-01,-1.282710867406032041e-03,-2.409247152021609106e-01,1.880737408342599559e-01
9.819999999999999840e-01,-2.480163703982780354e-01,-7.471470320034701018e-02,1.502431905633882792e-01
9.829999999999999849e-01,-2.980790728348141072e-01,1.175664011415364502e-01,6.555982691792820727e-02
9.839999999999999858e-01,-1.484736827996895048e-01,2.132760180107216574e-01,-1.056137101235934267e-01
9.849999999999999867e-01,5.065060676956945757e-02,1.868345527632390146e-01,-1.790379510606477376e-01
9.859999999999999876e-01,2.912603783076211372e-01,1.284167669707291654e-02,-1.186954087236695987e-01
9.869999999999999885e-01,3.029339835871988074e-01,-1.884810650907855489e-01,-7.880644681648150268e-03
9.879999999999999893e-01,1.259433419853617786e-01,-2.211673490468957504e-01,1.443043977300339509e-01
9.889999999999999902e-01,-1.414385921414864355e-01,-1.700057951555678237e-01,1.751189718504684578e-01
9.899999999999999911e-01,-2.797971371477489533e-01,4.323181388971050754e-02,1.088111974013509231e-01
9.909999999999999920e-01,-2.657739536099407163e-01,1.619642260306554116e-01,1.357826633594164459e-02
9.919999999999999929e-01,-2.949577799703549663e-02,2.275224069216385259e-01,-1.402407733875147278e-01
9.929999999999999938e-01,1.612699505267775613e-01,1.455025005106147518e-01,-1.845327826603631594e-01
9.939999999999999947e-01,3.420691394209304792e-01,-7.457482935590604989e-02,-8.537226189060123649e-02
9.949999999999999956e-01,2.339132062060533257e-01,-2.020284950257228151e-01,7.969316317047217546e-02
9.959999999999999964e-01,1.411398139074426968e-02,-2.162913388052337404e-01,1.538267630010823894e-01
9.969999999999999973e-01,-2.058707998298790198e-01,-7.998687660288587853e-02,1.920758113264013911e-01
9.979999999999999982e-01,-2.914020594279549958e-01,1.083922670124641691e-01,1.128308988372769689e-01
9.989999999999999991e-01,-1.631151380555052044e-01,2.680733221839073921e-01,-7.921999238947230459e-02
1.000000000000000000e+00,6.358794600353108450e-02,2.143503870348410778e-01,-1.709448873315164708e-01
1.000999999999999890e+00,2.002528700702961295e-01,3.751494266001645372e-02,-1.517144223775385159e-01
1.002000000000000002e+00,2.803490949439012003e-01,-1.421302028634977288e-01,-1.215558219396577905e-02
1.002999999999999892e+00,1.446243007086196186e-01,-2.444814293432419627e-01,1.019424707772807748e-01
1.004000000000000004e+00,-1.151508977538697881e-01,-1.723048632748057363e-01,1.740916451440359947e-01
1.004999999999999893e+00,-2.560713406292600136e-01,-1.296544671080970910e-04,2.019073851207618953e-01
1.006000000000000005e+00,-2.738459271062911315e-01,2.236109347580590712e-01,8.946918978676202464e-03
1.006999999999999895e+00,-8.504371878479162483e-02,2.310728894356294805e-01,-1.125794942544882105e-01
1.008000000000000007e+00,1.730033983605435421e-01,1.334002976174022970e-01,-1.945766603494290536e-01
1.008999999999999897e+00,2.777993303381441348e-01,-7.354203348374577232e-02,-1.232634914126109899e-01
1.010000000000000009e+00,2.672848119619106178e-01,-2.384704436922614190e-01,1.824953423712931053e-02
1.010999999999999899e+00,4.598970501201836425e-02,-2.420257721610088453e-01,1.124381267152119723e-01
1.012000000000000011e+00,-1.893010353618620190e-01,-6.263466777658853457e-02,1.852728030724057617e-01
1.012999999999999901e+00,-3.053646388588311389e-01,1.351271376505862321e-01,1.200548774257998164e-01
1.014000000000000012e+00,-2.175618653736321184e-01,2.221469037454315565e-01,-2.710669239769134334e-02
1.014999999999999902e+00,-3.560075883695801996e-02,2.342506600822706897e-01,-2.009941659491805144e-01
1.016000000000000014e+00,2.355586692147401962e-01,4.557992588812084106e-02,-2.038527443056795674e-01
1.016999999999999904e+00,3.183478390590073204e-01,-1.546738352290726592e-01,-9.227007565469907968e-02
1.018000000000000016e+00,1.682494256718129189e-01,-2.587547225098204007e-01,3.946959208712640110e-02
1.018999999999999906e+00,-6.016804157361352323e-02,-1.798482310462937439e-01,1.623687877574083449e-01
1.020000000000000018e+00,-2.493665352927054157e-01,-5.823328318200612572e-03,1.670179406384942611e-01
1.020999999999999908e+00,-2.979563166142110142e-01,1.960313952791047643e-01,5.224715753393059658e-02
1.022000000000000020e+00,-1.341193653661367224e-01,2.267195986552577036e-01,-2.946339490399561487e-02
1.022999999999999909e+00,7.943403821990875635e-02,1.459137734197882286e-01,-1.780948510141324714e-01
1.024000000000000021e+00,2.761547561808656570e-01,-9.124721572863868368e-02,-1.771916197620890809e-01
1.024999999999999911e+00,3.189961893359621325e-01,-2.043381510232491483e-01,-4.003185418894271430e-02
1.026000000000000023e+00,6.292487691009340800e-02,-2.141796105664316996e-01,1.163710418507936800e-01
1.026999999999999913e+00,-1.468739278881051047e-01,-6.584158776456548734e-02,1.553310845137377272e-01
1.028000000000000025e+00,-3.180679866024707092e-01,7.613247472288418860e-02,1.479483205510481181e-01
1.028999999999999915e+00,-2.437640353102907831e-01,2.098636561153292557e-01,7.483587640525229956e-02
1.030000000000000027e+00,-1.702018445895405255e-02,1.871591158473025207e-01,-1.364253439337868301e-01
1.030999999999999917e+00,2.033344056217998297e-01,3.207924933519420985e-02,-2.150812050409985354e-01
1.032000000000000028e+00,2.586202522309793417e-01,-1.419281755485801155e-01,-1.382756647536058647e-01
1.032999999999999918e+00,2.300921681178603462e-01,-1.978586990537307133e-01,2.924910327738000290e-02
1.034000000000000030e+00,-2.748004986681131315e-02,-1.863906571434487403e-01,1.580143912588731492e-01
1.034999999999999920e+00,-2.471197632463264515e-01,1.894214903680477638e-02,1.664716981066716728e-01
1.036000000000000032e+00,-2.880362559063920358e-01,1.625067389692152475e-01,1.020844453027776738e-01
1.036999999999999922e+00,-2.159425332279976129e-01,2.195591744710575777e-01,-3.591187864951917580e-02
1.038000000000000034e+00,4.846230058361796628e-02,1.510403481867262920e-01,-1.476658690074290070e-01
1.038999999999999924e+00,2.395594593731174282e-01,-7.284611293992696024e-02,-1.929433361801200786e-01
1.040000000000000036e+00,2.871922906258096986e-01,-2.175579698556577568e-01,-1.098908538031395238e-01
1.040999999999999925e+00,1.142951952179159791e-01,-2.209447313988598949e-01,6.955960004203205760e-02
1.042000000000000037e+00,-1.184868949110139819e-01,-5.088793203978058538e-02,1.470939409973636980e-01
1.042999999999999927e+00,-2.859703376728983115e-01,1.067898265389567031e-01,1.663319475366681344e-01
1.044000000000000039e+00,-2.512552220473290299e-01,2.262371870153316589e-01,6.821870134334737101e-02
1.044999999999999929e+00,-8.278002849773619110e-02,1.984885764098001937e-01,-8.881515406810393254e-02
1.046000000000000041e+00,1.777453615993787039e-01,5.648433470779268967e-02,-1.328453800392811468e-01
1.046999999999999931e+00,3.157266693921472744e-01,-1.350583653146676943e-01,-1.751528121912544478e-01
1.048000000000000043e+00,2.063387815473014530e-01,-2.555480151742282047e-01,-6.007588161290793038e-02
1.048999999999999932e+00,4.820823595975971126e-02,-1.726878422225504583e-01,8.692661116087993523e-02
1.050000000000000044e+00,-2.139142673698233021e-01,-6.862646286454484289e-03,1.704942065036006704e-01
1.050999999999999934e+00,-3.310726026148546053e-01,2.032775555973133641e-01,1.589510466446494019e-01
1.052000000000000046e+00,-2.081667944330527487e-01,2.506939406581257801e-01,2.478693301173421834e-02
1.052999999999999936e+00,9.775618157321494181e-03,1.221883744205657513e-01,-1.035510725257703657e-01
1.054000000000000048e+00,2.522057493848288146e-01,-7.792763005473850313e-02,-1.979121236893706115e-01
1.054999999999999938e+00,3.280085530297397467e-01,-1.940124166133099792e-01,-1.252143385663751496e-01
1.056000000000000050e+00,1.635398923543749106e-01,-2.104144668716780853e-01,-1.528708204649449273e-02
1.056999999999999940e+00,-6.411088735043306286e-02,-1.084410960843614352e-01,1.733205050920916535e-01
1.058000000000000052e+00,-2.720075095719103331e-01,1.442150182658569479e-01,1.718641578405397385e-01
1.058999999999999941e+00,-3.052646969036402758e-01,2.794125872708538849e-01,1.172570327700672849e-01
1.060000000000000053e+00,-1.602702575713998989e-01,2.164812436948636287e-01,-3.722532824084935632e-02
1.060999999999999943e+00,1.512713731272543327e-01,2.893678269229880626e-02,-1.745621691023870881e-01
1.062000000000000055e+00,2.986954283429767987e-01,-1.187747347802540626e-01,-1.392879750795865401e-01
1.062999999999999945e+00,2.420910747991080469e-01,-2.526361856930028349e-01,-1.017112714190381156e-01
1.064000000000000057e+00,9.416754263753043808e-02,-1.845936796849764472e-01,5.256914170118920371e-02
1.064999999999999947e+00,-1.859698929688415880e-01,-2.454656646755463967e-02,1.696179461885443385e-01
1.066000000000000059e+00,-2.781079755476629223e-01,1.692878572611350441e-01,1.354863640878857245e-01
1.066999999999999948e+00,-2.702608920100362244e-01,2.510308605141277072e-01,5.284454538756469533e-02
1.068000000000000060e+00,-5.010637483121001268e-02,1.250624964724187105e-01,-6.617794426601975033e-02
1.068999999999999950e+00,2.138802352542020779e-01,-5.966673256571101980e-02,-1.947070062551314040e-01
1.070000000000000062e+00,3.175011318912854263e-01,-2.355340105015913399e-01,-1.478728276056829327e-01
1.070999999999999952e+00,2.291417275005294685e-01,-2.081848659404683388e-01,-4.983462212216875631e-02
1.072000000000000064e+00,-3.500347979853535990e-02,-6.413011009721449052e-02,9.394747290707756993e-02
1.072999999999999954e+00,-2.022298969684530323e-01,1.370552320860744799e-01,1.791399790295397920e-01
1.074000000000000066e+00,-3.258420282693181291e-01,1.990637485729560840e-01,1.821419015515495232e-01
1.074999999999999956e+00,-1.339095421537075115e-01,2.314324797639063236e-01,3.926635316309764340e-02
1.076000000000000068e+00,6.127260203716622389e-02,4.088179078636229591e-02,-1.131057470945081994e-01
1.076999999999999957e+00,2.471672736133675163e-01,-1.757551920090835718e-01,-1.688803457957007426e-01
1.078000000000000069e+00,2.782735039766598417e-01,-2.106131317221862642e-01,-1.129699210728735970e-01
1.078999999999999959e+00,1.007979537309663526e-01,-1.981188165082117258e-01,2.101363684680879890e-02
1.080000000000000071e+00,-1.316618285544667033e-01,-2.070926049201498448e-02,1.298879990266738060e-01
1.080999999999999961e+00,-3.083877271189970348e-01,1.996208135270449990e-01,1.859321582558489949e-01
1.082000000000000073e+00,-2.591436730025199475e-01,1.994844288468803906e-01,1.152973015780541233e-01
1.082999999999999963e+00,-7.855686405821674101e-02,1.038590060271313148e-01,-2.451444012629303351e-02
1.084000000000000075e+00,1.596440452805439336e-01,-7.346807250543631318e-02,-1.261622119377779905e-01
1.084999999999999964e+00,2.680720191915789696e-01,-2.047146756483149144e-01,-1.719610482432029630e-01
1.086000000000000076e+00,1.929564345870320996e-01,-2.426234107557120323e-01,-7.160202494941686480e-02
1.086999999999999966e+00,6.086604798114928980e-03,-6.427917872328293980e-02,3.155963491468686405e-02
1.088000000000000078e+00,-2.027986684072996260e-01,1.319671406398036095e-01,1.807638662570738020e-01
1.088999999999999968e+00,-2.731818900732175814e-01,2.578523403331225983e-01,1.517703504557696148e-01
1.090000000000000080e+00,-2.025555986199372993e-01,1.993770395871572176e-01,4.151236167009557387e-02
1.090999999999999970e+00,3.958905546419674848e-02,4.905480185633391554e-02,-7.150461199429497539e-02
1.092000000000000082e+00,2.644695427305959190e-01,-1.486652938675717683e-01,-2.113840566200323179e-01
1.092999999999999972e+00,2.795109294229375374e-01,-2.378726527454341766e-01,-1.819196227784795061e-01
1.094000000000000083e+00,1.510034419368709857e-01,-2.066806044937985476e-01,-3.914979505633896933e-02
1.094999999999999973e+00,-5.703240727190491549e-02,2.517166026240780577e-02,1.231821314224874619e-01
1.096000000000000085e+00,-2.765386651350001390e-01,1.733384146222832767e-01,1.767179466089787987e-01
1.096999999999999975e+00,-2.703609946058906921e-01,2.595627085279902380e-01,1.409700158867235598e-01
1.098000000000000087e+00,-1.074824529020585728e-01,1.380952906103893318e-01,1.841140480398187340e-02
1.098999999999999977e+00,1.534256877234205230e-01,-3.936926679219671793e-02,-8.858257534765899555e-02
1.100000000000000089e+00,2.739603406126849272e-01,-2.064357896764174305e-01,-1.664350819448154883e-01
1.100999999999999979e+00,2.522015345249289386e-01,-2.312379677600326366e-01,-7.496109126712406645e-02
1.102000000000000091e+00,4.152036448022805581e-02,-1.000291669262018956e-01,-1.056159728944444480e-02
1.102999999999999980e+00,-1.652582041083884290e-01,1.106399312299347071e-01,1.209118202119693203e-01
1.104000000000000092e+00,-3.104583158057535597e-01,2.376211522119265618e-01,1.929263137693206787e-01
1.104999999999999982e+00,-2.301657247973155906e-01,2.244259246930613017e-01,7.488876936853432198e-02
1.106000000000000094e+00,-4.948340221245429993e-02,1.719256868296129698e-02,-5.135483203128097390e-02
1.106999999999999984e+00,2.596123338533587455e-01,-1.392851871680732267e-01,-1.488863692367389524e-01
1.108000000000000096e+00,2.810347189513431876e-01,-2.456678874514202360e-01,-1.910637824099873094e-01
1.108999999999999986e+00,1.668018454126926342e-01,-1.714806243396857499e-01,-1.133292626846097578e-01
1.110000000000000098e+00,-5.570551486998165380e-02,1.317091750107373879e-02,8.166902772969339419e-02
1.110999999999999988e+00,-2.508243194045279290e-01,2.109954875606487035e-01,1.624718364634986645e-01
1.112000000000000099e+00,-3.151783862825783822e-01,2.563646258961059243e-01,1.394567749547771518e-01
1.112999999999999989e+00,-1.436620325924112540e-01,1.245648890948366783e-01,3.115010393561448016e-02
1.114000000000000101e+00,1.199825807614299245e-01,-7.731696356652030533e-02,-1.045321912930675390e-01
1.114999999999999991e+00,2.700261455384264098e-01,-2.070276732228837901e-01,-1.788783080781634061e-01
1.116000000000000103e+00,2.411049505861097564e-01,-2.225683429074707120e-01,-1.642410611496156747e-01
1.116999999999999993e+00,1.165330859034063998e-01,-7.823351726616521729e-02,-4.357595255203639689e-02
1.118000000000000105e+00,-1.688525045321158935e-01,1.415496578393539429e-01,1.084691634257785031e-01
1.118999999999999995e+00,-3.166582998836594554e-01,2.158950353188926752e-01,1.258639971018810089e-01
1.120000000000000107e+00,-2.480773564769893635e-01,2.105501145626119119e-01,1.470906905345975568e-01
1.120999999999999996e+00,-5.021025063356683582e-02,6.248567874749719891e-02,2.678294794163236375e-02
1.122000000000000108e+00,1.955161006798989964e-01,-1.678717793045213236e-01,-1.291438737379440871e-01
1.122999999999999998e+00,2.728604012722489758e-01,-2.508570368850576715e-01,-1.653393784059959681e-01
1.124000000000000110e+00,1.837145453650341764e-01,-1.870822627710644337e-01,-1.012008945054932163e-01
1.125000000000000000e+00,-3.401568417563499702e-02,-1.958678514613510641e-02,3.082941391973219314e-02
1.125999999999999890e+00,-2.813940776192747073e-01,1.170490684627713274e-01,1.340674713504263760e-01
1.127000000000000002e+00,-3.265938088099694658e-01,2.383913575551983299e-01,1.955102460640556761e-01
1.127999999999999892e+00,-1.643623337952782315e-01,1.273733011431305850e-01,7.967062461417216690e-02
1.129000000000000004e+00,6.454701709386505282e-02,-5.849463849327911358e-02,-4.616737470525691944e-02
1.129999999999999893e+00,3.008810693851306506e-01,-2.173368750840524444e-01,-1.480202066375036207e-01
1.131000000000000005e+00,2.706336107764757415e-01,-2.174635982679851143e-01,-1.882862577904683699e-01
1.131999999999999895e+00,1.198329948624851926e-01,-1.008422466929680961e-01,-8.765874263392169075e-02
1.133000000000000007e+00,-1.081244045458877867e-01,8.919060466053052583e-02,4.014364588254231564e-02
1.133999999999999897e+00,-2.567442774870626332e-01,2.496669600256563037e-01,1.798874289910507018e-01
1.135000000000000009e+00,-2.617788856736856240e-01,2.546165875936006184e-01,1.654348937291175992e-01
1.135999999999999899e+00,-5.880208350977163961e-02,4.676985334735955097e-02,2.322204763522589532e-02
1.137000000000000011e+00,1.615397368751441964e-01,-1.532018989391806529e-01,-1.031839573324656312e-01
1.137999999999999901e+00,2.992141013015410245e-01,-2.334554448254027581e-01,-1.382200543324926811e-01
1.139000000000000012e+00,2.307869756429339336e-01,-1.613914943545602110e-01,-1.592464618566170054e-01
1.139999999999999902e+00,3.016659025605839331e-02,-3.368131802120276352e-02,-3.434374880891044590e-02
1.141000000000000014e+00,-2.176245286264472945e-01,1.920042552713417672e-01,9.560641329476368688e-02
1.141999999999999904e+00,-3.037753728525148245e-01,2.711813385161226386e-01,1.798906192280976812e-01
1.143000000000000016e+00,-1.929621846955777709e-01,1.565260201931940875e-01,1.525922054090449731e-01
1.143999999999999906e+00,1.008009644883767035e-02,-6.928931492143303172e-02,8.813086289204819304e-03
1.145000000000000018e+00,2.180994179067889671e-01,-2.099575259010794948e-01,-1.059189638804368117e-01
1.145999999999999908e+00,2.849940270155326139e-01,-2.335713158433853631e-01,-2.118601321499723467e-01
1.147000000000000020e+00,1.656891240948809574e-01,-9.932610620340073804e-02,-1.224222885620182000e-01
1.147999999999999909e+00,-6.769444378816667773e-02,9.089382126238793047e-02,-5.569715341042509160e-04
1.149000000000000021e+00,-2.862952188005797871e-01,2.444014388433546070e-01,1.606222687378828506e-01
1.149999999999999911e+00,-2.447436673499624460e-01,2.056124181220297664e-01,1.493378833468172184e-01
1.151000000000000023e+00,-1.010303325957140758e-01,5.427740770731222242e-02,9.869743995467497588e-02
1.151999999999999913e+00,1.314677934330941711e-01,-1.438078542904772383e-01,-6.509184213803399788e-02
1.153000000000000025e+00,3.000095044551636114e-01,-2.563863266564019305e-01,-1.545718588703738350e-01
1.153999999999999915e+00,2.560135385547319675e-01,-1.984280092916057558e-01,-1.863694568555402109e-01
1.155000000000000027e+00,7.599858407539222815e-02,2.009526224028889557e-02,-5.382312831466259939e-02
1.155999999999999917e+00,-1.688258703994769128e-01,1.915000646887461966e-01,4.594139596415391241e-02
1.157000000000000028e+00,-2.795188374108593110e-01,2.596609494923740047e-01,1.674699269237252541e-01
1.157999999999999918e+00,-2.353061509727065459e-01,1.469045682973620925e-01,1.712092700617509622e-01
1.159000000000000030e+00,-2.508893995709817262e-02,-5.250033639104922933e-02,4.085655186428709118e-02
1.159999999999999920e+00,1.985550247627579368e-01,-2.143791590663220170e-01,-7.915341484982088560e-02
1.161000000000000032e+00,3.251459721171061079e-01,-2.495946429072604666e-01,-1.664857735920007575e-01
1.161999999999999922e+00,1.868813380630572618e-01,-5.305833235332930303e-02,-1.400673542195179644e-01
1.163000000000000034e+00,-4.867590318518137671e-02,1.181556162212544642e-01,-2.890918001136266735e-02
1.163999999999999924e+00,-2.315584271539941896e-01,2.364424537131077364e-01,1.451461069382700975e-01
1.165000000000000036e+00,-2.676801415537110040e-01,1.853578544897052649e-01,1.355916998286404995e-01
1.165999999999999925e+00,-1.638523985492794932e-01,3.111541867191391919e-02,1.506055321131634095e-01
1.167000000000000037e+00,8.644441391537205366e-02,-1.205453293767102807e-01,4.581659682574351633e-02
1.167999999999999927e+00,2.383954591882016250e-01,-2.321240410620321604e-01,-1.335013558352408647e-01
1.169000000000000039e+00,2.586429367625123210e-01,-2.036558511180228959e-01,-1.821713004594359975e-01
1.169999999999999929e+00,1.051799057948662602e-01,5.464083692136095186e-04,-1.004248241328855179e-01
1.171000000000000041e+00,-1.286269546693401267e-01,1.420205788484515119e-01,5.690646776644248638e-03
1.171999999999999931e+00,-3.227320708137575433e-01,2.408054697409597322e-01,1.480846566656791874e-01
1.173000000000000043e+00,-2.576496655314284290e-01,1.410869303242555106e-01,1.894904615798779501e-01
1.173999999999999932e+00,-5.592105878201829999e-02,-6.047335140121224556e-02,8.811451774949825844e-02
1.175000000000000044e+00,1.744355696774326225e-01,-1.938612623815792746e-01,-6.282372547234185700e-02
1.175999999999999934e+00,2.792536786792273462e-01,-2.268566977083739666e-01,-1.414033830490840360e-01
1.177000000000000046e+00,2.361139858287262527e-01,-1.426132277994056896e-01,-1.685649708730967977e-01
1.177999999999999936e+00,-4.351757655649339009e-03,6.358577340993770699e-02,-9.604030157709100846e-02
1.179000000000000048e+00,-2.296320165699068383e-01,2.410548779830509469e-01,5.909734185950640817e-02
1.179999999999999938e+00,-3.046153447310318008e-01,2.329444461267321242e-01,1.575255821661643296e-01
1.181000000000000050e+00,-1.731682956775879023e-01,4.725459653111840908e-02,1.490741120168076750e-01
