time,acc_x,acc_y,acc_z
0.000000000000000000e+00,-8.425269326776596221e-04,1.150565013658654684e-02,4.454204970303581035e-02
1.000000000000000021e-03,2.172160189320925666e-02,-5.710757724873328361e-02,2.392477014531462290e-02
2.000000000000000042e-03,-1.795588656149275843e-03,-2.663973181131903609e-02,3.146334059436254466e-02
3.000000000000000062e-03,-6.461225112470929399e-02,-3.424782826798124930e-02,1.025853236828656520e-02
4.000000000000000083e-03,-5.982797708207479581e-02,-7.884455452934742425e-02,-7.312208469463721272e-02
5.000000000000000104e-03,-5.598738394060080031e-02,-8.732807523004197658e-02,-6.334508524893056602e-02
6.000000000000000125e-03,-5.555611004222815730e-02,-3.785407047682164128e-02,-5.691476514483797405e-02
7.000000000000000146e-03,-4.083254464739825840e-02,-5.354662850972369270e-02,-8.718212950623721591e-02
8.000000000000000167e-03,-8.215226281532518604e-02,-2.854690836441966043e-02,-3.590261442610138271e-02
8.999999999999999320e-03,-5.618694159210210759e-02,-5.117700482965818753e-02,-2.615339259936018748e-02
1.000000000000000021e-02,-4.998639595617816733e-02,-3.508980039569024878e-02,3.695219972847170898e-03
1.099999999999999936e-02,-3.247788576267653105e-02,-1.668932603517573818e-02,-4.806364441193426013e-02
1.200000000000000025e-02,-2.610167602435010947e-02,-2.882718873343959737e-02,-2.231472692831724600e-02
1.299999999999999940e-02,-3.564230169850326341e-02,6.848696880295429557e-02,-1.697416480787440271e-02
1.400000000000000029e-02,-1.061277032860185807e-02,1.091529937277666007e-03,-2.642327351292969844e-03
1.499999999999999944e-02,-5.892845047276364101e-03,1.224825990203839976e-02,3.049971956427089282e-03
1.600000000000000033e-02,4.637641826555443519e-02,4.687187441933306220e-02,8.118064834364065174e-03
1.700000000000000122e-02,4.544598454335472409e-02,2.808805147818931730e-02,1.821836951682292635e-02
1.799999999999999864e-02,3.140453821761465814e-02,4.779587725233254425e-02,2.078605847344362767e-02
1.899999999999999953e-02,5.176246172375759125e-02,6.173400095383398123e-02,2.374851840263413408e-03
2.000000000000000042e-02,9.136298069925420651e-02,5.270397557182797399e-02,3.963211772913193681e-02
2.100000000000000130e-02,7.328277812818424775e-02,6.346145815155233849e-02,2.350519854005561626e-02
2.199999999999999872e-02,6.276156549792591410e-02,6.356813676145002534e-02,3.389786254361990686e-02
2.299999999999999961e-02,8.209798256312553222e-02,5.490789131770427295e-02,2.364247876329251055e-02
2.400000000000000050e-02,4.390022311660617127e-02,4.069815073508209480e-02,6.936655715010789369e-02
2.500000000000000139e-02,6.027634274969868172e-02,4.416492571438097869e-02,7.157761042129034967e-02
2.599999999999999881e-02,4.752213262591994947e-02,-2.247482984073048001e-02,2.864380440082947218e-02
2.699999999999999969e-02,6.121644010927647372e-02,5.537782071577226559e-03,2.183272903463531409e-02
2.800000000000000058e-02,-1.927506258956589299e-03,-1.593497501831428118e-02,2.255651689862572459e-02
2.900000000000000147e-02,-7.843236716262805969e-03,4.699779728238055211e-03,1.498414820577505680e-03
2.999999999999999889e-02,-1.629966495550811204e-02,-5.677841170273274785e-02,1.704035758255538491e-02
3.099999999999999978e-02,7.027363226868762504e-03,-4.158523115709612805e-02,-1.321092958935871434e-02
3.200000000000000067e-02,-3.202921371919412175e-02,-3.188452551541421515e-02,-3.883872727442536348e-04
3.300000000000000155e-02,-5.525357106217593239e-02,-2.688728250113223833e-02,-3.450422276580639852e-02
3.400000000000000244e-02,-8.600856619322558294e-02,-4.552758723560337839e-02,-8.211290032777171163e-03
3.500000000000000333e-02,-5.328462125842745034e-02,-3.277809635161555574e-02,-2.266478533803778506e-02
3.599999999999999728e-02,-3.191944590416494199e-02,-4.670815615789102038e-02,-3.663748378698334501e-02
3.699999999999999817e-02,-7.812005017374817895e-02,-6.502811828722933861e-03,-5.163298599811837197e-02
3.799999999999999906e-02,-8.431101190300255288e-02,-1.401349916940955107e-02,-5.973279874354873314e-02
3.899999999999999994e-02,-1.894789788730175464e-02,-6.562891028373458481e-03,-4.745698312728129781e-02
4.000000000000000083e-02,-3.168609110303586412e-02,-2.436822824684771460e-02,-4.571765149081354063e-02
4.100000000000000172e-02,-3.097159417272020432e-02,8.920930301185481595e-03,-4.830781896875839532e-02
4.200000000000000261e-02,-3.014499416890977987e-02,8.635353308098997829e-03,-3.120083661946419784e-02
4.299999999999999656e-02,-4.476543857173234664e-03,3.097643085460153808e-02,-7.227177350673717922e-03
4.399999999999999745e-02,2.031871916643334178e-02,3.186078188355152829e-02,1.235743015330720718e-03
4.499999999999999833e-02,5.449895573530246472e-03,4.734830066577345314e-02,-2.170690279978557818e-02
4.599999999999999922e-02,2.630417934530058371e-02,5.699310526291390122e-02,-2.101518738762004485e-02
4.700000000000000011e-02,5.614779189035985080e-02,9.036235238657114310e-02,1.039904992152412312e-02
4.800000000000000100e-02,6.002678219503806978e-02,5.381610709644456259e-02,3.398092007262963621e-02
4.900000000000000189e-02,6.963650693462992980e-02,5.909629899032022710e-02,4.514031367838379494e-02
5.000000000000000278e-02,1.028329039589934435e-01,5.319417404821769058e-02,1.680548190270167094e-02
5.099999999999999672e-02,8.290203037603130487e-02,1.655521109640142874e-02,2.644932088812456533e-02
5.199999999999999761e-02,6.947333761682292219e-02,2.672266871140093272e-02,5.563025778562729479e-02
5.299999999999999850e-02,4.911707432736599904e-02,1.795892180590582740e-02,5.988390532387467824e-02
5.399999999999999939e-02,5.819935038361129243e-02,2.946971691903701659e-02,1.312199770800394696e-02
5.500000000000000028e-02,5.854156801217579725e-02,-3.727766938856260509e-02,3.783001737878845250e-02
5.600000000000000117e-02,4.340835630571727999e-03,1.217853009880880263e-03,5.496104477677587336e-02
5.700000000000000205e-02,-3.215123441698987134e-03,-4.302111727923806778e-02,-1.257542137349235145e-02
5.800000000000000294e-02,-2.506740737998761070e-02,-4.669216674070196527e-02,-1.056041514050543723e-02
5.899999999999999689e-02,-1.909500752379690233e-02,-4.477625441933354156e-02,4.008447015770194230e-03
5.999999999999999778e-02,-2.502522151088353713e-02,-9.289511344368182877e-02,6.184088082208227984e-03
6.099999999999999867e-02,-8.179623228633541021e-02,-5.088502825629143134e-02,-2.125522996538222603e-02
6.199999999999999956e-02,-3.554927943399539825e-02,-7.235021398657742742e-02,-2.721661273517206325e-02
6.300000000000000044e-02,-9.715105188675982051e-02,-7.433892222863466848e-02,-2.578475839947710554e-02
6.400000000000000133e-02,-5.812764513043572334e-02,-6.356893907306078451e-02,-3.109779252755066545e-02
6.500000000000000222e-02,-6.569353188185886316e-02,-2.031039541369380683e-02,-4.631780541317943867e-02
6.600000000000000311e-02,-3.831057975069767502e-02,-5.552091644903195400e-02,-4.169764159203129261e-02
6.700000000000000400e-02,-3.118028056347743951e-02,-3.677030220622697770e-02,-6.224216747291297369e-02
6.800000000000000488e-02,-2.137746877479758389e-02,-3.070327805921822199e-03,-5.649312770784965104e-02
6.900000000000000577e-02,-7.498051013987122593e-02,9.057641237430667748e-04,-4.721521096062701595e-02
7.000000000000000666e-02,-2.684523006432049455e-02,-4.715336502212462422e-02,-3.514422113055883090e-02
7.099999999999999367e-02,-2.030770277288058631e-02,5.870532424329396454e-02,-6.248834182715004570e-02
7.199999999999999456e-02,2.054996579094485812e-02,4.741004042122699130e-02,-6.060270839347702866e-03
7.299999999999999545e-02,4.681508883458918024e-02,2.702734707219586752e-02,1.803029811428728812e-02
7.399999999999999634e-02,6.186209516102421369e-02,6.634715081725513219e-02,6.436289413657668435e-02
7.499999999999999722e-02,4.493789307668363819e-02,6.571954649147786209e-02,3.019174676653534062e-02
7.599999999999999811e-02,5.556446702432989854e-02,6.922761282249742520e-02,-3.452371630219873335e-03
7.699999999999999900e-02,1.093594311971105015e-01,3.876610044717760523e-02,4.196367681606933547e-02
7.799999999999999989e-02,6.974024397092444538e-02,6.266367064798727959e-02,5.545787041739402845e-02
7.900000000000000078e-02,9.191429126702416186e-02,8.524560700130294488e-02,1.675920170429402375e-02
8.000000000000000167e-02,4.944758513709159031e-02,6.632144583759577716e-02,7.646751112448724186e-02
8.100000000000000255e-02,8.705940619666803493e-02,1.458788239513270253e-02,2.659700098376156091e-02
8.200000000000000344e-02,5.204424789765049741e-02,-2.059289861993285342e-02,5.689388246625209228e-02
8.300000000000000433e-02,3.268380024134755202e-02,-1.086165857307055255e-02,2.920135677800321516e-02
8.400000000000000522e-02,7.415057096243381392e-03,-3.203804331862541554e-03,1.667273181339016738e-02
8.500000000000000611e-02,2.939204860457606677e-02,-5.198312082220032937e-02,2.776501095716167600e-02
8.599999999999999312e-02,1.535531659257183268e-02,-3.092201311209780493e-02,7.631119641038484891e-03
8.699999999999999400e-02,4.230338285803984799e-02,-6.183320299876939041e-02,3.103641753439980930e-02
8.799999999999999489e-02,-6.784278294826288913e-02,-3.544120485597793135e-02,-2.258087471843258850e-02
8.899999999999999578e-02,-6.689405104711441952e-02,-6.722220835274879402e-02,-8.348501737930794087e-03
8.999999999999999667e-02,-9.614370407187353140e-02,-9.789286997487750552e-02,-7.497470968533901520e-03
9.099999999999999756e-02,-3.992583924156416914e-02,-4.518611734735509394e-02,-3.566954807831868718e-02
9.199999999999999845e-02,-8.536815938044683971e-02,-6.985436614909677766e-02,-1.526041302149617508e-02
9.299999999999999933e-02,-1.034334593266884039e-01,-6.082562090860267612e-02,-4.789930307046669222e-02
9.400000000000000022e-02,-9.418740519919928389e-02,-7.291048605911452929e-02,-3.027171417836689582e-02
9.500000000000000111e-02,-5.736348364119041310e-02,1.547564366462443435e-02,-5.705192029038530510e-02
9.600000000000000200e-02,-7.103728593059970009e-02,-4.265506659085895047e-02,-2.900804086244539864e-02
9.700000000000000289e-02,-3.709033868199128336e-02,1.303984897963719443e-03,-5.260813013812328659e-02
9.800000000000000377e-02,-4.662178412093233304e-02,-2.167933324403661238e-02,-5.569373235658850452e-02
9.900000000000000466e-02,-2.693759367390804668e-02,1.970856929366035862e-02,-2.203202093399090136e-02
1.000000000000000056e-01,2.937277001026195045e-03,3.253468419459384225e-02,-5.884893575336129501e-02
1.010000000000000064e-01,-1.450041482732570067e-03,5.147598722002466598e-02,1.154960619173985188e-02
1.019999999999999934e-01,3.342290164762704019e-02,5.402232525060161883e-02,1.550806395629186155e-03
1.029999999999999943e-01,8.626539877821239044e-02,8.741238469961488955e-02,4.283200229439006190e-02
1.039999999999999952e-01,6.718083122333148860e-02,5.873116415759842279e-02,2.525123536032632121e-02
1.049999999999999961e-01,3.038487542394527688e-02,6.581065515593532977e-02,5.234486472512370203e-02
1.059999999999999970e-01,8.666976416874654088e-02,6.764689184747596506e-02,3.142727611230671653e-02
1.069999999999999979e-01,1.088035881953116624e-01,2.415125718969548044e-02,4.210639313112329168e-02
1.079999999999999988e-01,8.488190613997097234e-02,4.127567397159098705e-02,5.886679259238269263e-02
1.089999999999999997e-01,6.701079667646267501e-02,5.521903215037898827e-02,7.120570099724156388e-02
1.100000000000000006e-01,8.054074717587365873e-02,1.669854517604400790e-02,2.449891188651935961e-02
1.110000000000000014e-01,5.477939396311310577e-02,1.242895295575920621e-02,-6.281577760942931056e-03
1.120000000000000023e-01,2.558022136925675039e-02,-2.974162865161801908e-02,5.040265785173021068e-02
1.130000000000000032e-01,7.618927951504842963e-03,-1.294807892282000272e-03,2.525243144986633395e-02
1.140000000000000041e-01,2.769769061566383986e-03,1.033451155071094668e-02,1.496206464957915150e-02
1.150000000000000050e-01,-5.207025274894430678e-02,-3.198263102796674445e-02,7.072825708406122423e-03
1.160000000000000059e-01,-1.214134078093570719e-02,-4.345183226844365199e-02,1.426760463154928696e-03
1.170000000000000068e-01,-6.348408413658018778e-02,-2.503757502949850028e-02,-6.613304157183207133e-02
1.179999999999999938e-01,-6.223930302919481600e-02,-6.483250014265787287e-02,-1.160671391992172154e-02
1.189999999999999947e-01,-7.640748336344621583e-02,-5.589621548717674943e-02,-1.737131387415786696e-02
1.199999999999999956e-01,-9.081508034971663701e-02,-7.373244044081818209e-03,-2.511123390055061688e-02
1.209999999999999964e-01,-7.272879239166808729e-02,-7.384352977628381998e-02,-5.422437647468589597e-03
1.219999999999999973e-01,-6.316379158218381196e-02,-5.804705567063186966e-02,-3.976231863480329115e-02
1.229999999999999982e-01,-6.405327270095828585e-02,-1.579515440499056761e-02,-5.014480503255430016e-02
1.239999999999999991e-01,-5.401127699243873231e-02,-5.890854747857088292e-02,-1.736791532057190349e-02
1.250000000000000000e-01,-3.631302049214975292e-02,-2.293145643470983000e-03,-3.583560500852209230e-02
1.260000000000000009e-01,-5.908815382568883418e-02,2.172761537832222384e-03,-5.680619803164588949e-02
1.270000000000000018e-01,-4.627636956184637967e-02,-6.182563659146662893e-03,-4.033281834522857434e-02
1.280000000000000027e-01,-3.744454815404902465e-02,2.070973165601538990e-02,-4.373845197232938131e-02
1.290000000000000036e-01,3.257336109235244980e-03,-1.479561800554669675e-02,-3.489786749721399822e-02
1.300000000000000044e-01,1.769870635483762958e-02,3.908654840282126119e-02,-1.318447059682675490e-02
1.310000000000000053e-01,4.765523310913388072e-02,4.868909917507695945e-02,3.654970993577230653e-02
1.320000000000000062e-01,7.251189984961020629e-02,3.757692630219421764e-02,-1.476189211496469270e-02
1.330000000000000071e-01,5.078013070477316315e-02,4.417895334355652348e-02,-1.825130925515509525e-02
1.340000000000000080e-01,7.436319155517082113e-02,9.830786227476705219e-02,2.481744163137459755e-02
1.350000000000000089e-01,6.859727116244838940e-02,4.454004017596686904e-02,3.230177616856964168e-02
1.360000000000000098e-01,7.542698005791632909e-02,4.233151093722210129e-02,4.830813312003871124e-02
1.370000000000000107e-01,4.945675172456862750e-02,4.275882905653114602e-02,3.624309518369041305e-02
1.380000000000000115e-01,4.101353463634031110e-02,1.933985532907540883e-02,4.063616939942669287e-02
1.390000000000000124e-01,4.144029499756659435e-02,-3.029475564989635855e-02,4.832308374814828049e-03
1.400000000000000133e-01,1.056620912492496622e-02,1.950091277070629264e-02,4.307047746555876105e-02
1.409999999999999865e-01,3.863778839332231846e-02,-4.015971311053048894e-03,4.364484790671177561e-02
1.419999999999999873e-01,-1.798280645443431315e-03,-7.224235209271658888e-03,5.846078982742370506e-02
1.429999999999999882e-01,3.453374722713082462e-02,-6.176738165982376821e-02,2.855467493087777975e-02
1.439999999999999891e-01,-3.756419010207463077e-02,-5.156121595207815295e-02,1.457598762163879111e-02
1.449999999999999900e-01,-3.233707396838730874e-02,-3.404003520365397190e-02,2.065033011996481732e-02
1.459999999999999909e-01,-4.492649817151735114e-02,-6.541671809455151809e-02,-3.649779252831426499e-03
1.469999999999999918e-01,-5.756299863145655782e-02,-5.046427275205567914e-02,1.067224831863734791e-02
1.479999999999999927e-01,-7.313696491530100041e-02,-5.058284540511021055e-02,-6.245213597401868405e-02
1.489999999999999936e-01,-6.732920384562957050e-02,-4.868799916760797181e-02,-1.870603235372847103e-02
1.499999999999999944e-01,-1.032236904350809642e-01,-6.353767557149096745e-02,-3.955935074372530363e-02
1.509999999999999953e-01,-8.539820003260023551e-02,-6.871610152767004820e-02,-5.598271674928380348e-02
1.519999999999999962e-01,-7.771520074607114748e-02,1.406506101040825088e-02,-3.836379858908123275e-02
1.529999999999999971e-01,-1.881116191409386296e-02,3.553232122576628887e-03,-3.430119518334607404e-02
1.539999999999999980e-01,-5.673898005198278749e-02,-2.214372302648414531e-02,-7.401423991135586133e-02
1.549999999999999989e-01,-1.245831697527608611e-02,2.891914860590223679e-02,-4.355934015859917047e-02
1.559999999999999998e-01,1.879658016684077060e-02,2.604732232252094173e-02,-2.319841109641088833e-02
1.570000000000000007e-01,-1.266118193784516663e-02,1.549950903149135799e-02,9.342037155110402905e-03
1.580000000000000016e-01,-1.594452016656373872e-02,4.506372642680928076e-02,-8.197156491687729307e-03
1.590000000000000024e-01,3.956990969335071051e-02,3.361574259277867044e-02,-2.192888617773549112e-02
1.600000000000000033e-01,3.415930585858838187e-02,4.295978864397657915e-02,5.568533119695575143e-03
1.610000000000000042e-01,7.752144222307842669e-02,6.669670212934435127e-02,2.478895034489322479e-03
1.620000000000000051e-01,1.036137596282475509e-01,5.123598941926182232e-02,7.537894703771103738e-03
1.630000000000000060e-01,9.148137900002874245e-02,5.045829468163478410e-02,-4.048402723805900189e-03
1.640000000000000069e-01,9.937773346848689793e-02,6.031211725968853993e-02,2.980581937392830921e-02
1.650000000000000078e-01,4.786180052869722784e-02,3.394428249203171322e-02,6.876282171468581228e-02
1.660000000000000087e-01,6.998690257928706637e-02,2.716281889328273427e-02,3.674246218451831386e-02
1.670000000000000095e-01,3.667424771019484747e-02,7.203330236233091224e-03,4.859625176580086026e-02
1.680000000000000104e-01,4.791515387451637797e-02,2.873070116849749112e-02,4.988195933727707088e-02
1.690000000000000113e-01,2.073386686371163357e-02,-1.175345028165806528e-02,1.613124458459395602e-02
1.700000000000000122e-01,3.226984558933007640e-04,-2.563181925471927705e-02,3.656519123314497938e-02
1.710000000000000131e-01,-1.079854415202483910e-02,-7.170103576019118408e-02,3.865696729025604877e-02
1.719999999999999862e-01,-3.142257896658035010e-02,-2.247144870577974171e-02,4.136309670493002605e-02
1.729999999999999871e-01,-4.538018732859454285e-02,-5.165526584471659410e-02,1.556610900569942342e-03
1.739999999999999880e-01,-8.668122187961688208e-02,-6.219500013632807411e-02,3.256160516225466151e-02
1.749999999999999889e-01,-6.946566750222024633e-02,-4.715778008720134667e-02,-1.387192330421870186e-02
1.759999999999999898e-01,-7.141376961703890802e-02,-7.384985359367333968e-02,-2.574664446670069801e-02
1.769999999999999907e-01,-6.839505202505018200e-02,-8.024843525444957937e-02,-2.598065487691600395e-02
1.779999999999999916e-01,-7.720226908870521376e-02,-9.030470268204796036e-02,-5.373390354721222645e-02
1.789999999999999925e-01,-9.643552470166516510e-02,1.785335025135824372e-02,-2.719811629782167492e-02
1.799999999999999933e-01,-8.715220081008345776e-02,-1.730676511029010170e-02,-1.607964546351853610e-02
1.809999999999999942e-01,-5.639005767415047193e-02,6.453473195916029428e-03,-3.827474095271787835e-02
1.819999999999999951e-01,-2.711186228945924176e-02,2.937192596188442986e-02,-2.380411364907012578e-02
1.829999999999999960e-01,-4.885995902196930973e-02,-2.034853103061551143e-03,-6.269079222344105251e-02
1.839999999999999969e-01,-3.535008263418661784e-02,3.434126887195797923e-02,-3.243041100350307904e-02
1.849999999999999978e-01,9.203741616818238505e-03,6.155089795823410516e-03,-2.815121561659265220e-02
1.859999999999999987e-01,-1.091184210346433448e-03,3.201410904413142661e-02,-3.133731159265176758e-02
1.869999999999999996e-01,2.987817143465026914e-02,8.314851090056772642e-02,1.417945494480065891e-02
1.880000000000000004e-01,2.984320096095820912e-02,5.070908417929562845e-02,-5.313785758343259405e-03
1.890000000000000013e-01,3.423641454227340647e-02,3.434889448796228650e-02,-2.088402318698693444e-02
1.900000000000000022e-01,7.081964255568518052e-02,5.633913942938898606e-02,1.869650376843619288e-02
1.910000000000000031e-01,6.775031340282422487e-02,3.876730201870203646e-02,3.364565435361552281e-02
1.920000000000000040e-01,6.358660464912639643e-02,3.636742501572621383e-02,3.936011334602215750e-02
1.930000000000000049e-01,7.336062212771785052e-02,3.580749887488349215e-02,1.502704661376695269e-02
1.940000000000000058e-01,8.741306975670609658e-02,4.145713332876146268e-02,4.599676830659632509e-02
1.950000000000000067e-01,3.644637673790182553e-02,4.241270331600066092e-03,1.635950573455523596e-02
1.960000000000000075e-01,6.958994774544997874e-02,3.909399757828774941e-02,4.236661118649917568e-02
1.970000000000000084e-01,5.116198572886641177e-02,-2.256497173726141822e-02,6.470780552843132145e-03
1.980000000000000093e-01,2.662706378077047201e-02,2.268183887287366415e-03,3.496260282025792643e-02
1.990000000000000102e-01,1.403112043090441914e-02,1.464441102744118949e-02,3.393419382093090797e-02
2.000000000000000111e-01,2.280927089179445727e-02,-1.644856185730678155e-02,1.969155792948887047e-04
2.010000000000000120e-01,-3.092012364871061028e-02,-3.162965699490413729e-02,3.632324280982616310e-02
2.020000000000000129e-01,-2.183129611484382546e-02,-4.811933612338183119e-02,-1.269393337380541643e-02
2.030000000000000138e-01,-8.536032773168499010e-02,-4.062453207486501489e-02,-1.741106051728994603e-02
2.039999999999999869e-01,-6.774957754730803750e-02,-4.299434308387589665e-02,4.832399014739236116e-03
2.049999999999999878e-01,-6.324813466466483458e-02,-3.688217873469265551e-02,-1.704717242625641838e-02
2.059999999999999887e-01,-9.256192427777837350e-02,-2.951953688036331944e-02,-1.933897929497385010e-02
2.069999999999999896e-01,-6.122650226674369173e-02,-3.556636378889506400e-02,-7.116946267507022472e-02
2.079999999999999905e-01,-7.322842717569681692e-02,-8.402146603932353006e-03,-4.696103284171002784e-02
2.089999999999999913e-01,-5.114794261838664230e-02,-1.907109056570825342e-02,-9.382733216670557930e-02
2.099999999999999922e-01,-6.831586402893198573e-02,-4.561304485518356128e-02,-5.082459235281452936e-02
2.109999999999999931e-01,-6.347890944657273715e-02,2.176433434678301179e-02,-4.440528904556065998e-02
2.119999999999999940e-01,-1.070620678029039242e-02,8.225430554744177182e-04,-1.005046765052946059e-02
2.129999999999999949e-01,-8.684966449978495998e-03,6.290950025237704302e-02,-3.346381736026680931e-02
2.139999999999999958e-01,-1.909584632122302700e-02,5.385166985983212001e-02,-1.773165337833937025e-02
2.149999999999999967e-01,-5.025874157965640188e-03,4.119959122350939917e-02,-3.758176066237588209e-02
2.159999999999999976e-01,1.495319573935230406e-02,4.762559293522973525e-02,-3.550386473098757906e-02
2.169999999999999984e-01,1.199709718228587733e-02,6.581889860075929022e-02,-2.358977073284606110e-02
2.179999999999999993e-01,5.052916919036867099e-02,4.854026481049060482e-02,2.820813472906219966e-03
2.190000000000000002e-01,7.041923439300545873e-02,4.920333747325434520e-02,2.836222461280350944e-03
2.200000000000000011e-01,8.676815011915912923e-02,4.020927284703115084e-02,-1.316363356103807981e-03
2.210000000000000020e-01,6.753481538710823240e-02,4.175178388127866874e-02,1.199617864478139118e-02
2.220000000000000029e-01,7.774577366588247829e-02,3.172501485474685246e-02,5.183254917386453248e-02
2.230000000000000038e-01,3.460041497928725840e-02,3.273655874806156996e-02,3.042398080871544161e-02
2.240000000000000047e-01,4.970681179756000767e-02,1.226867568367144209e-02,4.829578829125005801e-03
2.250000000000000056e-01,3.861195238874829544e-02,1.683995433393679214e-02,2.858710406596163406e-02
2.260000000000000064e-01,2.516087617762030257e-02,-1.737140940265199593e-02,2.421436754481200507e-02
2.270000000000000073e-01,3.139375964847907624e-02,-2.160924604529459656e-02,3.197187338241583993e-02
2.280000000000000082e-01,3.549443731300980058e-03,-6.719803717399074061e-02,8.288629535117339811e-03
2.290000000000000091e-01,-1.542509220237385688e-02,-5.909798521021199236e-02,1.780259718881982769e-02
2.300000000000000100e-01,-2.242381768007917914e-02,-2.314678160287423833e-02,3.872948135635471273e-02
2.310000000000000109e-01,-7.450770955158611542e-02,-7.503848426194706378e-02,-1.646936644403853428e-02
2.320000000000000118e-01,-6.207869853042782826e-02,-7.675218379999165785e-02,4.730719900321188678e-03
2.330000000000000127e-01,-7.957668230325197489e-02,-3.497093986310553099e-02,-1.465182875123926046e-02
2.340000000000000135e-01,-7.375983520352631662e-02,-7.681222262270214797e-03,-3.728564136823531161e-02
2.349999999999999867e-01,-6.586882677509717232e-02,-2.068210796983833630e-02,-3.593162662034411758e-02
2.359999999999999876e-01,-6.264263003740623559e-02,-5.021741082511597953e-02,-6.445709303666874446e-02
2.369999999999999885e-01,-5.242886995319979981e-02,-6.302416633833610518e-03,-6.662992785396203328e-03
2.379999999999999893e-01,-8.205213652398908597e-02,-7.039880469355150328e-03,-2.552679199244111546e-02
2.389999999999999902e-01,-6.394831873325540483e-02,-3.951822081220143258e-03,-2.911868960913502682e-02
2.399999999999999911e-01,-2.156953570212117796e-02,-1.412394220982363677e-03,-3.089217064457054629e-02
2.409999999999999920e-01,-1.424951711496048705e-02,4.725024350786428268e-02,-4.635164787430140487e-02
2.419999999999999929e-01,6.722650330104684192e-03,4.602834574383048855e-02,-4.552174316708601509e-02
2.429999999999999938e-01,1.744203066106322919e-02,2.616732536137096957e-02,-3.165469531125652408e-02
2.439999999999999947e-01,1.313937274282980967e-02,3.456494063921580068e-02,-4.488668319480724339e-02
2.449999999999999956e-01,2.697100746300654106e-02,7.220873732052124350e-02,-2.822375534772640897e-04
2.459999999999999964e-01,5.494092082415492906e-02,3.306461663582171279e-02,7.736057125823647684e-03
2.469999999999999973e-01,7.408010717221681640e-02,5.971619944387805690e-02,3.468120850193133486e-02
2.479999999999999982e-01,6.164267554812896677e-02,3.844109852514701609e-02,-1.676640080995581844e-02
2.489999999999999991e-01,8.490883873597111775e-02,6.379393786859553772e-02,-6.213596187194996533e-03
2.500000000000000000e-01,5.436010661660522353e-02,3.558438350416746887e-02,-2.355862523971092790e-02
2.510000000000000009e-01,6.222245791795504716e-02,2.782445423075462221e-02,3.606873364720503128e-02
2.520000000000000018e-01,8.048263524801314850e-02,4.228368957060026079e-02,9.438985556221947404e-03
2.530000000000000027e-01,5.272905558041149354e-02,1.729718371626863885e-02,5.154451736635291131e-02
2.540000000000000036e-01,4.709312287633280608e-02,-3.330556675694941113e-03,4.048450823011646993e-02
2.550000000000000044e-01,1.787548094933385373e-02,-2.124412315119581906e-03,1.051124215805062344e-02
2.560000000000000053e-01,3.828941503857164613e-02,-5.844146114268312930e-02,3.382837208143740781e-02
2.570000000000000062e-01,5.198555824099298020e-03,-6.733992934272990671e-02,9.303626995413493556e-03
2.580000000000000071e-01,-2.684964259308310341e-02,-6.461461561911543972e-02,3.351703095185551429e-02
2.590000000000000080e-01,-8.165996555157643833e-03,-4.644885236639594017e-02,-1.212489439778431481e-02
2.600000000000000089e-01,-6.985902644592491273e-02,-3.211768714574301381e-02,8.784551045917967163e-03
2.610000000000000098e-01,-4.761606106376579245e-02,-5.811488252960663597e-02,-1.233194724067037534e-02
2.620000000000000107e-01,-3.613780659468425471e-02,-6.040151801605738585e-02,-1.141819788453183465e-02
2.630000000000000115e-01,-7.376875990329058441e-02,-2.259798743988192943e-02,-3.012664423661639765e-02
2.640000000000000124e-01,-7.933756896827391658e-02,-3.836364752182924026e-02,-3.695365541190552550e-02
2.650000000000000133e-01,-6.066594594333783730e-02,-4.748611241987545258e-03,-6.712648013885978704e-02
2.660000000000000142e-01,-8.609272298787340461e-02,7.006979240094295992e-03,-5.149115439326247545e-02
2.670000000000000151e-01,-5.611550546150698149e-02,3.089225737605450633e-02,-4.335754094385803337e-02
2.680000000000000160e-01,-2.154898518629595749e-02,2.320604995817136113e-02,-4.607837687518921699e-02
2.690000000000000169e-01,-3.103127259368773649e-02,1.005634938839730652e-02,-3.670101421714145468e-02
2.700000000000000178e-01,-5.780527121272546406e-03,6.878762819329771461e-02,-2.328513102740256344e-02
2.710000000000000187e-01,-4.762825170502857537e-03,2.774313676737813136e-02,-4.721111952664025502e-02
2.720000000000000195e-01,4.376316524440147099e-02,5.909744393612256785e-02,-1.899703206335200817e-02
2.730000000000000204e-01,2.893055774275598343e-03,6.174505469489765391e-02,7.725877310005295658e-03
2.740000000000000213e-01,5.478323104735980525e-02,5.877273691429897584e-02,-6.115801390593591028e-03
2.750000000000000222e-01,6.148892205176340053e-02,4.143509840456967297e-02,3.250086931315870203e-02
2.760000000000000231e-01,5.509041101059745926e-02,7.024107259150830229e-02,1.671243501291479455e-03
2.770000000000000240e-01,5.125106582439863112e-02,8.950084329844426589e-03,-1.445951450477114125e-02
2.780000000000000249e-01,9.233101436078006152e-02,2.691730142914204246e-02,1.776829715830912856e-02
2.790000000000000258e-01,5.003355784830672282e-02,1.616961121347281274e-02,4.663372618998133656e-02
2.800000000000000266e-01,5.467760116465466419e-02,2.365652476325514134e-02,3.328764457191155796e-02
2.810000000000000275e-01,5.448477086570494010e-02,-6.210769641148652931e-03,3.926700036833339486e-02
2.819999999999999729e-01,3.899917835298900848e-02,-1.999365486930148803e-02,5.175452500261595867e-02
2.829999999999999738e-01,2.843997105420667873e-02,-1.040504300508659358e-02,4.786232040837146151e-02
2.839999999999999747e-01,7.484962113709522219e-03,-2.368592869697591294e-02,3.749732557755746515e-02
2.849999999999999756e-01,-2.064114540142871629e-02,-3.201174052777918527e-02,6.438497232387803415e-02
2.859999999999999765e-01,-4.152147237693019216e-02,-6.341866957302258467e-02,3.526241978948668060e-02
2.869999999999999774e-01,-4.007361186755929727e-02,-4.622494579976939993e-02,3.064224686187746322e-02
2.879999999999999782e-01,-4.790561091080808992e-02,-8.678742203523540089e-02,-4.619183787221465762e-03
2.889999999999999791e-01,-6.331026342697694542e-02,-6.391726410573243811e-02,-9.502188722377236324e-04
2.899999999999999800e-01,-8.074016233257366726e-02,-4.031450422331226552e-02,-3.074195686957991933e-02
2.909999999999999809e-01,-6.568198149532215868e-02,-5.017509046649624299e-02,3.836558091976485351e-03
2.919999999999999818e-01,-6.604619739662978550e-02,-2.203815681313328265e-02,-1.325201267477314586e-02
2.929999999999999827e-01,-6.655469171619866897e-02,-2.198814198961645747e-02,-3.113859159233171164e-02
2.939999999999999836e-01,-6.094532021647177528e-02,-2.373801135848927282e-02,-1.324157784407603393e-02
2.949999999999999845e-01,-7.113944467306998476e-02,-3.766893707942228168e-03,-6.260579496983334491e-02
2.959999999999999853e-01,-4.764300407107616847e-02,4.241928990280439959e-02,-5.503101557699454499e-02
2.969999999999999862e-01,-4.393228990007010115e-02,4.749433849290918275e-02,-4.299931679225138526e-02
2.979999999999999871e-01,-1.488304169394939064e-02,2.295610184409628898e-02,-5.312195477498300039e-02
2.989999999999999880e-01,6.461151385144947232e-03,6.181955747654358652e-02,-3.649545847526707021e-02
2.999999999999999889e-01,4.231272513702032806e-02,3.757488414091721823e-02,-5.173951871436993644e-02
3.009999999999999898e-01,5.163545611492644655e-02,5.529810963417704228e-02,-5.180142309511594906e-02
3.019999999999999907e-01,3.377619611944414346e-02,5.861096203132152432e-02,-3.631147728418560733e-02
3.029999999999999916e-01,6.519924855510482453e-02,7.252818943771820182e-02,1.263850365198035570e-02
3.039999999999999925e-01,3.097395333400358025e-02,5.524154350347328796e-02,1.762678583198572235e-02
3.049999999999999933e-01,1.048411957635557307e-01,5.079447007427834171e-02,2.912325057660868077e-02
3.059999999999999942e-01,8.735646027170718142e-02,5.196573205931004358e-02,2.149367901629983119e-02
3.069999999999999951e-01,9.058907044076952575e-02,5.878246388577790943e-02,3.894085889972762841e-03
3.079999999999999960e-01,9.133012755895116019e-02,3.394327807503747657e-02,1.202243396055265034e-02
3.089999999999999969e-01,8.727025604733301689e-02,7.302298958361132892e-04,3.902413704620687901e-02
3.099999999999999978e-01,6.442740461698522048e-02,-7.460637672604659466e-03,4.839918551821748710e-02
3.109999999999999987e-01,5.905785629921756624e-02,-2.835772569518367134e-02,1.632193440577754673e-02
3.119999999999999996e-01,1.235263334164446274e-02,-1.198398500829143433e-02,2.566780105553480643e-02
3.130000000000000004e-01,8.247408229012027567e-03,-5.203940286798704185e-02,4.859342093233730286e-02
3.140000000000000013e-01,-2.987127903713019880e-02,-5.789203618359478609e-02,1.774445834523808233e-02
3.150000000000000022e-01,5.702686013282945541e-05,-3.783026650639315785e-02,-1.596819929405541086e-02
3.160000000000000031e-01,-5.711387680034143294e-02,-5.431664167868267140e-02,4.145688336985461214e-02
3.170000000000000040e-01,-5.967537687079311343e-02,-8.940973036761906689e-02,1.795073673728186242e-02
3.180000000000000049e-01,-3.504045494605032007e-02,-4.226771981561264213e-02,-3.911035511607750294e-03
3.190000000000000058e-01,-6.414437153145571835e-02,-4.862206395674026349e-02,-7.821369917907723679e-03
3.200000000000000067e-01,-5.273927995433457666e-02,-3.976730384279046626e-02,-1.109621503940344360e-02
3.210000000000000075e-01,-7.082130115378668100e-02,-3.516257201876391708e-02,-4.242028550444294083e-02
3.220000000000000084e-01,-7.238403506621235439e-02,1.378408329994553795e-02,-5.675433943793992131e-02
3.230000000000000093e-01,-2.974156493421379818e-02,2.827694551319064574e-03,-6.869162423622958424e-02
3.240000000000000102e-01,-5.819542813767329681e-02,1.151447745984697513e-02,-7.722225297374911424e-02
3.250000000000000111e-01,-8.830767237391611360e-03,3.702028983919017878e-03,-1.346809089136739510e-02
3.260000000000000120e-01,-3.399704797707758710e-03,6.597098997176166317e-03,-5.089298519804849597e-02
3.270000000000000129e-01,-1.702917306653732588e-02,6.629541279007887533e-02,-2.632953792819690136e-02
3.280000000000000138e-01,1.988364193876807420e-02,1.706843177541058493e-02,-5.283300677285552444e-02
3.290000000000000147e-01,-8.687294690828697985e-03,8.454444606069402846e-02,-4.467875205058089577e-02
3.300000000000000155e-01,3.381370968229131801e-02,5.789206417686940803e-02,-1.883525509587860927e-02
3.310000000000000164e-01,4.146539957213615096e-02,2.528168038841617157e-02,-1.480108740062586505e-02
3.320000000000000173e-01,3.097722051394458109e-02,3.664239332793319676e-02,-1.404398284316675342e-02
3.330000000000000182e-01,7.394968969543827542e-02,8.070420770496918028e-02,-3.114472290928200701e-02
3.340000000000000191e-01,9.079396548271861933e-02,4.009475726100456688e-02,9.304031018060278033e-03
3.350000000000000200e-01,7.669033785357975974e-02,3.960986465256147865e-02,6.386767216642557851e-03
3.360000000000000209e-01,4.489761910734110101e-02,-2.403147285093513649e-02,5.597363071263516260e-02
3.370000000000000218e-01,7.728131898836226865e-02,7.183411568106429744e-03,3.836911315151880775e-02
3.380000000000000226e-01,6.019231688851856693e-02,2.726103065553275168e-02,4.044374646125940831e-02
3.390000000000000235e-01,4.260428683806018885e-02,-3.517260762507158633e-02,7.572799367100287171e-02
3.400000000000000244e-01,2.923998803682462816e-02,-1.797708540349851614e-02,6.735674532071402043e-02
3.410000000000000253e-01,1.467382372590511630e-02,-2.738124404962237468e-02,-5.180917061621056509e-03
3.420000000000000262e-01,-1.125830649011710753e-02,-5.829272688228473442e-02,2.677567588932773524e-02
3.430000000000000271e-01,-1.390021195011310190e-02,-5.560684616691959070e-02,2.575397049883685827e-02
3.439999999999999725e-01,-4.235396819133824958e-02,-7.197924080729468932e-02,2.081316915977818316e-02
3.449999999999999734e-01,-2.709670222634617820e-02,-4.662115877413612608e-02,2.944231204022078677e-02
3.459999999999999742e-01,-6.685461285019383970e-02,-2.296004569398982925e-02,3.698859719710070881e-02
3.469999999999999751e-01,-8.665810562422068819e-02,-5.130366343303933985e-02,-5.551742902648456116e-03
3.479999999999999760e-01,-9.466627091815105199e-02,-2.817264201035708793e-02,-6.641591188667475380e-03
3.489999999999999769e-01,-6.512124981636682741e-02,-5.003026830059376789e-02,-1.600805886561130001e-02
3.499999999999999778e-01,-5.745994202239673027e-02,-7.627949186149202143e-03,-4.588168775254052728e-02
3.509999999999999787e-01,-8.190006938593713537e-02,-2.029424602233439318e-02,-3.651817474189712753e-02
3.519999999999999796e-01,-4.609709573917977060e-02,8.306703069790850533e-03,-3.697091687419200995e-02
3.529999999999999805e-01,-6.027102251143172384e-02,5.782037749068971721e-02,-3.348762838763058580e-02
3.539999999999999813e-01,-1.645443010141729029e-02,3.277277735330122455e-02,-4.119379170173345650e-02
3.549999999999999822e-01,-5.093479346495236731e-02,3.939003370585236752e-02,-3.413038198963422309e-02
3.559999999999999831e-01,1.894708784756133149e-02,2.268191568978004599e-02,1.764764058223205383e-03
3.569999999999999840e-01,-1.629372738438441409e-02,7.180398475590769880e-02,-9.151937523321761539e-03
3.579999999999999849e-01,1.650267666303452743e-02,1.824197203079669719e-02,-7.199610327344883876e-02
3.589999999999999858e-01,3.789136946254003518e-02,4.657975325609723521e-02,-9.280626302699542668e-03
3.599999999999999867e-01,5.884017064447789880e-02,5.913520373919312068e-02,-2.025570041608391620e-03
3.609999999999999876e-01,4.154006782375396778e-02,3.445626516305515946e-02,3.268470229591394216e-02
3.619999999999999885e-01,8.281985511571715586e-02,1.436104465489282389e-02,1.214025061171230060e-03
3.629999999999999893e-01,7.871830762801713954e-02,3.479663700404674043e-02,-8.066924544302214034e-03
3.639999999999999902e-01,7.984529216725638756e-02,3.851672602052678973e-02,4.622056094972306316e-03
3.649999999999999911e-01,3.572774970166201630e-02,1.751223954064685950e-02,5.036528180936349769e-02
3.659999999999999920e-01,6.540932384365623353e-02,1.728547961379474016e-02,4.078709228547720139e-02
3.669999999999999929e-01,8.019371716034773279e-02,-2.084623543795988826e-02,2.321487071320418871e-02
3.679999999999999938e-01,4.425491128367137206e-02,-4.082437627525555002e-02,5.812817719213123069e-02
3.689999999999999947e-01,2.752361264223998627e-02,-1.021219543911274993e-02,6.513871520409696136e-02
3.699999999999999956e-01,-3.853165808359492166e-03,-4.857038383980037677e-02,5.861468613571271802e-02
3.709999999999999964e-01,-1.904429983073867641e-02,-7.122064526894025804e-02,5.766077629922397585e-02
3.719999999999999973e-01,-4.776791232567880602e-02,-4.697480210160653868e-02,1.942205665710807286e-02
3.729999999999999982e-01,-2.443191418724545427e-02,-3.922495338772397783e-02,4.299437235458969386e-02
3.739999999999999991e-01,-8.857030115003232092e-04,-5.685206544038619997e-02,2.558479582717836792e-02
3.750000000000000000e-01,-5.517607968527572793e-02,-5.092180041116389777e-02,3.266426278860017768e-02
3.760000000000000009e-01,-6.651909338263424509e-02,-4.043088743454622408e-02,1.520192226477351874e-02
3.770000000000000018e-01,-6.949541988933645442e-02,-3.237530172303491188e-02,9.974197685124721463e-03
3.780000000000000027e-01,-4.212979170136394585e-02,-5.635701809538176850e-03,-1.575948726589504901e-03
3.790000000000000036e-01,-7.742196649795746177e-02,-4.114947639633292215e-02,-1.383242598579749807e-02
3.800000000000000044e-01,-6.982455555337177544e-02,-4.740380860873622156e-03,-5.100888067544054327e-02
3.810000000000000053e-01,-6.177735543417735981e-02,4.846852940037965629e-02,-4.499603115806531661e-02
3.820000000000000062e-01,-4.490506892765484814e-02,4.008552574827766585e-02,-5.339354435418416922e-02
3.830000000000000071e-01,6.885927260352199888e-03,6.897680584192691922e-02,-3.901593088393856545e-02
3.840000000000000080e-01,1.614527983061244190e-02,4.498299512228790681e-02,-6.602250115227129013e-02
3.850000000000000089e-01,1.521900866074789868e-03,8.322750302015909096e-02,-4.681823981831211012e-02
3.860000000000000098e-01,-2.111951128043721392e-04,5.178929249335221391e-02,-4.848314132759797696e-02
3.870000000000000107e-01,2.892154664981460427e-02,2.748584861597884108e-02,-4.353066850122858794e-02
3.880000000000000115e-01,1.934306529315224857e-02,3.115980977420465189e-02,-2.031117702348130688e-02
3.890000000000000124e-01,5.669911401770029447e-02,5.336112710235874773e-02,1.899936422948866541e-02
3.900000000000000133e-01,5.843885387602756193e-02,7.114634548958297111e-02,5.512736761269495384e-02
3.910000000000000142e-01,7.853474822585679305e-02,2.805562283678130625e-02,-1.918427177430143821e-03
3.920000000000000151e-01,6.336494107618498295e-02,4.270187555119688873e-03,2.648582488203286497e-02
3.930000000000000160e-01,1.019788737844187776e-01,3.756723985332117294e-02,5.675640036816441414e-03
3.940000000000000169e-01,3.634897149224109586e-02,-1.004602601241074908e-02,4.019668212797983947e-02
3.950000000000000178e-01,5.187987964561158183e-02,5.420502947281755426e-03,3.924246744407291348e-02
3.960000000000000187e-01,7.355514982372374222e-02,-6.383419964404886404e-02,3.513868545361056167e-02
3.970000000000000195e-01,2.149762286633864761e-02,-4.338294631072275170e-02,2.513871354233184960e-02
3.980000000000000204e-01,-2.151666812336133772e-02,-3.534406198971722785e-02,1.034163669559149887e-02
3.990000000000000213e-01,-3.060126667060676306e-02,-7.522537008423707539e-02,6.366028624421259108e-02
4.000000000000000222e-01,3.989016310226876048e-03,-6.682712385113445674e-02,6.418173317301410774e-02
4.010000000000000231e-01,-4.364627763498308416e-02,-7.216706029736431882e-02,6.897151393220347926e-02
4.020000000000000240e-01,-4.228419453867603844e-02,-3.810080648003680293e-02,-3.549779088790999595e-03
4.030000000000000249e-01,-4.061037138841224609e-02,-4.856156266725037557e-02,-1.157000839211030571e-02
4.040000000000000258e-01,-5.929391417295409861e-02,-3.872683180917084467e-02,3.258363482637626624e-02
4.050000000000000266e-01,-8.422887610418429427e-02,-2.850382326756069340e-02,-1.048579523018641942e-02
4.060000000000000275e-01,-9.796633175164795593e-02,4.098487195308019027e-02,-3.172149101027589568e-02
4.069999999999999729e-01,-4.208919661441411220e-02,-1.851540458159272456e-02,8.785536739945603094e-03
4.079999999999999738e-01,-5.309466850704902541e-02,1.508058494990705163e-03,-3.692890744978521295e-02
4.089999999999999747e-01,-7.292613544738908715e-02,-2.370798382816457009e-02,-5.016905030571267021e-02
4.099999999999999756e-01,-4.838806928560164533e-02,2.517373264065791288e-02,-2.961157894930232376e-02
4.109999999999999765e-01,-1.237496598747163737e-02,6.355862844837847914e-02,-3.435238042198067443e-02
4.119999999999999774e-01,-3.081191172288970381e-02,6.077111401919284978e-02,-5.296273241672093401e-02
4.129999999999999782e-01,-9.612458329681387165e-03,8.462300830683074093e-02,-6.646397928637690078e-02
4.139999999999999791e-01,2.668942811703011245e-02,8.454373342314983053e-02,-4.589062691034844627e-02
4.149999999999999800e-01,1.826225820645078352e-02,6.202159107320706632e-02,-2.050520343965010414e-02
4.159999999999999809e-01,2.899351938642031126e-02,6.730509640467943755e-02,-1.495659513316554244e-02
4.169999999999999818e-01,7.115818469142788649e-02,5.104543521351627422e-02,-1.853574463644632256e-02
4.179999999999999827e-01,7.044346699097864262e-02,4.915571504337239855e-02,2.140591325211904997e-02
4.189999999999999836e-01,7.598488151334535645e-02,7.210250470971852309e-03,3.846829628363752050e-03
4.199999999999999845e-01,4.895305914075805120e-02,4.530755520522314339e-02,6.563563844514830152e-03
4.209999999999999853e-01,7.167513697815197649e-02,-7.390382358780686611e-03,3.965618334156947866e-02
4.219999999999999862e-01,7.295629710026313441e-02,-8.632003235179970188e-03,1.685931476138824436e-02
4.229999999999999871e-01,5.767427780582758123e-02,-2.814981562560311956e-02,2.397320898069026790e-02
4.239999999999999880e-01,6.149700181882503114e-02,-4.147896628357376769e-02,3.844829497866794621e-02
4.249999999999999889e-01,1.450831829613605933e-02,-4.356258231233206546e-02,2.203900765916902080e-02
4.259999999999999898e-01,3.599238812603060972e-02,-3.241337984259629046e-02,7.449350016799696772e-02
4.269999999999999907e-01,-4.535784966446389233e-03,-3.461010779249606983e-02,1.716808871603849387e-02
4.279999999999999916e-01,-7.847308904158809342e-03,-1.948405135715515143e-02,4.817427227408107443e-02
4.289999999999999925e-01,7.781063882413027585e-03,-5.894510686373777980e-02,4.152470189927915528e-02
4.299999999999999933e-01,-6.898769571066311335e-02,-7.932831725074808438e-02,3.955253805709021964e-02
4.309999999999999942e-01,-6.352172164009613209e-02,-6.135650118609108084e-02,2.034493474472691237e-03
4.319999999999999951e-01,-6.060612417579605560e-02,-5.708475164450464712e-02,2.322302843714516007e-02
4.329999999999999960e-01,-5.923457269317228963e-02,-5.093022292746959834e-02,-1.427868565676962062e-02
4.339999999999999969e-01,-7.482073054429322356e-02,-2.258583118248948252e-02,-6.071172275810910249e-03
4.349999999999999978e-01,-3.877370770966058477e-02,2.139668463510093811e-04,-4.546309927291997816e-02
4.359999999999999987e-01,-7.343906003026988427e-02,2.111141494086775372e-03,-5.293835740460321737e-03
4.369999999999999996e-01,-4.137593093682711415e-02,1.031397895806917923e-02,-5.059714975951802585e-02
4.380000000000000004e-01,-4.559956181057824715e-02,3.000964002215008100e-02,-5.099284173626322109e-02
4.390000000000000013e-01,-4.974657718744354001e-02,3.245275826464038421e-02,-4.862641878999241635e-02
4.400000000000000022e-01,-3.101591043103650927e-02,6.485199609443768887e-02,-3.001353221975853330e-02
4.410000000000000031e-01,-2.929210723819466317e-02,2.515422930089794562e-02,-4.223534336318245791e-02
4.420000000000000040e-01,6.905530184229393895e-03,3.072066927555847093e-02,-7.203259872232667220e-03
4.430000000000000049e-01,9.493910330123849634e-03,4.088550761126468619e-02,-2.894407812400026994e-02
4.440000000000000058e-01,3.384943766226525264e-02,9.216883664318170633e-02,-2.262108119511727078e-02
4.450000000000000067e-01,2.982765198572962504e-04,6.672876963272759976e-02,-1.476461767223683288e-02
4.460000000000000075e-01,7.549059943397253003e-02,4.090983005524167354e-02,-1.850072933573967396e-03
4.470000000000000084e-01,6.861786681021520007e-02,5.665306770254561336e-02,-4.409714263500192711e-04
4.480000000000000093e-01,5.731970356245354170e-02,2.801404999084562003e-02,3.040106367099272913e-02
4.490000000000000102e-01,8.459684942579651090e-02,3.465975780067666323e-03,1.514245817228081908e-02
4.500000000000000111e-01,6.600301403375380405e-02,2.649798050619136570e-03,1.445244265748668079e-02
4.510000000000000120e-01,2.142613113893581181e-02,-1.481949040366449706e-02,2.577488608681623161e-02
4.520000000000000129e-01,6.995020572386061175e-02,-8.552198291892765258e-02,6.325480822270716785e-02
4.530000000000000138e-01,7.264401289940995710e-02,-5.352096547157732948e-02,3.461080493412914405e-02
4.540000000000000147e-01,-5.037375590815390720e-04,-3.474099470922606403e-02,4.845649506749197949e-02
4.550000000000000155e-01,2.503284415441943064e-02,-5.304362384047917045e-02,5.533517424306552690e-02
4.560000000000000164e-01,1.151647796018931706e-04,-2.083896194271812191e-02,4.942204671204619704e-02
4.570000000000000173e-01,2.135048360100766721e-02,-4.224889270665708324e-02,3.589463725018313817e-03
4.580000000000000182e-01,3.386380902838128509e-03,-6.539916792588122696e-02,3.942005570185596469e-02
4.590000000000000191e-01,-7.743240719563732055e-02,-6.921574422881698885e-02,2.444055782467620050e-02
4.600000000000000200e-01,-8.644986282559524726e-02,-1.394465173182050238e-02,-1.439109965463876428e-02
4.610000000000000209e-01,-8.439202932216555153e-02,-2.588262601613307637e-02,2.975536219513243499e-02
4.620000000000000218e-01,-7.330579298054429316e-02,-6.009638899557037672e-02,5.876511479393832851e-03
4.630000000000000226e-01,-6.050645312566403644e-02,1.869676569576815897e-02,-1.464191405410347237e-02
4.640000000000000235e-01,-7.535713119123153836e-02,5.826182445578266186e-03,-1.882944799106614844e-02
4.650000000000000244e-01,-6.375446319063884926e-02,-2.228880745723763393e-02,-2.899814881907067377e-02
4.660000000000000253e-01,-7.107168017533407878e-02,4.982626953251578783e-02,-6.793929599335424285e-02
4.670000000000000262e-01,-6.433314838587793350e-02,3.053130892073221622e-02,-4.635169727684018692e-02
4.680000000000000271e-01,-1.520689543543496565e-02,2.976270485260537960e-02,-3.926425568718398124e-02
4.689999999999999725e-01,-5.872941374345130167e-02,7.089851437680060042e-02,-3.990468770550968658e-02
4.699999999999999734e-01,1.323458690831544153e-02,3.782051979203416431e-02,-5.492603800316406965e-02
4.709999999999999742e-01,8.521567516885830001e-03,7.002506205341986478e-02,-6.776719327854206776e-02
4.719999999999999751e-01,-9.266699462768344248e-03,2.926269893299915034e-02,-3.682477499431572460e-02
4.729999999999999760e-01,4.063019459101829128e-02,6.105961145799162354e-02,-1.914447897030362514e-02
4.739999999999999769e-01,5.766676026721277021e-02,3.612932321226633436e-02,-4.278940630139093509e-02
4.749999999999999778e-01,5.816974933730894443e-02,4.230422756148556618e-02,-3.908798832576665383e-02
4.759999999999999787e-01,8.775099140129616337e-02,1.003633488812735904e-02,-2.606106939656263957e-02
4.769999999999999796e-01,6.402663360422400363e-02,3.125096802680138453e-02,1.469951886053905837e-02
4.779999999999999805e-01,5.409738979543548404e-02,-5.460018068827814618e-03,2.697521283136614795e-02
4.789999999999999813e-01,6.512086079707501973e-02,-2.277890358245572913e-02,1.829905134625617671e-02
4.799999999999999822e-01,5.250504730245987572e-02,-5.503421738455531453e-02,2.916564533413205582e-02
4.809999999999999831e-01,4.667872919799159748e-02,-1.673863579525301792e-02,4.136715186635867014e-02
4.819999999999999840e-01,2.503344117341055677e-02,-5.304488371803332131e-02,2.191392154656458119e-02
4.829999999999999849e-01,4.073749680802533218e-02,-7.210703354138711663e-02,3.011887039113056441e-02
4.839999999999999858e-01,2.211707867443084199e-03,-4.107729511791239491e-02,4.266203206658636393e-02
4.849999999999999867e-01,-2.216113335700604925e-03,-5.123503299673929506e-02,1.505473881189240901e-02
4.859999999999999876e-01,-2.804055568180030978e-03,-5.931854725955374580e-02,1.830131952523052219e-02
4.869999999999999885e-01,-5.787583893499077814e-02,-4.689387287256519682e-02,1.464327444693664000e-02
4.879999999999999893e-01,-6.015557886814664607e-02,-5.527808917987245274e-02,4.133363829247482107e-02
4.889999999999999902e-01,-8.637140343956824229e-02,-1.722822992704465747e-02,-8.412187710002887869e-03
4.899999999999999911e-01,-7.884043988558328553e-02,-1.995126669095798749e-02,-1.212358437575525999e-02
4.909999999999999920e-01,-9.744240053318631301e-02,-3.103352909622105610e-02,-1.723152492085305507e-02
4.919999999999999929e-01,-8.320507275999548813e-02,-1.613303171811936859e-02,-5.382592712405133428e-02
4.929999999999999938e-01,-8.051423442518074181e-02,-1.928786879241647587e-02,2.752573379086126898e-02
4.939999999999999947e-01,-5.682844396053100822e-02,2.341575196087552352e-02,-1.629944526276500341e-02
4.949999999999999956e-01,-4.513176319775001610e-02,2.061502114463919719e-02,-5.448039109555067455e-02
4.959999999999999964e-01,-3.719183447287618960e-02,2.806904070161653567e-02,-2.503552860767755892e-02
4.969999999999999973e-01,-1.992713171710164960e-02,4.707366037319539454e-02,-6.846711903682055518e-03
4.979999999999999982e-01,-1.641126930904780734e-02,4.330463676076466706e-02,-6.852485508383497625e-02
4.989999999999999991e-01,-1.947278740968934330e-02,7.336592762943087986e-02,-5.599547798115275116e-02
5.000000000000000000e-01,2.118889854628507388e-02,2.799307141858157003e-02,-3.124198604144217198e-02
5.010000000000000009e-01,4.296903049296743604e-02,5.993264225325950489e-02,-3.907344640421556159e-02
5.020000000000000018e-01,1.624425892637408608e-02,3.657319647963560433e-02,-1.936079463442588397e-02
5.030000000000000027e-01,5.669565499559511834e-02,2.183111870010258707e-02,-3.517096402327238303e-02
5.040000000000000036e-01,8.027350159960328080e-02,7.907380214441225852e-02,-5.653675809659659129e-03
5.050000000000000044e-01,8.735711865521685049e-02,1.404057270405361171e-02,-1.811059218189201708e-02
5.060000000000000053e-01,6.230454323712365794e-02,2.740342646147652522e-02,4.901003014932596089e-03
5.070000000000000062e-01,6.433421526519686462e-02,-4.149720317455928009e-02,2.761847050813953652e-02
5.080000000000000071e-01,5.184495476385700408e-02,-2.241849849980593473e-02,1.951839476740420062e-02
5.090000000000000080e-01,2.915708324710927779e-02,4.495618622094993411e-03,1.717630678700516819e-02
5.100000000000000089e-01,5.745787103252988220e-02,-1.090782150639012758e-02,3.379978988153604924e-02
5.110000000000000098e-01,2.428812839698975615e-02,-5.618397118031424886e-02,3.008738136262862142e-02
5.120000000000000107e-01,-1.000253412651974129e-02,-5.963204417951259440e-02,3.927211879887517604e-02
5.130000000000000115e-01,2.124164762500888037e-02,-5.187049383991638313e-02,4.903671758533231090e-02
5.140000000000000124e-01,2.653719428157081534e-03,-4.724769071745427845e-02,7.078412974270616165e-02
5.150000000000000133e-01,-4.320307433954062581e-02,-3.131455618658310347e-02,3.931404519556003924e-02
5.160000000000000142e-01,-3.934244224672694967e-02,-2.273760838604836979e-02,5.982322307421375496e-02
5.170000000000000151e-01,-6.269911202018366159e-02,-5.450576851893403768e-02,-6.394421293666388041e-03
5.180000000000000160e-01,-9.202995136291339251e-02,-3.657867578353700844e-03,2.837623841456585541e-02
5.190000000000000169e-01,-7.576542250722857752e-02,-2.645729261192251297e-02,3.767602847139678302e-02
5.200000000000000178e-01,-8.479726361867143125e-02,-9.731029845112443982e-03,-2.120317144313646485e-02
5.210000000000000187e-01,-2.851287461374415674e-02,-4.419456881952852322e-03,3.026877651401920551e-03
5.220000000000000195e-01,-5.905235274227025460e-02,2.555870406523060023e-02,-2.336234399379221588e-02
5.230000000000000204e-01,-5.158507176064602850e-02,1.848761893399514938e-02,-1.135917062692146269e-02
5.240000000000000213e-01,-3.903912823071816612e-02,5.218916472402399670e-02,-5.048638510450502437e-02
5.250000000000000222e-01,-2.746497056539503115e-02,4.703209734385313534e-02,-6.121652308278414945e-02
5.260000000000000231e-01,-1.962659780790883268e-02,3.764526830537540114e-02,-1.692208046091932955e-02
5.270000000000000240e-01,-8.891727094656354247e-03,3.373777813807951609e-02,-3.689216819593836572e-02
5.280000000000000249e-01,-1.320435151221130247e-02,5.909491347078992679e-02,-5.685877039007773692e-02
5.290000000000000258e-01,4.263153978902638197e-02,5.177027558623065184e-02,-5.217305514893127300e-02
5.300000000000000266e-01,4.980054082578658919e-02,7.294650916889548753e-02,-2.917328053673966942e-02
5.310000000000000275e-01,2.857735491765893074e-02,8.327965958741702368e-02,-3.553197778243046001e-02
5.320000000000000284e-01,4.227864164201551589e-02,4.888546521604564266e-02,-4.961729427401952858e-02
5.330000000000000293e-01,7.154465279107309617e-02,2.790830107575895114e-02,-1.064128400847648426e-02
5.340000000000000302e-01,6.146249220503881977e-02,2.924447587282387115e-02,3.116282431553414264e-02
5.350000000000000311e-01,8.862315935693032554e-02,-1.023228106113143777e-02,2.746869193656369459e-02
5.360000000000000320e-01,5.374677289963335908e-02,4.679972829880917756e-02,3.034065942981672634e-02
5.370000000000000329e-01,6.781204320008869801e-02,-3.982724813209777281e-02,-7.232833405742067692e-03
5.380000000000000338e-01,5.973292392431848313e-02,-3.234323976672762169e-02,4.592674187938479424e-02
5.390000000000000346e-01,5.171752885064746265e-03,-2.394087791635808246e-02,4.271183475604876933e-02
5.400000000000000355e-01,-1.319974441380169410e-03,-6.638463604072365742e-02,7.276463920066146562e-02
5.410000000000000364e-01,-2.358192926585035362e-02,-4.328810467947551144e-02,1.690568289550461231e-03
5.420000000000000373e-01,1.194190001722872721e-02,-4.867110849792906369e-02,2.563807560407686120e-02
5.430000000000000382e-01,-1.219697885090851967e-02,-1.632642669928880894e-02,5.564164673703275027e-02
5.440000000000000391e-01,-2.332831175875424434e-02,-3.750145125650657801e-02,3.626930639480654278e-02
5.450000000000000400e-01,-7.922494492596156290e-02,-5.137971668389484936e-02,2.460474018245571715e-02
5.460000000000000409e-01,-6.083950628046762982e-02,-3.599698527781726443e-02,2.025933056808503809e-03
5.470000000000000417e-01,-6.383447298549080329e-02,4.257771214455706270e-03,-6.545308534107226878e-03
5.480000000000000426e-01,-7.440127155852326035e-02,3.698771436202727154e-03,1.203327251947376719e-02
5.490000000000000435e-01,-2.512997648336666445e-02,3.904949982728044781e-03,5.304015846404542406e-03
5.500000000000000444e-01,-8.468804267544861875e-02,-4.046608855738065627e-03,-2.103789117517119306e-03
5.510000000000000453e-01,-5.317841510000421296e-02,2.518423388820187347e-02,-1.047151578707626769e-02
5.520000000000000462e-01,-5.940590612335518855e-02,3.209206121528297012e-02,-5.310826714763813156e-02
5.530000000000000471e-01,-3.898867715517454619e-02,3.389612885112667368e-02,-2.430850862813851640e-02
5.540000000000000480e-01,-5.992209134235489121e-02,2.879860199826016209e-02,-3.198563379474423513e-02
5.550000000000000488e-01,4.883185634565411458e-03,5.006137036714546074e-02,-3.002972673456395791e-02
5.560000000000000497e-01,5.865882372336456938e-05,5.638151500118188802e-02,-7.381897563773899551e-02
5.570000000000000506e-01,1.821674565442738328e-02,4.056095108381717329e-02,-3.344269002224146276e-02
5.580000000000000515e-01,1.903245686766888781e-02,5.331280357643154028e-02,-5.413465275708273516e-02
5.590000000000000524e-01,5.744923220656748819e-02,3.423248228565256568e-02,-4.509052138521569587e-03
5.600000000000000533e-01,4.038000841992712281e-02,3.258750402484883457e-02,-1.589270282015115303e-03
5.610000000000000542e-01,3.213245046525881748e-02,5.431141406482977579e-02,-1.729351770338770702e-03
5.620000000000000551e-01,6.386817146316552118e-02,1.914718625349564165e-03,-3.463123682305616763e-02
5.629999999999999449e-01,9.981194255721881348e-02,-5.209928457576703045e-03,1.336983122187888201e-02
5.639999999999999458e-01,8.153389875945281362e-02,-1.362224601104221160e-02,5.458134568450622587e-02
5.649999999999999467e-01,5.929650508265996156e-02,-4.978992964454969500e-02,1.961939760340537450e-02
5.659999999999999476e-01,4.523940817473954407e-02,-4.171258675973720312e-03,1.539505624991089304e-02
5.669999999999999485e-01,4.822037788420835414e-02,-5.845975574024189075e-02,2.237962976965219772e-02
5.679999999999999494e-01,2.434937537238169789e-02,-2.412618624034726725e-02,4.194992949938596005e-02
5.689999999999999503e-01,1.112577499570562532e-02,-5.643813083676053888e-02,2.878586212873158676e-02
5.699999999999999512e-01,5.824174065353686543e-03,-5.644463467885282165e-02,6.981305836701463818e-02
5.709999999999999520e-01,-2.390368537166008209e-02,-3.508772634345182911e-02,5.522581015889209410e-02
5.719999999999999529e-01,-2.051212993816328364e-02,-4.481971546795927158e-02,8.283746272243038694e-03
5.729999999999999538e-01,-3.232065870562333965e-02,-5.255009952860013184e-02,5.323571326605212872e-02
5.739999999999999547e-01,-2.424557325424497173e-02,-2.885800936900753677e-02,-1.136141325507482964e-03
5.749999999999999556e-01,-7.486009577694340000e-02,-5.326017082638171557e-02,1.907289850060079825e-02
5.759999999999999565e-01,-6.094619874548338340e-02,-1.958480733495325879e-02,4.659576293477290555e-03
5.769999999999999574e-01,-8.923320932951915585e-02,-4.004391312362395178e-02,3.245347872245071819e-02
5.779999999999999583e-01,-6.956325074728382518e-02,1.714152121441610971e-02,-2.511056584144108310e-03
5.789999999999999591e-01,-5.773975144868592757e-02,6.327133996799119350e-03,-2.621536103020871353e-02
5.799999999999999600e-01,-6.865556236766974518e-02,3.779994654110763186e-02,-4.373298976334213245e-02
5.809999999999999609e-01,-5.182907403940692492e-02,-8.184730959986967827e-03,-4.592125039601690356e-02
5.819999999999999618e-01,-3.542147831457125723e-02,4.714772435142040169e-02,-7.245801130927320699e-02
5.829999999999999627e-01,-1.466965979174311924e-03,4.057968228989181081e-02,-3.059828240767877017e-02
5.839999999999999636e-01,-1.383555504103464902e-02,2.520596809255123277e-02,-4.084211554702651958e-02
5.849999999999999645e-01,-1.338277948513602253e-02,4.903162726058764992e-02,-6.277047588835614478e-02
5.859999999999999654e-01,1.384844821748009921e-02,4.192046379915830706e-02,-5.390835565136759683e-02
5.869999999999999662e-01,3.752364706836889413e-02,9.382915745102499150e-02,-4.026094139640602060e-02
5.879999999999999671e-01,2.625545725762655144e-02,2.203732443104357286e-02,-4.962156522731420855e-02
5.889999999999999680e-01,9.316485179957899321e-02,3.723601756102509069e-02,-6.319566969046248178e-03
5.899999999999999689e-01,9.097026139981399806e-02,2.474283070316535965e-02,-2.394417457607733724e-02
5.909999999999999698e-01,1.002001092315509129e-01,6.436904248861003222e-03,2.518828031957791314e-02
5.919999999999999707e-01,7.142341527848078409e-02,-1.957323230676997344e-02,-4.163625066266295194e-03
5.929999999999999716e-01,6.831210387172481635e-02,1.763828502580412627e-02,-4.821710210563000081e-03
5.939999999999999725e-01,8.070188641572237365e-02,-3.211465017642656933e-02,2.765710654737263061e-02
5.949999999999999734e-01,5.392265808810076805e-02,-7.859838202281441144e-02,2.957436307515987073e-02
5.959999999999999742e-01,4.920745871239616542e-02,-7.464228807053126247e-02,4.043261995307190909e-02
5.969999999999999751e-01,3.155718009192262641e-02,-6.109069410490673702e-02,9.636562390345632112e-03
5.979999999999999760e-01,3.199556342566937939e-02,-6.177006426506726627e-02,4.304229442059915450e-02
5.989999999999999769e-01,-3.621182720635796742e-02,-6.030960378090625268e-02,7.328018374023631543e-02
5.999999999999999778e-01,-4.028896321254125945e-02,-6.024373567420605174e-02,4.498111527069063864e-02
6.009999999999999787e-01,-5.777248640728928353e-02,-5.199882624061880065e-02,5.168859260739574329e-02
6.019999999999999796e-01,-5.284453555655461293e-02,-5.525903191240477685e-02,2.728108045088382255e-02
6.029999999999999805e-01,-9.018099422869824133e-02,-2.682698799278248475e-02,8.040506756395653098e-02
6.039999999999999813e-01,-1.089438201625967523e-01,-9.880365561140719288e-03,4.749991227994659199e-02
6.049999999999999822e-01,-7.538673561843192705e-02,-3.087645947863472580e-03,2.244153799473669331e-02
6.059999999999999831e-01,-5.839780019926227306e-02,-4.940472448336257665e-04,-3.685435069051785223e-02
6.069999999999999840e-01,-8.099716666143508270e-02,2.064770747684536653e-02,-1.154423036848613478e-02
6.079999999999999849e-01,-4.875791954225185826e-02,6.157359875214066941e-02,-1.977884797258537206e-02
6.089999999999999858e-01,-5.641724054611359229e-02,2.192429980073483387e-02,-2.635223070957673497e-02
6.099999999999999867e-01,-3.489685829955966462e-02,4.038938279694287425e-02,-7.823627039860595045e-02
6.109999999999999876e-01,9.295424245419474721e-03,5.092614285012932868e-02,-6.337031929486097726e-02
6.119999999999999885e-01,-3.081051185164822293e-02,7.802745657523622869e-02,-5.754630829371128881e-02
6.129999999999999893e-01,3.788377872291114751e-02,5.370545731903503955e-02,-6.991850164488233599e-02
6.139999999999999902e-01,5.952745178269915755e-02,6.044662493467915093e-02,-4.156985308034209792e-02
6.149999999999999911e-01,1.634404844081928723e-02,5.193150765400063318e-02,-7.885284657443090983e-02
6.159999999999999920e-01,6.279961464173000607e-02,5.425210382980039103e-02,-2.510811931408551273e-02
6.169999999999999929e-01,6.785841932117218922e-02,2.228005473956421248e-02,-3.188895386559342793e-02
6.179999999999999938e-01,8.724878329902877039e-02,-1.962791109865405850e-02,-2.074760307791401540e-02
6.189999999999999947e-01,1.050898201563427864e-01,1.663767134897147643e-02,1.125978988713749983e-02
6.199999999999999956e-01,7.740798174231729167e-02,-2.451164752998655910e-02,-2.215817129793061502e-02
6.209999999999999964e-01,5.613244796463834341e-02,7.212474313060553794e-04,-6.398654165916252239e-04
6.219999999999999973e-01,6.605203376107164626e-02,-4.243820735568427926e-02,-1.044695815029849165e-02
6.229999999999999982e-01,6.760025533902454253e-02,-4.147374836559600264e-02,-1.669828657863053553e-02
6.239999999999999991e-01,3.450515517907584706e-02,-5.401470582209257770e-02,8.284789378999924195e-03
6.250000000000000000e-01,1.230538481914530968e-02,-4.037296229969274813e-02,2.724639711204970144e-02
6.260000000000000009e-01,-8.921386475204590855e-03,-6.900253962240064654e-02,-6.243097741896864658e-03
6.270000000000000018e-01,-2.004508664310541283e-02,-5.619363860292649060e-02,3.376304829551437375e-02
6.280000000000000027e-01,1.043770375052793797e-02,-4.004694079021031694e-02,5.789698319048593167e-02
6.290000000000000036e-01,-2.864006099467175312e-02,-8.995498488579455054e-02,1.689039205487991024e-02
6.300000000000000044e-01,-5.963800567780028206e-02,-4.160273854815404321e-02,2.151744617005599269e-02
6.310000000000000053e-01,-2.840114079364387117e-02,-3.055036771037284229e-02,6.615005531464748789e-02
6.320000000000000062e-01,-4.891378365962821551e-02,-1.526096282354996551e-02,4.630660032472176668e-02
6.330000000000000071e-01,-5.177798832515211058e-02,-4.872678176784142308e-04,1.023085059420727853e-02
6.340000000000000080e-01,-7.297118214204707798e-02,2.649263054837882464e-02,4.492618978660046364e-02
6.350000000000000089e-01,-5.651913478285467557e-02,2.296565281168162082e-02,-3.203971734866632032e-02
6.360000000000000098e-01,-8.671463364400099072e-02,4.215198308256093429e-02,3.140535539054232356e-02
6.370000000000000107e-01,-7.822534131056015083e-02,4.068062674437874365e-02,-1.739792064516967884e-02
6.380000000000000115e-01,-4.622015144727381619e-02,2.948110768752415858e-02,-3.058489409125436653e-02
6.390000000000000124e-01,-6.369462414118128024e-02,8.045600480131667731e-02,-5.177067565573718888e-02
6.400000000000000133e-01,-9.134567966293716604e-03,6.206645823241915827e-02,-1.724945751361807271e-03
6.410000000000000142e-01,-3.048744302381669463e-02,7.306771403468906301e-02,-6.144186433659622193e-02
6.420000000000000151e-01,-1.087150774620660072e-02,6.418423341841808516e-02,-3.614276374488514104e-02
6.430000000000000160e-01,2.656124125321785573e-02,6.882614678717062506e-02,-4.908182257722386310e-02
6.440000000000000169e-01,3.936072901040356398e-02,3.249535686350853159e-02,-4.740646902802053003e-02
6.450000000000000178e-01,5.018510064584209840e-02,-1.197819477505966766e-03,-3.846683629068719384e-02
6.460000000000000187e-01,6.656043885764593993e-02,3.765084876389979129e-02,-4.302616296200021534e-02
6.470000000000000195e-01,9.833160809163937754e-02,2.831259920807789945e-02,-2.858593555655850049e-02
6.480000000000000204e-01,6.974675405808407336e-02,5.234761977649958486e-03,-5.048671632821531696e-02
6.490000000000000213e-01,9.306343991324748932e-02,-2.630874067302849464e-02,-3.057368617992555632e-02
6.500000000000000222e-01,8.239359424976999691e-02,1.144764223263257592e-04,2.653359592412004794e-02
6.510000000000000231e-01,7.128550858742560559e-02,-2.725855269303953041e-02,5.656660599697899833e-03
6.520000000000000240e-01,6.745196484979312790e-02,-4.013537020332701155e-02,-1.806533160043069866e-02
6.530000000000000249e-01,3.753586591517547172e-02,-4.164125429839891229e-02,5.050645531233176333e-02
6.540000000000000258e-01,1.861166712295081113e-02,-6.862780720535444079e-02,4.800279192236042713e-02
6.550000000000000266e-01,1.528223058283596780e-02,-5.778386377150483005e-02,1.336660993112447765e-02
6.560000000000000275e-01,-3.144318141142127959e-02,-7.186628833809928507e-02,4.526791006247259108e-02
6.570000000000000284e-01,-1.671339807408127320e-02,-3.042665783962290177e-02,5.699863286950204722e-02
6.580000000000000293e-01,-3.873550819612079504e-02,-2.366507565241022029e-02,4.548501230814110119e-02
6.590000000000000302e-01,-8.316673538580784952e-02,-3.107967469318962186e-02,3.939459708883345096e-02
6.600000000000000311e-01,-4.533905827665460353e-02,-2.787403955914193390e-02,8.929377133094874158e-03
6.610000000000000320e-01,-5.840152300942462460e-02,-1.630517370907898569e-02,2.115000128626059669e-02
6.620000000000000329e-01,-4.075913886750411746e-02,-2.660911796913648097e-02,1.396139258073897035e-02
6.630000000000000338e-01,-4.421167036704894832e-02,3.263338896765107661e-02,-4.558356418451388510e-03
6.640000000000000346e-01,-7.606743186429845704e-02,2.512581057414106991e-02,5.610168499942780329e-03
6.650000000000000355e-01,-4.594983621612230840e-02,3.961132352389842154e-02,-1.945571660325488145e-02
6.660000000000000364e-01,-8.364918364523377114e-02,8.608861458820055157e-02,-1.420761528853793122e-02
6.670000000000000373e-01,-2.719193872437503448e-02,9.939478348942815122e-02,-3.580903993460899520e-02
6.680000000000000382e-01,-5.054689938793952009e-02,6.050681495347674105e-02,-4.983948167550389385e-02
6.690000000000000391e-01,-3.440052063403185867e-02,3.958492279389918406e-02,-6.943017149514085773e-02
6.700000000000000400e-01,1.605762311092495242e-03,8.489260203099228963e-02,-6.668059484797277114e-02
6.710000000000000409e-01,2.603532149294507034e-02,7.626840075158314303e-02,-3.085190753443385267e-02
6.720000000000000417e-01,2.321433575199643301e-02,6.795725907479821526e-02,-3.880033353145309616e-02
6.730000000000000426e-01,4.620444515204667063e-02,3.124861864608927814e-02,-3.730487657526451034e-02
6.740000000000000435e-01,6.454339782918119828e-02,3.623492713116458624e-02,-4.591703974435491081e-02
6.750000000000000444e-01,6.302880484959066942e-02,3.795531005954409093e-02,-1.206548518600908306e-03
6.760000000000000453e-01,6.891536267545933514e-02,-1.032301262377489405e-02,-1.341971799346581597e-02
6.770000000000000462e-01,8.419493659899425497e-02,-4.940709507655539727e-03,-8.832553866735756015e-03
6.780000000000000471e-01,5.877999309549366419e-02,-2.769616631098947845e-02,3.095276681150140735e-03
6.790000000000000480e-01,8.316215949559110920e-02,4.140811167486387057e-03,-1.489354332499862738e-02
6.800000000000000488e-01,6.651278037737894111e-02,-5.021049690657085340e-02,1.841489766694406546e-02
6.810000000000000497e-01,3.879559157691919724e-02,-3.820152391121126728e-02,3.984235870895345283e-02
6.820000000000000506e-01,4.518165889239241645e-02,-3.431930055535241386e-02,2.865737259899098222e-02
6.830000000000000515e-01,4.624497780288889040e-03,-5.145863913564120706e-02,3.644773952964257269e-02
6.840000000000000524e-01,2.495288159802040370e-02,-5.761333022727656988e-02,4.476999736088070614e-02
6.850000000000000533e-01,-2.153775405513441363e-02,-3.907620068741206321e-02,5.164395466789823558e-02
6.860000000000000542e-01,-3.836195884266166423e-02,-4.685732454474798858e-02,5.277553633960487683e-02
6.870000000000000551e-01,-1.530691702863806042e-02,-3.340983059738252686e-02,2.675115241359131077e-02
6.879999999999999449e-01,-5.254718031090767350e-02,-4.366795846029412204e-02,2.075468525364126265e-02
6.889999999999999458e-01,-8.905357730728998000e-02,-2.025578406357861003e-02,3.663904416844064593e-02
6.899999999999999467e-01,-9.327388267389198628e-02,1.331544010915808015e-03,4.164103171971581668e-02
6.909999999999999476e-01,-6.975558612436734418e-02,5.852204164241598359e-03,1.308539174205445958e-02
6.919999999999999485e-01,-9.515380744639702348e-02,2.978370449199269077e-02,3.415847535457002676e-02
6.929999999999999494e-01,-6.247927479014285523e-02,2.331994222673972397e-02,7.158441808663217748e-03
6.939999999999999503e-01,-4.870337311600488051e-02,2.738540080801493692e-02,9.283551602309755802e-04
6.949999999999999512e-01,-3.224305031901874424e-02,6.228456355485745277e-02,-2.547321841545122437e-02
6.959999999999999520e-01,-4.290051341290877090e-02,5.566001393622498766e-02,-3.072985226146781809e-02
6.969999999999999529e-01,-2.367016120251102390e-02,1.970085827117516383e-02,-4.406080746366655698e-02
6.979999999999999538e-01,-4.199949628509420246e-02,3.408990878658222506e-02,-4.441529876411749733e-02
6.989999999999999547e-01,2.044388298054104075e-02,1.862384518657682689e-02,-1.417307073481028322e-02
6.999999999999999556e-01,3.000963173453956648e-02,5.019502912793324251e-02,-2.895778405092736679e-02
7.009999999999999565e-01,3.016108790511063883e-02,4.355588262630662524e-03,-3.781229125965121507e-02
7.019999999999999574e-01,7.166867871073930030e-02,6.566989387921660145e-04,-5.920521570258256011e-02
7.029999999999999583e-01,3.678558111550092602e-02,1.993986055577543284e-02,-2.300369030932447253e-02
7.039999999999999591e-01,6.826825561073773807e-02,-5.496270681347228959e-02,-1.175093727144769194e-02
7.049999999999999600e-01,6.736682374253277761e-02,-2.226111740411830867e-02,-3.622462473575925601e-02
7.059999999999999609e-01,5.028353097245149422e-02,-2.090040136487712058e-02,1.126640135851241864e-03
7.069999999999999618e-01,5.796061576214399380e-02,-4.188442044263050723e-02,-7.993777018368168619e-03
7.079999999999999627e-01,9.558466671648062352e-02,-5.644388711598766206e-02,-4.070382248549920222e-03
7.089999999999999636e-01,4.970658200519093711e-02,-3.859668634303333595e-02,4.005855469765547648e-03
7.099999999999999645e-01,3.474133122366325488e-02,-8.593557319852798693e-02,1.270811834913770054e-02
7.109999999999999654e-01,5.845475932944630554e-02,-4.183508185022194459e-02,3.245994768763716537e-02
7.119999999999999662e-01,3.900124340348410518e-02,-7.937388850916726746e-02,6.640998069519703229e-02
7.129999999999999671e-01,-4.960199268535974045e-03,-2.914389227184725761e-02,3.616115674174274347e-02
7.139999999999999680e-01,-9.243294758111994178e-03,-6.103536966479067988e-02,3.411525314111084339e-02
7.149999999999999689e-01,-4.643280767232943473e-02,-2.456658744441603953e-02,3.077428971207331332e-02
7.159999999999999698e-01,-5.383261286361964992e-02,-4.847396516773833097e-02,2.206524755841331523e-02
7.169999999999999707e-01,-5.088892274718011255e-02,-3.489915639418340876e-02,4.563426118881641624e-02
7.179999999999999716e-01,-8.538075798725280885e-02,-2.288962111570140134e-03,2.020982658497137707e-02
7.189999999999999725e-01,-6.621392664779635062e-02,2.025952764967648909e-02,1.038307941112027837e-02
7.199999999999999734e-01,-5.681961598286099785e-02,2.571080476316221081e-02,2.516180731318605826e-02
7.209999999999999742e-01,-6.257200786541479431e-02,4.936537566739257477e-02,1.473548114443050568e-02
7.219999999999999751e-01,-5.990033377649493090e-02,4.068072638821280257e-02,-1.497235395104204794e-02
7.229999999999999760e-01,-2.757737701264855595e-02,7.794744065384409670e-02,-2.722268064025413006e-02
7.239999999999999769e-01,-4.135864730320622934e-02,3.074022662307605847e-02,9.475580037489365285e-04
7.249999999999999778e-01,-8.065107861110702020e-03,6.395790406001783390e-02,-4.374190020527255612e-02
7.259999999999999787e-01,-4.518725668180892906e-03,8.388273669881822492e-02,-2.435044485297430117e-02
7.269999999999999796e-01,3.607694493000246361e-02,5.538557673729885278e-02,-6.002897944831614430e-02
7.279999999999999805e-01,1.458407398807544039e-02,5.240792846302740754e-02,-4.846532639106408691e-02
7.289999999999999813e-01,4.751570957566539355e-02,3.636813622082869096e-02,-5.554508645916724635e-02
7.299999999999999822e-01,7.502424918696949663e-02,3.632382851855752576e-02,-5.377367241931205188e-02
7.309999999999999831e-01,8.879435067298888096e-02,2.802098176678270020e-02,-4.183010529187005527e-02
7.319999999999999840e-01,6.314455830874106390e-02,-6.592616746666166323e-03,-2.688911458960902001e-02
7.329999999999999849e-01,8.549057946851393308e-02,-1.367592836471512828e-02,-3.848192767416228066e-02
7.339999999999999858e-01,6.130835779671104518e-02,-7.067569490939812349e-03,-2.933363508596319516e-02
7.349999999999999867e-01,8.277873342857686167e-02,-3.334046761198788955e-02,-3.097271247022178112e-02
7.359999999999999876e-01,4.754457016773183664e-02,-3.399347985702867031e-02,-1.139284201308849408e-02
7.369999999999999885e-01,5.589101513502050395e-02,-4.559002707762487699e-02,-1.565309808360779847e-02
7.379999999999999893e-01,2.530620278334542311e-02,-7.007727544688852062e-02,5.258621481904866141e-02
7.389999999999999902e-01,6.519841638353031377e-02,-4.782516861924723806e-02,4.147496501537581426e-02
7.399999999999999911e-01,7.045152540095815999e-03,-6.353816093937092457e-02,5.254833581901097173e-02
7.409999999999999920e-01,1.022432825881990819e-03,-5.307873622645327416e-02,4.430012984771435069e-02
7.419999999999999929e-01,1.143891904176179246e-02,-4.467275018309732615e-02,4.846680524221175929e-02
7.429999999999999938e-01,-5.059794341009955093e-02,-4.809798577294234490e-02,8.329952094170930965e-02
7.439999999999999947e-01,-4.396753289051424929e-02,-3.781450641169174093e-02,1.226184188271813892e-02
7.449999999999999956e-01,-7.722397036768478829e-02,1.807536316918958996e-02,3.775551142029768409e-02
7.459999999999999964e-01,-6.700126394701323707e-02,-3.152489651114075836e-02,1.222949168311430329e-02
7.469999999999999973e-01,-7.401166144844083250e-02,-2.290635526040432288e-02,5.091866591572257600e-02
7.479999999999999982e-01,-6.040975090635773703e-02,3.511672716372137362e-03,2.702453151847520468e-02
7.489999999999999991e-01,-7.213060534346757424e-02,1.351016286101542306e-02,-8.887803388207226457e-03
7.500000000000000000e-01,-8.191747435827981261e-02,1.040080481279486400e-02,-6.124013889566431133e-03
7.510000000000000009e-01,-7.337019006016644307e-02,5.710329109017892729e-02,6.672521366101737302e-03
7.520000000000000018e-01,-5.871982166909264084e-02,7.194720211323216152e-02,-2.606502730479303906e-02
7.530000000000000027e-01,-1.496111762137588772e-02,7.357191923468683892e-02,7.776489308372386798e-03
7.540000000000000036e-01,-2.428695774959891557e-02,6.208918534997022454e-02,-4.243639569557949853e-02
7.550000000000000044e-01,1.033689833457359687e-02,5.178366380298783656e-02,-1.593608220347342980e-02
7.560000000000000053e-01,-5.248015830533093659e-03,3.137261922788990576e-02,-5.647791660890479765e-02
7.570000000000000062e-01,6.794826043529902243e-03,-2.314040801115087309e-03,-6.517336255560345071e-02
7.580000000000000071e-01,2.086446180493351302e-02,4.405495935248627398e-02,-6.192356596437492700e-02
7.590000000000000080e-01,2.552477908286550357e-02,-2.762423262250096601e-02,-2.664230553356640094e-02
7.600000000000000089e-01,6.295364503948264190e-02,1.783370865648002679e-02,-6.905698803946670739e-02
7.610000000000000098e-01,4.751061151105944597e-02,-1.584377691738929686e-02,-3.966552313970844734e-02
7.620000000000000107e-01,5.451999773609128574e-02,2.448485642899847492e-02,2.385918639940941440e-04
7.630000000000000115e-01,6.807000191448307758e-02,-1.997869100981322643e-02,-3.346854602595942130e-03
7.640000000000000124e-01,8.014605372414218554e-02,-3.195173881413355260e-02,-3.519413240531444470e-02
7.650000000000000133e-01,1.732711318340545911e-02,-5.196745697120669361e-02,4.470534247327879497e-03
7.660000000000000142e-01,5.685514946989971702e-02,-7.787725391436386979e-02,3.114376311334797476e-02
7.670000000000000151e-01,3.103705511346887408e-02,-4.114949928716927358e-02,-5.930723459944036357e-04
7.680000000000000160e-01,1.273587481421654781e-02,-6.691842448443775793e-02,9.743465332343390420e-03
7.690000000000000169e-01,1.800354410678724551e-02,-3.843419938495588190e-02,3.427991826512681584e-02
7.700000000000000178e-01,-1.961850919564748705e-02,-4.087037242425367589e-02,3.389218929249289414e-02
7.710000000000000187e-01,-7.480282754621334594e-03,-4.379901695173308435e-02,2.351246973303691007e-02
7.720000000000000195e-01,-5.260428931582963874e-02,-3.948885764313644214e-02,5.827834374330548989e-02
7.730000000000000204e-01,-5.109370242691010228e-02,-3.691224189237213987e-02,4.640047252430325175e-02
7.740000000000000213e-01,-7.617973609733080798e-02,-3.408423869924825586e-03,2.604998205444453499e-02
7.750000000000000222e-01,-3.131947301827508329e-02,-2.020867150878778717e-02,5.501238250231686722e-02
7.760000000000000231e-01,-8.628989074763605827e-02,5.010071003198527870e-03,2.915410153530388973e-02
7.770000000000000240e-01,-6.159563121747974046e-02,2.400489784153212944e-02,2.093682075224966715e-02
7.780000000000000249e-01,-6.656533605272595133e-02,-2.177276784825758760e-02,-2.135217657281958392e-02
7.790000000000000258e-01,-8.287925392196895946e-02,3.696565788592712232e-02,1.867091336250518638e-02
7.800000000000000266e-01,-4.079375283656887924e-02,4.870502702223659941e-02,-1.630894139319526972e-03
7.810000000000000275e-01,-3.086113182143644662e-02,6.964993460422758131e-02,-3.033023221438559819e-02
7.820000000000000284e-01,-7.137984653821431887e-03,6.312511563510854462e-02,-4.888143605641644823e-02
7.830000000000000293e-01,-1.687316597778606639e-02,1.475015547973749890e-02,-4.923910444844797202e-02
7.840000000000000302e-01,4.493308233746765717e-02,3.381151755796834441e-02,-3.520583981319774791e-02
7.850000000000000311e-01,6.721250968478442202e-03,3.010072946016089171e-02,-4.356821102439524529e-02
7.860000000000000320e-01,4.273764101953321515e-02,1.600928005269918949e-02,-4.692340056168926854e-02
7.870000000000000329e-01,6.406599303507853893e-02,1.862952246786583541e-02,-2.563788725301116914e-03
7.880000000000000338e-01,7.089805283016283044e-02,1.617906681507139469e-02,-4.937401420061023061e-02
7.890000000000000346e-01,6.371943305130817192e-02,-2.267056498757713534e-02,-2.854914978001707807e-02
7.900000000000000355e-01,8.938434453918361888e-02,9.077231917482050244e-03,-3.821378412168438543e-02
7.910000000000000364e-01,6.109926108440587311e-02,-5.220554008049560490e-02,-2.322979566418175920e-02
7.920000000000000373e-01,8.555475377255430947e-02,-4.614706952726232991e-02,-4.222600432310158122e-03
7.930000000000000382e-01,6.961816102607547296e-02,-4.512683360613795047e-02,-1.073495864725094659e-02
7.940000000000000391e-01,6.157388147238369164e-02,-3.651937669620261562e-02,1.364279563316399269e-02
7.950000000000000400e-01,7.132206629790747987e-02,-1.722133698921610515e-02,4.448463564169403278e-02
7.960000000000000409e-01,3.307679250208719196e-02,-5.242833314525330995e-02,2.217530481288373240e-02
7.970000000000000417e-01,7.400729926293933905e-03,-4.727423616601566375e-02,3.992905835011048565e-02
7.980000000000000426e-01,-3.818483936377432744e-03,-6.481468467991655102e-02,5.690150159728567941e-02
7.990000000000000435e-01,-5.742508195332940261e-03,-3.438961676805300099e-02,5.103577563073157658e-02
8.000000000000000444e-01,-5.453668103293359166e-03,-1.707845521883961590e-02,3.779723869181031860e-03
8.010000000000000453e-01,-4.761253172187668303e-02,-6.509900648094169018e-02,4.502119780708545987e-02
8.020000000000000462e-01,-5.404731963221451330e-02,1.147154403044441974e-02,4.077210722530629633e-02
8.030000000000000471e-01,-7.226579068233306147e-02,3.563744530207224592e-02,7.023583325538534927e-02
8.040000000000000480e-01,-2.315708902952984607e-02,3.767063166525759510e-02,3.566102966255695061e-02
8.050000000000000488e-01,-6.648659785859947768e-02,-7.491584177899969195e-04,4.152169137865623083e-02
8.060000000000000497e-01,-9.057814253640307511e-02,3.662048974578465538e-02,4.676333706993973660e-02
8.070000000000000506e-01,-4.712736267646939342e-02,5.846232109336724214e-02,4.445423728532715141e-02
8.080000000000000515e-01,-8.406698521406243130e-02,5.818570955433107622e-02,2.484380860546767447e-02
8.090000000000000524e-01,-3.468578837904343765e-02,6.167767776419494363e-02,2.682840524436907667e-02
8.100000000000000533e-01,-5.862306344493984495e-02,5.284476122821983590e-02,-2.986484219498220308e-02
8.110000000000000542e-01,-6.500825232557958140e-03,4.069367315568317434e-02,-4.932761089498793189e-02
8.120000000000000551e-01,-2.086413769319545031e-02,7.853704876421865877e-02,-6.407507731052698718e-02
8.129999999999999449e-01,2.734729557574124437e-03,4.528460569071034864e-02,-4.460667291098905501e-02
8.139999999999999458e-01,-6.134983043661685264e-04,6.809793559559544629e-02,-2.638854226646491358e-02
8.149999999999999467e-01,5.595794521016516504e-02,1.982155941075431152e-02,-5.000211558744013796e-02
8.159999999999999476e-01,5.927917020548962440e-02,2.026508293842033820e-02,-4.958188927980029109e-02
8.169999999999999485e-01,8.416400996410672297e-02,1.740225970748717974e-02,-3.004153392008199891e-02
8.179999999999999494e-01,2.956154356386235527e-02,-4.878602025582410434e-02,7.563458311635492051e-03
8.189999999999999503e-01,7.946695440319237469e-02,-2.833664641276426033e-02,-2.660662253767017218e-02
8.199999999999999512e-01,6.695493098424579181e-02,-6.528039710696409426e-02,-1.672274585330566637e-02
8.209999999999999520e-01,8.714832449966795902e-02,-4.018384161788879361e-02,-5.583757799504744657e-02
8.219999999999999529e-01,4.134871127517495554e-02,-3.660677804194086699e-02,-7.329790309594704780e-04
8.229999999999999538e-01,2.789213528436838146e-02,-5.524646982912718995e-02,-1.296908565370117998e-02
8.239999999999999547e-01,3.911242007284481542e-02,-6.823153102008547299e-02,2.315645850648421003e-02
8.249999999999999556e-01,1.277936750298104898e-02,-3.800673775615335398e-02,3.546770073196335582e-02
8.259999999999999565e-01,2.624911345310261199e-02,-4.885727335704594110e-02,5.214589596452031371e-03
8.269999999999999574e-01,-9.528252375901349186e-03,-3.019577971891957216e-02,-5.864008403032649336e-03
8.279999999999999583e-01,-9.596415198879859262e-03,-2.973208622760946385e-02,2.114606978565438528e-02
8.289999999999999591e-01,-1.031600692821002009e-02,-1.606685159786501449e-02,1.124104604867780244e-02
8.299999999999999600e-01,-1.039218119918173949e-01,-1.076218949519638229e-02,4.305804243598918002e-02
8.309999999999999609e-01,-8.027933520172009230e-02,-2.361106985003573119e-02,7.662088813479475680e-02
8.319999999999999618e-01,-6.383162558022092981e-02,7.944445746312622444e-03,2.138109718373812362e-02
8.329999999999999627e-01,-2.335579258540474573e-02,5.036456965526372315e-02,-7.205282689534812414e-03
8.339999999999999636e-01,-8.007374656986587791e-02,2.074377359245627855e-02,2.149513928417502023e-02
8.349999999999999645e-01,-6.547032118819166857e-02,8.127832074258406481e-02,1.196960700248863446e-02
8.359999999999999654e-01,-6.826696434464091245e-02,3.552224180705447487e-02,-1.123900812243264994e-03
8.369999999999999662e-01,-1.507543882471040764e-02,4.474874588381783785e-02,8.391620531744218778e-03
8.379999999999999671e-01,-1.058496966126110279e-02,2.509674924096920445e-02,-3.597278299179010319e-03
8.389999999999999680e-01,-2.886358824337251563e-02,5.604859687879826941e-02,-2.306895470886516017e-02
8.399999999999999689e-01,-2.257431067549928172e-03,8.380535459656161812e-02,7.453246469233357208e-03
8.409999999999999698e-01,-5.130349607522118049e-02,8.385977984506728933e-02,-1.707125829148691334e-02
8.419999999999999707e-01,2.690277240184271376e-03,4.678391435796765835e-02,-4.200358671153509721e-02
8.429999999999999716e-01,2.828093725132632685e-02,3.313755190119811039e-02,3.051821519820199389e-04
8.439999999999999725e-01,5.537471652439068803e-02,2.291411554203368062e-02,-7.592228192212512050e-02
8.449999999999999734e-01,3.528162966424230190e-02,1.082909530408374295e-03,-3.748533157838340041e-02
8.459999999999999742e-01,7.360886579025939513e-02,-1.383825551886627356e-02,-5.040341063436829666e-02
8.469999999999999751e-01,7.640007636262827195e-02,-2.095975898282644370e-02,-2.195669817532987234e-02
8.479999999999999760e-01,7.472586027845867784e-02,-4.880318182721065517e-02,1.882672508172657331e-03
8.489999999999999769e-01,7.916312831262713179e-02,-5.123710933422639946e-02,-2.759250630544599764e-02
8.499999999999999778e-01,7.687609747445775521e-02,-4.410739208691876606e-02,2.226305314136486826e-03
8.509999999999999787e-01,3.351892658746277731e-02,-2.829980633487172437e-02,1.442451633769492592e-02
8.519999999999999796e-01,6.333282706966866793e-02,-5.931774306941657582e-02,3.269493277057994307e-02
8.529999999999999805e-01,3.031044073420044449e-02,-3.528424373476292397e-02,5.967509609383764985e-02
8.539999999999999813e-01,3.473982658445935040e-02,-2.525453176648392861e-02,6.029724190071317907e-02
8.549999999999999822e-01,-2.599194463976124692e-02,-6.080269653797411994e-02,3.599696030048031570e-02
8.559999999999999831e-01,-2.800143360941872647e-02,-1.639266601447247548e-02,7.320331849754655763e-03
8.569999999999999840e-01,-1.974185790566911070e-02,-2.243285712502393614e-02,7.182899014790083969e-02
8.579999999999999849e-01,-4.480958983189888001e-02,-1.254098388640530887e-02,1.339735399990115913e-02
8.589999999999999858e-01,-7.138839915972988726e-02,2.883667136392605024e-03,3.388604752808446058e-02
8.599999999999999867e-01,-6.622593282139416226e-02,9.237024475495706974e-03,5.514437188454855698e-02
8.609999999999999876e-01,-6.468305706703179891e-02,9.811020545235360490e-03,8.489796873075501626e-03
8.619999999999999885e-01,-4.747561311365787462e-02,1.903221012850276478e-02,3.792762576165497343e-04
8.629999999999999893e-01,-5.939154894102516985e-02,3.568961004234653955e-02,2.230818100147777608e-02
8.639999999999999902e-01,-8.500404783831203015e-02,8.788473215575758057e-02,2.749128456646123334e-02
8.649999999999999911e-01,-3.328368073297012508e-02,3.363166538232682801e-02,1.742120460625471226e-02
8.659999999999999920e-01,-4.638278569324266742e-02,4.262849702197488155e-02,4.401543785748840074e-03
8.669999999999999929e-01,-4.048361403549503162e-02,5.289185532701466685e-02,-3.634461742039109960e-02
8.679999999999999938e-01,2.015818174249942724e-02,7.572513711449464779e-02,-2.940377797788597432e-03
8.689999999999999947e-01,-1.578493203049469856e-02,4.258537145936078239e-02,-4.733501245402024771e-02
8.699999999999999956e-01,6.036909946872376755e-04,6.077429989847838582e-02,-2.184168051051056311e-02
8.709999999999999964e-01,2.624928492182252923e-02,4.074692526637863771e-02,-1.952838986476944719e-02
8.719999999999999973e-01,5.612274390506864774e-02,1.060045016510033355e-02,-3.534972195307392595e-02
8.729999999999999982e-01,1.979386229175697509e-02,-3.811485402663585941e-03,-4.913988788583232431e-02
8.739999999999999991e-01,4.869246173526684679e-02,-8.706601939649581678e-03,-6.053014722413121995e-02
8.750000000000000000e-01,5.960639896416719541e-02,-6.365318059736879523e-03,-2.644721981156965621e-02
8.760000000000000009e-01,1.139739987511886737e-01,-1.304321309676430285e-02,-4.650958605847973354e-02
8.770000000000000018e-01,5.346098041806411627e-02,-7.373082601126136615e-02,-2.073633382373606809e-03
8.780000000000000027e-01,8.690686367202672680e-02,-6.156916392944264925e-03,-5.244910085854936899e-02
8.790000000000000036e-01,8.199375054221719195e-02,-3.152155770909510768e-02,-1.746077227020642955e-02
8.800000000000000044e-01,8.215569631964657338e-02,-4.819638694394872552e-02,-8.629954748495731118e-03
8.810000000000000053e-01,1.823365762839020479e-02,-4.190285085446542046e-02,-1.195156889642385104e-02
8.820000000000000062e-01,2.899351703803542540e-02,-1.500336321346185803e-02,3.933230608708487841e-02
8.830000000000000071e-01,-4.216762563186834956e-02,1.189895404082760670e-02,3.502931247953365579e-02
8.840000000000000080e-01,-2.035629496481729250e-02,-3.818627620235838516e-02,6.975617356708037342e-02
8.850000000000000089e-01,-6.750783001825487462e-02,-1.620159099862503518e-02,5.498538651496521351e-02
8.860000000000000098e-01,-3.531654374362747095e-02,-2.145076426112737383e-02,-1.431908023628804261e-02
8.870000000000000107e-01,-2.971016537951091593e-02,-1.074180908403278047e-02,3.889805860495657713e-02
8.880000000000000115e-01,-5.141444883581224035e-02,2.223271648813901144e-02,5.822181270145325438e-02
8.890000000000000124e-01,-5.708886966815120145e-02,-1.600709259850263688e-02,3.235852049493124355e-02
8.900000000000000133e-01,-8.657735628627183377e-02,2.646188654939841262e-02,3.453638047446825482e-02
8.910000000000000142e-01,-6.079772482400291889e-02,3.260894374375394866e-02,5.029658429627005545e-02
8.920000000000000151e-01,-5.330663907532421503e-02,4.452486198123303818e-02,2.825112131736395860e-02
8.930000000000000160e-01,-7.359967023205823966e-02,4.782314745454029070e-02,2.205816154872538497e-04
8.940000000000000169e-01,-5.407876290023076737e-02,4.558264835350508276e-02,-1.222089513129709717e-02
8.950000000000000178e-01,8.385430346955470571e-03,5.041502524717660777e-02,-2.524987836790887341e-02
8.960000000000000187e-01,-2.544126219231235275e-02,8.122696467487811045e-03,-6.596959614951650175e-02
8.970000000000000195e-01,-3.950242647062145694e-03,4.921911240558255601e-02,6.842965623291554118e-03
8.980000000000000204e-01,8.946109455726851054e-03,9.140373892401595576e-03,-4.555416674298706781e-02
8.990000000000000213e-01,7.722684256426488392e-04,6.334068300423509323e-02,-4.159223393235818994e-02
9.000000000000000222e-01,6.904677667982088603e-03,4.114597284842660269e-02,-1.065793272768153846e-02
9.010000000000000231e-01,5.309270345648366835e-02,2.015129464662991643e-02,-2.977065443270276307e-02
9.020000000000000240e-01,5.266163120098952405e-02,-1.546687540054456945e-02,-9.340802217921240214e-02
9.030000000000000249e-01,3.713326135424922098e-02,-1.075668754967857785e-02,-3.217471768264848486e-02
9.040000000000000258e-01,5.715214768756082114e-02,-1.464795907618624514e-02,-2.842922218050520158e-02
9.050000000000000266e-01,6.399620429088812013e-02,-3.563827861049990997e-02,-9.722122623730577312e-03
9.060000000000000275e-01,5.271639003389378547e-02,-4.121712169687729438e-02,-4.716648775878814343e-02
9.070000000000000284e-01,7.757979208562984508e-02,-6.705001964421984650e-02,-1.954973266905531831e-02
9.080000000000000293e-01,7.371410537656217232e-02,-3.309670403528362087e-02,-1.756909720431857821e-02
9.090000000000000302e-01,3.718956734209619142e-02,-4.136347852622376114e-02,-1.285567787335822020e-02
9.100000000000000311e-01,2.046063588430295163e-02,-3.802782064948653090e-02,1.513053586777995778e-02
9.110000000000000320e-01,2.888054632550156320e-02,-3.619559365370545595e-02,1.768840982727587843e-02
9.120000000000000329e-01,1.932507155950064642e-02,-6.149790278090572909e-02,2.329667046021965601e-02
9.130000000000000338e-01,3.103845705700165446e-03,-4.246462894243988734e-02,2.726361426158491891e-02
9.140000000000000346e-01,-3.769881315332559296e-02,2.016126718914941843e-02,5.013172823213842694e-02
9.150000000000000355e-01,-2.432681917434679694e-02,-2.073559683933626566e-02,6.166328028817230633e-02
9.160000000000000364e-01,-4.819115042279312894e-02,-9.205665045533892657e-03,4.812843163068625946e-02
9.170000000000000373e-01,-4.459965834403091522e-02,-1.100715988424099193e-02,4.177666296898728537e-02
9.180000000000000382e-01,-5.606479620747444742e-02,3.097693020879132425e-02,1.989524031324087575e-02
9.190000000000000391e-01,-6.493770450072143541e-02,2.365706445542139352e-02,6.592725765271985339e-02
9.200000000000000400e-01,-7.349130244474542939e-02,4.668598424813563685e-02,2.297182397656424499e-02
9.210000000000000409e-01,-7.837388811583304027e-02,5.732201229325402381e-02,-1.089578229514197999e-02
9.220000000000000417e-01,-9.129401624819301342e-02,2.366902337860184169e-02,4.030336942805896883e-02
9.230000000000000426e-01,-4.056005425061787184e-02,7.019016783115956948e-02,-4.002974932750440196e-02
9.240000000000000435e-01,-5.322716511738383866e-02,4.558608341911398604e-02,-3.961107392629360791e-02
9.250000000000000444e-01,-6.042542266225548256e-03,1.031390387454043794e-01,-1.908428688554685698e-02
9.260000000000000453e-01,-9.557486325391460757e-03,1.384690329053069741e-02,-3.032483856822407176e-02
9.270000000000000462e-01,4.757301106084139281e-02,3.281164352970135367e-02,-4.376180293791205600e-02
9.280000000000000471e-01,1.646192335642538904e-02,2.812658524476541189e-02,-5.797453493222545079e-02
9.290000000000000480e-01,5.198730853958871689e-02,-1.855940003266901657e-03,-4.636128797382534084e-02
9.300000000000000488e-01,8.387995082011104331e-02,-1.137399999424005929e-02,-3.500519404172789534e-02
9.310000000000000497e-01,4.845636045819560339e-02,-3.410349130120655242e-02,-3.826486234004862486e-02
9.320000000000000506e-01,7.576563749071349441e-02,-2.995542910990374105e-02,-4.623443202654963641e-02
9.330000000000000515e-01,6.036908098425025626e-02,-2.218542160596067084e-02,-1.742022489225948656e-02
9.340000000000000524e-01,6.485108015786690550e-02,-5.730484882204666536e-02,-5.723135946041962505e-03
9.350000000000000533e-01,8.623884239229290261e-02,-3.844476924338387919e-02,-4.388573304637407961e-03
9.360000000000000542e-01,6.031889763672256682e-02,-4.674237916263726533e-02,5.223632527640906416e-03
9.370000000000000551e-01,5.657275575292443348e-02,-4.752822612227078358e-02,-2.906968653411188402e-02
9.379999999999999449e-01,4.962453495655039237e-02,-8.012609872051906779e-02,1.701793550894486551e-03
9.389999999999999458e-01,3.611864654674262765e-02,-4.155904809457028337e-02,2.519666539173189695e-02
9.399999999999999467e-01,2.609630302546248840e-03,-4.497395177002313366e-02,1.776055964563472492e-02
9.409999999999999476e-01,1.450620269011532529e-02,-2.500363001610723598e-02,3.171604560595234906e-02
9.419999999999999485e-01,-1.405346230829722896e-02,-6.929029903061501017e-02,4.605109091707922098e-02
9.429999999999999494e-01,-4.100927564247149743e-02,-2.213429978970431200e-02,5.233195941101741189e-02
9.439999999999999503e-01,-2.432121410851708493e-02,-2.698668369138898168e-02,5.014266142911454754e-02
9.449999999999999512e-01,-6.135415482155200106e-02,1.665220006102070480e-02,3.369870323975333870e-02
9.459999999999999520e-01,-7.216710551604613166e-02,2.544849186225880966e-02,4.134691775191300794e-02
9.469999999999999529e-01,-7.615934917388247904e-02,-2.853841955006713657e-03,4.805535083570472432e-02
9.479999999999999538e-01,-6.407337129459307612e-02,2.663848126203859426e-02,5.660024543097760819e-02
9.489999999999999547e-01,-7.656860694571746007e-02,2.517661124267640133e-02,1.248455257142351733e-02
9.499999999999999556e-01,-7.535220415397428373e-02,6.488130456834395599e-02,1.553473478697786452e-02
9.509999999999999565e-01,-6.587569885680492898e-02,6.118829495423520892e-02,3.778120757851404724e-03
9.519999999999999574e-01,-4.186778682289293840e-02,5.645573287575623295e-02,-3.226506654618756242e-02
9.529999999999999583e-01,-6.801954273742745471e-02,5.968855338928424209e-02,-7.766894022095047895e-03
9.539999999999999591e-01,-1.068892504364922329e-02,5.272891203062115423e-02,-1.961363922118947428e-03
9.549999999999999600e-01,-2.166632061221417192e-03,4.974115355886808698e-02,-5.387227344052804984e-03
9.559999999999999609e-01,3.001273520201330411e-02,2.317799814473719272e-02,-3.731966320072868659e-02
9.569999999999999618e-01,7.972678374131010604e-02,2.358979089869353910e-02,-5.537777729273827415e-02
9.579999999999999627e-01,3.525839296309690729e-02,1.111419121961671521e-04,-3.602180359020330791e-02
9.589999999999999636e-01,5.851775880878457708e-02,3.233485491131916217e-02,-6.896568574637509941e-02
9.599999999999999645e-01,8.571028453737158936e-02,-2.901830671041903675e-02,-5.741102931658086800e-02
9.609999999999999654e-01,8.751054109175668283e-02,-1.093348160366634618e-02,-5.535084544292151465e-02
9.619999999999999662e-01,9.525767283477158676e-02,-3.840462841023820767e-02,-1.043697691549642752e-02
9.629999999999999671e-01,8.321311379661162910e-02,-5.337338183078369630e-02,-4.655906543156043687e-02
9.639999999999999680e-01,6.877132716333458906e-02,-7.522444436863377770e-02,-9.763667510614040812e-03
9.649999999999999689e-01,9.718782116550730987e-02,-6.691343564540941369e-02,-2.568234327513425896e-02
9.659999999999999698e-01,4.414454052392483008e-02,-3.245509960870673200e-02,1.429956011951472906e-02
9.669999999999999707e-01,4.432215423512863434e-02,-4.670031557031073532e-02,5.924173710388095163e-03
9.679999999999999716e-01,5.210341782555634287e-03,-3.677710256489066104e-02,2.263423729383828853e-02
9.689999999999999725e-01,2.293265734992706167e-02,-5.079944973049659723e-02,-5.074415557424690262e-03
9.699999999999999734e-01,-4.320823550579049044e-02,-4.095624551364070165e-02,1.819723988544545354e-02
9.709999999999999742e-01,-1.274212112213096715e-02,-9.558067673264716499e-03,3.511400273930032068e-02
9.719999999999999751e-01,-4.712675826743677188e-02,-2.900525153083106586e-02,-8.979071802125737287e-03
9.729999999999999760e-01,-6.902802375723267325e-02,1.975936059297829853e-02,3.894339719084782825e-02
9.739999999999999769e-01,-3.468066486562832590e-02,4.951453674482855088e-02,5.342840972655946152e-02
9.749999999999999778e-01,-5.240111252040618312e-02,3.152474806303886407e-02,5.542460068456117606e-02
9.759999999999999787e-01,-5.968466551638979684e-02,7.726222596270460041e-02,4.755286794562724184e-02
9.769999999999999796e-01,-6.862157689939714367e-02,7.051110317774458847e-02,1.096537477384611561e-02
9.779999999999999805e-01,-6.677405089200653954e-02,6.562533982225904339e-02,-1.072532004651109878e-02
9.789999999999999813e-01,-9.203148592428789243e-02,4.935293767754494326e-02,1.568031834368910360e-02
9.799999999999999822e-01,-5.236418101223543065e-02,5.668880885374723982e-02,5.059726763815605710e-02
9.809999999999999831e-01,-5.339908975525807511e-02,9.223462997086477599e-02,-4.093524143382072655e-02
9.819999999999999840e-01,-8.689462305278937773e-03,3.605346757316262030e-02,-2.092135886323602534e-02
9.829999999999999849e-01,9.677514339117057260e-03,3.273246661558485565e-02,-3.004882874514302332e-02
9.839999999999999858e-01,2.970578855143126557e-02,3.792710393954419612e-02,-2.776165965696840085e-02
9.849999999999999867e-01,4.572979680081182968e-02,2.068515807322248573e-02,-3.047166354300210114e-02
9.859999999999999876e-01,3.782421108016548184e-02,2.474443937110724304e-03,-6.423536795714669678e-02
9.869999999999999885e-01,5.773313759457144451e-02,-1.524485171241067930e-02,-4.746460936937189901e-02
9.879999999999999893e-01,7.533490650878017780e-02,-6.423447966209365478e-02,-2.570005185003965825e-02
9.889999999999999902e-01,6.994296338155817083e-02,-6.386361058496665966e-02,-3.855226998307174219e-02
9.899999999999999911e-01,6.753731259172009171e-02,-5.054716711410598556e-02,-4.123416270417802620e-02
9.909999999999999920e-01,9.010391739927425814e-02,-3.740037985448157326e-02,-5.355371895433898299e-02
9.919999999999999929e-01,5.845468578692927797e-02,-5.775957351418888747e-02,-7.380543285709735210e-03
9.929999999999999938e-01,6.743521923162733300e-02,-4.958799749746286428e-02,-1.623436376157373975e-02
9.939999999999999947e-01,6.586581358533016850e-02,-5.248515379641974926e-02,-3.956709368479904843e-02
9.949999999999999956e-01,5.207698394422672489e-02,-1.143500777349402975e-02,1.725190178755300549e-02
9.959999999999999964e-01,8.346708814722774913e-03,-6.465685166807069728e-02,1.886777869383207337e-02
9.969999999999999973e-01,1.299881114496773951e-03,1.787659346132761812e-02,4.058922126405346657e-04
9.979999999999999982e-01,-1.621117037670365135e-02,-7.099888536079623780e-02,3.161929294490747888e-02
9.989999999999999991e-01,-1.891269616034063974e-02,-1.418901992885369424e-02,4.237664647988902827e-02
1.000000000000000000e+00,-3.461388722848479649e-02,-6.820588216062539212e-03,3.258722302076239030e-02
1.000999999999999890e+00,-6.819808931614536329e-02,1.025080823004267082e-02,3.616044922295719166e-02
1.002000000000000002e+00,-6.416509026690908613e-02,3.545621390779574167e-02,2.456752203530271003e-02
1.002999999999999892e+00,-5.217264188869329133e-02,3.911885385467255005e-02,4.607258004974806864e-02
1.004000000000000004e+00,-5.526161860465883535e-02,2.117249341952162286e-02,3.460189558499501827e-02
1.004999999999999893e+00,-5.016439155954228318e-02,2.183406210929205588e-02,4.347737566020387634e-02
1.006000000000000005e+00,-6.559247207599612495e-02,7.126995648947730133e-02,2.710747697900781419e-02
1.006999999999999895e+00,-4.905753499836268405e-02,3.915758961439385483e-02,3.159944512825622193e-02
1.008000000000000007e+00,-7.520835932668019919e-02,5.733611158007001496e-02,5.534156481008437435e-04
1.008999999999999897e+00,-1.643693518825068908e-02,6.964400339176965438e-02,3.152793216079669697e-02
1.010000000000000009e+00,-3.969372027101335243e-02,4.914840086670090036e-02,-1.125663415797824481e-02
1.010999999999999899e+00,-8.983051468510031695e-03,2.897398700626981072e-02,-5.791070637083759604e-02
1.012000000000000011e+00,1.151144031665666742e-02,4.805102336150653825e-02,-2.337481846003798547e-02
1.012999999999999901e+00,2.345391759481161437e-02,1.291269983950762805e-02,-3.427327436985851822e-02
1.014000000000000012e+00,1.936804467304431565e-02,-1.321369793897833600e-02,-2.723245358811636485e-02
1.014999999999999902e+00,2.575672592299093830e-02,-3.050642030066655006e-02,-4.625239041625842790e-02
1.016000000000000014e+00,6.402709412648664722e-02,-1.257946900047863560e-02,-3.147525286575710013e-02
1.016999999999999904e+00,3.089164331325313165e-02,-4.640002943715131056e-02,-5.317183862207626455e-02
1.018000000000000016e+00,8.485966062679836663e-02,-1.201839909315718588e-02,-9.425937564680735015e-03
1.018999999999999906e+00,6.402789894034829898e-02,-3.989254421318784438e-02,5.936580803051974206e-03
1.020000000000000018e+00,6.335463809105962296e-02,-2.798046701495951125e-02,-3.571145140501534587e-02
1.020999999999999908e+00,3.839444798481289611e-02,-6.188412647405697881e-02,-9.581643801408645106e-03
1.022000000000000020e+00,5.426001459563351004e-02,-6.491833666125823576e-02,-2.045964161168538006e-02
1.022999999999999909e+00,5.830631875492330030e-02,-5.753474855298446045e-02,1.176191787854329561e-02
1.024000000000000021e+00,2.439138230833971452e-02,-4.647975221450987432e-02,-2.735689150025765251e-02
1.024999999999999911e+00,3.519971487527686488e-02,-7.029209811979070244e-02,4.166853209463187296e-02
1.026000000000000023e+00,2.593595450467379299e-02,-3.159921883375074736e-02,2.488729196020486242e-02
1.026999999999999913e+00,3.369318095360341637e-03,-6.759166914411481042e-02,3.551848384986893564e-02
1.028000000000000025e+00,-2.969955040884329767e-02,1.011086243906626249e-02,7.840835001856287512e-02
1.028999999999999915e+00,-5.673877388340677064e-02,-1.224909969656805091e-02,4.866837466314904992e-02
1.030000000000000027e+00,-3.143369367748572504e-03,4.515884797810978957e-02,3.532671881207591347e-02
1.030999999999999917e+00,-6.796072386947603350e-02,2.992958026243029354e-02,4.977801947580209191e-02
1.032000000000000028e+00,-6.320353206261225543e-02,5.181367496746863699e-02,3.449578365464612412e-02
1.032999999999999918e+00,-9.551983658288311363e-02,6.544470222397681149e-03,2.531198741564022817e-02
1.034000000000000030e+00,-5.212725657391471812e-02,4.906517345598679358e-02,3.319193177186758464e-02
1.034999999999999920e+00,-5.042030580331655770e-02,9.007740199867207698e-02,1.503071676258879372e-02
1.036000000000000032e+00,-3.194402739274650876e-02,6.403118830645980475e-02,9.399376864597706882e-03
1.036999999999999922e+00,-5.530840897281085779e-03,6.441276626545666684e-02,3.549323028365061056e-02
1.038000000000000034e+00,-2.553883759704255949e-02,8.720706190488970722e-02,1.764925630664865644e-02
1.038999999999999924e+00,-5.419418575648007191e-02,2.930346856178571782e-02,4.483206695234561757e-03
1.040000000000000036e+00,-2.336771699188829043e-02,2.664114032319862477e-02,-4.119053432263355269e-02
1.040999999999999925e+00,-1.543552466611207603e-02,1.119556802628746302e-02,-4.395139297667444850e-02
1.042000000000000037e+00,-1.225881286563976734e-02,2.667216783336574457e-02,-2.880035687937684136e-02
1.042999999999999927e+00,5.755534352418301136e-02,-7.535696298535817308e-03,-7.880439894143585755e-02
1.044000000000000039e+00,8.010006571930808339e-02,-2.583834758828328429e-02,-5.917220061954066301e-02
1.044999999999999929e+00,4.231320782944913289e-02,-4.996361102458293096e-03,-2.910931074229516913e-02
1.046000000000000041e+00,7.194638155892696396e-02,-5.327373503335059574e-02,-2.847252200639239020e-02
1.046999999999999931e+00,9.093997259211832052e-02,-7.436504234027088711e-02,-4.867726830530778870e-02
1.048000000000000043e+00,4.576313338868390201e-02,-7.602050778989634383e-02,-5.792566567310195036e-02
1.048999999999999932e+00,7.104615094100724670e-02,-5.796176081779232103e-02,-2.291958393168913241e-02
1.050000000000000044e+00,4.712661198121639167e-02,-9.808025030525552301e-02,-5.178818409750340912e-02
1.050999999999999934e+00,1.746730770481624839e-02,-5.350832265469608606e-02,-4.601563827593076195e-02
1.052000000000000046e+00,3.206852150556568221e-02,-4.650268751338611922e-02,-7.360702641112310159e-03
1.052999999999999936e+00,3.951877072709009120e-02,-3.048814251797958216e-02,9.486973348294413383e-03
1.054000000000000048e+00,2.627341473756607607e-02,-3.448061036264797596e-02,3.324390302429146293e-02
1.054999999999999938e+00,-1.382341355075613482e-02,-4.454104696864950863e-02,-7.387044234313884863e-03
1.056000000000000050e+00,-4.808614417494874727e-02,8.003404014787836307e-03,4.223255315114301384e-02
1.056999999999999940e+00,-5.131022165143471481e-02,2.783177450127879808e-03,4.388631537755698780e-02
1.058000000000000052e+00,-5.278646621222227858e-02,1.400614117037206688e-02,2.679404061475660834e-02
1.058999999999999941e+00,-4.589712797540215772e-02,1.830662190097706241e-02,6.900713863102690693e-02
1.060000000000000053e+00,-4.337132523672311557e-02,3.829487013840390808e-02,4.825345670230287570e-02
1.060999999999999943e+00,-5.322331421251095401e-02,7.052004201483277890e-02,6.239075649942883023e-02
1.062000000000000055e+00,-6.710855977579203990e-02,4.841176695052137879e-02,5.496922572555964365e-02
1.062999999999999945e+00,-6.389929386938129896e-02,5.192963625050771997e-02,4.643679726797957097e-02
1.064000000000000057e+00,-3.875233270790600509e-02,5.129923222356718576e-02,-8.750347937841947447e-04
1.064999999999999947e+00,-6.150852310615232549e-02,7.908967499709153304e-02,2.313641153321720212e-02
1.066000000000000059e+00,-3.050782044855665162e-02,3.709537126115888123e-02,3.077559234429605786e-02
1.066999999999999948e+00,-6.147043729157936065e-02,5.282297151559240539e-02,1.145667177452096112e-02
1.068000000000000060e+00,-6.939853681859392467e-04,2.627630875499372895e-02,-2.481414873211035960e-02
1.068999999999999950e+00,-2.755912127326014954e-02,2.861968666843943410e-02,-2.730919859070041547e-02
1.070000000000000062e+00,-1.625107301410016287e-03,2.091121013375548884e-02,-2.220506862478106164e-02
1.070999999999999952e+00,2.719094841367751189e-02,-2.803643998625135036e-03,-4.358804093266626517e-02
1.072000000000000064e+00,4.507124823138614761e-02,-4.614857074131652193e-03,-2.281726192868568925e-02
1.072999999999999954e+00,1.818760721969556876e-02,-2.556207736789094243e-02,-2.178257311826663212e-02
1.074000000000000066e+00,7.842858364532799553e-02,-4.059462955721016703e-02,-5.694806140342760503e-02
1.074999999999999956e+00,1.072855092130895888e-01,-7.036039985337556868e-02,-6.127580808083708808e-02
1.076000000000000068e+00,8.767699265101520922e-02,-4.044132991583117981e-02,-1.879939334502961704e-02
1.076999999999999957e+00,5.614642299149003035e-02,-5.759056535914556380e-02,-2.851269494123773521e-02
1.078000000000000069e+00,4.298986752562342778e-02,-3.764448491042673289e-02,-4.536041103837825522e-02
1.078999999999999959e+00,8.855228448146057474e-02,-8.147328210211635113e-02,-1.146251913993891550e-02
1.080000000000000071e+00,4.053900159718911572e-02,-6.689918494997998399e-02,-2.129553794006954631e-02
1.080999999999999961e+00,4.400212004976411517e-02,-3.633223922182228505e-02,-1.023970155377434445e-02
1.082000000000000073e+00,-1.180079387145024266e-03,-6.162966712417253246e-02,3.065954433552935815e-02
1.082999999999999963e+00,8.076414215208655226e-03,-1.069049679293521300e-02,2.451539030265555488e-02
1.084000000000000075e+00,-1.432342690580576047e-02,-4.565693792365574377e-02,2.659890843519052001e-02
1.084999999999999964e+00,-3.799614721580438920e-02,3.568253303551606991e-03,3.104610242586315974e-02
1.086000000000000076e+00,-5.396672231795042463e-02,5.739172619407456599e-03,2.749065677700673199e-02
1.086999999999999966e+00,-3.246000113804625026e-02,2.426727236732032292e-02,3.827785889314916368e-02
1.088000000000000078e+00,-7.254021406346082557e-02,4.797479303067689327e-02,1.628616951774127658e-02
1.088999999999999968e+00,-7.904258966264811337e-02,9.188506944580229069e-03,2.231973338628888415e-02
1.090000000000000080e+00,-1.185109906982925454e-01,5.146957862456946753e-02,6.966991736722816242e-02
1.090999999999999970e+00,-7.013599922138460951e-02,4.513424028504018498e-02,3.000437842529945706e-02
1.092000000000000082e+00,-7.377306990297598233e-02,7.570528959199158969e-02,4.742028269847230887e-02
1.092999999999999972e+00,-4.780848616565782500e-02,1.814009649444723801e-02,3.202213532848255384e-02
1.094000000000000083e+00,-7.119753734405047385e-02,3.910789623740450888e-02,-2.435764942571219671e-02
1.094999999999999973e+00,-2.376762871490096032e-02,7.387293455517059126e-02,4.739762066700112242e-03
1.096000000000000085e+00,-3.884241344484110070e-02,1.445498044810697783e-02,-1.822198957153623594e-02
1.096999999999999975e+00,-4.602467236604585593e-02,1.762173308238699013e-02,6.011714690091103652e-03
1.098000000000000087e+00,-4.673756259784439537e-02,-7.164559468527793851e-03,-3.585434673640941483e-02
1.098999999999999977e+00,3.157526293884034552e-02,5.321718732349733395e-03,-2.831024991200454741e-02
1.100000000000000089e+00,2.945856546821080252e-02,-1.359552800582399835e-02,-3.238612534228647172e-02
1.100999999999999979e+00,2.134506539036450101e-02,-4.236640011361821057e-02,-6.471401907479155946e-02
1.102000000000000091e+00,8.060295135184236681e-02,-3.078619847509191446e-02,-5.674313844187232198e-02
1.102999999999999980e+00,7.797516628813633277e-02,-3.617653091202480131e-02,-6.110132314406686860e-02
1.104000000000000092e+00,3.305070146513745810e-02,-3.064990089727568506e-02,1.942123903983124927e-02
1.104999999999999982e+00,5.270549238688014559e-02,-5.155286328533772999e-02,-1.477811729217967836e-02
1.106000000000000094e+00,9.589047031980511837e-02,-1.046462867566486238e-01,-2.175104190005898788e-02
1.106999999999999984e+00,5.180506599154860448e-02,-4.714086323925996413e-02,-2.300588158450994278e-02
1.108000000000000096e+00,8.439072335801937885e-02,-5.394071684084171536e-02,-2.100071750129439696e-02
1.108999999999999986e+00,2.841766541103645308e-02,-2.171205047018800148e-03,2.131449394187978283e-02
1.110000000000000098e+00,-1.806391572409389232e-02,-6.045777767538878383e-02,2.197077062775359274e-02
1.110999999999999988e+00,-1.386713462535594729e-02,-2.990288811479113740e-02,2.456538810629621886e-02
1.112000000000000099e+00,-1.831953459852444718e-02,-9.831736361465441554e-03,1.623202382907665622e-02
1.112999999999999989e+00,-1.357111091664294118e-02,1.756562311981122240e-02,8.262682290160604237e-02
1.114000000000000101e+00,-5.142397559289116349e-02,-5.395688120478773706e-03,4.783100425774977627e-02
1.114999999999999991e+00,-3.019307803326851114e-02,2.835443275132270430e-02,2.631700782792456908e-02
1.116000000000000103e+00,-7.564124744790556854e-02,5.479099336775675178e-02,4.254300526239102043e-02
1.116999999999999993e+00,-3.884384920082816633e-02,1.650726317312658717e-02,5.522434364330296164e-02
1.118000000000000105e+00,-9.903840739707496510e-02,4.750996601554186710e-02,6.771929408074797707e-02
1.118999999999999995e+00,-8.897400309438702193e-02,5.458897544935779195e-02,5.050517931026017593e-02
1.120000000000000107e+00,-6.318889842102969057e-02,6.561777345625785518e-02,3.539349523122031077e-02
1.120999999999999996e+00,-5.927549273776196864e-02,5.526245142873588423e-02,3.642452295192345757e-02
1.122000000000000108e+00,-6.523881885061570685e-02,9.443905167462132710e-02,6.571507140562930088e-03
1.122999999999999998e+00,-4.868470847970540055e-02,2.492219314150818932e-02,2.690158511010380324e-02
1.124000000000000110e+00,-5.291494309215054315e-02,3.045292905696305591e-02,1.362759411545755306e-02
1.125000000000000000e+00,-2.192628673384081073e-02,5.568249031909361380e-02,-8.098513266142590497e-03
1.125999999999999890e+00,1.659994162072307017e-02,4.784176053460766423e-03,-1.277722814078619158e-02
1.127000000000000002e+00,8.552211946166720161e-03,-8.241062646087819049e-03,-5.646714411860191511e-03
1.127999999999999892e+00,1.532250104224767637e-02,1.215037689508007349e-02,-3.968510973992604024e-02
1.129000000000000004e+00,3.225555226696977251e-02,-3.029715152010313203e-02,-2.210204423011515040e-02
1.129999999999999893e+00,3.317844170687321570e-02,-5.633036789899320551e-02,-9.026249176637486660e-02
1.131000000000000005e+00,6.717317007068596135e-02,-4.486082314556993911e-02,-1.453647802588825880e-02
1.131999999999999895e+00,9.795110863470653240e-02,-3.554870056821029384e-02,-4.990200237797423610e-02
1.133000000000000007e+00,7.117331527773824995e-02,-5.133179945867265975e-02,-1.451792855876690887e-02
1.133999999999999897e+00,6.329120375401900422e-02,-7.118305656727906550e-02,-4.373348046159150626e-02
1.135000000000000009e+00,4.201451593951720243e-02,-3.980604459657250543e-02,-7.391790062836126572e-03
1.135999999999999899e+00,6.672146576574333743e-02,-4.227043408250370782e-02,-1.671771080106668889e-02
1.137000000000000011e+00,5.753641760158131196e-02,-2.821635938114214551e-02,-5.962231060931423229e-03
1.137999999999999901e+00,7.057598717071117411e-02,-1.587900106667755259e-02,-8.474363671133845061e-03
1.139000000000000012e+00,2.872849398339676411e-02,-1.776683900706108737e-02,-2.410257411485287535e-02
1.139999999999999902e+00,-4.260870272441052292e-03,-1.226034696717708157e-02,3.368824734493773565e-02
1.141000000000000014e+00,-2.393192267698869211e-02,-1.541109810922246769e-02,1.996714409811920637e-02
1.141999999999999904e+00,-5.696130378422153279e-02,1.277496028310460933e-02,1.264149513865575614e-02
1.143000000000000016e+00,-3.520293687908779279e-02,5.386930051638484651e-02,1.232580063269413106e-02
1.143999999999999906e+00,-3.739551954086564600e-02,-2.267465432905767415e-03,2.633992659739120210e-02
1.145000000000000018e+00,-7.467334629935454271e-02,5.913564444314929613e-02,2.094212556006478168e-02
1.145999999999999908e+00,-6.967841950592994216e-02,7.039936214015762861e-02,2.188333636734390505e-02
1.147000000000000020e+00,-5.792704847472988222e-02,5.310578646263443281e-02,3.984103713663443569e-02
1.147999999999999909e+00,-7.291532212783538580e-02,6.370153355070920509e-02,1.615330472674025158e-02
1.149000000000000021e+00,-4.031503196577145010e-02,7.537737561529610220e-02,2.151601111494739343e-02
1.149999999999999911e+00,-7.742802123958764104e-02,4.417041108745520250e-02,1.828309652199464758e-02
1.151000000000000023e+00,-4.097774141644664608e-02,2.075565604435280001e-02,7.887613835581513619e-03
1.151999999999999913e+00,-3.145406548605563651e-02,3.928018884856492726e-02,4.982193761539010883e-03
1.153000000000000025e+00,-1.153308079312069349e-02,1.166516838099914376e-02,1.824236244132143928e-02
1.153999999999999915e+00,-6.118783628373291802e-03,1.389277069455049571e-02,-1.955324176183713056e-02
1.155000000000000027e+00,1.959189171796278314e-02,-3.189573844002046004e-03,-5.077167397586595382e-02
1.155999999999999917e+00,4.863009778916221187e-03,-2.183665355889643708e-02,-2.564010593222083162e-02
1.157000000000000028e+00,4.278856568989121423e-02,-7.082214819351229963e-03,-3.099376452720209799e-02
1.157999999999999918e+00,5.796476949609365159e-02,-2.854631132727589518e-02,-4.816924093100873050e-02
1.159000000000000030e+00,3.377521949665490686e-02,-4.391203302556903609e-02,-2.694576533908454516e-03
1.159999999999999920e+00,5.325137970728555797e-02,-4.396620921324053549e-02,-5.816674197867439250e-02
1.161000000000000032e+00,1.910693188337949169e-02,-5.455571766205863371e-02,-6.927379063656206870e-02
1.161999999999999922e+00,8.963290630574446971e-02,-4.340691743991650919e-02,-2.669552330278909119e-02
1.163000000000000034e+00,7.233073730417172165e-02,-4.249432821391019993e-02,-1.620722306173017976e-02
1.163999999999999924e+00,6.357680807409549217e-02,-5.969267666953543411e-02,1.788726836372975032e-03
1.165000000000000036e+00,7.774286045005049384e-02,-3.154166680564558095e-02,-2.919257363282012300e-03
1.165999999999999925e+00,4.279468591330044119e-02,-2.686857908940561493e-02,-4.390902638393044677e-02
1.167000000000000037e+00,3.519622759314904731e-02,-2.503451710629011479e-02,-3.705569904563318223e-02
1.167999999999999927e+00,-2.109500670706156156e-02,-1.158735272450313672e-02,1.452593776142723295e-02
1.169000000000000039e+00,-2.918320523056955676e-02,-7.270451893603464485e-03,2.560895412747409353e-02
1.169999999999999929e+00,-1.601792377279110877e-02,-1.061592061181673187e-02,1.486505753962333136e-02
1.171000000000000041e+00,-5.712236633315295742e-02,2.731827802000182104e-02,6.014923142492888813e-02
1.171999999999999931e+00,-7.820919399122541749e-02,2.179221262230468179e-02,2.882756200646500663e-02
1.173000000000000043e+00,-6.111325223511489269e-02,1.584338588550329371e-02,8.083924149353959032e-03
1.173999999999999932e+00,-8.636695057729276703e-02,3.024508171109795140e-02,3.115768051244593301e-02
1.175000000000000044e+00,-4.755960019518763043e-02,7.210107790671752004e-02,5.344531367466229255e-02
1.175999999999999934e+00,-7.773260696339419351e-02,5.354312060129036432e-02,2.354941599002293579e-02
1.177000000000000046e+00,-6.017253515517740486e-02,5.121809727527677075e-02,4.832395181359116360e-02
1.177999999999999936e+00,-6.076713482747676809e-02,6.923719327590374673e-02,-1.194547262057021192e-02
1.179000000000000048e+00,-5.803439584414881586e-02,5.632519643577546531e-02,2.203216116248648757e-02
1.179999999999999938e+00,-5.746352472211331552e-02,4.560269254091094820e-02,4.182274173534829449e-03
