time,acc_x,acc_y,acc_z
0.000000000000000000e+00,-3.006000793132014293e-01,-2.688212467308109255e-01,-1.305681624569343113e-01
1.000000000000000021e-03,-2.810926264631726790e-01,-1.540225960046351095e-01,-1.945813626286347076e-01
2.000000000000000042e-03,-8.193226212847370959e-02,2.412227624148223157e-02,-9.634574233196117887e-02
3.000000000000000062e-03,1.785237746468033293e-01,1.896877033021653891e-01,2.157483161664066479e-02
4.000000000000000083e-03,2.512616824793513226e-01,2.015799908126321427e-01,1.303739678257752888e-01
5.000000000000000104e-03,2.340341348170320301e-01,1.064738679869078469e-01,1.947457712552498887e-01
6.000000000000000125e-03,2.327642891696905456e-02,-7.972577014387476069e-02,7.849197375015813660e-02
7.000000000000000146e-03,-2.150018198615425702e-01,-2.318334837155789085e-01,-9.507711467453028309e-02
8.000000000000000167e-03,-2.853511145039725472e-01,-2.274735647989470921e-01,-1.993677785124338131e-01
8.999999999999999320e-03,-1.676866019366149985e-01,-4.761907835826277580e-02,-1.812452134025139272e-01
1.000000000000000021e-02,-2.053790402481167274e-02,1.152620504039828936e-01,-8.098965708561955967e-02
1.099999999999999936e-02,2.376353642966307078e-01,2.696660360593195471e-01,8.518422958436429326e-02
1.200000000000000025e-02,2.964922420550952786e-01,1.830114505881078046e-01,1.832903835619758559e-01
1.299999999999999940e-02,1.820594467859432686e-01,2.337204749521272149e-02,1.584743255623885516e-01
1.400000000000000029e-02,-5.223576084759686683e-02,-1.395238123852207413e-01,6.443361880814656162e-02
1.499999999999999944e-02,-2.592741184875665406e-01,-2.416307804636119161e-01,-7.002993168842495952e-02
1.600000000000000033e-02,-3.037604033714019214e-01,-1.644582151368846057e-01,-2.076018057753547807e-01
1.700000000000000122e-02,-9.581161112613732767e-02,1.969275279019480282e-02,-1.353901259436532389e-01
1.799999999999999864e-02,9.085002114497019166e-02,2.237816609846632332e-01,-2.250097668130172576e-02
1.899999999999999953e-02,2.653766625921318845e-01,2.315228460915552955e-01,1.040911079437574771e-01
2.000000000000000042e-02,2.466529717414847056e-01,1.462135191409369983e-01,1.800220870060887102e-01
2.100000000000000130e-02,5.877279871533738070e-02,-9.931133242056525146e-02,1.488670792091385808e-01
2.199999999999999872e-02,-1.456926985819903819e-01,-1.923553558832511723e-01,3.537471696261462045e-02
2.299999999999999961e-02,-3.144043776949619340e-01,-1.948128617169195831e-01,-8.155058804009815421e-02
2.400000000000000050e-02,-2.568091166386998747e-01,-7.818299469865297446e-02,-1.732511400956979752e-01
2.500000000000000139e-02,1.285303836972855052e-02,1.211859278966707226e-01,-1.492202611313406257e-01
2.599999999999999881e-02,2.078272482790728404e-01,2.452392782635479107e-01,6.401912178442443167e-03
2.699999999999999969e-02,3.023991363837342794e-01,1.825383106090888996e-01,1.567045987872613400e-01
2.800000000000000058e-02,1.969049943949418569e-01,5.946287374871387157e-03,1.898640482814139274e-01
2.900000000000000147e-02,-3.054578510769731178e-02,-1.700940203122204286e-01,1.367380932181525566e-01
2.999999999999999889e-02,-2.549360992738183840e-01,-2.553131887469995420e-01,-1.020476227114566119e-04
3.099999999999999978e-02,-2.818999506286648526e-01,-1.867677373860889833e-01,-1.227153129396181819e-01
3.200000000000000067e-02,-1.272216521325274796e-01,3.862183098795007874e-02,-1.836413072200663021e-01
3.300000000000000155e-02,2.898073121641415312e-02,1.973407971985371434e-01,-3.788422095067926765e-02
3.400000000000000244e-02,2.712055203015379390e-01,2.176992815442629625e-01,5.246427704475055409e-02
3.500000000000000333e-02,2.972310366212067012e-01,1.104604129078246011e-01,1.896357653099762786e-01
3.599999999999999728e-02,1.485620920734276318e-01,-9.752391965845717825e-02,1.842055180314252916e-01
3.699999999999999817e-02,-1.008721250979861955e-01,-2.387365127581454749e-01,7.239015190842085223e-02
3.799999999999999906e-02,-2.671054322823380733e-01,-2.170811812395384566e-01,-5.320098633680797606e-02
3.899999999999999994e-02,-2.814582771696986230e-01,-8.454838575391222799e-02,-1.953550123210912870e-01
4.000000000000000083e-02,-8.188197919597074714e-02,1.100754868490569777e-01,-1.636312304034573673e-01
4.100000000000000172e-02,1.759135818920502803e-01,2.288049851396401491e-01,-2.970167787867974626e-02
4.200000000000000261e-02,3.144718612415549064e-01,2.036266287269747066e-01,7.931399685342815919e-02
4.299999999999999656e-02,2.357741279086875696e-01,2.575408845601085892e-02,1.736508461811337167e-01
4.399999999999999745e-02,3.205995725221635895e-02,-1.695241432445855345e-01,1.220465218712501743e-01
4.499999999999999833e-02,-1.981495911409939248e-01,-2.354376589396126040e-01,-3.185489282685713495e-03
4.599999999999999922e-02,-2.860186077869927845e-01,-1.600869995273320467e-01,-1.223688486594551733e-01
4.700000000000000011e-02,-1.955050348705659191e-01,2.739135536263974380e-02,-1.937859853570086111e-01
4.800000000000000100e-02,3.638074646249198768e-02,1.830816965109771655e-01,-1.347842822017405739e-01
4.900000000000000189e-02,2.590059460635409927e-01,2.579806555763463072e-01,4.399006807895705640e-03
5.000000000000000278e-02,2.962319416332948596e-01,1.144641170510755229e-01,1.271379472216062623e-01
5.099999999999999672e-02,1.363059776262728895e-01,-8.748842363400202715e-02,1.540255726574230877e-01
5.199999999999999761e-02,-3.098757819842014663e-02,-2.457562457989089233e-01,1.045831519143396171e-01
5.299999999999999850e-02,-2.703833667025329901e-01,-2.184767222695463418e-01,5.151726994585825725e-04
5.399999999999999939e-02,-2.683123904234420154e-01,-1.050024049426964284e-01,-1.494561681705381118e-01
5.500000000000000028e-02,-1.192029459218135745e-01,9.083736242361277469e-02,-1.657324662557061734e-01
5.600000000000000117e-02,9.583908274133620675e-02,2.414699633695759629e-01,-5.456843839671244450e-02
5.700000000000000205e-02,2.724082049039421305e-01,2.259217740987669587e-01,2.949323487385508216e-02
5.800000000000000294e-02,2.904091903796955365e-01,3.677537687955805684e-02,1.666770270960093447e-01
5.899999999999999689e-02,9.094226463030644081e-02,-1.826569667629969196e-01,1.455266664306767155e-01
5.999999999999999778e-02,-1.522118694820533413e-01,-2.552694167242777201e-01,7.922023973736083691e-02
6.099999999999999867e-02,-3.167627826355317588e-01,-1.683404169836841269e-01,-4.835596749193562388e-02
6.199999999999999956e-02,-2.618169238146025868e-01,-1.061629758597420863e-02,-1.721820924968877620e-01
6.300000000000000044e-02,-5.068945330453718257e-02,1.593879825384751370e-01,-1.505314056237446463e-01
6.400000000000000133e-02,2.009446847308113404e-01,1.996975933806839631e-01,-5.723069924716557566e-02
6.500000000000000222e-02,2.961258685935881374e-01,9.753111431838414058e-02,1.296937002076575529e-01
6.600000000000000311e-02,2.512685323866007958e-01,-5.074088332733785178e-02,2.089094578170557215e-01
6.700000000000000400e-02,1.250826237391594251e-02,-1.931383681142737063e-01,1.557855081378539674e-01
6.800000000000000488e-02,-2.327791818458009310e-01,-2.459236228983467665e-01,6.599850265525826487e-02
6.900000000000000577e-02,-3.097630072645479182e-01,-1.059498824380764453e-01,-1.235793974757403574e-01
7.000000000000000666e-02,-1.920076494159437264e-01,7.007721473164665871e-02,-2.004142696593199380e-01
7.099999999999999367e-02,6.707780251929923443e-02,2.228169159328078630e-01,-1.196745306148772059e-01
7.199999999999999456e-02,2.262441332977936370e-01,2.655897310119947896e-01,6.459903473515638504e-03
7.299999999999999545e-02,2.886776832720270303e-01,4.609392863721629985e-02,9.921630552062894737e-02
7.399999999999999634e-02,1.285311630421840656e-01,-1.181789775055603620e-01,1.753535030819425300e-01
7.499999999999999722e-02,-9.064625425054560759e-02,-2.320223772321306499e-01,1.403771989015617228e-01
7.599999999999999811e-02,-2.996466277609663997e-01,-1.882532605875717191e-01,3.793042633372022826e-02
7.699999999999999900e-02,-2.718918289803703425e-01,9.892427171488761203e-03,-1.360293956422159445e-01
7.799999999999999989e-02,-1.217810346354415291e-01,1.867972664600280885e-01,-1.941852029735783303e-01
7.900000000000000078e-02,1.244564520396823359e-01,2.424492201650471634e-01,-9.362545680479114618e-02
8.000000000000000167e-02,2.682483002327955557e-01,1.506541191214834097e-01,7.025908611497898304e-02
8.100000000000000255e-02,2.490746730770308781e-01,-3.513748932496604804e-02,1.400428574319649289e-01
8.200000000000000344e-02,6.027428303570202955e-02,-2.027835447501551425e-01,1.603664048644951323e-01
8.300000000000000433e-02,-2.140315549076779733e-01,-2.529958907716089445e-01,7.922210001751574249e-02
8.400000000000000522e-02,-3.079769761712329301e-01,-1.226241129542839786e-01,-6.254945433297456892e-02
8.500000000000000611e-02,-1.996757486776894186e-01,7.015206165246797021e-02,-1.687530735699581119e-01
8.599999999999999312e-02,1.078178300723468472e-02,1.965237216894771544e-01,-1.669712946985587865e-01
8.699999999999999400e-02,1.834031593510924429e-01,2.047697958593034662e-01,-6.999037145868385046e-02
8.799999999999999489e-02,2.728167231153762473e-01,8.160992402458688844e-02,7.903370696867076384e-02
8.899999999999999578e-02,1.648310184630462638e-01,-1.160143066306828369e-01,1.703960030499561962e-01
8.999999999999999667e-02,-3.487380402537267055e-02,-2.493428366808543295e-01,1.726425303202165640e-01
9.099999999999999756e-02,-2.219096450836697265e-01,-2.181014047136142220e-01,3.740723576275155338e-02
9.199999999999999845e-02,-2.717383227798502165e-01,-5.825155423905911678e-02,-1.467430282097800798e-01
9.299999999999999933e-02,-1.277173643186111374e-01,1.558102891320024552e-01,-1.825829877601686524e-01
9.400000000000000022e-02,1.257315080529910201e-01,2.181871162805693598e-01,-1.172624632475732925e-01
9.500000000000000111e-02,2.770287952132454157e-01,1.366247222366412661e-01,2.002505284223242074e-02
9.600000000000000200e-02,2.790261757439922996e-01,-6.183675211364208710e-03,1.213902799607384786e-01
9.700000000000000289e-02,1.282538044979109060e-01,-1.709115064691769381e-01,1.917513977470701736e-01
9.800000000000000377e-02,-1.300599787546115882e-01,-2.478037818695349725e-01,9.017247827850743969e-02
9.900000000000000466e-02,-3.307096204825902275e-01,-1.212748341253829382e-01,-5.043793712599518170e-02
1.000000000000000056e-01,-2.709223885457581193e-01,8.426244375053471014e-02,-1.455919662598835485e-01
1.010000000000000064e-01,-8.596233679185982801e-02,2.252163421200654991e-01,-1.918693004748001918e-01
1.019999999999999934e-01,1.816363715394908041e-01,2.280215656778780686e-01,-1.460205593370921817e-01
1.029999999999999943e-01,3.098365172052813810e-01,1.084609718255135080e-01,6.550752477700587384e-02
1.039999999999999952e-01,2.275466256015148125e-01,-1.357825960761674666e-01,1.463430325296745105e-01
1.049999999999999961e-01,-2.469443062899059557e-02,-2.338906416070150318e-01,1.628374305545690626e-01
1.059999999999999970e-01,-2.142519037640128465e-01,-2.055801864336712637e-01,1.067535552709195923e-01
1.069999999999999979e-01,-3.145221586834376359e-01,-4.102102370352524868e-02,-5.322204389628799187e-02
1.079999999999999988e-01,-1.777310960097385484e-01,1.617301023985844577e-01,-1.822761288252312817e-01
1.089999999999999997e-01,6.353204482599840441e-02,2.650221726982053827e-01,-1.678699491937014343e-01
1.100000000000000006e-01,2.768907874012655479e-01,1.795864792181160741e-01,-2.810282954723816035e-02
1.110000000000000014e-01,2.964028496430804460e-01,7.190958933713208212e-03,7.768052294563190796e-02
1.120000000000000023e-01,1.368129915234349847e-01,-1.743062290674972092e-01,1.756081956588112225e-01
1.130000000000000032e-01,-6.173185044309700137e-02,-2.228690347209384137e-01,1.397499777286284051e-01
1.140000000000000041e-01,-2.732919791146470878e-01,-1.549926187786378751e-01,5.358284832976850653e-02
1.150000000000000050e-01,-2.806222980073436180e-01,6.899494626058233493e-02,-7.980713463584310219e-02
1.160000000000000059e-01,-1.024377175326923045e-01,2.120638970949342561e-01,-1.896600502173450831e-01
1.170000000000000068e-01,1.178541326890307772e-01,2.114801924536569011e-01,-1.323018608452834477e-01
1.179999999999999938e-01,2.794425072032971080e-01,8.427268170892554533e-02,-3.182177919366614011e-02
1.189999999999999947e-01,2.569833910839037228e-01,-7.647670977913424706e-02,9.964115759107264325e-02
1.199999999999999956e-01,3.960794057803043722e-02,-2.308983752150944591e-01,1.279447249266369713e-01
1.209999999999999964e-01,-1.423526984422305020e-01,-1.761938927046586834e-01,1.041487233207469970e-01
1.219999999999999973e-01,-3.101834386523450449e-01,-8.396706154451151483e-02,-2.262884168798339618e-02
1.229999999999999982e-01,-2.116088160271963337e-01,1.611362647772860424e-01,-1.186314130922929005e-01
1.239999999999999991e-01,-1.187773933203985048e-02,2.720797041113534043e-01,-1.840190268647135530e-01
1.250000000000000000e-01,2.301588381404355288e-01,1.830710020411913663e-01,-1.068459525603044913e-01
1.260000000000000009e-01,3.163241873023710515e-01,-2.798560264050366057e-03,3.747592041863495593e-02
1.270000000000000018e-01,2.148942961386658967e-01,-1.572776344658222691e-01,1.381948322760171155e-01
1.280000000000000027e-01,-5.005995448501639883e-02,-2.673315192419709607e-01,1.610004830928934982e-01
1.290000000000000036e-01,-2.435291801988231086e-01,-1.753925053868959083e-01,6.815845816855013728e-02
1.300000000000000044e-01,-2.947404093481848508e-01,4.156660604087263067e-02,-2.045523446625174130e-02
1.310000000000000053e-01,-1.296062929656109086e-01,1.614197311843414417e-01,-1.617873081446219163e-01
1.320000000000000062e-01,7.281732599312278065e-02,2.003467783329040408e-01,-1.725509596818929070e-01
1.330000000000000071e-01,2.588226107334110626e-01,1.075083781781360631e-01,-9.582852633184341107e-02
1.340000000000000080e-01,2.519858312205677797e-01,-8.321316195260462789e-02,7.052820475251718457e-02
1.350000000000000089e-01,9.880708957676986870e-02,-1.933219553920313138e-01,1.732562605151860835e-01
1.360000000000000098e-01,-1.073372623272791926e-01,-2.078820205179204295e-01,1.383084322675907085e-01
1.370000000000000107e-01,-2.971224484846085589e-01,-8.654238255387915191e-02,8.958513924338749879e-02
1.380000000000000115e-01,-2.573560829097805147e-01,1.187876648899036242e-01,-1.087901968536369168e-01
1.390000000000000124e-01,-4.862012450163406829e-02,2.277988578444653800e-01,-1.785131790792522377e-01
1.400000000000000133e-01,1.910485127857816934e-01,1.796169371150847793e-01,-1.230467334373007704e-01
1.409999999999999865e-01,2.515012273404785281e-01,-2.501200207649535885e-03,-4.078649900656667465e-02
1.419999999999999873e-01,2.625244072304266374e-01,-1.695324705291664236e-01,9.039567346546982518e-02
1.429999999999999882e-01,1.366500469425243128e-02,-2.269689344977152412e-01,1.582924169823793636e-01
1.439999999999999891e-01,-1.993558009397546071e-01,-1.875308923191778276e-01,1.303593661429190698e-01
1.449999999999999900e-01,-3.196367008507459695e-01,-1.605983643121682014e-02,-1.803593455965912112e-02
1.459999999999999909e-01,-1.869808302490583163e-01,1.857370231826167284e-01,-1.232065146501260117e-01
1.469999999999999918e-01,3.866940483221736197e-02,2.265469660671099450e-01,-1.511307050298034416e-01
1.479999999999999927e-01,2.140405733911379949e-01,1.088724624184752021e-01,-1.098676070475193695e-01
1.489999999999999936e-01,2.812408803714732675e-01,-9.472435511404636577e-02,3.363369078522706734e-03
1.499999999999999944e-01,1.791511271450181575e-01,-2.387423331527326054e-01,1.441799819399491034e-01
1.509999999999999953e-01,-1.047843715293569622e-01,-2.146279306886077209e-01,1.910943635737011037e-01
1.519999999999999962e-01,-2.734694196350530571e-01,-5.450222791348680040e-02,1.098700587725687794e-01
1.529999999999999971e-01,-2.783636539584983249e-01,9.708229660754304213e-02,-7.638371553701063521e-02
1.539999999999999980e-01,-1.063296956464080817e-01,2.093784847897118551e-01,-1.519127284789299759e-01
1.549999999999999989e-01,1.364581196441279343e-01,1.851423229378588442e-01,-1.932557519355346254e-01
1.559999999999999998e-01,2.797856612408866628e-01,1.985114200118674038e-02,-8.031930640781793918e-02
1.570000000000000007e-01,2.702468494102974184e-01,-1.439414714826602881e-01,6.444506234403141187e-02
1.580000000000000016e-01,6.130750775999382896e-02,-2.380130479674777977e-01,1.829510885117233976e-01
1.590000000000000024e-01,-1.607431124467995909e-01,-1.770160785113387425e-01,1.598837499995763856e-01
1.600000000000000033e-01,-3.244576340608357201e-01,2.972790133857784040e-02,4.647940141847065054e-02
1.610000000000000042e-01,-2.343881311106257581e-01,2.321312132893402769e-01,-1.081697889350268504e-01
1.620000000000000051e-01,-3.162868938374247679e-02,2.373279514660797673e-01,-1.691491251227608406e-01
1.630000000000000060e-01,2.260114683058151719e-01,1.820336829516704669e-01,-1.704642970745382236e-01
1.640000000000000069e-01,2.771153751297788514e-01,-7.128544751383340816e-02,-2.630436285465238486e-02
1.650000000000000078e-01,1.919818052176747170e-01,-1.795446013132219465e-01,1.399761079223348081e-01
1.660000000000000087e-01,-3.866037880666124693e-02,-2.158307887568158556e-01,1.734511002828783288e-01
1.670000000000000095e-01,-2.598862846314878849e-01,-5.991566090580188741e-02,1.470959356439327792e-01
1.680000000000000104e-01,-3.133307844209771709e-01,1.035156313922595273e-01,-7.367020401015881258e-03
1.690000000000000113e-01,-1.503506602536688608e-01,2.023713463384379241e-01,-1.092913433045995947e-01
1.700000000000000122e-01,8.420336506133473120e-02,2.004518634814724254e-01,-1.556560867218045874e-01
1.710000000000000131e-01,2.700085646596308564e-01,1.822144779942432707e-02,-8.865765664731212192e-02
1.719999999999999862e-01,2.703319008975501037e-01,-1.479983633680155841e-01,5.186091780582167965e-02
1.729999999999999871e-01,1.267322182436183831e-01,-2.574780029760856959e-01,1.559685483879429402e-01
1.739999999999999880e-01,-1.108544480444944996e-01,-1.440223310671591705e-01,1.739682101471659581e-01
1.749999999999999889e-01,-2.677787989968749005e-01,6.652973567409209421e-03,6.848432552469604917e-02
1.759999999999999898e-01,-2.496539577009520838e-01,1.594008687505221455e-01,-5.658244297925114907e-02
1.769999999999999907e-01,-5.108197573325896912e-02,2.521383563803338834e-01,-1.211427439350870744e-01
1.779999999999999916e-01,1.960558035343815952e-01,1.090513682102272480e-01,-1.764068753865278005e-01
1.789999999999999925e-01,3.105324368970750482e-01,-3.859084289770721432e-02,-9.190206538038306339e-02
1.799999999999999933e-01,2.492068941796357073e-01,-2.005568172864829191e-01,5.887265801228332152e-02
1.809999999999999942e-01,1.442815884130572122e-02,-2.850692010661003972e-01,2.012758507507975136e-01
1.819999999999999951e-01,-2.034201993485494631e-01,-1.009392725469234336e-01,1.605901781506047232e-01
1.829999999999999960e-01,-2.925118950840699950e-01,1.070530896475802157e-01,4.225948628679559310e-02
1.839999999999999969e-01,-2.181283165827770376e-01,2.415320765034257577e-01,-4.489072678252090109e-02
1.849999999999999978e-01,1.366200530643386056e-02,2.368920380336200227e-01,-2.236185815125980580e-01
1.859999999999999987e-01,2.435702458422754901e-01,8.574544306426169771e-02,-1.441957097364910123e-01
1.869999999999999996e-01,2.932801832964875288e-01,-1.190547408761724879e-01,-6.004020010097196880e-02
1.880000000000000004e-01,1.169427739706896952e-01,-2.449106705518664107e-01,9.470539074302600224e-02
1.890000000000000013e-01,-5.253137944301283085e-02,-1.875535811571355238e-01,1.805927459502170984e-01
1.900000000000000022e-01,-2.547364992799934780e-01,-5.203125484492222667e-03,1.235443794715152532e-01
1.910000000000000031e-01,-2.762104481844561699e-01,1.762662885506413590e-01,-1.701795637872926051e-02
1.920000000000000040e-01,-1.661176015656483096e-01,2.403287103392020563e-01,-1.332278503100239320e-01
1.930000000000000049e-01,1.455644067642140882e-01,1.401853065271385923e-01,-1.968232315487623008e-01
1.940000000000000058e-01,2.963379872856152231e-01,-7.590652810952942808e-02,-1.094009161830155757e-01
1.950000000000000067e-01,2.715476701623350531e-01,-2.054802542895176887e-01,-9.870386262943672134e-03
1.960000000000000075e-01,4.524648323738946626e-02,-2.508522533112628183e-01,1.220052293677537508e-01
1.970000000000000084e-01,-1.932855498543470940e-01,-8.031378049525686458e-02,2.229880347917305161e-01
1.980000000000000093e-01,-3.118798697368108108e-01,1.145317680545787364e-01,9.825432756563079462e-02
1.990000000000000102e-01,-2.284246917589637382e-01,2.662789186682144593e-01,-2.441124515906167858e-02
2.000000000000000111e-01,-3.940430290129769142e-03,2.060829710003908855e-01,-1.757730012304079548e-01
2.010000000000000120e-01,2.143944890139579396e-01,8.458688212473199075e-02,-2.207824707505732231e-01
2.020000000000000129e-01,2.811712630242561017e-01,-1.108773929134049402e-01,-1.065056355492497442e-01
2.030000000000000138e-01,2.106144192338668952e-01,-2.189370064105760350e-01,6.637707530490005725e-02
2.039999999999999869e-01,-4.176042322717446464e-02,-2.089273884810590176e-01,1.583349424726035737e-01
2.049999999999999878e-01,-2.306720113447714438e-01,-6.525385398482928812e-02,1.777124243641824419e-01
2.059999999999999887e-01,-3.224940524061656322e-01,1.351442092684847218e-01,5.926925745993491534e-02
2.069999999999999896e-01,-1.600304835827832672e-01,2.336650047695133514e-01,-8.896741664523934168e-02
2.079999999999999905e-01,8.339594395264782190e-02,1.424544121157124976e-01,-1.719886038416715002e-01
2.089999999999999913e-01,2.584455705371323520e-01,-1.481646789342158307e-02,-1.708572273104641270e-01
2.099999999999999922e-01,2.692030197833098493e-01,-1.507557062310361518e-01,-2.330220602890313575e-02
2.109999999999999931e-01,1.117054163219330654e-01,-2.329887746995855102e-01,7.930802691957716810e-02
2.119999999999999940e-01,-9.972424418858037709e-02,-9.312560874087742746e-02,1.706306646512270320e-01
2.129999999999999949e-01,-2.443865015434603938e-01,8.744840404486048380e-02,1.238426178893532181e-01
2.139999999999999958e-01,-2.705883386965826087e-01,2.350960764465461761e-01,3.629276624638753251e-02
2.149999999999999967e-01,-8.703997180815201129e-02,2.355265963092053327e-01,-1.040033842801267316e-01
2.159999999999999976e-01,1.849859228498200447e-01,8.025004981453776054e-02,-1.773228253718173442e-01
2.169999999999999984e-01,2.989316697779182408e-01,-1.139843798348800785e-01,-1.260659903575555296e-01
2.179999999999999993e-01,2.120580390231745216e-01,-2.571325176916645083e-01,-5.002024884279319787e-03
2.190000000000000002e-01,1.693699911356835730e-02,-2.220775121598630442e-01,1.214424394602742763e-01
2.200000000000000011e-01,-2.170145888533564771e-01,-3.950080781519801909e-02,2.063882555558866072e-01
2.210000000000000020e-01,-2.912695936202795988e-01,1.937129615877566935e-01,8.967474136898928583e-02
2.220000000000000029e-01,-2.076194606813001053e-01,2.236678541581338386e-01,-1.321496847817698640e-02
2.230000000000000038e-01,-9.456546094796155003e-03,1.630398075688091752e-01,-1.549395982341439104e-01
2.240000000000000047e-01,2.552080913992689770e-01,-2.706191215682121620e-02,-2.042229263370266279e-01
2.250000000000000056e-01,2.891137386165004153e-01,-1.782176619996592715e-01,-1.049697241808241338e-01
2.260000000000000064e-01,1.750970700924947554e-01,-2.123045979512597770e-01,6.218567530456809572e-02
2.270000000000000073e-01,-5.991783642269876003e-02,-1.638866475437444625e-01,1.490388193258757876e-01
2.280000000000000082e-01,-2.877943214052240406e-01,5.963351054991881256e-02,1.624854854437673413e-01
2.290000000000000091e-01,-2.552591332185902839e-01,2.527089566852451785e-01,1.143820370518277008e-01
2.300000000000000100e-01,-1.587274590924196704e-01,2.285836046606741223e-01,-7.999386191471391516e-02
2.310000000000000109e-01,1.109333895434129330e-01,1.145859964301181450e-01,-1.813144796598939179e-01
2.320000000000000118e-01,2.815045400272555010e-01,-7.252510860794353365e-02,-1.728784908435037626e-01
2.330000000000000127e-01,2.612550151718011637e-01,-2.169044259089967230e-01,-5.252655499139213813e-02
2.340000000000000135e-01,7.459829796453715245e-02,-1.932759198434365333e-01,1.151502338573846262e-01
2.349999999999999867e-01,-1.600951361027621311e-01,-8.023864531618554730e-02,1.538852882054415616e-01
2.359999999999999876e-01,-2.961398947131556603e-01,1.617542464701714477e-01,1.700050685901000891e-01
2.369999999999999885e-01,-2.574452376825112077e-01,2.401891401898276490e-01,4.385804601828752723e-03
2.379999999999999893e-01,-5.684025115807632422e-02,1.392963039620618848e-01,-8.679570742904350877e-02
2.389999999999999902e-01,2.092735169035699339e-01,-2.814641985008392924e-02,-1.995215606667047059e-01
2.399999999999999911e-01,2.726410713271794628e-01,-2.012642055412088571e-01,-1.235572213770824018e-01
2.409999999999999920e-01,2.017701758360590514e-01,-2.396242218314942329e-01,-3.108405612326213454e-03
2.419999999999999929e-01,-2.654946894738292179e-02,-1.505752476238235160e-01,9.982793099750651711e-02
2.429999999999999938e-01,-2.589929400316390296e-01,4.784221528620045266e-02,1.890892166693382559e-01
2.439999999999999947e-01,-2.730714557124520048e-01,1.783751220127637593e-01,1.259805330736254725e-01
2.449999999999999956e-01,-1.828284793169273337e-01,2.229546531082264860e-01,-3.971864939102175834e-02
2.459999999999999964e-01,4.353579399550728396e-02,8.439742048435920629e-02,-1.859956120712020211e-01
2.469999999999999973e-01,2.412783517803737399e-01,-7.923821802188854568e-02,-1.945947459714328920e-01
2.479999999999999982e-01,2.991703807324769260e-01,-2.311983635387611091e-01,-1.258513962220103588e-01
2.489999999999999991e-01,1.294051255634615372e-01,-2.250856892144105503e-01,3.859549111436726826e-02
2.500000000000000000e-01,-1.235461814675278408e-01,-2.777352087504331157e-02,1.518108625512964993e-01
2.510000000000000009e-01,-2.996899556131449316e-01,1.393354171690645293e-01,1.839770742052862784e-01
2.520000000000000018e-01,-2.771827368777876610e-01,2.359401041634658358e-01,4.902121140191365717e-02
2.530000000000000027e-01,-6.925479249914973101e-02,1.771497864722897664e-01,-6.093804347438230851e-02
2.540000000000000036e-01,1.372418689879360554e-01,3.998946076287045875e-02,-1.743350841963489384e-01
2.550000000000000044e-01,2.683130313623193763e-01,-1.248089659613993846e-01,-1.810985066686226497e-01
2.560000000000000053e-01,2.421827461989732033e-01,-2.615824880270277708e-01,-4.368295694201914520e-02
2.570000000000000062e-01,8.804566680869232304e-03,-1.399570636180092476e-01,7.907826317621455270e-02
2.580000000000000071e-01,-1.895819974977032141e-01,3.729710725204039151e-02,2.128042895000188117e-01
2.590000000000000080e-01,-2.554857442691376157e-01,2.316044371735915819e-01,1.541898186029353468e-01
2.600000000000000089e-01,-1.909520715431552995e-01,2.174255277499602124e-01,5.328379840979755033e-02
2.610000000000000098e-01,3.944896340400660950e-02,8.240802906441882514e-02,-1.118708859045153825e-01
2.620000000000000107e-01,2.518331847835560411e-01,-9.661317903547278485e-02,-1.816515799107815410e-01
2.630000000000000115e-01,3.140572994858051303e-01,-2.562942434104572009e-01,-1.528280526480000900e-01
2.640000000000000124e-01,1.431434753889795630e-01,-2.423789089493159077e-01,2.330898524118037163e-02
2.650000000000000133e-01,-2.192597262813224951e-02,-4.707926090447493023e-02,1.272978547532788440e-01
2.660000000000000142e-01,-2.783774766521828758e-01,1.466480532301869533e-01,1.780893773422284332e-01
2.670000000000000151e-01,-2.620130918465207182e-01,2.467728113863500994e-01,1.594057802777501531e-01
2.680000000000000160e-01,-1.196885923551813113e-01,1.952046173224499248e-01,2.625928184777105972e-04
2.690000000000000169e-01,1.249190249585270807e-01,6.032007094236254557e-02,-1.579155026210155022e-01
2.700000000000000178e-01,2.909790098296283212e-01,-1.641654753105209474e-01,-1.945279521216664309e-01
2.710000000000000187e-01,2.886730361363114006e-01,-2.436325599950003307e-01,-1.018014596572974634e-01
2.720000000000000195e-01,7.201779042662229124e-02,-1.796929881463462109e-01,3.479584207349956798e-02
2.730000000000000204e-01,-1.534551852521227888e-01,3.183467112030808482e-02,1.111811266250434388e-01
2.740000000000000213e-01,-2.808630680891114340e-01,1.747749471524522313e-01,1.693884178359162385e-01
2.750000000000000222e-01,-2.683138580413740315e-01,2.091905229638680586e-01,9.333532492750895582e-02
2.760000000000000231e-01,-5.612651101962428529e-02,1.291413225131567144e-01,-2.714615073343278409e-02
2.770000000000000240e-01,1.726199778551356367e-01,-9.564515805950116190e-02,-1.413594257639707308e-01
2.780000000000000249e-01,2.972115520442251690e-01,-2.057626337978255004e-01,-1.912588908416685274e-01
2.790000000000000258e-01,2.177797355406033697e-01,-2.117366079639775023e-01,-1.050886497039327933e-01
2.800000000000000266e-01,-1.960918364661299457e-02,-7.989454138354397383e-02,8.183144639839171064e-02
2.810000000000000275e-01,-2.114095719707491661e-01,1.104870141896358154e-01,1.657578979172877609e-01
2.819999999999999729e-01,-3.142395450960349113e-01,2.469191878032941934e-01,1.909609442298774995e-01
2.829999999999999738e-01,-2.155254445947723529e-01,1.732717734782590890e-01,7.924189424757478728e-02
2.839999999999999747e-01,8.677327642213786274e-02,4.750119457038223109e-02,-9.916522892685102064e-02
2.849999999999999756e-01,2.449508778919995411e-01,-1.706175146196378944e-01,-1.800001969940465962e-01
2.859999999999999765e-01,2.843163436616320539e-01,-2.484940042944274174e-01,-1.457130277055787571e-01
2.869999999999999774e-01,1.534707115902055052e-01,-1.779755622100187562e-01,-2.896688178816819725e-02
2.879999999999999782e-01,-5.700193345873352108e-02,2.252487065663991671e-03,1.143104610954816941e-01
2.889999999999999791e-01,-3.116305555917448511e-01,1.831739735405591984e-01,1.925313136520334090e-01
2.899999999999999800e-01,-2.583384682519104247e-01,2.260773566562177539e-01,1.497790398476078200e-01
2.909999999999999809e-01,-4.677961888319161904e-02,1.420707211741401299e-01,9.525468526789430262e-03
2.919999999999999818e-01,1.363187512382935951e-01,-2.383783796241852743e-02,-1.335114213249117554e-01
2.929999999999999827e-01,2.847312083038937014e-01,-2.291567595311632677e-01,-1.502854918596795986e-01
2.939999999999999836e-01,2.180233443712869257e-01,-2.214009836605772830e-01,-1.198828073303252473e-01
2.949999999999999845e-01,5.565264520557614003e-02,-7.861508075499935855e-02,5.094681205918259737e-02
2.959999999999999853e-01,-1.953759063873493074e-01,1.014314638409686553e-01,1.458993200094211296e-01
2.969999999999999862e-01,-2.748108611890864861e-01,2.370735957720767895e-01,1.777644096102243276e-01
2.979999999999999871e-01,-2.029364799203842162e-01,1.924197391945711155e-01,1.344666992316940479e-01
2.989999999999999880e-01,-1.600472306276062373e-03,5.489099081595902319e-02,-5.434292783761991014e-02
2.999999999999999889e-01,2.409642675625805197e-01,-1.367362730193633358e-01,-1.500858697348861903e-01
3.009999999999999898e-01,3.157674653034057144e-01,-2.335301311839520777e-01,-1.545721522475389242e-01
3.019999999999999907e-01,1.778325253198290989e-01,-1.893740853886941577e-01,-7.214368631371188834e-02
3.029999999999999916e-01,-5.315403255349409467e-02,-3.097376760292399819e-02,4.825357180517024502e-02
3.039999999999999925e-01,-2.427898960042078058e-01,1.569784849065982424e-01,1.872290506263487031e-01
3.049999999999999933e-01,-2.808373228300507507e-01,2.262348555475100775e-01,1.588337208062091666e-01
3.059999999999999942e-01,-1.227973102262875926e-01,1.628875812666154277e-01,6.038715513856381806e-02
3.069999999999999951e-01,8.908446422751102600e-02,-4.645511316117755668e-02,-5.948713979652883038e-02
3.079999999999999960e-01,2.861233340897604838e-01,-2.279994251636807967e-01,-1.844908424994999019e-01
3.089999999999999969e-01,3.142037438230477209e-01,-1.984798363886199346e-01,-1.586976542199961260e-01
3.099999999999999978e-01,7.065010981128536094e-02,-1.178514706786101679e-01,-4.896815584517463099e-02
3.109999999999999987e-01,-1.383719507841116025e-01,1.048870941619310104e-01,1.215882472600338798e-01
3.119999999999999996e-01,-3.002990286251698837e-01,2.324728482101851013e-01,2.225304242062735027e-01
3.130000000000000004e-01,-2.154609573070923878e-01,1.982508218916489429e-01,1.198129301569073740e-01
3.140000000000000013e-01,-6.251285014226068415e-02,2.988728540765035052e-02,4.254246681477651809e-03
3.150000000000000022e-01,1.944511656086709561e-01,-1.507713372197798107e-01,-1.359402650075545449e-01
3.160000000000000031e-01,3.220798958176924187e-01,-2.063231112279806934e-01,-1.764181851113174049e-01
3.170000000000000040e-01,1.961495572162079704e-01,-1.864454640781284811e-01,-1.165435315917605769e-01
3.180000000000000049e-01,-2.016726888193448933e-02,1.218759433384353566e-02,5.711379014272798676e-02
3.190000000000000058e-01,-2.508851488000065633e-01,1.201121196700185995e-01,1.701642007079203767e-01
3.200000000000000067e-01,-2.866605551402213181e-01,2.393916500409336012e-01,1.942467495764739760e-01
3.210000000000000075e-01,-1.871343746927754403e-01,1.792850531367550238e-01,9.093796759079138259e-02
3.220000000000000084e-01,4.563544641230562332e-02,-5.723556079905621485e-03,-6.696340703838010722e-02
3.230000000000000093e-01,2.653344032160852572e-01,-1.918000757773429543e-01,-1.619853938880314870e-01
3.240000000000000102e-01,2.843959745030206765e-01,-2.322732180553040426e-01,-2.017701514481642644e-01
3.250000000000000111e-01,1.546528963465282069e-01,-1.568050890196533709e-01,-8.332512238399336635e-02
3.260000000000000120e-01,-8.932922945846372142e-02,6.942407481705691052e-02,8.800626742758752008e-02
3.270000000000000129e-01,-2.557056729170104070e-01,2.554054411088754750e-01,1.550641074034871114e-01
3.280000000000000138e-01,-2.781316771377053132e-01,1.858679065672793063e-01,1.650656559570312931e-01
3.290000000000000147e-01,-4.829412740364680962e-02,7.394897874629280388e-02,5.383613293276148098e-02
3.300000000000000155e-01,1.561472162823246412e-01,-8.970548451994020400e-02,-7.930094112247096372e-02
3.310000000000000164e-01,3.004975104554603038e-01,-2.420329451770844298e-01,-1.853074601344797678e-01
3.320000000000000173e-01,2.540987260534637859e-01,-2.110249274905652006e-01,-1.465338817455278109e-01
3.330000000000000182e-01,2.213380520805352872e-02,-2.888519537096278459e-03,-7.144467251735256430e-02
3.340000000000000191e-01,-1.556657440476185150e-01,1.607275440442176573e-01,1.272382021855384682e-01
3.350000000000000200e-01,-2.599793914257910732e-01,2.377131812963337310e-01,1.950139220055547018e-01
3.360000000000000209e-01,-2.390712762363627342e-01,1.915341076180879787e-01,1.257386254473173426e-01
3.370000000000000218e-01,-1.606015470964530789e-02,-3.656703817297610182e-02,2.656879599245720938e-02
3.380000000000000226e-01,2.268878884640244953e-01,-1.447066793403478657e-01,-1.083165190670858091e-01
3.390000000000000235e-01,3.107701239792364234e-01,-2.463441462722343600e-01,-1.831034867154601176e-01
3.400000000000000244e-01,1.868779138117897531e-01,-1.301532268312881879e-01,-1.418315234118928958e-01
3.410000000000000253e-01,-3.749708011287979786e-02,8.433152781287431288e-02,1.718754983433928851e-02
3.420000000000000262e-01,-2.657814048729277845e-01,2.320194804705803804e-01,1.209183603110048633e-01
3.430000000000000271e-01,-3.078429788746810392e-01,2.452366780758048759e-01,1.793702372094763964e-01
3.439999999999999725e-01,-1.143720886994174651e-01,7.184152284089879992e-02,8.325361008408027619e-02
3.449999999999999734e-01,9.791234179618150957e-02,-1.326406181703626286e-01,-7.473242582361783182e-02
3.459999999999999742e-01,2.798061894286081319e-01,-2.004538951243738376e-01,-1.548133935846593423e-01
3.469999999999999751e-01,2.928271159776242860e-01,-2.214813916374938907e-01,-1.730571438598443867e-01
3.479999999999999760e-01,7.960884333959934722e-02,-6.367829376987732548e-02,-1.001326234348774574e-01
3.489999999999999769e-01,-1.458074045474987979e-01,1.764595746223636130e-01,7.017747371609450724e-02
3.499999999999999778e-01,-2.679001124664008304e-01,2.414839121448099368e-01,1.557983775130201975e-01
3.509999999999999787e-01,-2.637929341688436402e-01,1.646043382678384903e-01,1.683126967727938683e-01
3.519999999999999796e-01,-6.255288682374242348e-02,9.118499816137654382e-03,6.138011369566141739e-02
3.529999999999999805e-01,1.540908877070547855e-01,-1.906359179981785279e-01,-7.333038365231987765e-02
3.539999999999999813e-01,2.725771038506837884e-01,-2.402725725827295211e-01,-1.632807988642948072e-01
3.549999999999999822e-01,2.700992594127535895e-01,-1.493260033051113933e-01,-1.298411577584621113e-01
3.559999999999999831e-01,-1.732929387113383082e-02,5.822221144734607279e-02,-5.708855639994057929e-02
3.569999999999999840e-01,-1.985787746738844339e-01,2.165241364000596025e-01,5.817740163518811403e-02
3.579999999999999849e-01,-2.822005530836498854e-01,2.308509330002998794e-01,1.592309913891128692e-01
3.589999999999999858e-01,-1.793326904198922489e-01,8.602284273108899704e-02,1.229344306677628701e-01
3.599999999999999867e-01,7.081201911741799582e-02,-1.136079584644740931e-01,5.081166708357229972e-02
3.609999999999999876e-01,2.555971539569280027e-01,-2.207339057763500756e-01,-1.101576554532050362e-01
3.619999999999999885e-01,2.821177896237171967e-01,-1.950201696751830971e-01,-1.573265108473333174e-01
3.629999999999999893e-01,1.701950489045360171e-01,-1.063952590750022638e-02,-1.457939717837728466e-01
3.639999999999999902e-01,-9.659387427486026967e-02,1.321380245449987334e-01,-3.635568956129017803e-04
3.649999999999999911e-01,-2.596119398695210245e-01,2.559863828585868251e-01,1.051239750726818273e-01
3.659999999999999920e-01,-2.815288579402510094e-01,1.561222973122628477e-01,2.053310180969371845e-01
3.669999999999999929e-01,-8.946199264240714544e-02,-8.246124031212977157e-03,1.308341777811025397e-01
3.679999999999999938e-01,1.283489612792513834e-01,-1.792167684727092869e-01,-4.774318340985705261e-02
3.689999999999999947e-01,2.971734741645188915e-01,-2.516160401396135837e-01,-1.403739318156987104e-01
3.699999999999999956e-01,2.533614851194539996e-01,-1.720953774790416890e-01,-1.774451464808161627e-01
3.709999999999999964e-01,4.960354112753051492e-02,2.649748146564536583e-02,-7.764931735091450127e-02
3.719999999999999973e-01,-1.623731470110416630e-01,1.913426794856108171e-01,6.919179190278169217e-03
3.729999999999999982e-01,-2.739085420324947617e-01,2.486815965997996869e-01,1.427599731592632260e-01
3.739999999999999991e-01,-2.477496179900911810e-01,1.055515783099225668e-01,1.787670408301384739e-01
3.750000000000000000e-01,-2.100556215540976945e-03,-6.567133387553229784e-02,9.343966138004294875e-02
3.760000000000000009e-01,2.457615823470979399e-01,-1.983950960339995739e-01,-7.265378293907988339e-02
3.770000000000000018e-01,3.157062242300135990e-01,-1.798127866290599730e-01,-1.654788880128321704e-01
3.780000000000000027e-01,2.212398463513780555e-01,-6.660751363822897675e-02,-1.446230017226099729e-01
3.790000000000000036e-01,-3.865794975784988402e-02,1.237055912656633561e-01,-4.933400248969697921e-02
3.800000000000000044e-01,-2.469169049771584579e-01,2.365506943578978838e-01,9.265226705382875738e-02
3.810000000000000053e-01,-3.151931204577724244e-01,1.965240111816066171e-01,1.571210809517887830e-01
3.820000000000000062e-01,-1.748537636141359597e-01,-1.848835929157586350e-02,1.617070175868015880e-01
3.830000000000000071e-01,9.604026075916327621e-02,-1.762695321956846417e-01,5.122573766483269272e-03
3.840000000000000080e-01,2.181453568842683932e-01,-2.360315058197233196e-01,-1.387792239475771627e-01
3.850000000000000089e-01,2.962665038634522685e-01,-1.341341750197614924e-01,-1.883924462162482882e-01
3.860000000000000098e-01,1.096158849046381251e-01,4.792671894344813915e-02,-1.258932412448526827e-01
3.870000000000000107e-01,-1.206628383516630126e-01,1.736858042950760461e-01,-4.407695804912812459e-02
3.880000000000000115e-01,-2.949550276666894622e-01,2.163268628058037935e-01,1.181062700228807799e-01
3.890000000000000124e-01,-2.541547478251546255e-01,1.222638953120705335e-01,1.611654587914911618e-01
3.900000000000000133e-01,-6.368181457644007948e-02,-7.251922110341586791e-02,1.387950876946018319e-01
3.910000000000000142e-01,1.884075381138159422e-01,-1.993256869630207762e-01,-2.108155191704559617e-02
3.920000000000000151e-01,3.238414802669464243e-01,-2.609105941647962279e-01,-1.344336126262149211e-01
3.930000000000000160e-01,2.634309880945273075e-01,-8.298248638265487420e-02,-1.851389949590075135e-01
3.940000000000000169e-01,1.801505544335092746e-02,1.378864340534004806e-01,-1.085330600028662357e-01
3.950000000000000178e-01,-1.733001711631427244e-01,2.748645868687683569e-01,1.621544133565480661e-02
3.960000000000000187e-01,-3.101658710295626120e-01,1.730904707008808496e-01,1.271596908404557524e-01
3.970000000000000195e-01,-1.834346455025880895e-01,2.151513114410309388e-02,1.575255052794115596e-01
3.980000000000000204e-01,4.339865550644975145e-02,-1.603818182524415492e-01,9.999147674831096455e-02
3.990000000000000213e-01,2.068777629950636909e-01,-2.135045191941807030e-01,-5.420611707549289476e-02
4.000000000000000222e-01,3.012878572119257470e-01,-1.661741251036343292e-01,-1.400841579983573837e-01
4.010000000000000231e-01,1.262653542197148260e-01,4.697914126962418960e-03,-1.651848996032632133e-01
4.020000000000000240e-01,-1.078929828627755855e-01,1.824075668390294780e-01,-6.108784406592599608e-02
4.030000000000000249e-01,-2.388404609314196125e-01,2.145692783280805926e-01,8.317908646645226500e-02
4.040000000000000258e-01,-2.884667874425286271e-01,1.093077442709283198e-01,2.034112342767000758e-01
4.050000000000000266e-01,-1.237865444616541577e-01,-8.428650865286375915e-02,1.894644172031131613e-01
4.060000000000000275e-01,1.235681065116247535e-01,-2.402002449728861122e-01,6.354666735188280180e-02
4.069999999999999729e-01,2.643569444741971641e-01,-2.509575590814333568e-01,-9.121967049906103131e-02
4.079999999999999738e-01,2.795967889725470279e-01,-9.238696983378681671e-02,-1.767325767575955719e-01
4.089999999999999747e-01,5.682198336352679846e-02,9.699307519741988404e-02,-1.480395224475091198e-01
4.099999999999999756e-01,-1.530652380543648661e-01,2.641543367191565017e-01,-2.458546908524591318e-02
4.109999999999999765e-01,-2.939889430461071762e-01,2.193572043767252344e-01,1.046751908443015466e-01
4.119999999999999774e-01,-2.431179691554160582e-01,6.813737339390146808e-02,1.735112070218037816e-01
4.129999999999999782e-01,-4.937549531894577792e-02,-1.224640803767547692e-01,1.466985140222673012e-01
4.139999999999999791e-01,1.849977707495792101e-01,-2.160435158133481581e-01,2.345751043777734302e-02
4.149999999999999800e-01,3.137166907694393103e-01,-2.085757425455787573e-01,-1.158696152873786300e-01
4.159999999999999809e-01,1.820824696505800866e-01,-2.498605498653643300e-02,-1.891814286137169510e-01
4.169999999999999818e-01,-3.541510036423788088e-02,2.087223666357667373e-01,-9.140811346748227428e-02
4.179999999999999827e-01,-2.374097640250875385e-01,2.637168807988826136e-01,5.932349693715538441e-02
4.189999999999999836e-01,-3.375558138913298811e-01,1.238150147362698655e-01,1.403026851218780180e-01
4.199999999999999845e-01,-1.383943366742101111e-01,-6.820822625022865404e-02,1.703412986996503675e-01
4.209999999999999853e-01,6.298570661048098762e-02,-1.960860509634531901e-01,1.040929500273503755e-01
4.219999999999999862e-01,2.815161441857978453e-01,-2.063431025943582575e-01,-4.284294417244683545e-02
4.229999999999999871e-01,3.139434222999413771e-01,-7.469809995458845386e-02,-1.684646591117663905e-01
4.239999999999999880e-01,9.597715428530766146e-02,9.706262733134987664e-02,-1.778824226477275783e-01
4.249999999999999889e-01,-1.409852509682461563e-01,2.598486568550775755e-01,-6.876347789941847366e-02
4.259999999999999898e-01,-2.812972797115130263e-01,1.873768737171880583e-01,7.950691343472027217e-02
4.269999999999999907e-01,-2.776178993942219342e-01,5.289370902508203076e-02,1.505567283231889764e-01
4.279999999999999916e-01,-7.353560575215507822e-02,-1.331566924053455558e-01,1.741463055505192703e-01
4.289999999999999925e-01,1.520637620335223428e-01,-2.241916628193437455e-01,1.040915485921456831e-03
4.299999999999999933e-01,3.168883869722610158e-01,-1.982250160622680002e-01,-8.594571679779282325e-02
4.309999999999999942e-01,2.423578457499742378e-01,-5.991828683661817520e-03,-1.957362356632705580e-01
4.319999999999999951e-01,3.509788232447545731e-02,1.959512680269105689e-01,-1.533529980925241454e-01
4.329999999999999960e-01,-2.040729079791666623e-01,2.260938118323579660e-01,-2.683839761391365944e-02
4.339999999999999969e-01,-3.010899133153164264e-01,1.443934802424594321e-01,1.087602112286031458e-01
4.349999999999999978e-01,-2.417110606606940881e-01,-5.960524949339627426e-02,1.769689740804821498e-01
4.359999999999999987e-01,-1.724373534005211803e-02,-1.818138060422677116e-01,1.504534590913727266e-01
4.369999999999999996e-01,2.399893254716064517e-01,-2.760312147236873015e-01,3.175350575014496482e-03
4.380000000000000004e-01,2.934915050381178281e-01,-1.133749097279661278e-01,-1.414717851791730263e-01
4.390000000000000013e-01,1.411164959023675225e-01,5.907432373349481847e-02,-1.834617812409699011e-01
4.400000000000000022e-01,-6.657885908127697538e-02,2.258192850143674879e-01,-1.099249128750315052e-01
4.410000000000000031e-01,-2.791645291768081738e-01,2.177552069669900781e-01,4.221485527067495719e-02
4.420000000000000040e-01,-2.853456877387227086e-01,8.111467714960367281e-02,1.601807387754453915e-01
4.430000000000000049e-01,-1.292443521973604403e-01,-1.077729234633261063e-01,1.752161250916499380e-01
4.440000000000000058e-01,1.460439267568909849e-01,-2.358222455706316667e-01,1.129865523186389803e-01
4.450000000000000067e-01,2.722968995613571641e-01,-2.033765410656300232e-01,-5.072233225064116946e-02
4.460000000000000075e-01,2.664177119820509421e-01,-1.905321037847760440e-02,-1.765288894901532180e-01
4.470000000000000084e-01,8.153547554156888311e-02,1.945309254575145197e-01,-1.621521994974798320e-01
4.480000000000000093e-01,-1.722481160960714075e-01,2.418545203416918865e-01,-9.064114006784237954e-02
4.490000000000000102e-01,-2.815844564532608563e-01,1.488237287578214607e-01,7.171166328487665886e-02
4.500000000000000111e-01,-2.282340281865995468e-01,-2.923936763403735609e-02,1.557012880801621202e-01
4.510000000000000120e-01,-2.158676416831789568e-02,-1.765361471437651431e-01,2.032357369729871355e-01
4.520000000000000129e-01,2.284706166228633595e-01,-2.188404433524669956e-01,4.333510094176175331e-02
4.530000000000000138e-01,2.665297046075091325e-01,-1.322410143991276932e-01,-1.266321551403068735e-01
4.540000000000000147e-01,1.990094690951486889e-01,6.239791410689646267e-02,-1.581504235340328024e-01
4.550000000000000155e-01,-8.314876039675898542e-03,1.894750471532424263e-01,-1.599674801390367773e-01
4.560000000000000164e-01,-2.160078005244502608e-01,2.246675634961498302e-01,-4.356937328180789147e-04
4.570000000000000173e-01,-3.049729336173752081e-01,9.366331890579827901e-02,7.853938151163968040e-02
4.580000000000000182e-01,-1.868849920549111865e-01,-1.232846760450869578e-01,1.880818787869330544e-01
4.590000000000000191e-01,9.400038104222971369e-02,-2.237754000106293994e-01,1.121419182530146857e-01
4.600000000000000200e-01,2.515594606102503628e-01,-2.171166940482109620e-01,2.161148410258481589e-02
4.610000000000000209e-01,2.785168698618217253e-01,-4.881760712700091570e-02,-1.312992327735560127e-01
4.620000000000000218e-01,1.327469937405560130e-01,1.416077557831759703e-01,-1.812311467527193132e-01
4.630000000000000226e-01,-1.093885631861997582e-01,2.090374388316834364e-01,-1.483439710471193274e-01
4.640000000000000235e-01,-2.925817921699299662e-01,1.501353631705804048e-01,-8.425187813081921884e-03
4.650000000000000244e-01,-2.199607264644044546e-01,-2.087216676287103126e-02,1.408060424930634158e-01
4.660000000000000253e-01,-6.332843415250216657e-02,-1.772878365851567051e-01,1.753595895067904531e-01
4.670000000000000262e-01,2.033611417682304190e-01,-2.332903368659083043e-01,1.176870320877417969e-01
4.680000000000000271e-01,2.878625051586618522e-01,-1.526934780514204448e-01,-1.863741407016566293e-02
4.689999999999999725e-01,2.275918136917809975e-01,6.844477821852458510e-02,-1.640726851729471247e-01
4.699999999999999734e-01,2.562795106216805494e-02,2.145727384929357329e-01,-1.659228652677576521e-01
4.709999999999999742e-01,-2.092379071454624762e-01,1.980310245464433627e-01,-5.300496442264797381e-02
4.719999999999999751e-01,-2.852051191836722510e-01,1.064237002144743510e-01,9.687082495137382121e-02
4.729999999999999760e-01,-1.972480463702284970e-01,-8.302498929689915153e-02,1.540328574907475767e-01
4.739999999999999769e-01,-6.535217141710583655e-03,-2.586919978945875775e-01,1.640747832440917209e-01
4.749999999999999778e-01,2.448018666310157188e-01,-2.172831941953889401e-01,5.794816086332364724e-02
4.759999999999999787e-01,2.861877376467060752e-01,-8.704596274871141681e-02,-6.897065113586399454e-02
4.769999999999999796e-01,1.898502315659708617e-01,1.641743057896822566e-01,-1.389680777709965953e-01
4.779999999999999805e-01,-6.587409409955369277e-02,1.857365323147265879e-01,-1.505943451296844759e-01
4.789999999999999813e-01,-2.976444800360639187e-01,1.718248139851058232e-01,-4.551892334332795220e-02
4.799999999999999822e-01,-2.864605100048682185e-01,1.810987804001897364e-02,5.650540167895629073e-02
4.809999999999999831e-01,-1.361869552297044206e-01,-1.992290637849518931e-01,2.422337852564634963e-01
4.819999999999999840e-01,8.967903906778060263e-02,-2.409687364455833924e-01,1.172194842063278286e-01
4.829999999999999849e-01,2.728697205713331297e-01,-1.274250383870939307e-01,2.382333906701846957e-02
4.839999999999999858e-01,2.525080887213647651e-01,4.105417894846820348e-02,-1.323985016550204286e-01
4.849999999999999867e-01,7.824302907164532028e-02,2.431800387844955669e-01,-1.665230716345816042e-01
4.859999999999999876e-01,-1.761540604163810975e-01,2.264315860008152548e-01,-1.335959203493258807e-01
4.869999999999999885e-01,-2.909063773757094573e-01,1.284724803454682096e-01,1.439474456236023749e-02
4.879999999999999893e-01,-2.479134078734230306e-01,-6.379016293936014270e-02,1.164309564227292426e-01
4.889999999999999902e-01,-3.011160686863396593e-02,-2.277535818367892317e-01,1.820490185774100989e-01
4.899999999999999911e-01,1.904186483407068753e-01,-2.529812338407214645e-01,1.541737085466959867e-01
4.909999999999999920e-01,2.860056394629540977e-01,-7.959254389926212481e-02,-6.795027689432234230e-02
4.919999999999999929e-01,2.655837125312172087e-01,1.459301813186002217e-01,-1.666225974503630913e-01
4.929999999999999938e-01,-4.096910177218982159e-03,2.490698071887547105e-01,-2.055735886119075539e-01
4.939999999999999947e-01,-2.669175642309508101e-01,2.024252280249100588e-01,-1.082278597263384018e-01
4.949999999999999956e-01,-2.592295442842637576e-01,7.943860132660431755e-03,5.373354941139053820e-02
4.959999999999999964e-01,-1.847050712889839741e-01,-1.892586498876898393e-01,1.464273813622914977e-01
4.969999999999999973e-01,6.556802447158231739e-02,-2.450481262984969544e-01,1.508745297918010209e-01
4.979999999999999982e-01,2.421102358103678631e-01,-1.863072653507633902e-01,6.195146843386131752e-02
4.989999999999999991e-01,2.807596662631166029e-01,4.594900079991792036e-02,-3.418686244884067832e-02
5.000000000000000000e-01,1.400806044795400718e-01,2.214085970972571316e-01,-1.745781646512011009e-01
5.010000000000000009e-01,-1.314546644673419140e-01,2.247893405477063566e-01,-1.624184613736775751e-01
5.020000000000000018e-01,-2.869249294700030317e-01,7.603800403309944611e-02,-2.593716287309914131e-02
5.030000000000000027e-01,-2.768907223706268406e-01,-5.756784623736294765e-02,1.148816491964845393e-01
5.040000000000000036e-01,-1.137704345218285146e-01,-2.526556055783642507e-01,1.961900269691509990e-01
5.050000000000000044e-01,1.647031920967971519e-01,-2.169401270525131709e-01,1.579349655485743908e-01
5.060000000000000053e-01,2.860020918447711002e-01,-6.837084900600577664e-02,3.413835206152431023e-02
5.070000000000000062e-01,2.553754684623031346e-01,1.087540506177794852e-01,-1.056950065896762742e-01
5.080000000000000071e-01,1.933519731094281852e-02,2.135442743826404532e-01,-1.767921914773194769e-01
5.090000000000000080e-01,-2.185171567800231196e-01,1.806866690418412191e-01,-1.297086265267249905e-01
5.100000000000000089e-01,-3.324881058247092791e-01,3.076488628519086568e-02,6.303870826923465946e-03
5.110000000000000098e-01,-2.411771267312150246e-01,-1.714757006559291808e-01,1.234029144204552841e-01
5.120000000000000107e-01,-1.442265955590915942e-03,-2.404511625498860772e-01,1.786966578412662043e-01
5.130000000000000115e-01,2.259818424049862273e-01,-1.914234223639262877e-01,8.335633168243843094e-02
5.140000000000000124e-01,2.976057642123673963e-01,2.457125278037359736e-02,-3.700793943334874242e-02
5.150000000000000133e-01,1.963380030599356230e-01,1.999624441694346499e-01,-1.512889253463171602e-01
5.160000000000000142e-01,-6.001288696947157386e-02,2.042504616865355171e-01,-1.801345717932897605e-01
5.170000000000000151e-01,-2.659251626773835309e-01,1.176056462853059814e-01,-1.046868487503100215e-01
5.180000000000000160e-01,-3.050078981076483897e-01,-1.035462173551996157e-01,1.435671265435515750e-02
5.190000000000000169e-01,-1.624969271770236590e-01,-1.879411321104114130e-01,1.576189981259343287e-01
5.200000000000000178e-01,7.369536207405052997e-02,-2.503923484289729551e-01,1.782233412344534640e-01
5.210000000000000187e-01,2.661344880525380874e-01,-9.959958220313190613e-02,8.717373768433224479e-02
5.220000000000000195e-01,2.646912945720135135e-01,1.460957041533201828e-01,-5.821689556976145097e-02
5.230000000000000204e-01,1.088581124322848398e-01,2.130840317671320039e-01,-1.790018682998997801e-01
5.240000000000000213e-01,-1.094405055859044157e-01,1.852701143302538100e-01,-1.838559424704307721e-01
5.250000000000000222e-01,-2.935767585051801132e-01,6.721566216408732253e-02,-5.851084568492297827e-02
5.260000000000000231e-01,-2.923975027165933716e-01,-1.745113795900925246e-01,9.031952909715834643e-02
5.270000000000000240e-01,-2.076863886345071269e-02,-2.589898212756594487e-01,1.661029036054694763e-01
5.280000000000000249e-01,2.018651458195502568e-01,-1.769098313428548175e-01,1.344324751341472446e-01
5.290000000000000258e-01,3.177520700418724475e-01,2.793952456285806255e-02,4.876030190380257513e-03
5.300000000000000266e-01,2.057368254694734999e-01,1.765772740601128099e-01,-1.095787460361701410e-01
5.310000000000000275e-01,4.566228569506646656e-02,2.190190562430580357e-01,-1.899622835456449832e-01
5.320000000000000284e-01,-2.060729059113557693e-01,1.182182932023719685e-01,-1.160417662818394868e-01
5.330000000000000293e-01,-3.033841947081895030e-01,-5.282347448717098631e-02,-5.468325823727964580e-02
5.340000000000000302e-01,-1.849683374005064163e-01,-2.274417785753592436e-01,1.270952987419455560e-01
5.350000000000000311e-01,6.720883203305871856e-02,-2.377060170271961259e-01,1.712505385087064735e-01
5.360000000000000320e-01,2.721186180587565340e-01,-7.792460971281991999e-02,8.154810018283523143e-02
5.370000000000000329e-01,2.661568368170532661e-01,8.971071884667737584e-02,-2.130254549282951243e-02
5.380000000000000338e-01,1.365801392901766220e-01,2.219423408644377871e-01,-1.637687687484715993e-01
5.390000000000000346e-01,-7.065105229306328782e-02,2.114406419438397688e-01,-1.775151777011825804e-01
5.400000000000000355e-01,-2.772152599195306655e-01,4.971185876873168014e-02,-1.240264026035623884e-01
5.410000000000000364e-01,-2.674567072277584945e-01,-1.603004180927890265e-01,3.748208124958406218e-02
5.420000000000000373e-01,-9.472235796355947535e-02,-2.448965192988907802e-01,1.248189465048360480e-01
5.430000000000000382e-01,1.471451840587312265e-01,-1.617909622335453601e-01,1.721135744880828711e-01
5.440000000000000391e-01,3.238047470325257082e-01,4.006084917136593787e-02,6.185876245459255574e-02
5.450000000000000400e-01,2.213717426039315816e-01,1.426131584789935292e-01,-7.766491203603211047e-02
5.460000000000000409e-01,7.227107200492131900e-02,2.203561477423451598e-01,-1.861598077264784989e-01
5.470000000000000417e-01,-1.810205424001675167e-01,1.547467978090549534e-01,-1.574212109852005381e-01
5.480000000000000426e-01,-2.675542628793538547e-01,-7.362872241169765922e-03,-9.318294506791365006e-02
5.490000000000000435e-01,-2.289824240827892099e-01,-2.111154235027277726e-01,6.044504051248356796e-02
5.500000000000000444e-01,9.623674643144803503e-03,-2.558526290474228970e-01,1.915098534563810795e-01
5.510000000000000453e-01,2.297522802212375592e-01,-1.275255666324794090e-01,1.772155109904686165e-01
5.520000000000000462e-01,2.834702086218210959e-01,8.630072428913834748e-02,1.372195742741738264e-02
5.530000000000000471e-01,1.646992305799568346e-01,2.135802022987569326e-01,-1.062726516193345794e-01
5.540000000000000480e-01,-3.855190421777022342e-02,2.167956057713759932e-01,-1.778756418793346894e-01
5.550000000000000488e-01,-2.586959656653788353e-01,7.068392438032891634e-02,-1.534127773994410915e-01
5.560000000000000497e-01,-2.993905767688967989e-01,-1.175048503668355421e-01,1.729745706587506454e-02
5.570000000000000506e-01,-1.703453549833825464e-01,-2.307615742840152806e-01,1.430211807480258890e-01
5.580000000000000515e-01,9.255456246554329136e-02,-1.805756287755189149e-01,1.930647021850100675e-01
5.590000000000000524e-01,2.867283362720879913e-01,1.421705407847349487e-02,1.329584155592630490e-01
5.600000000000000533e-01,2.465939481667630551e-01,1.656390207709392270e-01,1.444512813891792209e-02
5.610000000000000542e-01,1.224409925888745587e-01,2.473429784355127559e-01,-1.673022808455458255e-01
5.620000000000000551e-01,-1.447041624354077627e-01,1.595505664387468214e-01,-2.144058898480988296e-01
5.629999999999999449e-01,-3.254934386521641243e-01,-2.938432127361863266e-02,-1.341860028689633444e-01
5.639999999999999458e-01,-2.635279208942366003e-01,-2.009228042996697439e-01,1.803993042000463093e-02
5.649999999999999467e-01,-3.064610435038403816e-02,-2.121953743141419824e-01,1.413021805576345213e-01
5.659999999999999476e-01,1.606695760324496347e-01,-1.396136077485285731e-01,1.707603456930380792e-01
5.669999999999999485e-01,2.992382263997149794e-01,9.209000334389207121e-02,7.047209457091282991e-02
5.679999999999999494e-01,2.373614409978324902e-01,2.093907058181337100e-01,-4.705442282940366927e-02
5.689999999999999503e-01,2.626138674888730748e-02,2.512787057070402508e-01,-1.396489950235677013e-01
5.699999999999999512e-01,-1.766591937826093861e-01,8.366866155622834644e-02,-1.709233442830539185e-01
5.709999999999999520e-01,-3.505025523781306607e-01,-8.876456925210593485e-02,-7.277548114313162064e-02
5.719999999999999529e-01,-1.931632698501487000e-01,-2.143230385956904072e-01,9.464616182481241924e-02
5.729999999999999538e-01,2.445852069777000246e-02,-2.151246909463800649e-01,1.442059192763549547e-01
5.739999999999999547e-01,2.256391294018127713e-01,-8.979838072326131598e-03,1.617153636318989784e-01
5.749999999999999556e-01,3.402079845453220286e-01,1.241094933071556355e-01,3.588323138458766881e-02
5.759999999999999565e-01,1.700596740465100398e-01,2.676788436822404305e-01,-8.044906131549982298e-02
5.769999999999999574e-01,-8.673920183489051972e-02,1.492706368791915650e-01,-1.604271982388702500e-01
5.779999999999999583e-01,-2.423240698449071195e-01,-7.275661654099121328e-03,-1.611502144543399406e-01
5.789999999999999591e-01,-2.541050766437532582e-01,-1.963018625035242715e-01,-3.539675314921640614e-02
5.799999999999999600e-01,-1.332476164334326363e-01,-2.293943041919039583e-01,1.088687487798184889e-01
5.809999999999999609e-01,1.368855477071040661e-01,-1.578359965420859379e-01,1.490951893528158212e-01
5.819999999999999618e-01,3.046277671732511294e-01,7.804984742990246638e-02,1.211395339169189928e-01
5.829999999999999627e-01,2.437395424326276594e-01,2.049027975703184290e-01,-3.749429400257830308e-02
5.839999999999999636e-01,8.712656873046302486e-02,2.320968155982804371e-01,-1.614101348604833619e-01
5.849999999999999645e-01,-1.773920307974672372e-01,7.081274929106290417e-02,-1.683823012800134689e-01
5.859999999999999654e-01,-3.219925145587245741e-01,-1.189318415607015650e-01,-1.189021276299203483e-01
5.869999999999999662e-01,-2.174649847548880133e-01,-2.505037581896710219e-01,2.826301002117849459e-02
5.879999999999999671e-01,2.899362840710577489e-03,-2.155830990985173334e-01,1.287792399694585033e-01
5.889999999999999680e-01,2.067136880554322209e-01,-8.110342996425287665e-02,1.900643246539930609e-01
5.899999999999999689e-01,2.593672501017921794e-01,1.726051680990042803e-01,9.639787096063216765e-02
5.909999999999999698e-01,1.951156950064618090e-01,2.385356531952105563e-01,-4.727185261512839576e-02
5.919999999999999707e-01,-5.409250048255117432e-02,1.575034934566086897e-01,-1.426266027438388706e-01
5.929999999999999716e-01,-2.124131554845854475e-01,2.281592341027468759e-02,-1.553819545438373528e-01
5.939999999999999725e-01,-3.152672638867619614e-01,-1.663448296753409772e-01,-8.266959575828200513e-02
5.949999999999999734e-01,-1.676664258282736242e-01,-2.266675875207168900e-01,2.498353511493876106e-02
5.959999999999999742e-01,8.300977974882253752e-02,-1.695275646735157349e-01,1.887566184514963274e-01
5.969999999999999751e-01,2.530429360013380369e-01,2.522869002918912834e-02,1.866532702459818283e-01
5.979999999999999760e-01,3.049577024112579693e-01,1.926107035919818744e-01,4.620532001942732198e-02
5.989999999999999769e-01,8.548818387650593265e-02,2.517436559703196686e-01,-8.051205119766180474e-02
5.999999999999999778e-01,-1.349233198903711795e-01,9.437858184880167089e-02,-2.127493380896174902e-01
6.009999999999999787e-01,-2.737195922153888850e-01,-1.116137728714300115e-01,-1.713070196177381432e-01
6.019999999999999796e-01,-2.687835694116898488e-01,-2.285601442009665418e-01,-2.295355489201417534e-02
6.029999999999999805e-01,-7.572445677381965667e-02,-2.698972980005326927e-01,1.232977056582651859e-01
6.039999999999999813e-01,1.829353645383888227e-01,-6.311725030944349835e-02,1.948392413622064001e-01
6.049999999999999822e-01,3.373574970555693886e-01,1.336207384437322065e-01,1.568631707357568683e-01
6.059999999999999831e-01,2.656225055397947732e-01,2.465225399005984697e-01,2.520679929753901274e-02
6.069999999999999840e-01,3.675095281101446731e-02,2.066099280086873824e-01,-1.269015314087331425e-01
6.079999999999999849e-01,-1.900343326490837592e-01,-2.012742850451679916e-02,-1.558571448347686184e-01
6.089999999999999858e-01,-3.340952985000361641e-01,-1.743726172053699786e-01,-1.348156606245747291e-01
6.099999999999999867e-01,-1.691686131035257945e-01,-2.347303800915492566e-01,1.421653882768592232e-02
6.109999999999999876e-01,-2.538605984989826883e-02,-1.648165347833134287e-01,1.348889314534967299e-01
6.119999999999999885e-01,2.312086765182547465e-01,1.652375922999741245e-02,1.465855436453061822e-01
6.129999999999999893e-01,3.066202972354563627e-01,2.057061007465561253e-01,7.932444879513865510e-02
6.139999999999999902e-01,1.265486483849090904e-01,2.230024907006642187e-01,-4.407741584326795720e-02
6.149999999999999911e-01,-8.726879306631865618e-02,1.353605082581309793e-01,-1.673020062738996006e-01
6.159999999999999920e-01,-3.006416383603471854e-01,-1.119785169456431195e-01,-1.684256254730100988e-01
6.169999999999999929e-01,-2.703953637671826504e-01,-2.230632230004640504e-01,-6.389814302795385204e-02
6.179999999999999938e-01,-7.130098166992819564e-02,-2.122035645220816114e-01,5.528537599674512165e-02
6.189999999999999947e-01,1.514234634638883248e-01,-7.513466899760581907e-02,1.958058048695189568e-01
6.199999999999999956e-01,3.189030877786581120e-01,1.355239330693445987e-01,1.588931763774437123e-01
6.209999999999999964e-01,2.608740506844144935e-01,2.228684167006071970e-01,4.699029890699978756e-02
6.219999999999999973e-01,2.725604012796522743e-02,1.956556239797323238e-01,-8.494835133969104446e-02
6.229999999999999982e-01,-1.768221929151556904e-01,-5.532799732611079144e-03,-1.820616843522757378e-01
6.239999999999999991e-01,-3.146564798860751466e-01,-1.343939692489519999e-01,-1.732632748377943011e-01
6.250000000000000000e-01,-2.495401977292293905e-01,-2.507792031305837721e-01,-2.437766097790051295e-02
6.260000000000000009e-01,1.973664753602731407e-03,-1.766437035238480613e-01,7.289012350200810286e-02
6.270000000000000018e-01,2.213133904661496731e-01,1.406499379974101465e-04,1.671409617148010562e-01
6.280000000000000027e-01,2.812268765444878027e-01,2.148991473905340066e-01,1.418624411697463061e-01
6.290000000000000036e-01,1.780412830361185195e-01,2.227575208610677870e-01,2.579930096194266859e-02
6.300000000000000044e-01,-1.519829265314225769e-02,1.416473521363955934e-01,-1.045204118630927298e-01
6.310000000000000053e-01,-2.778564257829658213e-01,-6.435167838959574005e-02,-1.708257529320177659e-01
6.320000000000000062e-01,-2.960807492759752191e-01,-1.952077221706505217e-01,-1.325194907947039868e-01
6.330000000000000071e-01,-2.088445886958080200e-01,-2.369875444176958168e-01,1.089178927568836691e-02
6.340000000000000080e-01,6.233902329239762036e-02,-7.920636376952483459e-02,1.137561971244920173e-01
6.350000000000000089e-01,3.046818968726054955e-01,1.312419394652543092e-01,1.733938522138582794e-01
6.360000000000000098e-01,3.158457266887716441e-01,2.404067438809414647e-01,1.243927480148913634e-01
6.370000000000000107e-01,1.034187597331371194e-01,1.761052849338688442e-01,-4.082523681519094338e-02
6.380000000000000115e-01,-1.357977142634187728e-01,4.749492573577903526e-02,-1.443446353364105650e-01
6.390000000000000124e-01,-2.734803487770907648e-01,-1.759349585651143189e-01,-1.634075595577301476e-01
6.400000000000000133e-01,-2.795706334242420432e-01,-2.634957863711944737e-01,-8.371967899508073185e-02
6.410000000000000142e-01,-5.805473414027483015e-02,-1.873859658918463345e-01,7.003886261379643763e-02
6.420000000000000151e-01,1.659939803620772147e-01,1.616502490849033510e-02,1.757863730894964338e-01
6.430000000000000160e-01,3.173113688152407463e-01,1.911708528478594515e-01,1.505084301161929705e-01
6.440000000000000169e-01,2.119802820128343923e-01,2.483551035955013087e-01,4.311997754862272741e-02
6.450000000000000178e-01,4.362422123988306255e-02,1.378216411408694220e-01,-5.559333735881145933e-02
6.460000000000000187e-01,-1.724275277316660027e-01,-5.912268353649492714e-02,-1.792510797759095387e-01
6.470000000000000195e-01,-2.888430053361033534e-01,-2.215914311253702473e-01,-1.372287596453765357e-01
6.480000000000000204e-01,-1.987407219215423515e-01,-2.368982309801787312e-01,-4.459727772322212569e-02
6.490000000000000213e-01,1.993966246651390425e-02,-1.009986120455507591e-01,8.898280261448381079e-02
6.500000000000000222e-01,2.320803119951418692e-01,6.861917779652722260e-02,1.569125450362624796e-01
6.510000000000000231e-01,3.311349312397322553e-01,1.834162898538212738e-01,1.446505036995134330e-01
6.520000000000000240e-01,1.805314360996600753e-01,2.082784579276245329e-01,2.196951991107648147e-02
6.530000000000000249e-01,-6.572387483976305234e-02,3.807692138499452900e-02,-1.277924177545450013e-01
6.540000000000000258e-01,-2.140631208614049708e-01,-1.267334798208287205e-01,-2.178008907578540543e-01
6.550000000000000266e-01,-3.062210581205027093e-01,-2.536822704355737867e-01,-1.142977423761212252e-01
6.560000000000000275e-01,-1.268303488263700096e-01,-1.630253754206016370e-01,-8.415707363162022725e-03
6.570000000000000284e-01,1.235787442835901834e-01,-1.694596526674329619e-03,9.309017239964602342e-02
6.580000000000000293e-01,3.054142881653373887e-01,1.671877056659314964e-01,1.822260472225706029e-01
6.590000000000000302e-01,2.676149863253214911e-01,2.123831186794462034e-01,1.308215464794197092e-01
6.600000000000000311e-01,7.515787303731927271e-02,1.791208804152621403e-01,-4.951613395389325295e-02
6.610000000000000320e-01,-1.566162798147093249e-01,-2.280530791477546060e-02,-1.567400236047037376e-01
6.620000000000000329e-01,-2.834859507014507174e-01,-2.013123086024818653e-01,-1.633110338875846390e-01
6.630000000000000338e-01,-2.329836177469018221e-01,-2.274017510261069075e-01,-7.015517566995782550e-02
6.640000000000000346e-01,-2.834249339884013785e-02,-7.295021808014619247e-02,6.354763893225641447e-02
6.650000000000000355e-01,2.097506830580826986e-01,5.501576823958460871e-02,1.688131063612616500e-01
6.660000000000000364e-01,3.147444269246679749e-01,2.197330209738311557e-01,1.852222574371637787e-01
6.670000000000000373e-01,2.459061447918846621e-01,2.150682704965628800e-01,8.696398453600304168e-02
6.680000000000000382e-01,-9.034221445200716835e-03,5.181458834510144218e-02,-7.064996220852651221e-02
6.690000000000000391e-01,-2.306424751542905660e-01,-1.234713295792942422e-01,-1.897039625322708423e-01
6.700000000000000400e-01,-3.117847316579157035e-01,-2.382449474292812619e-01,-1.745182678251948616e-01
6.710000000000000409e-01,-1.867489139272041632e-01,-1.619277050567380360e-01,-1.578408039604920279e-02
6.720000000000000417e-01,6.940870886286054642e-02,-3.628897887087197127e-02,5.515561388315413233e-02
6.730000000000000426e-01,2.659290920276215497e-01,1.754262949871558119e-01,1.645033774938764459e-01
6.740000000000000435e-01,2.845186693442591230e-01,2.855957016974987606e-01,1.378410960495727033e-01
6.750000000000000444e-01,1.087182762627750404e-01,1.646764537987009114e-01,2.862454417394423578e-02
6.760000000000000453e-01,-1.050285080111650060e-01,-3.189640501884053510e-03,-1.358061706209875985e-01
6.770000000000000462e-01,-3.143817411277524676e-01,-2.165496471263944622e-01,-1.872869662126684653e-01
6.780000000000000471e-01,-2.882180110426486586e-01,-2.486524109023013351e-01,-1.338558592124050595e-01
6.790000000000000480e-01,-5.888942181820308597e-02,-1.353080681943117647e-01,9.223496865914490583e-03
6.800000000000000488e-01,1.763783325835278082e-01,1.210115787509561947e-01,1.013263079806490802e-01
6.810000000000000497e-01,2.893017595306706657e-01,2.110155800409920790e-01,1.879320403256167227e-01
6.820000000000000506e-01,2.324527080983181671e-01,2.296048829085540199e-01,1.089840227875057826e-01
6.830000000000000515e-01,2.066891508463798200e-04,9.380041224940467715e-02,1.907702185642560675e-04
6.840000000000000524e-01,-1.693194251431768271e-01,-1.207060274026780095e-01,-1.533611343396170668e-01
6.850000000000000533e-01,-3.090084308621476872e-01,-2.372814329650426990e-01,-1.611308327349430802e-01
6.860000000000000542e-01,-2.092090894301283643e-01,-1.987608112854602205e-01,-1.058055421577863142e-01
6.870000000000000551e-01,4.710044394931626327e-02,-3.865960901720128656e-02,5.698979723721042667e-02
6.879999999999999449e-01,2.490033617058491910e-01,1.096154711190016895e-01,1.717415898466381763e-01
6.889999999999999458e-01,2.916825128642345777e-01,2.363260813649902814e-01,1.858003345121110594e-01
6.899999999999999467e-01,1.583426403485258260e-01,1.714621860362925965e-01,1.087485613729749084e-01
6.909999999999999476e-01,-5.344601807242766595e-02,-9.362075436421784646e-04,-9.331737540901116623e-02
6.919999999999999485e-01,-2.675400675386342408e-01,-1.982161021717044336e-01,-1.572023190525002889e-01
6.929999999999999494e-01,-3.440610917956616333e-01,-2.515494452299654737e-01,-1.531178898259281385e-01
6.939999999999999503e-01,-1.422961367883504580e-01,-1.436053588353880806e-01,-4.736396998405018738e-02
6.949999999999999512e-01,1.314737771020741686e-01,9.825972368950955382e-02,9.732065844281498346e-02
6.959999999999999520e-01,2.730165769243350082e-01,2.137610131337424613e-01,1.981819598752269374e-01
6.969999999999999529e-01,2.294709030089392976e-01,2.510623096476530813e-01,1.495391392107321138e-01
6.979999999999999538e-01,4.054131428265018988e-02,7.430943715658139270e-02,3.873194901514217386e-02
6.989999999999999547e-01,-1.414881853374077014e-01,-8.234536538896551627e-02,-9.603934245994782959e-02
6.999999999999999556e-01,-2.850390344190546488e-01,-2.442891259996289310e-01,-2.029532442648902257e-01
7.009999999999999565e-01,-2.545794542507566760e-01,-2.018506159731601191e-01,-1.413579975570658787e-01
7.019999999999999574e-01,-2.127757204755677950e-02,-4.041379591817897965e-02,-3.056895646114655973e-02
7.029999999999999583e-01,1.987716967863360773e-01,1.346016124455377549e-01,9.119804397884279101e-02
7.039999999999999591e-01,3.124171664783434443e-01,2.275640338233969329e-01,1.909024124907577891e-01
7.049999999999999600e-01,2.375676442172702518e-01,1.902100668554150831e-01,1.222040362979415207e-01
7.059999999999999609e-01,-2.952612260200024666e-02,-9.332069216768826975e-03,-6.043351349658512839e-03
7.069999999999999618e-01,-2.173979648593241665e-01,-1.926877979226526427e-01,-1.403986736748000230e-01
7.079999999999999627e-01,-3.083116622778803162e-01,-2.302019085681595578e-01,-2.050775966519093607e-01
7.089999999999999636e-01,-1.626081848176152700e-01,-1.481886189064215709e-01,-1.271707111073752672e-01
7.099999999999999645e-01,2.575705992642691664e-02,5.364997289408009185e-02,6.618768463693786019e-02
7.109999999999999654e-01,2.481770384309064381e-01,2.088550418765368066e-01,1.577980857071490661e-01
7.119999999999999662e-01,3.132812908282395781e-01,2.527081434630518153e-01,1.583838647065086425e-01
7.129999999999999671e-01,1.146421553003244831e-01,1.195195380712074790e-01,1.074555866696132456e-01
7.139999999999999680e-01,-1.305246403565823721e-01,-1.105358275990976080e-01,-5.750010675221838008e-02
7.149999999999999689e-01,-2.542804604024921367e-01,-2.304057809259821565e-01,-1.442983808551669966e-01
7.159999999999999698e-01,-2.338176789306429526e-01,-1.671155264586746403e-01,-1.612874684515845369e-01
7.169999999999999707e-01,-8.141631585784123160e-02,-4.233576858880719329e-02,-6.623850259332229873e-02
7.179999999999999716e-01,1.899606088172105800e-01,1.445922881060517640e-01,9.078489529088062948e-02
7.189999999999999725e-01,2.876701306037449113e-01,2.586675315941613373e-01,2.234849619957259836e-01
7.199999999999999734e-01,2.383445147364842975e-01,1.662614204791073580e-01,1.696423439101722719e-01
7.209999999999999742e-01,5.324229988276176634e-02,9.425968509965946054e-03,4.743399842407991507e-02
7.219999999999999751e-01,-2.000186453286081911e-01,-1.827413021906370005e-01,-9.971179172915403677e-02
7.229999999999999760e-01,-2.933248956953554698e-01,-2.240045047988865612e-01,-1.648288232981409696e-01
7.239999999999999769e-01,-2.417797781961517345e-01,-1.515999842221396887e-01,-1.709192914752363512e-01
7.249999999999999778e-01,2.438156653628692147e-02,4.988013206669586475e-02,-4.090533927500748096e-02
7.259999999999999787e-01,2.072325504361694770e-01,1.823770526060303765e-01,1.141283703436323793e-01
7.269999999999999796e-01,2.968936785476825047e-01,2.353610470047846903e-01,1.937363067264774863e-01
7.279999999999999805e-01,1.835962883658379119e-01,1.296898151046297076e-01,1.449194493373214543e-01
7.289999999999999813e-01,-5.580228459335966756e-02,-6.125585486101332855e-02,1.527429477376601860e-03
7.299999999999999822e-01,-2.433658405796942925e-01,-2.255535114768544014e-01,-1.421246686298027750e-01
7.309999999999999831e-01,-2.983732819739852715e-01,-2.065644157047465956e-01,-1.726884181397057849e-01
7.319999999999999840e-01,-1.713598602244292279e-01,-1.021977175500505680e-01,-1.215499125562490290e-01
7.329999999999999849e-01,1.026433468268012072e-01,1.285499310598285372e-01,2.287042854983684093e-02
7.339999999999999858e-01,2.961693434635439548e-01,2.448066993452666096e-01,1.550945700482601608e-01
7.349999999999999867e-01,2.836280076365593761e-01,2.076870572355917766e-01,1.464772839237355184e-01
7.359999999999999876e-01,9.052228637001692724e-02,2.465622948477512802e-02,7.569714789534684463e-02
7.369999999999999885e-01,-1.117990941996818977e-01,-1.554232923804364785e-01,-3.162748419844678416e-02
7.379999999999999893e-01,-2.944628658614029670e-01,-2.411781188206732207e-01,-1.707955753794222487e-01
7.389999999999999902e-01,-2.190249552528447663e-01,-1.365470873750273817e-01,-1.813583726786813510e-01
7.399999999999999911e-01,-7.050892963603327956e-02,-1.009191787472678986e-02,-7.458926986259775682e-02
7.409999999999999920e-01,2.043938187960985253e-01,2.307029404757762747e-01,8.451340317513039713e-02
7.419999999999999929e-01,3.047010276268806717e-01,2.300011388197112094e-01,1.956210791880582389e-01
7.429999999999999938e-01,2.207590933536181244e-01,1.079937968010915433e-01,1.701798071457521211e-01
7.439999999999999947e-01,-3.546004555948052001e-02,-8.159270278982351521e-02,7.163221551879668525e-02
7.449999999999999956e-01,-2.075819027103228409e-01,-2.291429043023914536e-01,-7.444651939983246147e-02
7.459999999999999964e-01,-3.148435071885820613e-01,-2.295527097933705851e-01,-1.885041154685112297e-01
7.469999999999999973e-01,-2.183601231762694606e-01,-1.113392423560575495e-01,-1.427589508425724241e-01
7.479999999999999982e-01,7.288961994422681057e-02,1.314358808187383043e-01,-3.617266857168851407e-02
7.489999999999999991e-01,2.547016115851256091e-01,2.038954922608396947e-01,1.375471040727489214e-01
7.500000000000000000e-01,3.274991728858031026e-01,1.921546897523919717e-01,1.857485994575334143e-01
7.510000000000000009e-01,1.622051242963722939e-01,3.571524975383719158e-02,1.597717931827284110e-01
7.520000000000000018e-01,-9.553239608784883097e-02,-1.569198479255185796e-01,4.855375194280581522e-03
7.530000000000000027e-01,-3.042214496283877634e-01,-2.579218246692440708e-01,-1.105993590236274277e-01
7.540000000000000036e-01,-2.566293577922492686e-01,-2.035047731921442449e-01,-1.758578108500026549e-01
7.550000000000000044e-01,-7.803878514438251923e-02,2.061517368368011305e-02,-1.297670522252103720e-01
7.560000000000000053e-01,1.527420049260483081e-01,2.196553852359992842e-01,3.634831989183590767e-02
7.570000000000000062e-01,2.767861084486772372e-01,2.043618539848581495e-01,1.326570337533217459e-01
7.580000000000000071e-01,2.457402500642058285e-01,1.144656024375054620e-01,1.752823323840793091e-01
7.590000000000000080e-01,2.993213635840887357e-02,-9.004977253992858810e-02,8.652023076724488226e-02
7.600000000000000089e-01,-1.550897698105823397e-01,-1.668762073483071040e-01,-1.194209550069553170e-02
7.610000000000000098e-01,-3.056582566919758825e-01,-2.420124654295536804e-01,-1.501853175775051674e-01
7.620000000000000107e-01,-2.296648086543497946e-01,-7.643054145985359038e-02,-1.952907055263544966e-01
7.630000000000000115e-01,-2.361491311849249139e-02,1.063332111343063824e-01,-4.394062891689807376e-02
7.640000000000000124e-01,1.997291469709731870e-01,2.223846967778337624e-01,3.199858156429254141e-02
7.650000000000000133e-01,3.273172745210543022e-01,2.261742012102520294e-01,1.415888798375952162e-01
7.660000000000000142e-01,1.881651378202727487e-01,7.266238128899302207e-02,1.976474550304730682e-01
7.670000000000000151e-01,-5.221956437092072079e-02,-1.642643462264092580e-01,6.775919687935894054e-02
7.680000000000000160e-01,-2.939535049041141490e-01,-2.463430519484237358e-01,-7.847003057060998599e-02
7.690000000000000169e-01,-3.345097824534530306e-01,-1.713537911473802799e-01,-2.133768893983833126e-01
7.700000000000000178e-01,-1.248393213818868724e-01,4.506153513970838353e-02,-1.784221746814408371e-01
7.710000000000000187e-01,1.231488622589119453e-01,1.955786743178307141e-01,-6.256253859046403965e-02
7.720000000000000195e-01,2.683072690116725667e-01,2.195009322710279320e-01,8.158853167546194218e-02
7.730000000000000204e-01,2.602906295556917660e-01,1.283078084928207518e-01,1.947496825752524918e-01
7.740000000000000213e-01,9.514734368338401138e-02,-4.723887607021760859e-02,1.418468140954960433e-01
7.750000000000000222e-01,-1.285668997118477874e-01,-2.260668793110468255e-01,4.177082438277344295e-02
7.760000000000000231e-01,-2.923806994609637333e-01,-2.469398617339588764e-01,-1.278308139478950001e-01
7.770000000000000240e-01,-2.743948413626059457e-01,-9.657003278618725428e-02,-1.951195726840283251e-01
7.780000000000000249e-01,-6.091201818626862385e-02,9.224391130293582708e-02,-8.985295141647930972e-02
7.790000000000000258e-01,1.740247934241471728e-01,2.290465025305029600e-01,4.676112875938895699e-03
7.800000000000000266e-01,3.089759518000753102e-01,2.122851411826607859e-01,1.691381424937023203e-01
7.810000000000000275e-01,2.701429636866559680e-01,7.955366433306640395e-02,1.375953346531551824e-01
7.820000000000000284e-01,6.456295851082273149e-03,-1.237327365738900287e-01,8.390735817229090510e-02
7.830000000000000293e-01,-2.190078246634654113e-01,-2.377349241411884917e-01,-8.153379572649383303e-03
7.840000000000000302e-01,-2.951404599084617164e-01,-2.070685371069599656e-01,-1.443429094542300062e-01
7.850000000000000311e-01,-1.786325184241530084e-01,-1.215292718118296360e-02,-1.964270243715326991e-01
7.860000000000000320e-01,4.772945038708899246e-02,1.999156922244610113e-01,-6.487095905564266296e-02
7.870000000000000329e-01,2.250516276858426923e-01,2.449606318381291614e-01,3.990746291742787444e-02
7.880000000000000338e-01,2.930637013974720095e-01,1.339228563417601547e-01,1.732381253611319505e-01
7.890000000000000346e-01,1.665544419438200197e-01,-5.919188506568708735e-02,1.628658309114981440e-01
7.900000000000000355e-01,-8.206624856759762998e-02,-1.973902824764226793e-01,6.386554686050116558e-02
7.910000000000000364e-01,-2.809046690828030934e-01,-2.182780119175146416e-01,-6.175949155756717268e-02
7.920000000000000373e-01,-2.294267769781080657e-01,-1.366648681763451834e-01,-1.604115750161266007e-01
7.930000000000000382e-01,-1.089216985969845147e-01,8.164638875704977039e-02,-1.533549915958229981e-01
7.940000000000000391e-01,1.127027216047789965e-01,2.093549552292367777e-01,-3.465468851136265654e-02
7.950000000000000400e-01,2.918552440177155094e-01,1.720539555660412223e-01,8.575226408684365198e-02
7.960000000000000409e-01,2.805345581539276933e-01,7.382995796529540078e-02,1.887832961374118212e-01
7.970000000000000417e-01,5.275006969265442353e-02,-1.023033631585542891e-01,1.515011505953375859e-01
7.980000000000000426e-01,-1.749842143881473744e-01,-2.372534695992405129e-01,1.328578695462706398e-02
7.990000000000000435e-01,-3.151041468310554206e-01,-2.188384937798082686e-01,-1.049199081874295642e-01
8.000000000000000444e-01,-2.491130973888613376e-01,-3.542121540968749815e-02,-1.616469536790615669e-01
8.010000000000000453e-01,1.670412211901787375e-02,1.137245459099795464e-01,-1.103766331030006792e-01
8.020000000000000462e-01,2.086817284346526025e-01,2.603249615505558445e-01,1.422886772871497472e-02
8.030000000000000471e-01,3.428694922520635346e-01,1.437772163322013075e-01,9.930472764425635201e-02
8.040000000000000480e-01,2.204210851936642124e-01,-2.093649014473429257e-02,1.756744716641142623e-01
8.050000000000000488e-01,-4.534942745550219617e-02,-2.100060943799827162e-01,1.252586456887374855e-01
8.060000000000000497e-01,-2.457741376115352983e-01,-2.358430402309181495e-01,2.795250722416358063e-03
8.070000000000000506e-01,-2.721061331413673345e-01,-1.178780121796370317e-01,-1.712017927378273463e-01
8.080000000000000515e-01,-1.361634862601779072e-01,8.321809271022977128e-02,-1.792533890421093290e-01
8.090000000000000524e-01,1.040927401047829354e-01,2.111072508854314744e-01,-8.191630742997418890e-02
8.100000000000000533e-01,2.768156335524792344e-01,2.118504468854881251e-01,2.691405027670742273e-02
8.110000000000000542e-01,2.722486715239808008e-01,9.148075880971007212e-02,1.399298631923129588e-01
8.120000000000000551e-01,1.406910062159941188e-01,-1.324525509452138816e-01,1.807480667451443479e-01
8.129999999999999449e-01,-1.296024222112560631e-01,-2.117621886680525478e-01,8.138163400191504582e-02
8.139999999999999458e-01,-2.665301375180197940e-01,-2.086435636857100484e-01,-4.844520478293166260e-02
8.149999999999999467e-01,-2.420598655811862787e-01,-3.110621057690967847e-02,-1.729615803187948275e-01
8.159999999999999476e-01,-7.712776290459659456e-02,1.446840564242654059e-01,-1.697508354981414336e-01
8.169999999999999485e-01,1.610014612388749600e-01,2.112750619430475429e-01,-6.573893589125935633e-02
8.179999999999999494e-01,2.972198869021650536e-01,1.208927181029032516e-01,8.313569215181618177e-02
8.189999999999999503e-01,2.479247175697570360e-01,1.468955126653321598e-02,1.670113971491627713e-01
8.199999999999999512e-01,1.814835202749231699e-02,-1.882960526671303148e-01,1.270249648486905525e-01
8.209999999999999520e-01,-2.019774924291650731e-01,-2.210676786921899895e-01,-1.235068800256737369e-02
8.219999999999999529e-01,-2.846288981476131630e-01,-1.631003059833032454e-01,-1.286424449030572903e-01
8.229999999999999538e-01,-2.039247235130270952e-01,5.943649942289455645e-02,-1.977938518803214196e-01
8.239999999999999547e-01,-1.822693854654216378e-02,2.004756504162378272e-01,-1.492970431639424889e-01
8.249999999999999556e-01,2.658413060289018248e-01,2.351898492975306454e-01,-4.872337479766548907e-02
8.259999999999999565e-01,3.067199716480284999e-01,1.094606524308739948e-01,1.218598201811434134e-01
8.269999999999999574e-01,1.346965683394035218e-01,-1.201681280673419921e-01,1.627985328739227355e-01
8.279999999999999583e-01,-6.477140064182762558e-02,-2.671877744701357527e-01,1.150178741627067985e-01
8.289999999999999591e-01,-2.785793579867971714e-01,-2.140139065142694363e-01,-7.010854736066603893e-03
8.299999999999999600e-01,-3.038630979485070771e-01,-3.180145442436037306e-02,-1.324562749312921672e-01
8.309999999999999609e-01,-7.976818544734072536e-02,1.366348509019374158e-01,-1.935375450414444087e-01
8.319999999999999618e-01,1.178947279339293552e-01,2.354235069310279538e-01,-8.984353139970649438e-02
8.329999999999999627e-01,2.902031475006855432e-01,1.798874776912907092e-01,2.393061416401849606e-02
8.339999999999999636e-01,2.964852032828744766e-01,1.750837537822206441e-02,1.847911866353728338e-01
8.349999999999999645e-01,8.595660835531350463e-02,-2.150318944397853205e-01,1.809206385886603929e-01
8.359999999999999654e-01,-1.618081114710543389e-01,-2.376833002117319515e-01,1.141029405446516432e-01
8.369999999999999662e-01,-2.986504112664437049e-01,-1.455762500069292809e-01,-6.418014003379396426e-02
8.379999999999999671e-01,-2.494621824447286473e-01,4.091328467484214859e-02,-1.742274377058880830e-01
8.389999999999999680e-01,-3.800601319898903874e-02,2.264550089783715359e-01,-1.863117323235022327e-01
8.399999999999999689e-01,1.784303990091521963e-01,2.135023621356697265e-01,-2.210105679274269180e-02
8.409999999999999698e-01,3.242368149682561262e-01,9.210318623880467404e-02,9.335419853954800284e-02
8.419999999999999707e-01,1.900988540813654537e-01,-8.409077144713286711e-02,1.754582924857512050e-01
8.429999999999999716e-01,-4.195283728898393377e-02,-2.610901984186396185e-01,1.418799680906691063e-01
8.439999999999999725e-01,-2.800798802158683820e-01,-2.078923499333126812e-01,5.106587151900571220e-02
8.449999999999999734e-01,-2.981500447235805318e-01,-6.192708286775527177e-02,-1.103904398400821635e-01
8.459999999999999742e-01,-1.683281166027207343e-01,1.226252808725169646e-01,-1.759990293985484733e-01
8.469999999999999751e-01,9.029529549522494203e-02,2.731980623403580388e-01,-1.026621690527444453e-01
8.479999999999999760e-01,2.624885519505030240e-01,2.213495678924742582e-01,-3.109759315908223673e-02
8.489999999999999769e-01,3.001324414567694276e-01,1.762488464031885735e-02,1.339401206685421342e-01
8.499999999999999778e-01,1.092975256466337669e-01,-1.875799249142601766e-01,1.430003348718480727e-01
8.509999999999999787e-01,-9.614443372034472968e-02,-2.304267299015868575e-01,1.123667743766122440e-01
8.519999999999999796e-01,-2.928386071849517491e-01,-1.378307563137599889e-01,-1.759308197642562091e-02
8.529999999999999805e-01,-2.637159083514153957e-01,1.670548975284796150e-02,-1.052398282880639829e-01
8.539999999999999813e-01,-8.459147932006556847e-02,1.972202474963115904e-01,-2.076715055212612626e-01
8.549999999999999822e-01,1.762546802798199697e-01,2.377049903787760987e-01,-1.330578971453519055e-01
8.559999999999999831e-01,2.781662073554700965e-01,1.139958706615304268e-01,-3.100117785157582937e-03
8.569999999999999840e-01,2.202013005219456698e-01,-6.256653096073153120e-02,1.553944781661276697e-01
8.579999999999999849e-01,9.341772429725857252e-03,-2.255809905403041993e-01,1.805257486118906074e-01
8.589999999999999858e-01,-2.087061956932628748e-01,-1.879210615894851555e-01,5.921926599913757833e-02
8.599999999999999867e-01,-3.187700193016395622e-01,-7.900530575478806328e-02,-4.033889725801748094e-02
8.609999999999999876e-01,-1.882904500084499888e-01,1.303996063619590473e-01,-1.638945906790028328e-01
8.619999999999999885e-01,1.377194064066631154e-02,2.574519937070892106e-01,-1.526143161934430670e-01
8.629999999999999893e-01,2.245180092413674444e-01,2.076252851371241936e-01,-7.981787089687540637e-02
8.639999999999999902e-01,2.821945812477353321e-01,1.868819226232264555e-02,7.027573569192158143e-02
8.649999999999999911e-01,1.688517244818892316e-01,-1.565678127101893802e-01,2.069114646954412495e-01
8.659999999999999920e-01,-6.795870766869589741e-02,-2.617557975309617313e-01,1.508637331706910722e-01
8.669999999999999929e-01,-3.034666963536195028e-01,-1.873568688394051662e-01,3.432226628018991005e-02
8.679999999999999938e-01,-2.548886704712201023e-01,5.826698635924860026e-04,-8.580380910047741283e-02
8.689999999999999947e-01,-1.245172939719162847e-01,1.645051986244963349e-01,-1.878250681301857905e-01
8.699999999999999956e-01,1.388639153017549865e-01,2.198987647488339914e-01,-1.656540153375203328e-01
8.709999999999999964e-01,3.015265225236266611e-01,1.351094347535411189e-01,-2.708231689277430104e-02
8.719999999999999973e-01,2.765143996035788199e-01,-7.295692084056136506e-02,1.526540286931729884e-01
8.729999999999999982e-01,8.509725953164956613e-02,-2.337666795969417788e-01,2.132231752848265383e-01
8.739999999999999991e-01,-1.735940478408925791e-01,-2.098271493759972517e-01,1.385634931793421898e-01
8.750000000000000000e-01,-3.194812930029989340e-01,-8.513721965305054429e-02,-1.269433760943257730e-02
8.760000000000000009e-01,-2.480110939732975694e-01,1.235451560780754937e-01,-1.645935946529764327e-01
8.770000000000000018e-01,-2.373904205101590517e-02,2.397734145374922909e-01,-1.839554547204350077e-01
8.780000000000000027e-01,2.499978356137702862e-01,1.898219056628687729e-01,-1.204945739653342923e-01
8.790000000000000036e-01,3.285694665125626357e-01,5.028691779263774059e-02,3.096431952682811989e-02
8.800000000000000044e-01,2.250516123708447280e-01,-1.564276916668621564e-01,1.209859695562552212e-01
8.810000000000000053e-01,7.412395667339906867e-03,-2.611774177471168912e-01,1.539892088240103485e-01
8.820000000000000062e-01,-2.139371254442900550e-01,-1.714831640605962715e-01,1.377765964413981692e-01
8.830000000000000071e-01,-2.804417320365397703e-01,-3.782882123906339961e-02,-4.035296848494204086e-02
8.840000000000000080e-01,-1.399197585420816625e-01,2.103316595006163581e-01,-1.438758335954552214e-01
8.850000000000000089e-01,5.573630287022679486e-03,2.458327530403336125e-01,-1.593725011490986776e-01
8.860000000000000098e-01,2.684184588749379818e-01,1.231681499361652610e-01,-6.682671868857484321e-02
8.870000000000000107e-01,2.916626188664506181e-01,-7.414430833395303788e-02,5.935736885965063603e-02
8.880000000000000115e-01,9.724258085208048463e-02,-2.106867615066516652e-01,1.746698996039405261e-01
8.890000000000000124e-01,-9.922144270848805292e-02,-2.196094481806659393e-01,2.128136268672568554e-01
8.900000000000000133e-01,-2.861579596046127105e-01,-8.172066576409291183e-02,6.419500589317914119e-02
8.910000000000000142e-01,-2.354455183412672015e-01,9.468002264957629810e-02,-1.410086587719547035e-01
8.920000000000000151e-01,-6.392802364167581020e-02,2.351873644526414620e-01,-1.841333295867398356e-01
8.930000000000000160e-01,1.836285494362041859e-01,2.027987765832182376e-01,-1.248076021548882031e-01
8.940000000000000169e-01,2.980978209662580869e-01,4.767329051115646449e-02,-2.513865979879763637e-02
8.950000000000000178e-01,2.248606699852905844e-01,-1.757595507516141742e-01,1.248927789878292033e-01
8.960000000000000187e-01,6.525896575380013553e-02,-2.255022024845399764e-01,1.696999478502931868e-01
8.970000000000000195e-01,-1.959807596078686209e-01,-1.657914209704354214e-01,1.418828493852506700e-01
8.980000000000000204e-01,-3.203748635688961066e-01,2.282718138973254679e-02,-1.676876682074052161e-02
8.990000000000000213e-01,-1.953603910076177619e-01,2.046589216339534667e-01,-1.158181869496039545e-01
9.000000000000000222e-01,2.296476444003098943e-02,2.672967048597642559e-01,-1.847000942472457052e-01
9.010000000000000231e-01,2.365975407620501958e-01,1.309073480440944015e-01,-1.395117513114974561e-01
9.020000000000000240e-01,3.194245335380191397e-01,-1.930661146272776366e-02,1.864813744125366768e-02
9.030000000000000249e-01,1.515831136858844519e-01,-1.600566629395076268e-01,1.787542776728728855e-01
9.040000000000000258e-01,-8.008585902963559489e-02,-2.149967919178447096e-01,1.698230765113062923e-01
9.050000000000000266e-01,-2.816436362107318514e-01,-1.178566265146306774e-01,1.053885597290281084e-01
9.060000000000000275e-01,-3.195648378090945041e-01,1.001625707468098286e-01,-7.859126660256846031e-02
9.070000000000000284e-01,-1.230799964508041272e-01,2.239153276321142194e-01,-1.701479266686974634e-01
9.080000000000000293e-01,9.794606443732521706e-02,2.318693678083188492e-01,-1.628185583695682392e-01
9.090000000000000302e-01,2.575091343261130539e-01,5.639599961997953520e-02,-1.277592235832350487e-01
9.100000000000000311e-01,3.056695602310426363e-01,-1.150030060882724775e-01,5.634819245649107244e-02
9.110000000000000320e-01,8.385610993700247373e-02,-2.455956801196307882e-01,1.823094901901092246e-01
9.120000000000000329e-01,-1.671478993036006055e-01,-1.756101907372383808e-01,1.774643704797900512e-01
9.130000000000000338e-01,-2.787954163749959413e-01,-9.468255914235461715e-03,8.764357703121031240e-02
9.140000000000000346e-01,-2.536692572705856463e-01,1.493731577027095359e-01,-6.889514472040364490e-02
9.150000000000000355e-01,-1.497333401361291769e-02,2.607122942314654690e-01,-1.883598799827495562e-01
9.160000000000000364e-01,1.603583701407340079e-01,1.998526483193504844e-01,-1.627585283995388044e-01
9.170000000000000373e-01,2.842093148379437606e-01,-5.818980413871476659e-02,-5.840268712189245620e-02
9.180000000000000382e-01,2.362266384324059054e-01,-1.797176245497619229e-01,9.395420808536689150e-02
9.190000000000000391e-01,-4.071619820047589489e-02,-2.000861981715789661e-01,1.873923732439221890e-01
9.200000000000000400e-01,-2.361640233465529537e-01,-1.266880697295367786e-01,1.809938027051609111e-01
9.210000000000000409e-01,-3.163408454901938671e-01,7.731167431477596608e-02,1.836400180430119988e-02
9.220000000000000417e-01,-1.653547942281627381e-01,2.269001218995053692e-01,-1.576416207415863580e-01
9.230000000000000426e-01,1.082194475675479911e-01,2.359634287851988810e-01,-1.992448160648489508e-01
9.240000000000000435e-01,2.328094764808224804e-01,1.016402521459158770e-01,-1.156309650064415023e-01
9.250000000000000444e-01,2.811626268950910834e-01,-1.053994463623642575e-01,3.058411003165212999e-02
9.260000000000000453e-01,1.395095981510305339e-01,-2.420638126182390326e-01,1.564159825970860562e-01
9.270000000000000462e-01,-5.590764548248713245e-02,-1.789627035726977233e-01,1.815037915339119956e-01
9.280000000000000471e-01,-2.685422742332647661e-01,-7.309707322211449199e-02,1.275018496973994719e-01
9.290000000000000480e-01,-2.425704909239514151e-01,1.662941156547728394e-01,-2.143298624503896244e-02
9.300000000000000488e-01,-9.074849819217921387e-02,2.303253680624797739e-01,-1.566891912871315184e-01
9.310000000000000497e-01,1.797154237021432177e-01,1.852582429718767354e-01,-1.463769340993716084e-01
9.320000000000000506e-01,2.864528913403120991e-01,-5.617610087357764737e-02,-7.028373366467281780e-02
9.330000000000000515e-01,2.712722233836759589e-01,-1.968776077825444837e-01,6.957551132149264461e-02
9.340000000000000524e-01,5.952834686641270134e-02,-2.344488678859356356e-01,2.031113893179700147e-01
9.350000000000000533e-01,-1.986976516992742525e-01,-1.248278602895082079e-01,1.521699341077184242e-01
9.360000000000000542e-01,-2.954382753547432072e-01,7.224410996185270939e-02,7.302398064406492861e-02
9.370000000000000551e-01,-2.381542779185372716e-01,1.615094728669784208e-01,-7.510944018910897801e-02
9.379999999999999449e-01,2.473482218603020172e-02,2.425244376235246857e-01,-1.829780344734562025e-01
9.389999999999999458e-01,2.398013034371374863e-01,7.320091750205937053e-02,-1.797250615952220854e-01
9.399999999999999467e-01,3.153449076246452876e-01,-1.328202791029675367e-01,-2.224926359880721044e-02
9.409999999999999476e-01,1.424835132504841673e-01,-2.161164205469368049e-01,1.165431146767212933e-01
9.419999999999999485e-01,-6.855172424823847976e-02,-2.220780505397779436e-01,1.702563287607030407e-01
9.429999999999999494e-01,-2.355817871321796986e-01,-4.369900121978016749e-02,1.415362827226300801e-01
9.439999999999999503e-01,-2.813822416020199668e-01,1.566769036088744849e-01,5.946716392298011244e-03
9.449999999999999512e-01,-1.268633806604301528e-01,2.345215506268085448e-01,-9.472118778299110087e-02
9.459999999999999520e-01,9.858339224068686513e-02,1.615407437661598167e-01,-1.625636411017325200e-01
9.469999999999999529e-01,3.036043800276180260e-01,-7.072352798245066033e-03,-1.384867882944676443e-01
9.479999999999999538e-01,2.823770268046230103e-01,-1.927897195387258122e-01,-9.763854735890187199e-05
9.489999999999999547e-01,9.569219773919872274e-02,-2.624997374589577714e-01,1.544150633196666456e-01
9.499999999999999556e-01,-1.427705190945111891e-01,-1.287184666261948218e-01,1.790723409214328710e-01
9.509999999999999565e-01,-3.050794057299774931e-01,5.059324221316741782e-02,1.190285529865981184e-01
9.519999999999999574e-01,-2.461405041602305610e-01,1.940210280064774140e-01,-1.159092778419337430e-02
9.529999999999999583e-01,-6.828655445288238368e-02,2.250941644949826514e-01,-1.499490807978030027e-01
9.539999999999999591e-01,1.949040903412584680e-01,1.097840813642527724e-01,-1.670793860784582641e-01
9.549999999999999600e-01,2.943050892805506580e-01,-7.458182634101888364e-02,-1.371984057145353986e-01
9.559999999999999609e-01,2.477941769881187306e-01,-2.388119612449616236e-01,4.022600667341349329e-02
9.569999999999999618e-01,3.053046720477470451e-03,-2.262815720696549626e-01,1.783625768315454663e-01
9.579999999999999627e-01,-2.304232983567871818e-01,-3.764027294157918507e-02,1.844342308665406216e-01
9.589999999999999636e-01,-3.058714966299182492e-01,1.354697872526995084e-01,7.276359784305261313e-02
9.599999999999999645e-01,-1.928036144648209438e-01,2.459685130619375659e-01,-8.003377798460130366e-02
9.609999999999999654e-01,7.827409780097262237e-02,1.763110353177497758e-01,-1.856862525327162561e-01
9.619999999999999662e-01,2.084340954378537392e-01,3.035841137730831835e-02,-1.480463868356812485e-01
9.629999999999999671e-01,3.046163700875104130e-01,-1.634364270863595259e-01,-2.489522706851089381e-02
9.639999999999999680e-01,1.231052251235881523e-01,-1.977112342818290180e-01,4.444092972025035643e-02
9.649999999999999689e-01,-8.774638009757504409e-02,-1.418517654182924470e-01,1.453510619604638787e-01
9.659999999999999698e-01,-2.783536483868186973e-01,4.818617262247689575e-02,1.234008100363042232e-01
9.669999999999999707e-01,-2.838339007381792123e-01,2.100962771158516595e-01,6.584353177806761756e-03
9.679999999999999716e-01,-1.043672943255679331e-01,2.187693334758385177e-01,-1.033547231322031884e-01
9.689999999999999725e-01,1.071645626443447491e-01,1.088009178654412018e-01,-1.981754473716764442e-01
9.699999999999999734e-01,3.146172921383253995e-01,-6.375328995995201142e-02,-1.888313687431583676e-01
9.709999999999999742e-01,2.446286265533374193e-01,-2.208199148546939883e-01,-2.602089022047332847e-02
9.719999999999999751e-01,3.648891295129389617e-02,-2.158800444235136895e-01,7.375355523270696323e-02
9.729999999999999760e-01,-2.231610671387313227e-01,-4.251925604823261068e-02,2.002794306317524087e-01
9.739999999999999769e-01,-2.817286954362773210e-01,8.881694143543945874e-02,1.215502556742944634e-01
9.749999999999999778e-01,-2.018432871782117610e-01,2.421536357305961173e-01,-1.004932809039171121e-02
9.759999999999999787e-01,-8.999203540536234586e-03,1.954471642057196701e-01,-1.483869130111425128e-01
9.769999999999999796e-01,2.125290064342702789e-01,4.613643994256854536e-02,-2.048740174149161763e-01
9.779999999999999805e-01,2.940360131513197195e-01,-1.533624040035304614e-01,-1.038108598853078601e-01
9.789999999999999813e-01,1.909532886521336237e-01,-2.276415778621920516e-01,7.983390854110250512e-02
9.799999999999999822e-01,-5.950917448271918209e-02,-1.814564596790341766e-01,1.369449922264840969e-01
9.809999999999999831e-01,-2.422912069301966786e-01,-9.388994950606927709e-03,1.814491336013688283e-01
9.819999999999999840e-01,-2.913688265572565994e-01,2.021667103551622324e-01,5.051023241777839734e-02
9.829999999999999849e-01,-1.634187603102338349e-01,2.055767710440751517e-01,-7.330732746280539669e-02
9.839999999999999858e-01,1.071191406798293611e-01,1.019176404771227340e-01,-1.493869747772389456e-01
9.849999999999999867e-01,2.633911531035395548e-01,-8.298172894707842029e-02,-1.089738438869936599e-01
9.859999999999999876e-01,2.252863930283977856e-01,-2.079022507790024288e-01,-6.421068462241125152e-02
9.869999999999999885e-01,8.201125748450564801e-02,-2.535583501470954348e-01,7.654143757068161691e-02
9.879999999999999893e-01,-1.408071106044095910e-01,-8.530577257457555573e-02,1.652863888813070614e-01
9.889999999999999902e-01,-2.960985314204060970e-01,1.138750811057298307e-01,1.550544834445599096e-01
9.899999999999999911e-01,-2.648406130085809718e-01,2.367451978757615372e-01,4.640181101309511641e-02
9.909999999999999920e-01,-5.175948675672658456e-02,2.185411829523214167e-01,-1.068157961659080835e-01
9.919999999999999929e-01,1.931192453199205017e-01,1.119742886282065752e-02,-1.919326231829786567e-01
9.929999999999999938e-01,2.724610076425176830e-01,-1.769789654394155476e-01,-1.564302487695995170e-01
9.939999999999999947e-01,2.057382437042601930e-01,-2.281742946811551875e-01,-4.720021413271539151e-02
9.949999999999999956e-01,4.742450820192851621e-03,-1.528692062306612198e-01,1.392461633563309154e-01
9.959999999999999964e-01,-2.315815882047272123e-01,-4.823793521976169583e-03,1.939276045229258727e-01
9.969999999999999973e-01,-2.998621896455838098e-01,1.743947632126156833e-01,1.199532023023203720e-01
9.979999999999999982e-01,-1.686090238853720780e-01,2.549839088332547798e-01,-8.267128642508099132e-03
9.989999999999999991e-01,4.954402510929024894e-02,1.402714152947709125e-01,-1.026281619838809445e-01
1.000000000000000000e+00,2.411397064103897037e-01,-6.355803992832609328e-02,-1.384819778660655309e-01
1.000999999999999890e+00,3.244965029263697787e-01,-2.304755128025554600e-01,-1.409046633588835196e-01
1.002000000000000002e+00,1.151510976787319118e-01,-2.176261276310245407e-01,5.300244698021506357e-02
1.002999999999999892e+00,-1.032223626564623270e-01,-6.276605827214137845e-02,1.681087973564574234e-01
1.004000000000000004e+00,-2.928542353885987826e-01,8.799495656011396827e-02,2.096831896462602873e-01
1.004999999999999893e+00,-2.617430277024993535e-01,2.167848094337145592e-01,1.321533792495710458e-01
1.006000000000000005e+00,-8.048479558973484216e-02,2.148686098810163037e-01,-9.668163207582114449e-02
1.006999999999999895e+00,1.158369183969223254e-01,4.933708974502492434e-02,-1.852656863227728767e-01
1.008000000000000007e+00,2.887596371336040302e-01,-1.571557008357427898e-01,-1.599846363757321255e-01
1.008999999999999897e+00,2.494321198567100162e-01,-2.432812341321728966e-01,-7.802247795629212168e-02
1.010000000000000009e+00,5.849099661319387411e-02,-2.028802660736532815e-01,8.764242892545022479e-02
1.010999999999999899e+00,-1.303809965708672691e-01,2.360963160464432317e-02,1.826139045373616765e-01
1.012000000000000011e+00,-3.024046738777286802e-01,1.929137907282982289e-01,1.691766745784865633e-01
1.012999999999999901e+00,-2.427952692453265726e-01,2.483564182244489826e-01,4.853383283874187354e-02
1.014000000000000012e+00,-2.020171665961465954e-02,1.048937354888643397e-01,-9.244420336764612445e-02
1.014999999999999902e+00,2.169364763825249176e-01,-3.657060242361482444e-02,-1.677982373887603185e-01
1.016000000000000014e+00,2.996903999665911922e-01,-2.585498532275644634e-01,-1.796958893926654255e-01
1.016999999999999904e+00,1.827181821833082087e-01,-2.415652738784230258e-01,-1.358144262252582168e-02
1.018000000000000016e+00,-5.334472302107966246e-02,-1.083958029351492630e-01,1.460197122250930513e-01
1.018999999999999906e+00,-2.170292390650677417e-01,7.197392718641730525e-02,1.978089973110428723e-01
1.020000000000000018e+00,-2.693879249924526764e-01,2.535797202993427257e-01,1.681393641216114565e-01
1.020999999999999908e+00,-1.509447221319929200e-01,2.048534991736035149e-01,9.555867980571938758e-03
1.022000000000000020e+00,9.381610631964810987e-02,7.390545592612425552e-02,-1.301318044355827264e-01
1.022999999999999909e+00,3.020445015310349035e-01,-1.283614688223515543e-01,-1.774173561935232513e-01
1.024000000000000021e+00,2.520456182937459433e-01,-2.382288923033437089e-01,-1.167417164583457734e-01
1.024999999999999911e+00,1.256541051782783247e-01,-1.980522013591634323e-01,2.231694863614836627e-02
1.026000000000000023e+00,-1.291367468114595907e-01,2.873920783336054736e-03,1.675722733764712091e-01
1.026999999999999913e+00,-3.223460731626429654e-01,1.644828465911411519e-01,1.887483359281032502e-01
1.028000000000000025e+00,-2.327832005708999619e-01,2.136365757645050656e-01,7.702212881310237236e-02
1.028999999999999915e+00,-7.063732846625046802e-02,1.699859246729582274e-01,-8.043069418018471139e-02
1.030000000000000027e+00,2.021454470970259487e-01,-3.545010905456180694e-02,-1.777263625586257556e-01
1.030999999999999917e+00,3.061382608700867203e-01,-1.745525885028875457e-01,-1.702106955997528537e-01
1.032000000000000028e+00,2.422412507198039300e-01,-2.763506246541713729e-01,-4.784238335434305017e-02
1.032999999999999918e+00,9.625639695624061895e-03,-1.243667453639201032e-01,7.978063746760760688e-02
1.034000000000000030e+00,-2.051092119608353137e-01,1.001321465922313941e-01,1.509962252863366328e-01
1.034999999999999920e+00,-3.021069056939801878e-01,2.034671939912862937e-01,1.690838410039821882e-01
1.036000000000000032e+00,-2.167646107659817467e-01,2.115783018825974637e-01,8.778659462748110431e-02
1.036999999999999922e+00,4.896771638653912156e-02,6.926884561672079499e-02,-1.112680991207710690e-01
1.038000000000000034e+00,2.576518444147192222e-01,-1.085879782362039886e-01,-1.474755481642836819e-01
1.038999999999999924e+00,3.058608133949244356e-01,-2.294205965389983504e-01,-1.632224587252605053e-01
1.040000000000000036e+00,1.599858522461012900e-01,-1.957624510565224019e-01,-3.900800318527011118e-02
1.040999999999999925e+00,-8.219109324155368657e-02,-3.651002724362457236e-02,1.450727337459171706e-01
1.042000000000000037e+00,-2.787730005811376310e-01,1.693610816642439065e-01,1.692639997727155288e-01
1.042999999999999927e+00,-2.964056938356422477e-01,2.659437675148776381e-01,1.410632270579205427e-01
1.044000000000000039e+00,-1.013894642908778343e-01,1.086820128042431804e-01,-1.391351949861709472e-02
1.044999999999999929e+00,1.466854662586199454e-01,-2.993581761631971400e-02,-1.398899078099426763e-01
1.046000000000000041e+00,3.148652644381245702e-01,-1.871924136039680997e-01,-1.734583645261904561e-01
1.046999999999999931e+00,2.545648858720452878e-01,-1.833094964584019715e-01,-1.146650199189902797e-01
1.048000000000000043e+00,5.133467623294569321e-02,-1.214110747947400731e-01,1.531724851332475976e-02
1.048999999999999932e+00,-1.726002539569729821e-01,6.551381946934287104e-02,1.702803239165389948e-01
1.050000000000000044e+00,-2.936948119281827529e-01,2.064336969570193803e-01,1.587922928303869829e-01
1.050999999999999934e+00,-2.406891821745427984e-01,1.890484210461536307e-01,9.921198243043814757e-02
1.052000000000000046e+00,-2.215624538450484612e-02,9.644045624420334584e-02,-5.069713650799271415e-02
1.052999999999999936e+00,1.990035254600208137e-01,-1.203111163088915053e-01,-1.686300580839251162e-01
1.054000000000000048e+00,2.555380820342426085e-01,-2.549027317251165159e-01,-1.931883725197423574e-01
1.054999999999999938e+00,2.202328512173790664e-01,-2.263828151586758375e-01,-7.042801271717077927e-02
1.056000000000000050e+00,-3.828317376223007440e-02,-1.182681404654483542e-02,5.443863462265663422e-02
1.056999999999999940e+00,-2.440717486215413512e-01,1.323988428920702676e-01,1.632430756143071482e-01
1.058000000000000052e+00,-2.989438366991718499e-01,2.800001776889208815e-01,1.760655147222155992e-01
1.058999999999999941e+00,-1.520594824231265574e-01,1.862116053748514299e-01,8.814940744917008908e-02
1.060000000000000053e+00,6.703893560027271437e-02,2.115424632206500469e-02,-1.004253995227945562e-01
1.060999999999999943e+00,2.468513193781506909e-01,-2.028192315606027474e-01,-1.805786233023015941e-01
1.062000000000000055e+00,2.700446362901034458e-01,-2.346172282680826227e-01,-1.676683188909200151e-01
1.062999999999999945e+00,1.682130567541890720e-01,-1.456531759027988315e-01,-2.392711916764338545e-02
1.064000000000000057e+00,-1.439569974225646531e-01,7.634000128610569924e-02,1.142907319961993101e-01
1.064999999999999947e+00,-2.773469407868261460e-01,1.803328567211533728e-01,2.047760891967933816e-01
1.066000000000000059e+00,-2.403613658018822208e-01,2.103939541319207185e-01,1.472371621564259325e-01
1.066999999999999948e+00,-8.097659747935954944e-02,1.430759789044205033e-01,-3.371981813063488955e-03
1.068000000000000060e+00,1.972858769173240767e-01,-9.697513891953142562e-02,-1.169574202275938113e-01
1.068999999999999950e+00,2.970151413148215402e-01,-2.097438590606813258e-01,-1.943780510698145114e-01
1.070000000000000062e+00,2.143368941017916030e-01,-2.214323527208302278e-01,-9.503842654284475056e-02
1.070999999999999952e+00,3.954934130349572335e-02,-3.484896629143939550e-02,-7.195948624212788851e-03
1.072000000000000064e+00,-2.183471266492203744e-01,1.373862280269421976e-01,1.482111471232811506e-01
1.072999999999999954e+00,-2.999557565323388020e-01,1.880061180508044993e-01,2.024518500845447211e-01
1.074000000000000066e+00,-2.242768432104018383e-01,1.863514441136255306e-01,1.445127307274506334e-01
1.074999999999999956e+00,3.086540653291615366e-02,1.679235138409516589e-02,-5.064129290545155322e-03
1.076000000000000068e+00,2.296863887074736266e-01,-1.833529344870649946e-01,-1.141474999899568521e-01
1.076999999999999957e+00,3.055990210046651834e-01,-2.316810722052103366e-01,-1.608248187718269995e-01
1.078000000000000069e+00,1.578251128855092944e-01,-1.402255175078405969e-01,-7.405027117468283848e-02
1.078999999999999959e+00,-5.598710315636489659e-02,1.316716612762960578e-02,4.948850824364882384e-02
1.080000000000000071e+00,-2.861393308333201602e-01,2.019839314718075152e-01,1.676744512776146556e-01
1.080999999999999961e+00,-2.822339765687683633e-01,3.086204948016953442e-01,1.908332706266774592e-01
1.082000000000000073e+00,-1.266431716955669085e-01,1.485866676074233950e-01,6.876129304715253299e-02
1.082999999999999963e+00,1.589189951459894778e-01,-1.263867078899258978e-01,-1.067743939606528442e-01
1.084000000000000075e+00,3.066373268844856947e-01,-2.420506515543596193e-01,-1.455334306492818697e-01
1.084999999999999964e+00,2.600294669493773414e-01,-2.192281908957986469e-01,-1.205335232814245539e-01
1.086000000000000076e+00,6.192997121106458974e-02,-3.677835277235117634e-02,-4.005874968852758677e-02
1.086999999999999966e+00,-1.555898936189040460e-01,1.217492063346406889e-01,9.612978373954376987e-02
1.088000000000000078e+00,-3.076905787340804554e-01,2.379922548476595401e-01,1.862921280028748405e-01
1.088999999999999968e+00,-2.522776135265226150e-01,1.982276273355335350e-01,1.611900661219901054e-01
1.090000000000000080e+00,-5.466775564747343441e-02,1.041791085131851639e-02,2.086123998350026057e-02
1.090999999999999970e+00,1.261363928377753907e-01,-1.615808368419809626e-01,-1.304751508239246072e-01
1.092000000000000082e+00,2.720371783635346929e-01,-2.356260473030171998e-01,-1.885604226018796625e-01
1.092999999999999972e+00,2.308333368360580284e-01,-1.909464476224707608e-01,-1.294800618024745387e-01
1.094000000000000083e+00,-5.322612475362508040e-03,3.232384523445817892e-02,6.709442727742625200e-03
1.094999999999999973e+00,-2.350116997646782280e-01,2.027424185733544826e-01,1.653262861727125554e-01
1.096000000000000085e+00,-2.778120417302065714e-01,2.421227104686990983e-01,1.873596382415007866e-01
1.096999999999999975e+00,-1.790309071801439722e-01,1.159212380613934557e-01,1.202661515622593519e-01
1.098000000000000087e+00,8.257599510168689427e-02,-9.597209339542377149e-02,2.336171968356665855e-03
1.098999999999999977e+00,2.697549369857299983e-01,-2.266588666928532059e-01,-1.408763592745395088e-01
1.100000000000000089e+00,2.776181073215013839e-01,-2.556471533836355836e-01,-1.610825375744159571e-01
1.100999999999999979e+00,1.096143152137367266e-01,-4.693011866161242440e-02,-1.032719056118930612e-01
1.102000000000000091e+00,-1.161228320380508910e-01,1.394942464704615748e-01,5.131203623483902854e-02
1.102999999999999980e+00,-2.688911624436594594e-01,2.408280268056842699e-01,1.449701096356640351e-01
1.104000000000000092e+00,-2.573863941778492537e-01,2.189465484222902769e-01,1.885600833869185422e-01
1.104999999999999982e+00,-8.952710396689424199e-02,6.156616678932731040e-02,9.433390060606514083e-02
1.106000000000000094e+00,1.624655598715869509e-01,-1.764094665701422815e-01,-9.022010034855272587e-02
1.106999999999999984e+00,2.688386521683078789e-01,-2.176479082390037900e-01,-1.785432906979514955e-01
1.108000000000000096e+00,2.340560910875093548e-01,-1.592742136130227693e-01,-1.236541938109316785e-01
1.108999999999999986e+00,6.342473689138294901e-02,-4.906354221688231281e-04,-4.185021642143030990e-02
1.110000000000000098e+00,-2.072211487363111448e-01,2.078060319682321078e-01,8.903980927799748368e-02
1.110999999999999988e+00,-3.093826407304673398e-01,2.278406936684428674e-01,1.936649496620936606e-01
1.112000000000000099e+00,-1.918322506987750198e-01,1.378366323752288625e-01,1.485309283448731921e-01
1.112999999999999989e+00,1.526479337563830044e-02,-3.246405820849222051e-02,8.849179430543425984e-03
1.114000000000000101e+00,2.126507565952464596e-01,-2.212921625303347350e-01,-1.148852123845479911e-01
1.114999999999999991e+00,3.023489490249279266e-01,-1.904586506034759985e-01,-1.625103670615128393e-01
1.116000000000000103e+00,1.663157085989227790e-01,-4.906035339216762575e-02,-1.237782862254940552e-01
1.116999999999999993e+00,-8.913958175687493324e-02,1.017180845325968142e-01,-9.708149513642001446e-03
1.118000000000000105e+00,-2.633742250402819063e-01,2.165992685797005490e-01,1.332632230753542368e-01
1.118999999999999995e+00,-2.934123658599535056e-01,1.864969255907710788e-01,2.018630058837555252e-01
1.120000000000000107e+00,-1.256174160142918550e-01,4.605200835064274939e-02,1.061973932855270475e-01
1.120999999999999996e+00,1.309889480506416237e-01,-1.495908446791162083e-01,-2.717918743896719988e-02
1.122000000000000108e+00,2.730792052521188173e-01,-2.395128759140737751e-01,-1.514680962106001449e-01
1.122999999999999998e+00,2.722834312284398983e-01,-1.502029923483821083e-01,-1.747876330367215680e-01
1.124000000000000110e+00,7.248209941027414227e-02,7.740229906415815398e-04,-1.085594710743846142e-01
1.125000000000000000e+00,-1.506263374964255386e-01,1.616056223096868638e-01,6.193268478529802973e-02
1.125999999999999890e+00,-2.926075280917789234e-01,2.289994018958199928e-01,1.717320741887100322e-01
1.127000000000000002e+00,-2.152970705514145322e-01,1.513215682812125984e-01,1.964573880462099909e-01
1.127999999999999892e+00,-4.650351151980049169e-02,-6.057856464394890256e-02,1.111014911434730495e-01
1.129000000000000004e+00,1.864365352647520679e-01,-2.118506610539866997e-01,-4.419735452682528598e-02
1.129999999999999893e+00,2.775935390845429840e-01,-2.101650996447904929e-01,-1.539068451222325162e-01
1.131000000000000005e+00,2.125491745348132566e-01,-9.428120136999015855e-02,-1.705738372241605849e-01
1.131999999999999895e+00,-1.965534249933590001e-03,7.001339773302195368e-02,-4.734665482439738560e-02
1.133000000000000007e+00,-2.388238143741686637e-01,2.040662012606681563e-01,7.796199888575645887e-02
1.133999999999999897e+00,-3.018078390959793578e-01,2.055930666015649833e-01,2.001744113240199741e-01
1.135000000000000009e+00,-1.585470584589357690e-01,6.281832357517481980e-02,1.514344018421046323e-01
1.135999999999999899e+00,6.660098001449588079e-02,-1.288901613544909397e-01,3.472059435693959639e-02
1.137000000000000011e+00,2.469459340494374600e-01,-2.165924083334673789e-01,-9.153417350786548223e-02
1.137999999999999901e+00,2.618506314836263615e-01,-2.051452902242232035e-01,-1.510266788912307534e-01
1.139000000000000012e+00,1.193031377327937459e-01,1.753122503671151198e-03,-1.364141578417029932e-01
1.139999999999999902e+00,-1.173566363377158556e-01,1.751024886008533121e-01,4.188400666210820994e-03
1.141000000000000014e+00,-2.400726183728053298e-01,2.617178548272560135e-01,1.120996129642915923e-01
1.141999999999999904e+00,-3.131301796450189356e-01,1.128294218930826071e-01,1.878882576990018038e-01
1.143000000000000016e+00,-1.156670406040334192e-01,-2.775709370383041413e-02,1.564096990774152818e-01
1.143999999999999906e+00,1.801750565926144854e-01,-2.013586717198521392e-01,3.574240110702724821e-02
1.145000000000000018e+00,2.899573401603727785e-01,-2.347651840394108236e-01,-9.834689620686816458e-02
1.145999999999999908e+00,2.751689710002965805e-01,-1.075359820370745817e-01,-1.406151861822465265e-01
1.147000000000000020e+00,4.215144972709412158e-02,8.085730254415066098e-02,-9.824719548883373288e-02
1.147999999999999909e+00,-1.964449090321287172e-01,2.399658100157580909e-01,3.879895266064847109e-02
1.149000000000000021e+00,-3.243973578497200139e-01,1.824229704483791570e-01,1.117655315329564442e-01
1.149999999999999911e+00,-2.063651334438363905e-01,8.058656713755366074e-02,1.963162919385605387e-01
1.151000000000000023e+00,1.878494851726795686e-02,-1.086849293417615908e-01,5.335298878260420069e-02
1.151999999999999913e+00,2.481496765148173966e-01,-2.433966463289579107e-01,-4.849053175242137859e-02
1.153000000000000025e+00,2.766365004291231888e-01,-2.141270076609648465e-01,-1.466971429324448462e-01
1.153999999999999915e+00,1.849583944398486557e-01,-4.738158228428918095e-02,-1.275103351029723830e-01
1.155000000000000027e+00,-3.522398719019729976e-03,1.672407049145261948e-01,-5.986286699314102150e-02
1.155999999999999917e+00,-2.413408357622519873e-01,2.628831588431478905e-01,7.474070815336085472e-02
1.157000000000000028e+00,-2.921388393308677056e-01,1.331823000454825934e-01,1.790677342889496204e-01
1.157999999999999918e+00,-1.093565511923996897e-01,-1.657493778548869978e-02,1.481603534808459410e-01
1.159000000000000030e+00,8.478106498811371905e-02,-1.954334051153920615e-01,5.615007156654591713e-02
1.159999999999999920e+00,2.842250114122442661e-01,-2.290669131680996840e-01,-6.573619772765798563e-02
1.161000000000000032e+00,2.987640698983116683e-01,-1.356228391651909670e-01,-1.540641503361561415e-01
1.161999999999999922e+00,6.940826445385370191e-02,6.860905546676697442e-02,-1.463626275732630988e-01
1.163000000000000034e+00,-1.147376154600697890e-01,2.099002591755635971e-01,-2.378775626363835004e-03
1.163999999999999924e+00,-2.869949206699876076e-01,2.417491259707184037e-01,1.204730625457682280e-01
1.165000000000000036e+00,-2.542623864063549011e-01,4.527054594696363482e-02,1.484110439139952053e-01
1.165999999999999925e+00,-4.394163741121201450e-02,-9.162495408854362533e-02,1.696403233939384192e-01
1.167000000000000037e+00,2.050019140138138463e-01,-2.450255235293198330e-01,-7.030869091304692677e-04
1.167999999999999927e+00,2.907381189008247380e-01,-1.926294015895871903e-01,-1.588303619796566923e-01
1.169000000000000039e+00,2.148535167771489229e-01,-2.862365671884290613e-02,-1.886368465524096982e-01
1.169999999999999929e+00,7.612855149843262767e-03,1.764410835951726875e-01,-1.203925509889316042e-01
1.171000000000000041e+00,-2.209089293841603741e-01,2.315488045911277548e-01,1.892299991205142334e-02
1.171999999999999931e+00,-2.790892052797672718e-01,1.773014077523187015e-01,1.769373437026846019e-01
1.173000000000000043e+00,-1.655382888539398134e-01,-3.044748568083711915e-02,1.472127998795160764e-01
1.173999999999999932e+00,1.181308637280315335e-02,-1.678789602740437537e-01,8.513498656591139691e-02
1.175000000000000044e+00,2.181810018704050391e-01,-2.274202427104262125e-01,-9.273689275036299182e-03
1.175999999999999934e+00,2.838890488122157718e-01,-1.189640209650273256e-01,-1.883954956664521119e-01
1.177000000000000046e+00,1.475570284150162503e-01,6.043288393435848616e-02,-1.547315350279621915e-01
1.177999999999999936e+00,-1.092275856155818653e-01,2.319410073125023064e-01,-5.634487613531301287e-02
1.179000000000000048e+00,-2.753651197820666807e-01,2.823978967008644037e-01,6.833437453181899490e-02
1.179999999999999938e+00,-2.730392902020695178e-01,1.202565064059553379e-01,1.806711179013471558e-01
1.181000000000000050e+00,-1.213293235907567658e-01,-1.293193675148149313e-01,1.486366227851900756e-01
