time,acc_x,acc_y,acc_z
0.000000000000000000e+00,-4.503763877693144346e-01,-2.518013276408883061e-01,-3.004539041709433089e-01
1.000000000000000021e-03,-3.975826583889223165e-01,-1.689849718603203543e-01,-2.895558975651928435e-01
2.000000000000000042e-03,-3.185480447424832162e-01,-6.785192796108868718e-02,-2.713360981388019955e-01
3.000000000000000062e-03,-2.099663310721983922e-01,9.980345533285344545e-03,-2.549561132529684637e-01
4.000000000000000083e-03,-1.039773528531557772e-01,1.044263406110150089e-01,-1.801274525460441200e-01
5.000000000000000104e-03,-4.390797700543568570e-03,1.870543561724246073e-01,-1.257690400790889840e-01
6.000000000000000125e-03,1.217890234917641951e-01,2.356363788571525508e-01,-6.427931474223988473e-02
7.000000000000000146e-03,2.211502074692946740e-01,2.998645493983144728e-01,-1.073064458383145119e-02
8.000000000000000167e-03,2.803064088930760089e-01,3.270074659665846983e-01,6.249406345314235250e-02
8.999999999999999320e-03,3.803714309264423776e-01,3.269912353831812002e-01,1.268064187389681963e-01
1.000000000000000021e-02,4.072205633972239558e-01,3.113836666287704835e-01,1.572991384071733556e-01
1.099999999999999936e-02,4.019689238215471416e-01,2.703771555607251686e-01,2.131063839140396043e-01
1.200000000000000025e-02,4.109430500654022711e-01,2.169595671754378508e-01,2.412568454573582322e-01
1.299999999999999940e-02,3.465891299262917613e-01,1.450579185989613884e-01,2.631494957728899853e-01
1.400000000000000029e-02,2.922645927344664218e-01,5.268784653985657956e-02,2.543054412510353801e-01
1.499999999999999944e-02,2.171730715744584761e-01,-2.288875761167312103e-02,2.267245690671582659e-01
1.600000000000000033e-02,1.004929243203949440e-01,-1.165355877641169879e-01,2.005044278677786951e-01
1.700000000000000122e-02,-6.586865066692676463e-03,-2.124785934792833564e-01,1.357923920779003646e-01
1.799999999999999864e-02,-1.177122882371520879e-01,-2.904842805900085811e-01,8.615298001071038103e-02
1.899999999999999953e-02,-2.294350379547887009e-01,-3.603783361735315438e-01,2.189350369896503334e-02
2.000000000000000042e-02,-3.432251024234030390e-01,-4.063272893142864661e-01,-5.057639769398115936e-02
2.100000000000000130e-02,-4.194074443863339829e-01,-4.149667226044635449e-01,-1.048329780004929324e-01
2.199999999999999872e-02,-4.839220755366890891e-01,-4.331407327057002488e-01,-2.025794387658111373e-01
2.299999999999999961e-02,-5.508106649759173523e-01,-4.108009820882090324e-01,-2.463992745386213989e-01
2.400000000000000050e-02,-5.562471467691574301e-01,-3.753745369493394768e-01,-2.736144222356073907e-01
2.500000000000000139e-02,-5.524227459771147153e-01,-3.081215796563718801e-01,-3.070542767355162739e-01
2.599999999999999881e-02,-5.030534290854594692e-01,-2.390613190746859740e-01,-3.390560900314545933e-01
2.699999999999999969e-02,-4.376585866457693985e-01,-1.549806708364274144e-01,-3.478445631335871369e-01
2.800000000000000058e-02,-3.550613041428543615e-01,-5.361470897163666399e-02,-3.214337180834979657e-01
2.900000000000000147e-02,-2.458548897655891408e-01,4.270386642438093322e-02,-2.811629141708955060e-01
2.999999999999999889e-02,-1.257743126089015118e-01,1.541619716910885562e-01,-2.392279911814121085e-01
3.099999999999999978e-02,-2.422894098634626944e-02,2.290061935377767643e-01,-1.906940414746396417e-01
3.200000000000000067e-02,1.236954415775576299e-01,3.013173267867910732e-01,-1.201361614861809896e-01
3.300000000000000155e-02,2.305816262986767062e-01,3.854079060206198060e-01,-4.189612602973741273e-02
3.400000000000000244e-02,3.233042590873714262e-01,4.221857768577954029e-01,2.205612984142940255e-02
3.500000000000000333e-02,4.259437791787010763e-01,4.160240209620361118e-01,8.826526679097548844e-02
3.599999999999999728e-02,4.793598030343190208e-01,4.145133481185487301e-01,1.549716150660257474e-01
3.699999999999999817e-02,5.157282547697420449e-01,3.994058918636687050e-01,2.055469376042699248e-01
3.799999999999999906e-02,5.219985820764148077e-01,3.284481098870142834e-01,2.634376866470777290e-01
3.899999999999999994e-02,5.025852234670454832e-01,2.587607016238707702e-01,2.947478577764479080e-01
4.000000000000000083e-02,4.585865010985574197e-01,1.891050083348457811e-01,2.958408474168474078e-01
4.100000000000000172e-02,3.736095734836850646e-01,8.875241304854805668e-02,2.994443037420295162e-01
4.200000000000000261e-02,2.918354830766697328e-01,-2.358215038060776630e-03,2.662284974711978114e-01
4.299999999999999656e-02,1.880699477141669906e-01,-7.995171479025871275e-02,2.445009014143713633e-01
4.399999999999999745e-02,7.186823022305739717e-02,-1.657319441492507150e-01,1.954812762765416323e-01
4.499999999999999833e-02,-3.913131123366039854e-02,-2.205872748418230278e-01,1.439096694831635825e-01
4.599999999999999922e-02,-1.483550524841215079e-01,-2.771800357540755710e-01,8.248429221994775518e-02
4.700000000000000011e-02,-2.457224883574071206e-01,-3.118425518044352640e-01,1.124586528665675114e-02
4.800000000000000100e-02,-3.320775537890158779e-01,-3.366816510004055352e-01,-5.003263949948576206e-02
4.900000000000000189e-02,-3.881208142818910467e-01,-3.121484518479847869e-01,-1.125411632183141997e-01
5.000000000000000278e-02,-3.952913408190418809e-01,-2.929777261279863376e-01,-1.731717033182895715e-01
5.099999999999999672e-02,-4.176506057941629102e-01,-2.300347934331007926e-01,-2.204853221438219379e-01
5.199999999999999761e-02,-3.907520277758564364e-01,-1.638030978626144885e-01,-2.248799061229096730e-01
5.299999999999999850e-02,-3.341431754981545321e-01,-8.849195520050343045e-02,-2.290079228057915750e-01
5.399999999999999939e-02,-2.668258375279179417e-01,3.183720745571804074e-03,-2.458023760251145662e-01
5.500000000000000028e-02,-1.813064937585047443e-01,9.244312876046519023e-02,-2.190802144377795579e-01
5.600000000000000117e-02,-8.454517376683831631e-02,1.786046449724209839e-01,-1.978035890606838765e-01
5.700000000000000205e-02,6.036808509161609854e-02,2.671573286693013638e-01,-1.391332225930978217e-01
5.800000000000000294e-02,1.504851047319520629e-01,3.254248250440595625e-01,-8.361563257019373474e-02
5.899999999999999689e-02,2.638262378356359128e-01,3.931480645013008535e-01,-1.529641416090088066e-02
5.999999999999999778e-02,3.671710526714679346e-01,4.190406258491871649e-01,4.990145550008204950e-02
6.099999999999999867e-02,4.387936687508229294e-01,4.484320322848907026e-01,1.031163232386436979e-01
6.199999999999999956e-02,4.982847004466138263e-01,4.121477263608798181e-01,1.623439849581025385e-01
6.300000000000000044e-02,5.328300788297315460e-01,3.570747864930216009e-01,2.411895461636773541e-01
6.400000000000000133e-02,5.552046064608437970e-01,3.198592229709036894e-01,2.830693276611378484e-01
6.500000000000000222e-02,5.370181313909500043e-01,2.619281825808054687e-01,3.193966944108265760e-01
6.600000000000000311e-02,4.904462516922939996e-01,1.623178563691508314e-01,3.344074819920904718e-01
6.700000000000000400e-02,4.002673524047554721e-01,6.683323707731833596e-02,3.528401642673631433e-01
6.800000000000000488e-02,3.012418901265389026e-01,-5.012260517998921167e-02,2.961506627183482787e-01
6.900000000000000577e-02,1.867361984526366148e-01,-1.372075302765342619e-01,2.833074956109450926e-01
7.000000000000000666e-02,7.024894456936878195e-02,-2.255706899769019114e-01,2.442963974420192808e-01
7.099999999999999367e-02,-5.509212423710281581e-02,-3.211962439560267502e-01,1.706408283487446664e-01
7.199999999999999456e-02,-1.889863092820839308e-01,-3.744963463333980669e-01,1.160261490678585194e-01
7.299999999999999545e-02,-2.866411796253865440e-01,-4.083290551932683976e-01,4.836929356165381444e-02
7.399999999999999634e-02,-3.803157468582122891e-01,-4.325632942714447982e-01,-2.707206844133102502e-02
7.499999999999999722e-02,-4.648218816329578451e-01,-4.236583962439412487e-01,-1.119955829828228194e-01
7.599999999999999811e-02,-5.025416765882305681e-01,-4.117134144327373457e-01,-1.623440547791388522e-01
7.699999999999999900e-02,-4.969729514922119895e-01,-3.725778920534516536e-01,-2.181953970748641281e-01
7.799999999999999989e-02,-5.298690075499825625e-01,-2.830610200642054153e-01,-2.700621129006108845e-01
7.900000000000000078e-02,-4.908032988950659092e-01,-2.046080248689702563e-01,-2.870254127973534408e-01
8.000000000000000167e-02,-4.224747530787600902e-01,-1.412155933819958797e-01,-3.050880609519491804e-01
8.100000000000000255e-02,-3.716682283941321607e-01,-2.480033207611794313e-02,-3.055019986212058614e-01
8.200000000000000344e-02,-2.510576844199198798e-01,5.868312537440949911e-02,-2.757864264713351110e-01
8.300000000000000433e-02,-1.617527036379025618e-01,1.508832679249884900e-01,-2.457071024789515556e-01
8.400000000000000522e-02,-2.396609683032607449e-02,2.115469450429649789e-01,-2.082739559499503790e-01
8.500000000000000611e-02,8.530217258296883542e-02,2.707997874334837629e-01,-1.766181438264024239e-01
8.599999999999999312e-02,1.791064723203674158e-01,3.187099046606716723e-01,-9.177810129728494748e-02
8.699999999999999400e-02,2.639049664862468947e-01,3.284902992278260214e-01,-2.297671797860545775e-02
8.799999999999999489e-02,3.548652355324778407e-01,3.421341389753295714e-01,4.039129729752554548e-02
8.899999999999999578e-02,3.955297886086341363e-01,2.935815663439340639e-01,9.968047672056822017e-02
8.999999999999999667e-02,3.963322305051779071e-01,2.585927462819218592e-01,1.714876260549040021e-01
9.099999999999999756e-02,3.861444893864479089e-01,1.776776526831097547e-01,2.039894864430047139e-01
9.199999999999999845e-02,3.856747437823236369e-01,1.049142018156158096e-01,2.263282863797602129e-01
9.299999999999999933e-02,3.007520697469157622e-01,3.393087733715363652e-02,2.560836701060389964e-01
9.400000000000000022e-02,2.360197408014087228e-01,-8.952056412950544495e-02,2.455338440945589729e-01
9.500000000000000111e-02,1.299583473031989400e-01,-1.701557712314586135e-01,2.253532490755277840e-01
9.600000000000000200e-02,2.739836636398642819e-02,-2.608660257771449609e-01,2.017749014368745153e-01
9.700000000000000289e-02,-8.856109072299112039e-02,-3.108578947076751642e-01,1.309990079947712383e-01
9.800000000000000377e-02,-1.897666047915792520e-01,-3.763194277074412009e-01,9.129656917875821065e-02
9.900000000000000466e-02,-3.076692884901268688e-01,-4.237959467197286445e-01,2.896741312467250931e-02
1.000000000000000056e-01,-3.894743925831452014e-01,-4.364119348874385684e-01,-5.391803934853003216e-02
1.010000000000000064e-01,-4.609475389185397898e-01,-4.359980534958847742e-01,-9.285432481962256623e-02
1.019999999999999934e-01,-5.127914092982427396e-01,-3.675278444704135339e-01,-1.699538909336958670e-01
1.029999999999999943e-01,-5.185832419398840321e-01,-3.039749893549984483e-01,-2.211855450022385539e-01
1.039999999999999952e-01,-5.176956734656467107e-01,-2.373446560216709855e-01,-2.795203759826483947e-01
1.049999999999999961e-01,-4.971609787615466902e-01,-1.593395384465158549e-01,-3.044907027637426822e-01
1.059999999999999970e-01,-4.190352969205117795e-01,-6.903778866575814577e-02,-3.346937679339896943e-01
1.069999999999999979e-01,-3.666689533338987061e-01,5.101521808143556769e-02,-3.276788850268613773e-01
1.079999999999999988e-01,-2.528717554781964028e-01,1.500596509520576161e-01,-3.131183106563501517e-01
1.089999999999999997e-01,-1.511340153392292107e-01,2.139734154270512834e-01,-2.815302292885163982e-01
1.100000000000000006e-01,-2.152826474098551782e-02,3.114692547700151914e-01,-2.558346680650387395e-01
1.110000000000000014e-01,1.353234622379297925e-01,3.727989830280393768e-01,-1.789769651611001766e-01
1.120000000000000023e-01,2.380730574128988863e-01,4.242096012338015254e-01,-1.113021753865925528e-01
1.130000000000000032e-01,3.346260924601675013e-01,4.373984527608784645e-01,-3.663182048086217196e-02
1.140000000000000041e-01,4.167361101790539868e-01,4.272604802967094328e-01,4.420784444645575045e-02
1.150000000000000050e-01,5.028117388339913285e-01,4.230702280469462728e-01,1.123796445644418968e-01
1.160000000000000059e-01,5.202617333182660841e-01,3.636199313858541338e-01,1.751903836534832726e-01
1.170000000000000068e-01,5.427775813292045060e-01,3.150491339090601417e-01,2.258854410986198269e-01
1.179999999999999938e-01,5.187991078596192462e-01,2.460850456973691924e-01,2.803874618592742674e-01
1.189999999999999947e-01,4.906519506860123059e-01,1.484703526346214109e-01,2.992309429134474286e-01
1.199999999999999956e-01,4.221329905503661273e-01,6.828349868956358482e-02,2.991830006359072480e-01
1.209999999999999964e-01,3.137396485456751538e-01,-3.778251242536545540e-02,3.055015638985921211e-01
1.219999999999999973e-01,2.091738070400684102e-01,-1.292580054404948164e-01,2.808192731887924620e-01
1.229999999999999982e-01,1.110296210076798379e-01,-1.987598296946043730e-01,2.523571535124806142e-01
1.239999999999999991e-01,-1.231990992942468520e-02,-2.773385036598469133e-01,2.061010553249039423e-01
1.250000000000000000e-01,-1.098442845471362811e-01,-3.049910738107426966e-01,1.762635633181860173e-01
1.260000000000000009e-01,-2.126860294136087293e-01,-3.311172910648046419e-01,7.755322155017059516e-02
1.270000000000000018e-01,-2.940587187853822559e-01,-3.317064257678429828e-01,1.785929654389784016e-02
1.280000000000000027e-01,-3.553960462095310247e-01,-2.984556968507395269e-01,-5.041099574758593077e-02
1.290000000000000036e-01,-4.114408908365765338e-01,-2.723752797415249782e-01,-9.372547681644220752e-02
1.300000000000000044e-01,-4.148721352867901779e-01,-2.263655728693586555e-01,-1.494739772372253861e-01
1.310000000000000053e-01,-4.040399620422722715e-01,-1.189192400716453518e-01,-2.242569338881723884e-01
1.320000000000000062e-01,-3.558665968550828174e-01,-5.970993632068333223e-02,-2.353542581673878920e-01
1.330000000000000071e-01,-2.858651053302510570e-01,5.546801910974066829e-02,-2.386861968364231423e-01
1.340000000000000080e-01,-1.967433979533809163e-01,1.371892751495175367e-01,-2.468492361128618029e-01
1.350000000000000089e-01,-1.070198348630236884e-01,2.399914501861887262e-01,-2.320627644838848813e-01
1.360000000000000098e-01,2.229653765486775893e-02,2.941557312788704026e-01,-1.862623214949592765e-01
1.370000000000000107e-01,1.211697363483206502e-01,3.442031347437989330e-01,-1.540296280141320029e-01
1.380000000000000115e-01,2.317019211719669736e-01,3.948890355610499281e-01,-9.312481711586337307e-02
1.390000000000000124e-01,3.313192636157675230e-01,4.153294149330599705e-01,-3.406735807080107231e-02
1.400000000000000133e-01,4.149431731060056472e-01,4.013756018082109134e-01,3.482350091701132133e-02
1.409999999999999865e-01,4.868557390154338860e-01,3.718366736199429368e-01,1.036674297328722960e-01
1.419999999999999873e-01,5.253699838477763340e-01,3.338425076356920651e-01,1.792806178466009037e-01
1.429999999999999882e-01,5.262537800586573056e-01,2.548274408833608451e-01,2.171862444362406275e-01
1.439999999999999891e-01,5.263996874611843735e-01,1.810392163925150233e-01,2.678184414750214848e-01
1.449999999999999900e-01,4.590207656968238736e-01,8.198206466396963654e-02,2.971725918195179394e-01
1.459999999999999909e-01,3.841649937373152746e-01,-2.954828480353218975e-02,3.234606185489944941e-01
1.469999999999999918e-01,2.927958304946308710e-01,-1.189202599043665265e-01,3.192431739540431135e-01
1.479999999999999927e-01,2.035325229623247412e-01,-2.044524077993644662e-01,3.072815089084650064e-01
1.489999999999999936e-01,8.247244754798932487e-02,-2.962362951814195844e-01,2.766041163746673637e-01
1.499999999999999944e-01,-5.623237145025063860e-02,-3.535411465424829758e-01,2.259832818487902961e-01
1.509999999999999953e-01,-1.564456354824415030e-01,-4.041678107092782080e-01,1.881240863393359164e-01
1.519999999999999962e-01,-2.787466389117315702e-01,-4.406625006134279321e-01,9.271660692311355090e-02
1.529999999999999971e-01,-3.965482033144103746e-01,-4.383145266223262282e-01,3.834251282803542021e-02
1.539999999999999980e-01,-4.671906953391479767e-01,-4.143086610870118092e-01,-3.794485474496224475e-02
1.549999999999999989e-01,-5.244887802838644753e-01,-3.785163648207914844e-01,-1.182055551046808373e-01
1.559999999999999998e-01,-5.637485074157382314e-01,-3.157184700470056504e-01,-1.805901618977371614e-01
1.570000000000000007e-01,-5.496260238851594648e-01,-2.369091760573016903e-01,-2.365758219871622881e-01
1.580000000000000016e-01,-5.166590851708515730e-01,-1.630565758817016653e-01,-2.786595348272353778e-01
1.590000000000000024e-01,-4.696521416951564554e-01,-6.224006471430866549e-02,-3.244785560015044923e-01
1.600000000000000033e-01,-3.851038516657405708e-01,2.626832347770209630e-02,-3.198407241337228868e-01
1.610000000000000042e-01,-2.674602440228419642e-01,1.183981854917727367e-01,-3.400901764509681735e-01
1.620000000000000051e-01,-1.862801037537319127e-01,1.828248232037847920e-01,-2.924429005156881090e-01
1.630000000000000060e-01,-8.679392424587502319e-02,2.570392753280810738e-01,-2.814293811223887443e-01
1.640000000000000069e-01,3.573162790844126857e-02,3.158698244059203186e-01,-2.048611447542068864e-01
1.650000000000000078e-01,1.681686319907575999e-01,3.349871458005808100e-01,-1.579599311383009241e-01
1.660000000000000087e-01,2.361167595151247856e-01,3.372086688250245934e-01,-8.396266860830028933e-02
1.670000000000000095e-01,3.277451149352855198e-01,3.296556123651978587e-01,-1.926183964388781394e-02
1.680000000000000104e-01,3.730902588689010702e-01,2.721078393056660660e-01,4.326263267646808519e-02
1.690000000000000113e-01,4.039730873744598605e-01,2.093454115974887064e-01,1.128045891093040209e-01
1.700000000000000122e-01,4.209997186173423112e-01,1.562267214796323467e-01,1.537895176346890935e-01
1.710000000000000131e-01,3.663527098988779152e-01,6.960390270059818585e-02,2.062819178626930372e-01
1.719999999999999862e-01,3.347608078396812625e-01,-3.088479846263972664e-02,2.337996149914090827e-01
1.729999999999999871e-01,2.756582509424384542e-01,-1.070235026821865776e-01,2.359708006884167486e-01
1.739999999999999880e-01,1.640546811432707919e-01,-2.078900386479332063e-01,2.243009139767241922e-01
1.749999999999999889e-01,7.152703367533269629e-02,-2.758654929427183933e-01,2.228230035864560976e-01
1.759999999999999898e-01,-7.044107333880472721e-02,-3.273818262715335603e-01,1.992612966052346168e-01
1.769999999999999907e-01,-1.674172889831279654e-01,-3.859392132662885500e-01,1.487785637057374988e-01
1.779999999999999916e-01,-2.592225401120179518e-01,-3.992224197966313670e-01,6.973109985200734440e-02
1.789999999999999925e-01,-3.555045196916992167e-01,-3.918189237169571459e-01,4.250365197521825678e-02
1.799999999999999933e-01,-4.528898951012969021e-01,-3.794743864057074090e-01,-4.254410721429908310e-02
1.809999999999999942e-01,-4.770957386111915333e-01,-3.087207767358241539e-01,-1.072350761824736737e-01
1.819999999999999951e-01,-5.187671306058255771e-01,-2.675116393694094152e-01,-1.738003754517495336e-01
1.829999999999999960e-01,-5.152273416940117423e-01,-1.846480132367638582e-01,-2.298148602759413073e-01
1.839999999999999969e-01,-4.949965686230155537e-01,-9.472586227802066994e-02,-2.682174962920264583e-01
1.849999999999999978e-01,-4.154584855193534931e-01,1.206405298856602464e-02,-3.006469892620872719e-01
1.859999999999999987e-01,-3.503889116044255347e-01,1.068250293237366089e-01,-3.267287941189344069e-01
1.869999999999999996e-01,-2.545935966715954235e-01,1.844454598814863622e-01,-3.122110306055680962e-01
1.880000000000000004e-01,-1.495763496230159417e-01,2.895040730832889042e-01,-3.082178345167937428e-01
1.890000000000000013e-01,-2.180002397031471917e-02,3.444567962686970186e-01,-2.598032989108087776e-01
1.900000000000000022e-01,1.070373623606840352e-01,4.121301875529480019e-01,-2.224926410141722655e-01
1.910000000000000031e-01,2.309726072226326310e-01,4.385909820607141740e-01,-1.878234004349111919e-01
1.920000000000000040e-01,3.416648240001107784e-01,4.521111218186549263e-01,-8.270011933733953380e-02
1.930000000000000049e-01,4.264175148245663016e-01,4.384641227374583838e-01,-2.872524560407941491e-02
1.940000000000000058e-01,4.994516530416489020e-01,4.163833824083429946e-01,4.698447595734529803e-02
1.950000000000000067e-01,5.381217714010770869e-01,3.534475220307190524e-01,1.137888158535296512e-01
1.960000000000000075e-01,5.609290796386512401e-01,2.867450052388127446e-01,1.887036688295026798e-01
1.970000000000000084e-01,5.414013413870070179e-01,2.091844648853919131e-01,2.315463483946668954e-01
1.980000000000000093e-01,5.045709408595919765e-01,8.993678006511396372e-02,2.787281826360366033e-01
1.990000000000000102e-01,4.245701050099198182e-01,4.022501759510430618e-03,3.053754947847283630e-01
2.000000000000000111e-01,3.599066271472028955e-01,-8.801755951282859425e-02,3.280343759405022763e-01
2.010000000000000120e-01,2.200090473574450589e-01,-1.800973352092851143e-01,3.149540912261180048e-01
2.020000000000000129e-01,1.543047944402974325e-01,-2.422449911440553716e-01,2.983438090977265644e-01
2.030000000000000138e-01,2.211751625544515487e-02,-2.796418478663432183e-01,2.543159205021494618e-01
2.039999999999999869e-01,-1.009488905042523477e-01,-3.471639993274462932e-01,2.328045952902333682e-01
2.049999999999999878e-01,-1.873171614011507891e-01,-3.479303761311030585e-01,1.732783812222166986e-01
2.059999999999999887e-01,-2.923745252747250167e-01,-3.248679210561802866e-01,7.816479685806165811e-02
2.069999999999999896e-01,-3.632898887718853387e-01,-2.914562708123873969e-01,2.898012655088027384e-02
2.079999999999999905e-01,-4.117664122064511045e-01,-2.394988396302510369e-01,-2.470352052066455972e-02
2.089999999999999913e-01,-4.109194247854557891e-01,-1.856719627379237458e-01,-1.128570252746270708e-01
2.099999999999999922e-01,-3.999320153306344938e-01,-8.932586939636510959e-02,-1.702920090857222013e-01
2.109999999999999931e-01,-3.652576569480773805e-01,-1.176268939625773328e-04,-2.171418021035689261e-01
2.119999999999999940e-01,-3.163673441515319484e-01,7.787152285556631082e-02,-2.282933817835018364e-01
2.129999999999999949e-01,-2.309685829747726571e-01,1.764861219079245092e-01,-2.540898343322909314e-01
2.139999999999999958e-01,-1.229322155608881112e-01,2.438311467987542280e-01,-2.440113825874257736e-01
2.149999999999999967e-01,-2.275879454525982226e-02,3.331761608650168904e-01,-2.344267068040175039e-01
2.159999999999999976e-01,8.253514278748516619e-02,3.862678390305039899e-01,-2.029171739946908082e-01
2.169999999999999984e-01,2.046053662128632655e-01,3.857665361321522268e-01,-1.554477500191346340e-01
2.179999999999999993e-01,3.055222108859514396e-01,4.036560447697180032e-01,-8.246411788302430990e-02
2.190000000000000002e-01,3.861783269155316667e-01,3.667925406965493740e-01,-3.649464413699066156e-02
2.200000000000000011e-01,4.437039529624301482e-01,3.285551243805596711e-01,3.318714027663986071e-02
2.210000000000000020e-01,4.875456784586803538e-01,2.778389061252815040e-01,1.191441772027600349e-01
2.220000000000000029e-01,5.073981259295891055e-01,1.830098334657024872e-01,1.551898322546890752e-01
2.230000000000000038e-01,4.826838264810197621e-01,9.549930189728997321e-02,2.188636946535239547e-01
2.240000000000000047e-01,4.480372954666480556e-01,1.326929172778829741e-02,2.568050849752819831e-01
2.250000000000000056e-01,3.919094042671162903e-01,-1.010516131247228694e-01,2.931280813978370814e-01
2.260000000000000064e-01,3.152798010685887165e-01,-1.820050776925143388e-01,3.027225845716473573e-01
2.270000000000000073e-01,1.784375520886438138e-01,-2.719921911197616948e-01,3.006962758370110289e-01
2.280000000000000082e-01,7.248977208439463804e-02,-3.463580538163500977e-01,2.922019468028059785e-01
2.290000000000000091e-01,-5.332347279958574854e-02,-4.020873173234854603e-01,2.630162368453042854e-01
2.300000000000000100e-01,-1.803730542959589289e-01,-4.421421635691378249e-01,2.092003725007306192e-01
2.310000000000000109e-01,-2.853274548230149699e-01,-4.301718339363188037e-01,1.482830787716987730e-01
2.320000000000000118e-01,-3.816785198663625311e-01,-4.563356621955769743e-01,9.245185467726271811e-02
2.330000000000000127e-01,-4.585617551728529140e-01,-4.162333785352579918e-01,1.829968134672854685e-02
2.340000000000000135e-01,-5.306443666191172914e-01,-3.595818333609618889e-01,-6.489952187858272215e-02
2.349999999999999867e-01,-5.651392557708835307e-01,-2.761060612147033799e-01,-1.329400425334147928e-01
2.359999999999999876e-01,-5.720398052274507927e-01,-1.990173151535184759e-01,-1.841114661922569895e-01
2.369999999999999885e-01,-5.132580289422754571e-01,-1.051901812735479141e-01,-2.375240832405779989e-01
2.379999999999999893e-01,-4.953075658567858697e-01,-2.239105426590191558e-02,-2.759260744304895541e-01
2.389999999999999902e-01,-4.146074191490876082e-01,6.629625217575708940e-02,-3.165397686804478083e-01
2.399999999999999911e-01,-3.171348929082106749e-01,1.490615185468782133e-01,-3.410550445821265986e-01
2.409999999999999920e-01,-2.179292690853861791e-01,2.280890508951342599e-01,-3.426231190735135046e-01
2.419999999999999929e-01,-1.100189318353378687e-01,3.005591256804659439e-01,-3.018380812716378592e-01
2.429999999999999938e-01,2.105182388300736590e-02,3.295330806350560415e-01,-2.605593639743703505e-01
2.439999999999999947e-01,1.251617099336269079e-01,3.368909905651394365e-01,-2.141988407088535329e-01
2.449999999999999956e-01,2.144936014723299311e-01,3.162136935187154219e-01,-1.659948780225891374e-01
2.459999999999999964e-01,3.065461350104521920e-01,2.951816842418330533e-01,-1.042967959747864576e-01
2.469999999999999973e-01,3.796942060411275799e-01,2.705579536715265743e-01,-3.468104874521282799e-02
2.479999999999999982e-01,4.068921105984014686e-01,1.705375481885774702e-01,3.158003252457326770e-02
2.489999999999999991e-01,4.261184768974922155e-01,1.370739605841693187e-01,1.092771792517447521e-01
2.500000000000000000e-01,4.030175207759203460e-01,1.587738947815378610e-02,1.614955217704132084e-01
2.510000000000000009e-01,3.454999398894396112e-01,-5.142781753131232120e-02,1.877679483313477726e-01
2.520000000000000018e-01,2.836863248548036065e-01,-1.585701298386952840e-01,2.280715898250454121e-01
2.530000000000000027e-01,2.028109927678110325e-01,-2.364310981493662200e-01,2.385987514395559173e-01
2.540000000000000036e-01,1.025931401620763794e-01,-2.900122885971488373e-01,2.423134331849892409e-01
2.550000000000000044e-01,-1.466181756565842001e-02,-3.444777137210802698e-01,2.342838249518982285e-01
2.560000000000000053e-01,-1.176078798644486223e-01,-3.867023345910520771e-01,2.109599234989417982e-01
2.570000000000000062e-01,-2.451496060243897879e-01,-4.032893669682493520e-01,1.470880012280905424e-01
2.580000000000000071e-01,-3.380981690387116489e-01,-3.756322562368220042e-01,1.076748553447171852e-01
2.590000000000000080e-01,-3.892005604270155628e-01,-3.507582614331204440e-01,5.531773805027988961e-02
2.600000000000000089e-01,-4.462188706089683654e-01,-2.896687142830528527e-01,-3.223712321752614240e-02
2.610000000000000098e-01,-4.984330029428388209e-01,-2.060707710811109372e-01,-9.397985737375907922e-02
2.620000000000000107e-01,-5.090645808165207287e-01,-1.179843502036342778e-01,-1.625335538219695175e-01
2.630000000000000115e-01,-4.799924492345841176e-01,-2.792508812537288290e-02,-2.143403686316938117e-01
2.640000000000000124e-01,-4.198095732505379707e-01,6.455852157183004925e-02,-2.577785017153614300e-01
2.650000000000000133e-01,-3.602605074038278121e-01,1.559006262069455029e-01,-2.906517610061321033e-01
2.660000000000000142e-01,-2.525999590557269081e-01,2.615251933207473622e-01,-2.964468089429396769e-01
2.670000000000000151e-01,-1.166905228368364245e-01,3.408182409485853159e-01,-2.981949379552514268e-01
2.680000000000000160e-01,-2.147235341444839532e-02,3.990568424485081978e-01,-2.959261945501974744e-01
2.690000000000000169e-01,1.147135217791490497e-01,4.262708565096341440e-01,-2.429459474150686138e-01
2.700000000000000178e-01,2.365894352959160840e-01,4.659151104077786654e-01,-2.020031223458756409e-01
2.710000000000000187e-01,3.347004853493523169e-01,4.602207885151127775e-01,-1.449744223169115720e-01
2.720000000000000195e-01,4.130138363236703913e-01,4.259513467568177281e-01,-8.831796887663340145e-02
2.730000000000000204e-01,4.963736308115799245e-01,3.673213767310394284e-01,-3.473855280055101330e-02
2.740000000000000213e-01,5.270701886762997335e-01,2.961543709981027117e-01,6.039672276995217831e-02
2.750000000000000222e-01,5.670624264038927054e-01,2.366006493673007971e-01,1.243269022720734779e-01
2.760000000000000231e-01,5.445606686615058756e-01,1.323487786267386612e-01,1.943630822770431033e-01
2.770000000000000240e-01,5.295157553695578612e-01,4.604668725977315025e-02,2.700836542922365746e-01
2.780000000000000249e-01,4.746499930406464229e-01,-6.530402072255318824e-02,2.947800376444261738e-01
2.790000000000000258e-01,3.788438456951089273e-01,-1.390143146661844964e-01,3.079691854862534606e-01
2.800000000000000266e-01,2.858833703122838910e-01,-2.172997472992691248e-01,3.386630676788229821e-01
2.810000000000000275e-01,1.608697864649892284e-01,-2.828714220374157762e-01,3.366769061947823549e-01
2.819999999999999729e-01,5.543928432460994843e-02,-3.142539019900534303e-01,3.200525686950619342e-01
2.829999999999999738e-01,-6.323222500726205508e-02,-3.538000955540652748e-01,2.657474078700124975e-01
2.839999999999999747e-01,-1.832970041547029583e-01,-3.587043637099199822e-01,2.326430180381803825e-01
2.849999999999999756e-01,-2.879243504340165405e-01,-3.333859367810730889e-01,1.779512504465955991e-01
2.859999999999999765e-01,-3.400845624070858997e-01,-2.988409286241952012e-01,7.316821194099001890e-02
2.869999999999999774e-01,-3.988809311768482524e-01,-2.155081543254550869e-01,3.676998713143088404e-02
2.879999999999999782e-01,-4.177765173154927569e-01,-1.394438894291525066e-01,-3.028876108954928550e-02
2.889999999999999791e-01,-4.244832280520342560e-01,-6.302292589166211267e-02,-8.999190273783534699e-02
2.899999999999999800e-01,-4.060755726218729933e-01,2.134056035972363777e-02,-1.601299236193425013e-01
2.909999999999999809e-01,-3.296893887839543180e-01,1.390069823792606518e-01,-2.051942419572774512e-01
2.919999999999999818e-01,-2.629221719174583694e-01,2.059232704409568737e-01,-2.458668655934709291e-01
2.929999999999999827e-01,-1.694725964444510902e-01,2.785693570069308622e-01,-2.302178737119189023e-01
2.939999999999999836e-01,-4.887266614497009359e-02,3.292815356091989276e-01,-2.483662843602099934e-01
2.949999999999999845e-01,3.745073351377539717e-02,3.686569098161097680e-01,-2.493285327432222254e-01
2.959999999999999853e-01,1.607792139638801743e-01,3.555009377433647200e-01,-2.067531487784761424e-01
2.969999999999999862e-01,2.638004539614656196e-01,3.597166482718098246e-01,-1.793190937931956053e-01
2.979999999999999871e-01,3.616733063465469855e-01,3.364605358852723049e-01,-1.059396944562967791e-01
2.989999999999999880e-01,4.134669629323350359e-01,2.797204467369991399e-01,-5.364828022408218294e-02
2.999999999999999889e-01,4.768365828695895203e-01,2.225497237035279907e-01,2.191588348456185997e-02
3.009999999999999898e-01,4.865259594878438842e-01,1.100291189869656711e-01,7.537173977902708599e-02
3.019999999999999907e-01,4.791251022918552316e-01,4.097144207701856194e-02,1.410747964014126832e-01
3.029999999999999916e-01,4.407451785042724723e-01,-6.786174558893674769e-02,2.089979352383266875e-01
3.039999999999999925e-01,3.877260033720340560e-01,-1.604693037107871312e-01,2.671932187249413393e-01
3.049999999999999933e-01,2.938018038129060483e-01,-2.747466634878186209e-01,2.975205050956818420e-01
3.059999999999999942e-01,1.950149793738702730e-01,-3.302384695482746269e-01,2.932604887797806148e-01
3.069999999999999951e-01,9.103736960345516771e-02,-3.849483752691735261e-01,2.896201929379980666e-01
3.079999999999999960e-01,-3.198226026559164437e-02,-4.483018678099423560e-01,2.816343394915234999e-01
3.089999999999999969e-01,-1.679854129542073804e-01,-4.659678189937689341e-01,2.473693694022749689e-01
3.099999999999999978e-01,-2.646280178160169694e-01,-4.687559881741641399e-01,2.116824707891433455e-01
3.109999999999999987e-01,-3.805315850700650704e-01,-4.226209153492025972e-01,1.407754638067360009e-01
3.119999999999999996e-01,-4.490366849877737154e-01,-4.068031182434920234e-01,8.770472805113943560e-02
3.130000000000000004e-01,-5.165809580314703053e-01,-3.308828163171304015e-01,2.270479418721228770e-02
3.140000000000000013e-01,-5.515972220071667653e-01,-2.377607303838100983e-01,-7.594334988708123513e-02
3.150000000000000022e-01,-5.699775567710814173e-01,-1.615389846410284214e-01,-1.307633238318002822e-01
3.160000000000000031e-01,-5.459705662312891450e-01,-6.587691953797934763e-02,-1.938052932046423482e-01
3.170000000000000040e-01,-5.032220341489270776e-01,4.034306448222524377e-02,-2.504719032479744700e-01
3.180000000000000049e-01,-4.404454480776191505e-01,1.335308758264239226e-01,-2.959076714670512698e-01
3.190000000000000058e-01,-3.418413092206116777e-01,2.067713046859622761e-01,-3.345084013487161778e-01
3.200000000000000067e-01,-2.302968585481096342e-01,2.926141521899228715e-01,-3.282104656936390419e-01
3.210000000000000075e-01,-1.278003394741967502e-01,3.271389730194935730e-01,-3.386090980408709705e-01
3.220000000000000084e-01,1.204270033018209687e-02,3.535378001692127681e-01,-3.041722216019849823e-01
3.230000000000000093e-01,1.148330057014396027e-01,3.455316506998506454e-01,-2.786144117247327245e-01
3.240000000000000102e-01,2.105560925741862821e-01,3.392954737771582963e-01,-2.261901673610580421e-01
3.250000000000000111e-01,3.040965112582199592e-01,2.915830846663418630e-01,-1.799681295663420333e-01
3.260000000000000120e-01,3.727757777115191518e-01,2.287477714611855506e-01,-1.014565536845186966e-01
3.270000000000000129e-01,4.248520909831919323e-01,1.752681232152115687e-01,-2.428543436275975437e-02
3.280000000000000138e-01,4.466177678565521059e-01,7.336591357884277020e-02,3.469786116009849347e-02
3.290000000000000147e-01,4.244240723919494029e-01,-1.071984669989145718e-02,1.178868885381029602e-01
3.300000000000000155e-01,3.849955844437343844e-01,-1.114580524794706456e-01,1.527816975034170521e-01
3.310000000000000164e-01,3.314859883962640308e-01,-1.729828228376274757e-01,2.032874873612210420e-01
3.320000000000000173e-01,2.388116667255816838e-01,-2.708748025270075743e-01,2.311151853104380371e-01
3.330000000000000182e-01,1.394909673839709041e-01,-3.270259011189308729e-01,2.536287859740463668e-01
3.340000000000000191e-01,1.606130788927990702e-02,-3.501032636672033460e-01,2.601412466175143101e-01
3.350000000000000200e-01,-9.496746393694115163e-02,-3.527950882277701150e-01,2.241786370842990816e-01
3.360000000000000209e-01,-1.854625340122294797e-01,-3.637571755480040192e-01,2.258256460426368850e-01
3.370000000000000218e-01,-2.774863896112074180e-01,-3.465741881316095063e-01,1.630034196526991830e-01
3.380000000000000226e-01,-3.638143574197712504e-01,-2.861105230658422816e-01,1.103078855305907879e-01
3.390000000000000235e-01,-4.134464965630304523e-01,-2.398179009271410034e-01,4.685649391347403159e-02
3.400000000000000244e-01,-4.759716090692467372e-01,-1.650051887023997188e-01,-2.387523119786477341e-02
3.410000000000000253e-01,-4.952470300477127552e-01,-5.390620189895708320e-02,-7.916217311146310498e-02
3.420000000000000262e-01,-4.491863292384692952e-01,3.615203109087737621e-02,-1.422845060437459286e-01
3.430000000000000271e-01,-4.026917273261367280e-01,1.481454928266148219e-01,-2.072523088797276480e-01
3.439999999999999725e-01,-3.371656932582453581e-01,2.314281372378053925e-01,-2.383978737457481956e-01
3.449999999999999734e-01,-2.367390020860311861e-01,2.969226281724340333e-01,-2.683390581424781041e-01
3.459999999999999742e-01,-1.582139165426544591e-01,3.807123430173244283e-01,-2.912421100240389360e-01
3.469999999999999751e-01,-2.485126872636972753e-02,4.401491201573827228e-01,-3.021084398703574592e-01
3.479999999999999760e-01,8.700180775642356312e-02,4.612255748632140828e-01,-2.839682405006173083e-01
3.489999999999999769e-01,2.132252677708510180e-01,4.582757578905730655e-01,-2.356652193765717551e-01
3.499999999999999778e-01,3.381252405939130790e-01,4.567166742082634512e-01,-2.012903727775366414e-01
3.509999999999999787e-01,4.120868052326920883e-01,3.916936247541312754e-01,-1.286598616324681754e-01
3.519999999999999796e-01,5.030043156481669442e-01,3.386804275732454017e-01,-5.518579501978540525e-02
3.529999999999999805e-01,5.461737542288550573e-01,2.718854640201964212e-01,-2.908033390373328253e-03
3.539999999999999813e-01,5.849388200398418780e-01,1.584121243292421488e-01,5.624765832692291134e-02
3.549999999999999822e-01,5.710612799779143378e-01,6.586674634294090169e-02,1.523600264417983574e-01
3.559999999999999831e-01,5.344555157049760696e-01,-2.959213105184467854e-02,2.077961291963554835e-01
3.569999999999999840e-01,4.877739003942634932e-01,-1.318642158959473232e-01,2.673816241908495983e-01
3.579999999999999849e-01,4.152629915565853591e-01,-2.073102288033727147e-01,2.982630519092594468e-01
3.589999999999999858e-01,2.887459591224719180e-01,-2.669686142995773004e-01,3.306652988322549835e-01
3.599999999999999867e-01,1.892094726425087026e-01,-3.199201653276438351e-01,3.582603304739608863e-01
3.609999999999999876e-01,7.690784012038942574e-02,-3.505735102131822267e-01,3.457908507649037899e-01
3.619999999999999885e-01,-5.267660032850542823e-02,-3.531380608709394631e-01,3.191588547237282913e-01
3.629999999999999893e-01,-1.808933504751105703e-01,-3.351968637714708987e-01,2.783020958287703572e-01
3.639999999999999902e-01,-2.617678446327344477e-01,-3.188736475965257555e-01,2.136600856762416734e-01
3.649999999999999911e-01,-3.531295927311377536e-01,-2.508215089913210516e-01,1.516106044399079256e-01
3.659999999999999920e-01,-3.854823680165237465e-01,-1.922522248553346913e-01,9.265956369459002473e-02
3.669999999999999929e-01,-4.537874261035815260e-01,-1.076174972379351502e-01,2.980633988629961123e-02
3.679999999999999938e-01,-4.304426972112782024e-01,-1.049922006997149222e-02,-3.213918304725341124e-02
3.689999999999999947e-01,-4.198715116986727613e-01,7.049633317712891700e-02,-1.228300967352868728e-01
3.699999999999999956e-01,-3.738469821630009959e-01,1.464489754328106297e-01,-1.384627752642996479e-01
3.709999999999999964e-01,-2.829403639518065505e-01,2.316806017616596935e-01,-2.142111780229684626e-01
3.719999999999999973e-01,-2.050285330487398305e-01,2.997985259325931517e-01,-2.446249650507117401e-01
3.729999999999999982e-01,-1.073700158318758729e-01,3.301927719678100503e-01,-2.701143255778625796e-01
3.739999999999999991e-01,1.048032374040930997e-02,3.664626579498469483e-01,-2.561537996074106927e-01
3.750000000000000000e-01,1.154256409352926172e-01,3.802600450683186750e-01,-2.452559242416590124e-01
3.760000000000000009e-01,2.354131323056459502e-01,3.338624572918568734e-01,-2.184474456513796348e-01
3.770000000000000018e-01,2.966243286580997895e-01,3.073643947997638515e-01,-1.676268689456092142e-01
3.780000000000000027e-01,3.998116550884150411e-01,2.266895917025228968e-01,-1.082989998847770780e-01
3.790000000000000036e-01,4.290938048446048536e-01,1.584950236627110376e-01,-4.971286565553578035e-02
3.800000000000000044e-01,4.574125802506527338e-01,5.874378753157688537e-02,6.321567833573305158e-03
3.810000000000000053e-01,4.534795405776863020e-01,-2.770882503826803400e-02,9.245056030664053348e-02
3.820000000000000062e-01,4.275799996450210805e-01,-1.402969006313070088e-01,1.215937825217981716e-01
3.830000000000000071e-01,3.733248404556706035e-01,-2.228332887515778460e-01,2.158512205934390027e-01
3.840000000000000080e-01,3.115434322687343216e-01,-2.947924089712763984e-01,2.317941391552642560e-01
3.850000000000000089e-01,1.935908777295013983e-01,-3.724973438634229805e-01,2.762211807900390448e-01
3.860000000000000098e-01,8.690851676170523177e-02,-4.196320376691776710e-01,2.830457334565266159e-01
3.870000000000000107e-01,-3.899281469568722375e-02,-4.573017390646881286e-01,2.750435764407256345e-01
3.880000000000000115e-01,-1.233763010401703192e-01,-4.769499077298611223e-01,2.625044132127625218e-01
3.890000000000000124e-01,-2.638720070799092654e-01,-4.526648199269832085e-01,2.390226478509509533e-01
3.900000000000000133e-01,-3.734077824017210112e-01,-4.061619018395787872e-01,1.896347792140389288e-01
3.910000000000000142e-01,-4.600721358047833998e-01,-3.499110324533379890e-01,1.293445349647007747e-01
3.920000000000000151e-01,-5.347739620464004862e-01,-2.698864128146384878e-01,6.793311024892244310e-02
3.930000000000000160e-01,-5.839931160241617070e-01,-1.698983624037976037e-01,-1.025319111560898076e-02
3.940000000000000169e-01,-5.682076634708628227e-01,-9.356140957185324347e-02,-8.268093374119089844e-02
3.950000000000000178e-01,-5.480399505740067845e-01,1.730590655538738476e-02,-1.657937912572476080e-01
3.960000000000000187e-01,-5.249544005720734319e-01,1.163437695674847533e-01,-2.134776020270553187e-01
3.970000000000000195e-01,-4.601510064600923822e-01,2.013495965610639649e-01,-2.541851109179308343e-01
3.980000000000000204e-01,-3.764135491926839383e-01,2.629510725560859075e-01,-3.242317115006736472e-01
3.990000000000000213e-01,-2.396810347624293014e-01,3.198364326594307361e-01,-3.425153655192728075e-01
4.000000000000000222e-01,-1.477226429113918937e-01,3.472933440741491351e-01,-3.337506773341633592e-01
4.010000000000000231e-01,-1.274448658763471798e-02,3.681259813558100946e-01,-3.404534992840915208e-01
4.020000000000000240e-01,1.149965256852242684e-01,3.702417886750855036e-01,-3.174495840846459638e-01
4.030000000000000249e-01,2.230151656062944188e-01,3.387626039131177991e-01,-2.689534297485184355e-01
4.040000000000000258e-01,2.996653668511121693e-01,2.927786521469588621e-01,-2.409283051385980035e-01
4.050000000000000266e-01,3.802683354191548348e-01,2.210260334238009217e-01,-1.745831880470527231e-01
4.060000000000000275e-01,4.260705291746682000e-01,1.209375832219432428e-01,-1.049972849187346124e-01
4.069999999999999729e-01,4.683952631832680735e-01,4.164248049754018521e-02,-3.676487364481938191e-02
4.079999999999999738e-01,4.402200571608417823e-01,-5.012831998324068783e-02,4.407790274131305475e-02
4.089999999999999747e-01,4.147221655823182251e-01,-1.324363431733291685e-01,1.114820826729229636e-01
4.099999999999999756e-01,3.582940356605116561e-01,-2.215404642648515776e-01,1.700871033695159629e-01
4.109999999999999765e-01,2.662624565743220706e-01,-2.755599820514647580e-01,2.274555162757898596e-01
4.119999999999999774e-01,1.751947977007893564e-01,-3.137895413936616640e-01,2.576343776527125762e-01
4.129999999999999782e-01,5.027434228379886599e-02,-3.437567341158321299e-01,2.753282948123367824e-01
4.139999999999999791e-01,-2.875343152425809123e-02,-3.700269851293668810e-01,2.713208779616390620e-01
4.149999999999999800e-01,-1.458451720468430246e-01,-3.591123822390490106e-01,2.440156636027119574e-01
4.159999999999999809e-01,-2.409967133754543633e-01,-2.846696782156300509e-01,2.167317685143815842e-01
4.169999999999999818e-01,-3.296518736164592567e-01,-2.294345068556352674e-01,1.682409270168926385e-01
4.179999999999999827e-01,-4.033236811937087052e-01,-1.735477125368448115e-01,1.371116686958667175e-01
4.189999999999999836e-01,-4.349616659832561405e-01,-8.483760912754816086e-02,4.760479870168991823e-02
4.199999999999999845e-01,-4.727502789842837894e-01,2.098035662840756072e-02,-1.688196656484826363e-02
4.209999999999999853e-01,-4.388457016854842574e-01,1.227533630328598996e-01,-8.557322744917657265e-02
4.219999999999999862e-01,-3.979053198425235860e-01,2.136894779504397712e-01,-1.328462699535950531e-01
4.229999999999999871e-01,-3.409180740697230760e-01,2.871302295309010044e-01,-2.015947455519529474e-01
4.239999999999999880e-01,-2.547530019108377730e-01,3.814723373503285386e-01,-2.269359514003954081e-01
4.249999999999999889e-01,-1.524014051181473151e-01,4.208772201625541332e-01,-2.542055730674116498e-01
4.259999999999999898e-01,-2.790150174890166507e-02,4.455056249514632305e-01,-2.835141445332730603e-01
4.269999999999999907e-01,9.240343213889012919e-02,4.651352955421999003e-01,-2.778701351899547367e-01
4.279999999999999916e-01,2.112953319037184641e-01,4.341895957367334358e-01,-2.647954447687335122e-01
4.289999999999999925e-01,3.081991154714119330e-01,3.965429630489267221e-01,-2.328310441694792232e-01
4.299999999999999933e-01,4.201159550464395043e-01,3.542095569555689938e-01,-1.854229934708373773e-01
4.309999999999999942e-01,4.974531919813759417e-01,2.848600086918956498e-01,-1.270579822307400519e-01
4.319999999999999951e-01,5.419794151686105899e-01,1.941725584027665930e-01,-5.339904282035198846e-02
4.329999999999999960e-01,5.878856006668863321e-01,1.134900723462818339e-01,7.142285593152321484e-03
4.339999999999999969e-01,5.723138184273779405e-01,2.483199782967192293e-02,8.373010150122890682e-02
4.349999999999999978e-01,5.625030090930909221e-01,-9.599342334044579095e-02,1.331279545820784893e-01
4.359999999999999987e-01,4.781402879713504417e-01,-1.876151717250250095e-01,2.091935171738999732e-01
4.369999999999999996e-01,3.951561496464416345e-01,-2.637320238413312090e-01,2.734107551888075860e-01
4.380000000000000004e-01,3.076287372737983583e-01,-3.266433313204381017e-01,3.041291657608095611e-01
4.390000000000000013e-01,1.875405906055350458e-01,-3.579276161368191711e-01,3.412235008524894808e-01
4.400000000000000022e-01,7.109542636419309558e-02,-3.678696639628609710e-01,3.506003901891560637e-01
4.410000000000000031e-01,-4.581001237317692404e-02,-3.704279771005248856e-01,3.301119126688252248e-01
4.420000000000000040e-01,-1.540990811341837463e-01,-3.449489961722697062e-01,3.206936859072123114e-01
4.430000000000000049e-01,-2.478195148082386889e-01,-3.194345837327158821e-01,2.753139009616261124e-01
4.440000000000000058e-01,-3.428283564522475180e-01,-2.331803446239983368e-01,2.186106735143907298e-01
4.450000000000000067e-01,-4.050450529964783608e-01,-1.595025956460620065e-01,1.698505821297211782e-01
4.460000000000000075e-01,-4.631612150681583828e-01,-6.987721193869748937e-02,7.984208993711590374e-02
4.470000000000000084e-01,-4.590209792806105860e-01,9.553087794222871534e-03,2.992574026166995929e-02
4.480000000000000093e-01,-4.590827925297475409e-01,1.113754236186577928e-01,-2.618834887683846313e-02
4.490000000000000102e-01,-4.072364057530210579e-01,1.784722968735776016e-01,-1.025281504534937410e-01
4.500000000000000111e-01,-3.265519538287473544e-01,2.400790732288375084e-01,-1.629461341228739535e-01
4.510000000000000120e-01,-2.474255153266233520e-01,3.087213629887173849e-01,-2.256324719581538907e-01
4.520000000000000129e-01,-1.559441936907616788e-01,3.502808208497175113e-01,-2.464908653910390379e-01
4.530000000000000138e-01,-2.440607808867657075e-02,3.561085150218096795e-01,-2.729650684262837634e-01
4.540000000000000147e-01,6.529503425993732346e-02,3.411447503582195062e-01,-2.777932395348157169e-01
4.550000000000000155e-01,1.730818974946254640e-01,3.184159510255084036e-01,-2.426577011677104045e-01
4.560000000000000164e-01,2.785515197471385984e-01,2.545599415641874308e-01,-2.045541147101853641e-01
4.570000000000000173e-01,3.566762648417693971e-01,1.598060198561689071e-01,-1.989094345979999234e-01
4.580000000000000182e-01,4.080255046745668857e-01,1.001955603633152003e-01,-1.286830258095155444e-01
4.590000000000000191e-01,4.470318193896183900e-01,-2.078172558859083072e-04,-8.120504483225400583e-02
4.600000000000000200e-01,4.510231478345561040e-01,-1.131872378266735452e-01,-8.641731193766333426e-04
4.610000000000000209e-01,4.224850751101542068e-01,-1.857393152893542787e-01,4.225282079242902861e-02
4.620000000000000218e-01,3.816740089953685189e-01,-2.661248491557898221e-01,1.353134679282321229e-01
4.630000000000000226e-01,3.041562738972217184e-01,-3.406404943784173134e-01,1.784978536868560006e-01
4.640000000000000235e-01,2.083390227087940083e-01,-4.133929246982794292e-01,2.186487518495381366e-01
4.650000000000000244e-01,8.542635333553523502e-02,-4.308600486449515876e-01,2.465182860123104613e-01
4.660000000000000253e-01,-2.002503453952283671e-02,-4.610931262323962332e-01,2.596609392635921831e-01
4.670000000000000262e-01,-1.326148430752888130e-01,-4.542580964723586523e-01,2.734019354371519661e-01
4.680000000000000271e-01,-2.495482011880213735e-01,-4.312996642110196732e-01,2.524680955995184939e-01
4.689999999999999725e-01,-3.583674781431039902e-01,-3.689275472065354222e-01,2.426524874882803606e-01
4.699999999999999734e-01,-4.557033271835116972e-01,-2.956601081292972721e-01,1.783462973935951434e-01
4.709999999999999742e-01,-5.405121632004585841e-01,-2.225020012244743606e-01,1.256267275619418478e-01
4.719999999999999751e-01,-5.518889666427521101e-01,-1.075851087136573819e-01,6.694692116835783413e-02
4.729999999999999760e-01,-5.854159039838241485e-01,-2.176233554336398993e-02,-2.378547755359628965e-02
4.739999999999999769e-01,-5.604901270679130132e-01,9.151994396086957084e-02,-9.001417576360068451e-02
4.749999999999999778e-01,-5.270454345523223338e-01,1.675429055926653810e-01,-1.644907232570311517e-01
4.759999999999999787e-01,-4.639425825882221299e-01,2.470867821750565574e-01,-2.168597168923601937e-01
4.769999999999999796e-01,-3.584855120995493749e-01,3.154108910419952672e-01,-2.697614904720647688e-01
4.779999999999999805e-01,-2.688716750490254825e-01,3.512439218491705817e-01,-3.075629667236264297e-01
4.789999999999999813e-01,-1.457010791058472032e-01,4.000146862652963486e-01,-3.366358284354613040e-01
4.799999999999999822e-01,-2.871180804531885816e-02,3.868074539408806745e-01,-3.434576104570908339e-01
4.809999999999999831e-01,9.120748673680906249e-02,3.647171414340766304e-01,-3.383865022787378440e-01
4.819999999999999840e-01,2.010431045448131115e-01,3.078281161465415972e-01,-3.152728979671997056e-01
4.829999999999999849e-01,3.043470233345569320e-01,2.565088325963162941e-01,-2.879315074511659689e-01
4.839999999999999858e-01,3.859648074677531349e-01,1.900642235117586676e-01,-2.456229127827588288e-01
4.849999999999999867e-01,4.403763265408319749e-01,1.050425068687109442e-01,-1.703240601539831311e-01
4.859999999999999876e-01,4.613538255719378256e-01,-3.105047666488586211e-03,-1.092831903586349296e-01
4.869999999999999885e-01,4.757454585962462290e-01,-8.433236479914382744e-02,-1.484998208962875869e-02
4.879999999999999893e-01,4.409842129311991599e-01,-1.592197500466921989e-01,5.011818678894635476e-02
4.889999999999999902e-01,3.687661018309981165e-01,-2.323991581415621455e-01,1.155511982782774782e-01
4.899999999999999911e-01,3.166825112752880700e-01,-2.945591311608142804e-01,1.638452763274438895e-01
4.909999999999999920e-01,2.262274371689844410e-01,-3.284843726789152263e-01,2.145593806444485163e-01
4.919999999999999929e-01,1.029573223439868290e-01,-3.466269280849653134e-01,2.455048557839041301e-01
4.929999999999999938e-01,5.745518807880083817e-03,-3.471609130248240471e-01,2.784164713468347263e-01
4.939999999999999947e-01,-9.502230744608741730e-02,-3.047654974710127807e-01,2.550743930139680038e-01
4.949999999999999956e-01,-2.298615107202880981e-01,-2.613306783320373805e-01,2.544098966861382261e-01
4.959999999999999964e-01,-2.902945649669263495e-01,-1.795774441919931463e-01,2.339192861551131764e-01
4.969999999999999973e-01,-3.711948801352715765e-01,-9.605736274125264984e-02,1.741232542212806378e-01
4.979999999999999982e-01,-4.054638412017916860e-01,-9.189093640507114968e-03,1.315991510054289049e-01
4.989999999999999991e-01,-4.304421822554410637e-01,8.807148138410419991e-02,5.435589022671297177e-02
5.000000000000000000e-01,-4.412810015290002386e-01,1.731771508760382161e-01,1.634254663151749401e-02
5.010000000000000009e-01,-4.052438794724165239e-01,2.363326367459176180e-01,-4.785608581570565540e-02
5.020000000000000018e-01,-3.394885677860895457e-01,3.351624891597491662e-01,-1.052203914672838608e-01
5.030000000000000027e-01,-2.561565043870011049e-01,3.931716540721357234e-01,-1.776102861840318514e-01
5.040000000000000036e-01,-1.697676280635118107e-01,4.336978074138737593e-01,-2.293448786765938663e-01
5.050000000000000044e-01,-4.414949742762688811e-02,4.445821303663023416e-01,-2.634848493501648070e-01
5.060000000000000053e-01,6.058167168959305987e-02,4.394057221802534219e-01,-2.553653409594451862e-01
5.070000000000000062e-01,1.910369642027534010e-01,4.302807885511756858e-01,-2.744137526718214426e-01
5.080000000000000071e-01,3.046784455506064138e-01,3.728308734919569267e-01,-2.562003497270694541e-01
5.090000000000000080e-01,4.039033988502917505e-01,3.147141176577040733e-01,-2.298449500682546720e-01
5.100000000000000089e-01,4.812235988746612070e-01,2.320685498703033700e-01,-1.731413921216810314e-01
5.110000000000000098e-01,5.339164835197138803e-01,1.327582475567707643e-01,-1.070209607299201782e-01
5.120000000000000107e-01,5.724117934843053757e-01,2.624611108177695579e-02,-6.053998687970455622e-02
5.130000000000000115e-01,5.759940766018236680e-01,-6.177256806819428347e-02,1.194943570200808838e-02
5.140000000000000124e-01,5.470058026053195022e-01,-1.548681812382571299e-01,9.145151576470615662e-02
5.150000000000000133e-01,5.046226550313990256e-01,-2.519505234118409320e-01,1.734104654098751197e-01
5.160000000000000142e-01,4.156998304286832480e-01,-3.072260873883569943e-01,2.277542425921316172e-01
5.170000000000000151e-01,3.334118924736422795e-01,-3.694426241802898914e-01,2.699732854649666836e-01
5.180000000000000160e-01,2.012078097197324555e-01,-3.883122136331172425e-01,3.166296474757647750e-01
5.190000000000000169e-01,9.265557479303405952e-02,-4.036141102820250404e-01,3.394355780422196323e-01
5.200000000000000178e-01,-5.159192918608204032e-02,-4.028641574961019933e-01,3.506340809041347817e-01
5.210000000000000187e-01,-1.529687248645476561e-01,-3.546639212592903045e-01,3.377701305174944935e-01
5.220000000000000195e-01,-2.788485937280658078e-01,-2.782129014126182298e-01,3.137021467289969334e-01
5.230000000000000204e-01,-3.429534692996449308e-01,-2.144550249975954448e-01,2.703914833881562174e-01
5.240000000000000213e-01,-4.203731682077627707e-01,-1.281417306209757800e-01,2.150875076474787484e-01
5.250000000000000222e-01,-4.786475932579783987e-01,-3.725145635400126803e-02,1.814829714227877422e-01
5.260000000000000231e-01,-4.978429114204443451e-01,3.444732983265261228e-02,9.337320363454325312e-02
5.270000000000000240e-01,-4.773649243425810984e-01,1.400787368674482891e-01,3.523777242667742310e-02
5.280000000000000249e-01,-4.316395278953692460e-01,2.152904404796164850e-01,-4.435966065081248244e-02
5.290000000000000258e-01,-3.689051552990867400e-01,3.025732161650003249e-01,-1.239522214827488839e-01
5.300000000000000266e-01,-2.945051267293786190e-01,3.126305342518531094e-01,-1.737378487019737017e-01
5.310000000000000275e-01,-1.767004006582664766e-01,3.219500392317123927e-01,-2.404516493890205275e-01
5.320000000000000284e-01,-9.081910864995018651e-02,3.396094144254089287e-01,-2.501589778085425708e-01
5.330000000000000293e-01,3.449355860891616110e-02,3.120104307689398060e-01,-2.691994098327560869e-01
5.340000000000000302e-01,1.442002243640017056e-01,2.709300920299368420e-01,-2.870537427462285240e-01
5.350000000000000311e-01,2.367355811271528443e-01,1.935374667274894489e-01,-2.636315093375147245e-01
5.360000000000000320e-01,3.371727346432807915e-01,1.236136417878335864e-01,-2.290523852011338568e-01
5.370000000000000329e-01,3.780178441468762807e-01,3.947321717438728034e-02,-2.070709865222657153e-01
5.380000000000000338e-01,4.179241076421146839e-01,-5.599062760879506412e-02,-1.477134353722218685e-01
5.390000000000000346e-01,4.245135224410058195e-01,-1.629526780817177334e-01,-8.291039188262706860e-02
5.400000000000000355e-01,4.429141249300020955e-01,-2.355699688470681841e-01,-4.480051444360606122e-03
5.410000000000000364e-01,3.741662394159915861e-01,-3.234996540313629931e-01,5.466945764070175323e-02
5.420000000000000373e-01,2.931651140972977299e-01,-3.843346019926163204e-01,1.266408438867966113e-01
5.430000000000000382e-01,2.217284207945312280e-01,-4.173441176177123402e-01,1.695169227984901494e-01
5.440000000000000391e-01,1.299798815926619666e-01,-4.503861531340607738e-01,2.125977799869754881e-01
5.450000000000000400e-01,-7.472342306950109300e-03,-4.446475613840529251e-01,2.611582586479954671e-01
5.460000000000000409e-01,-1.101035882749855366e-01,-4.253331673853043005e-01,2.456863400960034582e-01
5.470000000000000417e-01,-2.416047982430337970e-01,-3.684786857217403067e-01,2.713910479137449649e-01
5.480000000000000426e-01,-3.388218082683754351e-01,-3.126270089280496767e-01,2.504012856954184185e-01
5.490000000000000435e-01,-4.215223692549519563e-01,-2.308019246968598392e-01,2.117401934836793120e-01
5.500000000000000444e-01,-5.087270896610835980e-01,-1.344094795553888722e-01,1.785051003854325191e-01
5.510000000000000453e-01,-5.603229414001823505e-01,-4.690596857213292364e-02,1.183375518862405801e-01
5.520000000000000462e-01,-5.712134641062864837e-01,5.002493073257074235e-02,4.936422009854497112e-02
5.530000000000000471e-01,-5.734621804112128851e-01,1.391706739506800850e-01,-1.845505664921856179e-02
5.540000000000000480e-01,-5.170380085920066593e-01,2.454600763192830160e-01,-1.114406909438419024e-01
5.550000000000000488e-01,-4.632665686870354183e-01,3.116579443926674187e-01,-1.644070180431986827e-01
5.560000000000000497e-01,-3.820330022920666591e-01,3.724604513789218085e-01,-2.171601500997819845e-01
5.570000000000000506e-01,-2.674582988384756055e-01,3.863250666092779007e-01,-2.717409756169779644e-01
5.580000000000000515e-01,-1.497459421738947805e-01,4.049206053823467544e-01,-3.232941318631721850e-01
5.590000000000000524e-01,-2.770608605446563122e-02,4.017089037753435177e-01,-3.287273034916293746e-01
5.600000000000000533e-01,9.696672595581699861e-02,3.525513376528910392e-01,-3.486772460489013792e-01
5.610000000000000542e-01,2.131422904242310790e-01,3.103815663025598637e-01,-3.444351325829220767e-01
5.620000000000000551e-01,3.126783793807808021e-01,2.408723390439678758e-01,-3.085703793212103974e-01
5.629999999999999449e-01,3.689453288030085099e-01,1.487964047663857536e-01,-2.765527463356702853e-01
5.639999999999999458e-01,4.654516076493677712e-01,7.824925288133260937e-02,-2.349138735943768486e-01
5.649999999999999467e-01,4.647684308917133245e-01,-4.719376965704458887e-02,-1.632149676264414151e-01
5.659999999999999476e-01,4.861241476768442538e-01,-1.219577686202424488e-01,-8.654214276226565583e-02
5.669999999999999485e-01,4.702088807147995486e-01,-1.945663459718972588e-01,-2.197276240124611257e-02
5.679999999999999494e-01,4.243058878483479401e-01,-2.426265633013779677e-01,5.588307314630803352e-02
5.689999999999999503e-01,3.523845181447403663e-01,-2.914007933210218670e-01,1.416133235753023745e-01
5.699999999999999512e-01,2.639358476475733850e-01,-3.338166514481387681e-01,1.771955648974297692e-01
5.709999999999999520e-01,1.604971232648085278e-01,-3.301818217355138030e-01,2.400171295083073086e-01
5.719999999999999529e-01,7.676382781921536891e-02,-3.128761217368889458e-01,2.556158865215150677e-01
5.729999999999999538e-01,-5.121360177563841209e-02,-2.619990564831557456e-01,2.776198671723036915e-01
5.739999999999999547e-01,-1.648955261044902365e-01,-2.112908871319498505e-01,2.834945424408251147e-01
5.749999999999999556e-01,-2.591131864704054877e-01,-1.380842963921433131e-01,2.738988245234001973e-01
5.759999999999999565e-01,-3.304950283510641462e-01,-4.154603985230134744e-02,2.558064031008684402e-01
5.769999999999999574e-01,-4.104704169557881199e-01,3.075636640008999265e-02,1.938037353048400746e-01
5.779999999999999583e-01,-4.388015795809238062e-01,1.277551215134837548e-01,1.424068548913505483e-01
5.789999999999999591e-01,-4.152208163758268067e-01,2.269808630213663025e-01,8.977851507156441035e-02
5.799999999999999600e-01,-3.920504056704187668e-01,3.061179727328243727e-01,1.685336349240945317e-02
5.809999999999999609e-01,-3.651114371178842966e-01,3.623828229466352080e-01,-6.221599978647176371e-02
5.819999999999999618e-01,-2.670346747310016200e-01,4.050783383934138948e-01,-1.101605927661578471e-01
5.829999999999999627e-01,-1.703905142786454607e-01,4.312373700705325330e-01,-1.711380337533696117e-01
5.839999999999999636e-01,-4.861180964322278641e-02,4.478407289664841917e-01,-2.165438298159997610e-01
5.849999999999999645e-01,4.575329710162454044e-02,4.333504094368144099e-01,-2.420758133804553069e-01
5.859999999999999654e-01,1.811939172113739560e-01,3.874685614529950195e-01,-2.593659437176207283e-01
5.869999999999999662e-01,2.786268116494009517e-01,3.166697060848395195e-01,-2.593729344509098089e-01
5.879999999999999671e-01,3.923812495004955214e-01,2.544300278698509166e-01,-2.521137650399503105e-01
5.889999999999999680e-01,4.571658114530611217e-01,1.737361697610571576e-01,-2.194028734561056793e-01
5.899999999999999689e-01,5.327547948285242807e-01,6.644886685850553976e-02,-1.680525990770369293e-01
5.909999999999999698e-01,5.718087287192323842e-01,-2.668665570276177942e-02,-1.096316189790827594e-01
5.919999999999999707e-01,5.493114454930365653e-01,-1.232404922094183092e-01,-5.088962025716107368e-02
5.929999999999999716e-01,5.629423627265177643e-01,-2.204389512882764246e-01,1.959621366762587594e-02
5.939999999999999725e-01,4.966948598580911978e-01,-3.102776590821150204e-01,8.664733428190561637e-02
5.949999999999999734e-01,4.085572966404600881e-01,-3.624357854261919809e-01,1.606776437673112512e-01
5.959999999999999742e-01,3.324112103042279887e-01,-4.049226229403752320e-01,2.334124225056435908e-01
5.969999999999999751e-01,2.166328420020479650e-01,-4.120223403188821854e-01,2.735642178809286063e-01
5.979999999999999760e-01,1.134494644326867197e-01,-4.152021851619969728e-01,2.981173672942633579e-01
5.989999999999999769e-01,-2.007697632739670335e-02,-3.616966490689640934e-01,3.422966063975116380e-01
5.999999999999999778e-01,-1.502306659294231073e-01,-3.270562915139896276e-01,3.454381074492591241e-01
6.009999999999999787e-01,-2.694585736636308515e-01,-2.681436642315448426e-01,3.364984717918457213e-01
6.019999999999999796e-01,-3.480462078988065810e-01,-1.917515609670705778e-01,3.130583820349884805e-01
6.029999999999999805e-01,-4.214048943565028571e-01,-8.100232667870854719e-02,2.738302778226586187e-01
6.039999999999999813e-01,-4.806057398562853522e-01,-3.776909152029644902e-04,2.387596408197821263e-01
6.049999999999999822e-01,-5.143006469642599221e-01,9.938317653639303084e-02,1.582937561987095010e-01
6.059999999999999831e-01,-4.922092869789579939e-01,1.825223684048568329e-01,8.187965968616617296e-02
6.069999999999999840e-01,-4.665907293347252849e-01,2.524361109496441324e-01,5.260109072744953949e-03
6.079999999999999849e-01,-4.152984441054047848e-01,2.807797797430319764e-01,-4.652892829516543094e-02
6.089999999999999858e-01,-3.244095717257319267e-01,3.386286643327640067e-01,-1.179681266293098052e-01
6.099999999999999867e-01,-2.295363233588462726e-01,3.390296737356113255e-01,-1.837509059631226294e-01
6.109999999999999876e-01,-1.192678084309927167e-01,3.312072000471574795e-01,-2.308330638239947108e-01
6.119999999999999885e-01,-1.475259285189873398e-02,2.884932784229002345e-01,-2.719815917495069790e-01
6.129999999999999893e-01,9.581528497571946412e-02,2.214492696451419718e-01,-2.865607336576257436e-01
6.139999999999999902e-01,1.852648480430024169e-01,1.691751547029183289e-01,-2.838397039248262699e-01
6.149999999999999911e-01,2.872547839650005930e-01,6.524316214833222882e-02,-2.763196565478965860e-01
6.159999999999999920e-01,3.644539568061335166e-01,-1.160415377235695863e-02,-2.289080966451552679e-01
6.169999999999999929e-01,3.883316502576973916e-01,-1.117486346886096549e-01,-1.990737574860740045e-01
6.179999999999999938e-01,4.245961963854110177e-01,-1.903684742163607724e-01,-1.616673477685801608e-01
6.189999999999999947e-01,4.075021518701310019e-01,-2.851459968360774977e-01,-9.895686824179407426e-02
6.199999999999999956e-01,3.832588828596937280e-01,-3.435873342816483378e-01,-2.845930670404615836e-02
6.209999999999999964e-01,3.278280948800547656e-01,-3.987991074666142333e-01,3.119035015908401542e-02
6.219999999999999973e-01,2.455363261821917331e-01,-4.288066701989577956e-01,8.771185041261392312e-02
6.229999999999999982e-01,1.272515321466716476e-01,-4.388703908883148097e-01,1.463461465486721180e-01
6.239999999999999991e-01,1.855187176981590996e-02,-4.528887435571012365e-01,2.073664235534119493e-01
6.250000000000000000e-01,-9.669012369574478405e-02,-3.853418588510524323e-01,2.354191576459989388e-01
6.260000000000000009e-01,-2.066837688269400619e-01,-3.342068558207669238e-01,2.492844626419286336e-01
6.270000000000000018e-01,-3.326194082431404575e-01,-2.670677376768680888e-01,2.553700346370529339e-01
6.280000000000000027e-01,-4.205624364239874402e-01,-1.682245057456898951e-01,2.293023488365766860e-01
6.290000000000000036e-01,-4.887605434873633081e-01,-7.575675365249641413e-02,2.041125232931009503e-01
6.300000000000000044e-01,-5.366342022100141218e-01,2.330016622448535454e-02,1.639603318376228747e-01
6.310000000000000053e-01,-5.604149080354235979e-01,1.317554231900327222e-01,1.058020182380968316e-01
6.320000000000000062e-01,-5.439826421194755568e-01,2.033733793764659625e-01,5.082943815194512771e-02
6.330000000000000071e-01,-5.509204550087820618e-01,2.934028873444387564e-01,-1.764727003805158581e-02
6.340000000000000080e-01,-4.562837325060827287e-01,3.497311548592082486e-01,-8.512732637327213858e-02
6.350000000000000089e-01,-3.715476990275762836e-01,4.047078777872555877e-01,-1.695268562100450127e-01
6.360000000000000098e-01,-2.860677412422063526e-01,4.102053526720912391e-01,-1.997502079197411851e-01
6.370000000000000107e-01,-1.651891949605244492e-01,4.253545123323201893e-01,-2.703849733816099943e-01
6.380000000000000115e-01,-3.883922813716227107e-02,3.981766654071010048e-01,-3.061636710860204391e-01
6.390000000000000124e-01,8.775093760152764821e-02,3.398543989713602165e-01,-3.474031841006933186e-01
6.400000000000000133e-01,2.014601459040664400e-01,2.892000852560949187e-01,-3.515957639779757060e-01
6.410000000000000142e-01,3.139190250361520995e-01,2.171204081899434646e-01,-3.501436056525827900e-01
6.420000000000000151e-01,3.953873471882919377e-01,1.261634901976407264e-01,-3.178393959681344860e-01
6.430000000000000160e-01,4.664746766030781755e-01,4.294782350641306728e-02,-2.730924497655791705e-01
6.440000000000000169e-01,4.938983702781673535e-01,-6.371275309432042344e-02,-2.194464911919391803e-01
6.450000000000000178e-01,5.026038175716597278e-01,-1.359587071249150625e-01,-1.504634041882680073e-01
6.460000000000000187e-01,4.896747169795825361e-01,-2.408008842983047348e-01,-7.586141441009221220e-02
6.470000000000000195e-01,4.666120517019449743e-01,-2.822219548870644190e-01,1.026950905751652932e-02
6.480000000000000204e-01,4.024214729525920076e-01,-3.146509424144614542e-01,7.106405391865172616e-02
6.490000000000000213e-01,2.805264461644569329e-01,-3.317684232083717433e-01,1.354520934935148913e-01
6.500000000000000222e-01,2.081076674012743988e-01,-3.150414212359720079e-01,2.023170884390926016e-01
6.510000000000000231e-01,8.407101382961908176e-02,-2.768197900535702138e-01,2.284651094581130748e-01
6.520000000000000240e-01,-1.872907588054530462e-02,-2.532067059079750604e-01,2.740507203681357695e-01
6.530000000000000249e-01,-1.346918306142245170e-01,-1.692828116660607951e-01,2.896161709577431131e-01
6.540000000000000258e-01,-2.279033805617934616e-01,-8.361692840551816774e-02,3.058991939862348297e-01
6.550000000000000266e-01,-3.146003829493785875e-01,-1.911326642341719742e-02,2.810596162205649673e-01
6.560000000000000275e-01,-3.834319839526476592e-01,7.571798203277689543e-02,2.487498913272922774e-01
6.570000000000000284e-01,-3.990424583184439822e-01,1.798395904649612020e-01,2.132358953374808852e-01
6.580000000000000293e-01,-4.137310048848406030e-01,2.655925215870957312e-01,1.655758926115104279e-01
6.590000000000000302e-01,-3.991183515317587305e-01,3.427247435869936742e-01,9.940587487358089336e-02
6.600000000000000311e-01,-3.691978755293153780e-01,3.807487918296155183e-01,3.473693197402160510e-02
6.610000000000000320e-01,-2.844916535165232796e-01,4.184163194146003351e-01,-4.465138380456041417e-02
6.620000000000000329e-01,-1.853319326413717383e-01,4.305995295056715411e-01,-9.882113941739513463e-02
6.630000000000000338e-01,-9.739554248258269764e-02,4.340442585385981267e-01,-1.583265908649132692e-01
6.640000000000000346e-01,1.443226799223892506e-02,3.945008478833612608e-01,-2.036601790396256051e-01
6.650000000000000355e-01,1.452833975534680855e-01,3.407024157264190167e-01,-2.312695677633071767e-01
6.660000000000000364e-01,2.629867616643072337e-01,2.737388464764566876e-01,-2.372646867402463389e-01
6.670000000000000373e-01,3.446926896906327698e-01,1.894215566218174218e-01,-2.216959394780462778e-01
6.680000000000000382e-01,4.332438965994919178e-01,7.522969221295927600e-02,-2.410943053373220679e-01
6.690000000000000391e-01,5.020164771135285919e-01,-3.158722626479756879e-02,-2.022445329807116832e-01
6.700000000000000400e-01,5.399451560461402400e-01,-1.240425183254226654e-01,-1.508621707057766492e-01
6.710000000000000409e-01,5.525264453015468202e-01,-1.910786083284314874e-01,-9.956073285872958645e-02
6.720000000000000417e-01,5.207263232682131093e-01,-3.076448354196951729e-01,-4.308464311788353512e-02
6.730000000000000426e-01,4.868023587200345781e-01,-3.603697548596705436e-01,1.020514149453775540e-02
6.740000000000000435e-01,4.167899776048964999e-01,-4.043680288215974472e-01,9.221692028764594262e-02
6.750000000000000444e-01,3.233823879531648737e-01,-4.352724459612323238e-01,1.587736443844827150e-01
6.760000000000000453e-01,2.292152925049274481e-01,-4.382202403864163820e-01,2.181420589874119575e-01
6.770000000000000462e-01,1.055483964448272333e-01,-4.020860320330710280e-01,2.665366673721278890e-01
6.780000000000000471e-01,-2.390616196297270374e-02,-3.627908919600673632e-01,3.012796665499161697e-01
6.790000000000000480e-01,-1.335713160178334802e-01,-2.911615319149085113e-01,3.420489267363848729e-01
6.800000000000000488e-01,-2.449730400881873493e-01,-2.098757770484279417e-01,3.514944677546474883e-01
6.810000000000000497e-01,-3.667342453160263860e-01,-1.282023144920125535e-01,3.178479678994703406e-01
6.820000000000000506e-01,-4.442107033035052055e-01,-3.868342782432081239e-02,3.032660596997967528e-01
6.830000000000000515e-01,-4.768501464251374000e-01,3.471277794418431428e-02,2.528608452150272745e-01
6.840000000000000524e-01,-5.267831006313127284e-01,1.220754801370252524e-01,2.205412582568155866e-01
6.850000000000000533e-01,-5.321836933990619078e-01,2.123203006922692593e-01,1.180771132651082939e-01
6.860000000000000542e-01,-4.926166004917180152e-01,2.701212034657415328e-01,7.812253506074355591e-02
6.870000000000000551e-01,-4.294186971040667156e-01,3.056718562916491133e-01,7.793726465927170929e-03
6.879999999999999449e-01,-3.678860961077107805e-01,3.288871780178248549e-01,-7.686879133224933103e-02
6.889999999999999458e-01,-2.695716665254240252e-01,3.305403346696295097e-01,-1.408002324917193293e-01
6.899999999999999467e-01,-1.764590005176281950e-01,3.245572662256589469e-01,-2.188753644466085724e-01
6.909999999999999476e-01,-6.060245463474274452e-02,2.635020059100638412e-01,-2.544041679637658038e-01
6.919999999999999485e-01,7.114350728138307822e-02,1.962455619385253536e-01,-2.902811887936923019e-01
6.929999999999999494e-01,1.706333042952669077e-01,1.221937091982820828e-01,-2.896701877429903038e-01
6.939999999999999503e-01,2.572741560170700437e-01,3.284957706234852698e-02,-3.085084665881960286e-01
6.949999999999999512e-01,3.375289794850750424e-01,-7.101910531386057546e-02,-2.729458138336346429e-01
6.959999999999999520e-01,3.944444971974166991e-01,-1.715495992711071060e-01,-2.650101757839746774e-01
6.969999999999999529e-01,4.197420596266188131e-01,-2.308153948566854796e-01,-2.297426907825251552e-01
6.979999999999999538e-01,4.042139115452052511e-01,-3.093372899317129998e-01,-1.540892075977320919e-01
6.989999999999999547e-01,3.897847215385353281e-01,-3.816072524024983204e-01,-1.104961867897111816e-01
6.999999999999999556e-01,3.255368101973027950e-01,-3.934576533369724682e-01,-3.590594000047594297e-02
7.009999999999999565e-01,2.378659959516623845e-01,-4.287919583809603474e-01,2.922868941631830142e-02
7.019999999999999574e-01,1.563618656487595626e-01,-4.216979936621305658e-01,8.273885534111342921e-02
7.029999999999999583e-01,4.987060153179837668e-02,-3.852131990440180176e-01,1.364710178529312257e-01
7.039999999999999591e-01,-5.495218358150862070e-02,-3.255941467456766047e-01,1.953775054670325861e-01
7.049999999999999600e-01,-1.722486937631311221e-01,-2.716616833744835424e-01,2.133985205139489472e-01
7.059999999999999609e-01,-2.844734829045907354e-01,-1.943978358375740290e-01,2.470808393922843127e-01
7.069999999999999618e-01,-3.798105119444753486e-01,-9.958170674181227033e-02,2.558885193055299712e-01
7.079999999999999627e-01,-4.582879980210910476e-01,1.051322575103270408e-02,2.242472575211159058e-01
7.089999999999999636e-01,-5.369153827272986623e-01,1.116999284494774453e-01,2.003880551118664144e-01
7.099999999999999645e-01,-5.319971981451365739e-01,1.855833882326806128e-01,1.665122687718941230e-01
7.109999999999999654e-01,-5.454111707461392067e-01,2.972327004343630064e-01,1.120943220597099832e-01
7.119999999999999662e-01,-5.195382089342958087e-01,3.532346850868429144e-01,6.236305997677092650e-02
7.129999999999999671e-01,-4.600897379082036220e-01,4.109186273094062591e-01,-1.044227364391255540e-02
7.139999999999999680e-01,-3.734237373369870827e-01,4.353562969964934193e-01,-9.607446489967529091e-02
7.149999999999999689e-01,-2.798153582977970233e-01,4.460942237615701522e-01,-1.447579934991396200e-01
7.159999999999999698e-01,-1.723374172346524014e-01,4.199886967303974039e-01,-2.170846727122939523e-01
7.169999999999999707e-01,-3.588213155174266311e-02,3.850175512075777462e-01,-2.528778126611065380e-01
7.179999999999999716e-01,8.561936345209947286e-02,3.088490926479077747e-01,-2.969797368956732520e-01
7.189999999999999725e-01,2.156362940377657966e-01,2.419299405970891659e-01,-3.309303257532260623e-01
7.199999999999999734e-01,3.144012680638198498e-01,1.556685548993201884e-01,-3.408879512775740417e-01
7.209999999999999742e-01,3.904150462601838623e-01,7.727756151474089730e-02,-3.168018995994977272e-01
7.219999999999999751e-01,4.582226149252545677e-01,-1.551138569616616197e-02,-2.973335822109868243e-01
7.229999999999999760e-01,4.865574340739226566e-01,-1.242988910178551148e-01,-2.441944331428354542e-01
7.239999999999999769e-01,5.305218949454988397e-01,-1.874236171473334378e-01,-1.891444015730348316e-01
7.249999999999999778e-01,5.245190198801945591e-01,-2.586413456947860845e-01,-1.458472886570068849e-01
7.259999999999999787e-01,4.903437096063711920e-01,-3.076044541782971820e-01,-5.724078498124632319e-02
7.269999999999999796e-01,4.060194169921024221e-01,-3.291876354495347212e-01,5.219677549948999358e-03
7.279999999999999805e-01,3.311993575553193736e-01,-3.319498324214814056e-01,8.869170235062574792e-02
7.289999999999999813e-01,2.361287617398922234e-01,-3.115021763703116342e-01,1.595040720297717374e-01
7.299999999999999822e-01,1.051917519049036243e-01,-2.804610920387059503e-01,1.938726808748308938e-01
7.309999999999999831e-01,9.727070087718758459e-03,-2.078120225795284659e-01,2.583436106026736345e-01
7.319999999999999840e-01,-1.096193323477820392e-01,-1.552917228917191639e-01,2.928572004820464980e-01
7.329999999999999849e-01,-2.034459648589944381e-01,-5.209144506629494881e-02,3.177287229914563249e-01
7.339999999999999858e-01,-2.892565551738329743e-01,3.374073934649467199e-02,2.993952646954797792e-01
7.349999999999999867e-01,-3.618093341555649323e-01,1.188009303658070087e-01,3.019973174644629554e-01
7.359999999999999876e-01,-3.987998515742559036e-01,2.160460052837495093e-01,2.776515672395333256e-01
7.369999999999999885e-01,-3.903072654668524599e-01,2.871286494875054940e-01,2.392691272229793276e-01
7.379999999999999893e-01,-4.192350854311536756e-01,3.450469276336619040e-01,1.796407387531055444e-01
7.389999999999999902e-01,-3.694784701946980388e-01,3.939670948746769041e-01,9.910342355221753163e-02
7.399999999999999911e-01,-3.135511290330505463e-01,4.222017212865820657e-01,3.771763876821754291e-02
7.409999999999999920e-01,-2.097406377300351232e-01,4.149565232648471658e-01,-2.770508117885519747e-02
7.419999999999999929e-01,-1.208417615267361744e-01,3.894640945566381074e-01,-8.166868518928648013e-02
7.429999999999999938e-01,2.285517996847905692e-04,3.598766712095572418e-01,-1.315419291534533353e-01
7.439999999999999947e-01,1.081615217739070878e-01,2.788217415398392407e-01,-1.786109466606371488e-01
7.449999999999999956e-01,2.130744508315889907e-01,1.956335172938287459e-01,-2.115510546238142386e-01
7.459999999999999964e-01,3.302334687653373235e-01,1.049425083921234486e-01,-2.403324689130872938e-01
7.469999999999999973e-01,4.024941116181490197e-01,1.089538207544676202e-02,-2.558566993269760781e-01
7.479999999999999982e-01,4.813329798670551440e-01,-1.006074771040852134e-01,-2.395178929596828432e-01
7.489999999999999991e-01,5.298822779994045717e-01,-1.923435666056982629e-01,-2.112130414975942061e-01
7.500000000000000000e-01,5.459818992517683212e-01,-2.823154764827187080e-01,-1.706988254146729889e-01
7.510000000000000009e-01,5.193118256887346851e-01,-3.455603507413469444e-01,-1.304816461049992382e-01
7.520000000000000018e-01,4.676455922015254063e-01,-4.095041223754770088e-01,-3.700154222985821417e-02
7.530000000000000027e-01,4.092900885776493136e-01,-4.392325972997810912e-01,2.406141853138896863e-02
7.540000000000000036e-01,3.286185143236357020e-01,-4.350814257091921711e-01,1.019906455014406299e-01
7.550000000000000044e-01,2.082302301504921072e-01,-4.198049620754897293e-01,1.480547153646949443e-01
7.560000000000000053e-01,1.204774333663609920e-01,-3.957871260030805804e-01,2.252700618440849623e-01
7.570000000000000062e-01,-1.024404836505240363e-02,-3.234309594621814221e-01,2.904071085035901945e-01
7.580000000000000071e-01,-1.438538291041841499e-01,-2.539872970231998872e-01,2.942960541237307215e-01
7.590000000000000080e-01,-2.498462160772281782e-01,-1.795022056522186382e-01,3.131730570686253046e-01
7.600000000000000089e-01,-3.574443400447021579e-01,-8.652062833720818025e-02,3.275211970555527707e-01
7.610000000000000098e-01,-4.360424338981513381e-01,4.715532710051289177e-03,3.206832847098574635e-01
7.620000000000000107e-01,-4.807478628428962786e-01,9.936975098610352497e-02,2.903624709241354740e-01
7.630000000000000115e-01,-5.397419068635659345e-01,1.575654585542162756e-01,2.569459033758872968e-01
7.640000000000000124e-01,-5.475688215541389958e-01,2.578662518915129653e-01,1.848631714102858259e-01
7.650000000000000133e-01,-4.960430382221390766e-01,2.875011566281961972e-01,1.183558806965961108e-01
7.660000000000000142e-01,-4.659672358100477862e-01,3.172033726441569335e-01,5.999092843193450098e-02
7.670000000000000151e-01,-3.941961973590646373e-01,3.465687526736698776e-01,-1.305636641992955968e-02
7.680000000000000160e-01,-3.061676107137766278e-01,3.098363762187473780e-01,-7.664142643905870467e-02
7.690000000000000169e-01,-2.156030635268511575e-01,2.890392701922092078e-01,-1.611430226262729470e-01
7.700000000000000178e-01,-9.071839038770454500e-02,2.334842714928341834e-01,-2.062013960221275033e-01
7.710000000000000187e-01,3.989919008919504129e-02,1.434362980325445402e-01,-2.706147587726407400e-01
7.720000000000000195e-01,1.451652859774508753e-01,7.754475480646068342e-02,-2.874317192865647463e-01
7.730000000000000204e-01,2.545959094866194761e-01,-1.049237049858936510e-02,-3.027746314737956856e-01
7.740000000000000213e-01,3.070913580642528617e-01,-8.905848859180306998e-02,-3.236717525305428111e-01
7.750000000000000222e-01,3.926878011776168131e-01,-1.821489406405233380e-01,-2.974982678380971302e-01
7.760000000000000231e-01,4.148438970845864660e-01,-2.578326628618280991e-01,-2.693926590174622882e-01
7.770000000000000240e-01,4.161075434054741229e-01,-3.222789794010032516e-01,-2.327889192417372521e-01
7.780000000000000249e-01,3.884192778768102983e-01,-3.808373204747311225e-01,-1.817285197991697354e-01
7.790000000000000258e-01,3.287081452048457031e-01,-4.049179216093508615e-01,-1.014619679832694799e-01
7.800000000000000266e-01,2.785503776222618688e-01,-4.207566546168942101e-01,-4.514259685976488440e-02
7.810000000000000275e-01,1.885173642748392553e-01,-3.914295175770896029e-01,2.913974533657354149e-02
7.820000000000000284e-01,7.681004738923806474e-02,-3.410451140127584990e-01,8.424559514259997994e-02
7.830000000000000293e-01,-2.188234247966067483e-02,-3.005065279144840118e-01,1.534614936441271726e-01
7.840000000000000302e-01,-1.475685151275612783e-01,-2.062417837398156373e-01,2.063854232404435662e-01
7.850000000000000311e-01,-2.427624296066137333e-01,-1.213992073254460125e-01,2.054638238735425615e-01
7.860000000000000320e-01,-3.499444815046840462e-01,4.261363617415688670e-03,2.520732654343991741e-01
7.870000000000000329e-01,-4.291023554989922273e-01,8.538796065056099283e-02,2.459712091720802352e-01
7.880000000000000338e-01,-4.906590063281914271e-01,1.951752653890862221e-01,2.347691480208601578e-01
7.890000000000000346e-01,-5.283440572820120584e-01,2.605272719176580654e-01,2.359447032449805415e-01
7.900000000000000355e-01,-5.291497513088803117e-01,3.582736964387937539e-01,1.446964862650356454e-01
7.910000000000000364e-01,-5.058288718456965816e-01,3.835964544888346706e-01,1.100115792086783228e-01
7.920000000000000373e-01,-4.553886148924552457e-01,4.438563485119950691e-01,5.064652102625873814e-02
7.930000000000000382e-01,-3.641991724668725561e-01,4.321959305995796141e-01,-1.086341408074302864e-02
7.940000000000000391e-01,-2.845983293632552424e-01,4.520021512368352368e-01,-9.926233670422429656e-02
7.950000000000000400e-01,-1.701441369075641363e-01,4.047434984666233859e-01,-1.451613649606476597e-01
7.960000000000000409e-01,-2.563599747308405521e-02,3.484873582450004892e-01,-2.138649098228113388e-01
7.970000000000000417e-01,7.362521156350115836e-02,2.921852358918586856e-01,-2.558669918115529240e-01
7.980000000000000426e-01,2.015011255784216748e-01,2.065731041586820471e-01,-2.895274668844838861e-01
7.990000000000000435e-01,3.079840484331493045e-01,1.110122766979247111e-01,-3.056630885774769824e-01
8.000000000000000444e-01,4.101446430130187282e-01,-1.547699785088142320e-03,-3.102072749691496822e-01
8.010000000000000453e-01,4.685776785027064295e-01,-6.813939566472146381e-02,-3.034784458179752287e-01
8.020000000000000462e-01,5.237754067306445993e-01,-1.416721823391503265e-01,-2.741417630826045726e-01
8.030000000000000471e-01,5.374638723350029235e-01,-2.271252499453666474e-01,-2.457414408499976610e-01
8.040000000000000480e-01,5.655738973986116358e-01,-2.896410674301621024e-01,-1.910580519387649889e-01
8.050000000000000488e-01,5.066913448574817957e-01,-3.102885818275394891e-01,-1.206019763820479901e-01
8.060000000000000497e-01,4.478135770319869313e-01,-3.365805961499442334e-01,-5.159826903269784659e-02
8.070000000000000506e-01,3.597137615602060134e-01,-3.371902493927501632e-01,3.448320242093842053e-02
8.080000000000000515e-01,2.656358722002587491e-01,-2.944877343393936808e-01,1.027235413680503973e-01
8.090000000000000524e-01,1.694915994844451990e-01,-2.568216343699137871e-01,1.509104282051388357e-01
8.100000000000000533e-01,4.986764616889392820e-02,-1.656193429080302648e-01,2.197483342052928001e-01
8.110000000000000542e-01,-7.862783235575900032e-02,-1.179293870558055374e-01,2.732127393064237020e-01
8.120000000000000551e-01,-1.699104965348841589e-01,-2.731844939665740708e-04,2.805036904311363766e-01
8.129999999999999449e-01,-2.615179633038379192e-01,8.442534313692350023e-02,3.191214488960997797e-01
8.139999999999999458e-01,-3.379799684895856138e-01,1.697641949731886757e-01,3.266743214648502591e-01
8.149999999999999467e-01,-3.862018066814285056e-01,2.513223432676735536e-01,3.221211588397542847e-01
8.159999999999999476e-01,-4.125299490280701087e-01,3.154208285820430113e-01,2.763224728963221688e-01
8.169999999999999485e-01,-4.241102619986266697e-01,3.623535209833310677e-01,2.370439776296181800e-01
8.179999999999999494e-01,-3.787253930582360484e-01,4.001847065559690497e-01,1.745781279456083968e-01
8.189999999999999503e-01,-2.915373827015369512e-01,3.910923598514666755e-01,1.299203985211569712e-01
8.199999999999999512e-01,-2.563605185301711664e-01,3.763259422549921629e-01,5.147717827241692773e-02
8.209999999999999520e-01,-1.672995409741007411e-01,3.457953809280335800e-01,-7.334690036342567457e-03
8.219999999999999529e-01,-4.239016958651536243e-02,2.885385784110662821e-01,-9.852937496573285769e-02
8.229999999999999538e-01,7.989025692103200738e-02,2.159492286195887623e-01,-1.395478512300137031e-01
8.239999999999999547e-01,1.828821055282908725e-01,1.226851144902451340e-01,-1.899169264555318759e-01
8.249999999999999556e-01,2.899481223629952753e-01,2.765558874790486482e-02,-2.198441942805122173e-01
8.259999999999999565e-01,3.793161220045337401e-01,-6.212945470234994966e-02,-2.367565468037954868e-01
8.269999999999999574e-01,4.434209386538061071e-01,-1.644022918416943313e-01,-2.372751407217004171e-01
8.279999999999999583e-01,5.193433404328721137e-01,-2.601286480503730014e-01,-2.366116922180587501e-01
8.289999999999999591e-01,5.020995468554972918e-01,-3.306335720938044509e-01,-2.141499391131537477e-01
8.299999999999999600e-01,4.984564191478061401e-01,-3.832224388300863871e-01,-1.773455389084286626e-01
8.309999999999999609e-01,4.743639169666463706e-01,-4.346182465436043696e-01,-1.243844503166768034e-01
8.319999999999999618e-01,4.155416462428109803e-01,-4.460424592909285058e-01,-4.331745925053619856e-02
8.329999999999999627e-01,3.488540031555346088e-01,-4.485596432141288337e-01,1.437751170901745666e-02
8.339999999999999636e-01,2.165645203376032057e-01,-4.212034643519956267e-01,8.989642839229643190e-02
8.349999999999999645e-01,1.184846289595544305e-01,-3.756291025783931037e-01,1.263842966085836073e-01
8.359999999999999654e-01,-1.945442472607502096e-02,-2.993651267804232075e-01,2.043461538768001906e-01
8.369999999999999662e-01,-1.455235687698416547e-01,-2.197028283178161512e-01,2.387097219763679168e-01
8.379999999999999671e-01,-2.667591112762046635e-01,-1.284305580317147144e-01,2.956076218887039864e-01
8.389999999999999680e-01,-3.647272685080720778e-01,-2.770953873899367759e-02,3.046525089984130075e-01
8.399999999999999689e-01,-4.580843017491310620e-01,4.750025040449577102e-02,3.131875616026061349e-01
8.409999999999999698e-01,-5.057780552781440120e-01,1.565293320749645278e-01,3.031229065753225926e-01
8.419999999999999707e-01,-5.711244542842002225e-01,2.360281951889382224e-01,2.727999463914750344e-01
8.429999999999999716e-01,-5.653377353438061581e-01,2.970298367315895027e-01,2.343180535030252309e-01
8.439999999999999725e-01,-5.276843981601432310e-01,3.089938183691595119e-01,1.687511670115434681e-01
8.449999999999999734e-01,-4.977060024573379815e-01,3.443528520948217486e-01,1.334999425836087827e-01
8.459999999999999742e-01,-4.221196154910482057e-01,3.206159238701051795e-01,3.775077769031458946e-02
8.469999999999999751e-01,-3.449723042628792813e-01,3.088350282504493394e-01,-3.398013145917273131e-03
8.479999999999999760e-01,-2.226463524784716430e-01,2.661377477359251342e-01,-8.419527493824160991e-02
8.489999999999999769e-01,-1.411441745517297564e-01,1.997292128909591846e-01,-1.805906416719962881e-01
8.499999999999999778e-01,4.033387307589939887e-03,1.222486854106648591e-01,-2.239974163205949720e-01
8.509999999999999787e-01,1.212079173229139439e-01,4.593565760148955734e-02,-2.809648652753822251e-01
8.519999999999999796e-01,2.152558956499127374e-01,-5.178160571209471097e-02,-3.067539381075221061e-01
8.529999999999999805e-01,2.980210591098950146e-01,-1.428959232012851077e-01,-3.200587045227392125e-01
8.539999999999999813e-01,3.820694200336779422e-01,-2.168800211968225089e-01,-3.278003145781943628e-01
8.549999999999999822e-01,4.085388967380483849e-01,-3.025598842279746403e-01,-3.145985766947059226e-01
8.559999999999999831e-01,4.296290984337690633e-01,-3.545740778341357480e-01,-2.931116023724414932e-01
8.569999999999999840e-01,4.060923440419521024e-01,-3.934337426406215310e-01,-2.384627105577238060e-01
8.579999999999999849e-01,3.504540931747833210e-01,-3.990550282697664652e-01,-1.749500426229890215e-01
8.589999999999999858e-01,2.817955917150088974e-01,-3.785230415673833115e-01,-1.268540216263541742e-01
8.599999999999999867e-01,2.032762046203145934e-01,-3.551815564115719526e-01,-5.330836505359347333e-02
8.609999999999999876e-01,1.212835578127030578e-01,-2.943765305789540210e-01,2.345876609962296161e-02
8.619999999999999885e-01,-5.782459273926137842e-04,-2.212036521400544131e-01,1.004222962632079913e-01
8.629999999999999893e-01,-1.207533062945023022e-01,-1.603544610845351881e-01,1.300401875722807521e-01
8.639999999999999902e-01,-2.114869937109837561e-01,-4.172773672773762849e-02,1.784735312904678350e-01
8.649999999999999911e-01,-3.131079109869780441e-01,5.241884056149052895e-02,2.156297101790048687e-01
8.659999999999999920e-01,-4.090067390376900813e-01,1.634085184191512718e-01,2.439354867557830264e-01
8.669999999999999929e-01,-4.516971821486892025e-01,2.520353283753976048e-01,2.469616490107473250e-01
8.679999999999999938e-01,-4.920302128026958766e-01,3.238847711985616273e-01,2.374846309032370706e-01
8.689999999999999947e-01,-5.069123705041843619e-01,3.959310106957564246e-01,2.050243431760637447e-01
8.699999999999999956e-01,-5.077522675894985404e-01,4.231578390756300379e-01,1.819462349571550619e-01
8.709999999999999964e-01,-4.282520935976864562e-01,4.541368744016322512e-01,1.296758313955535535e-01
8.719999999999999973e-01,-3.621443127939337203e-01,4.588692501511596467e-01,5.263758038002611106e-02
8.729999999999999982e-01,-3.004045281773224385e-01,4.335932947695512185e-01,-1.527323697026109796e-02
8.739999999999999991e-01,-1.670321226547676896e-01,3.714252874784779168e-01,-7.679795526401028694e-02
8.750000000000000000e-01,-3.348451159376531622e-02,3.064400437310510483e-01,-1.507503113539698514e-01
8.760000000000000009e-01,8.328575295102826070e-02,2.203636801201148965e-01,-1.948904771576329131e-01
8.770000000000000018e-01,1.809589645254277845e-01,1.584821152000278066e-01,-2.337686580962192728e-01
8.780000000000000027e-01,2.929169153641058565e-01,7.492952256295867808e-02,-2.894823353902574725e-01
8.790000000000000036e-01,4.212476519337375880e-01,-3.161467983836617479e-02,-3.090464833205631701e-01
8.800000000000000044e-01,4.936157352489542460e-01,-1.281806534048001434e-01,-3.299894509017532451e-01
8.810000000000000053e-01,5.378956905401413024e-01,-2.044288710879872684e-01,-2.936736952775819698e-01
8.820000000000000062e-01,5.483680594827444743e-01,-2.668370299805527535e-01,-2.638340737935639946e-01
8.830000000000000071e-01,5.795440046363025122e-01,-3.190913129762205647e-01,-2.357136884360875317e-01
8.840000000000000080e-01,5.293358392685071356e-01,-3.430131290861758719e-01,-1.677604717474969753e-01
8.850000000000000089e-01,4.549879861782539225e-01,-3.421933488025388215e-01,-1.165441185172727684e-01
8.860000000000000098e-01,3.851488902345563958e-01,-3.214392924586437217e-01,-3.855088937305551494e-02
8.870000000000000107e-01,2.908169001785878005e-01,-2.916504345720909996e-01,3.929387647019674107e-02
8.880000000000000115e-01,1.821531438959608229e-01,-2.334954335599684072e-01,1.219101866397910711e-01
8.890000000000000124e-01,7.963893505659656868e-02,-1.462998952556320009e-01,1.698383131186399220e-01
8.900000000000000133e-01,-5.347208676030219127e-02,-5.899204928372653312e-02,2.363009376060158928e-01
8.910000000000000142e-01,-1.569317012395704813e-01,4.404355761533624430e-02,2.644659186866261114e-01
8.920000000000000151e-01,-2.669277671856987721e-01,1.269160982933979498e-01,3.142339804327888286e-01
8.930000000000000160e-01,-3.196191925147431889e-01,2.021883441239460955e-01,3.233556536052281660e-01
8.940000000000000169e-01,-3.832480799072858768e-01,2.772039935104069763e-01,3.364410793745733486e-01
8.950000000000000178e-01,-4.104167875342855099e-01,3.044637514836125436e-01,3.288583651099450944e-01
8.960000000000000187e-01,-4.311015918035049355e-01,3.578046980318242420e-01,2.753627098898429604e-01
8.970000000000000195e-01,-3.913145200677616842e-01,3.777135121040830490e-01,2.334768652954762880e-01
8.980000000000000204e-01,-3.577029116560062061e-01,3.712187433326147867e-01,1.823452540933246102e-01
8.990000000000000213e-01,-2.738623715532566005e-01,3.396420419603497498e-01,1.158482208050183176e-01
9.000000000000000222e-01,-1.884953282469136182e-01,3.049736398249887070e-01,5.448588178620075023e-02
9.010000000000000231e-01,-7.593998067706260457e-02,2.323861362967745980e-01,-7.849875517396957825e-03
9.020000000000000240e-01,3.517976699013868058e-02,1.488658824207415854e-01,-9.833460864433465898e-02
9.030000000000000249e-01,1.384760358417064796e-01,7.272979870678859815e-02,-1.360450736013659456e-01
9.040000000000000258e-01,2.334629975514942446e-01,-5.266010355610362126e-02,-1.911399265747772969e-01
9.050000000000000266e-01,3.317449902864195721e-01,-1.256126590634201734e-01,-2.298650366111571197e-01
9.060000000000000275e-01,4.110479709398836001e-01,-2.352395217807225491e-01,-2.315873023446028411e-01
9.070000000000000284e-01,4.640992530244827940e-01,-3.207353440285338197e-01,-2.366347659838469175e-01
9.080000000000000293e-01,4.921551913902469932e-01,-3.885528371645937118e-01,-2.272182124305818507e-01
9.090000000000000302e-01,4.786797932390301491e-01,-4.312607195229500867e-01,-2.144897751309822187e-01
9.100000000000000311e-01,4.714003850333072787e-01,-4.565492342585074637e-01,-1.801415218182325639e-01
9.110000000000000320e-01,3.961002468511797825e-01,-4.473361339476104592e-01,-1.170127644685576007e-01
9.120000000000000329e-01,3.296310299613624539e-01,-4.298573430511669624e-01,-7.897878738436493740e-02
9.130000000000000338e-01,2.337885942274365858e-01,-3.837537610522022136e-01,-4.721598414305554735e-03
9.140000000000000346e-01,1.255131549562697735e-01,-3.479862139232759444e-01,8.539847816507016576e-02
9.150000000000000355e-01,-2.856707140676226914e-02,-2.576913364206184776e-01,1.230773944355615657e-01
9.160000000000000364e-01,-1.481479847451616372e-01,-1.660254154471500210e-01,1.947379695319548520e-01
9.170000000000000373e-01,-2.527549676764666575e-01,-7.394612702159560069e-02,2.332451493980604307e-01
9.180000000000000382e-01,-3.602067755203176569e-01,2.784057417902386505e-02,2.799454790296973528e-01
9.190000000000000391e-01,-4.360325387562132837e-01,1.095467719359620312e-01,2.854205876610563797e-01
9.200000000000000400e-01,-5.253470769567731846e-01,2.085822483218880141e-01,3.032610276862006682e-01
9.210000000000000409e-01,-5.600087007748605350e-01,2.502802866652971137e-01,2.954429801038016556e-01
9.220000000000000417e-01,-5.939348615700831280e-01,3.120258348939865534e-01,2.508228668035036302e-01
9.230000000000000426e-01,-5.488973520897434399e-01,3.647353020694379389e-01,2.262510228359965181e-01
9.240000000000000435e-01,-5.099205677183322738e-01,3.427313655510192403e-01,1.533944819060152620e-01
9.250000000000000444e-01,-4.616662088880458259e-01,3.365427805206924750e-01,1.013807642907232909e-01
9.260000000000000453e-01,-3.559113215235082395e-01,3.090840134428826658e-01,3.174214340880635032e-02
9.270000000000000462e-01,-2.575239532590649083e-01,2.385713844895508140e-01,-2.303469462523767552e-02
9.280000000000000471e-01,-1.421645570127897384e-01,1.800227785414099668e-01,-1.158709666443193120e-01
9.290000000000000480e-01,-3.844994442241778110e-02,1.023924043351413654e-01,-1.841265769241792472e-01
9.300000000000000488e-01,9.111875641948501137e-02,1.131563952590876852e-02,-2.584330315216688545e-01
9.310000000000000497e-01,1.978989273683576244e-01,-9.598470199868011643e-02,-2.863857425442173921e-01
9.320000000000000506e-01,2.804725565108045493e-01,-1.543695778013250697e-01,-3.206778605701147700e-01
9.330000000000000515e-01,3.586912330477928235e-01,-2.560367360808017967e-01,-3.335609522994102405e-01
9.340000000000000524e-01,4.171601565863987671e-01,-3.137824214413399426e-01,-3.570707805327654194e-01
9.350000000000000533e-01,4.315061659920997883e-01,-3.515989298057664580e-01,-3.244776110152595705e-01
9.360000000000000542e-01,4.364871493632014321e-01,-3.711744766982104093e-01,-3.057918757679299882e-01
9.370000000000000551e-01,3.727104187319349449e-01,-3.603718737860108212e-01,-2.455074101304100809e-01
9.379999999999999449e-01,3.131365057009874997e-01,-3.608785808584025201e-01,-2.036924901042071467e-01
9.389999999999999458e-01,2.525661095703782277e-01,-2.956452070218709705e-01,-1.449139038674994440e-01
9.399999999999999467e-01,1.596989243006965153e-01,-2.361854859630435066e-01,-5.385623421111550291e-02
9.409999999999999476e-01,5.264046321821567315e-02,-1.597147209073242757e-01,2.539262799935448900e-02
9.419999999999999485e-01,-5.893022289335571318e-02,-6.525559634061861569e-02,9.032088158399091682e-02
9.429999999999999494e-01,-1.668632333403974599e-01,2.052195261681152849e-02,1.299623531542544175e-01
9.439999999999999503e-01,-2.858327858071583183e-01,1.225564817913984694e-01,1.975395189060445700e-01
9.449999999999999512e-01,-3.548148265910522348e-01,2.062182924629320790e-01,2.291632161234533616e-01
9.459999999999999520e-01,-4.382020940371368911e-01,2.991685709170091578e-01,2.450099160156002653e-01
9.469999999999999529e-01,-4.907033100379238344e-01,3.667945645380468189e-01,2.523473919656670228e-01
9.479999999999999538e-01,-4.931955678760747142e-01,4.202174025289265868e-01,2.442022618098014519e-01
9.489999999999999547e-01,-4.765570839051296859e-01,4.654085917045804877e-01,2.175103240732385868e-01
9.499999999999999556e-01,-4.182050425002218907e-01,4.707006192210959061e-01,1.898822257660165713e-01
9.509999999999999565e-01,-3.762049831171155878e-01,4.367273550939418936e-01,1.267208672964502958e-01
9.519999999999999574e-01,-2.732994204649142889e-01,4.101831365664825868e-01,6.748263580582553045e-02
9.529999999999999583e-01,-1.704670214443872733e-01,3.625476251574174524e-01,7.223279072747299488e-03
9.539999999999999591e-01,-5.943274921817782996e-02,2.643039871191815160e-01,-7.189722286629005032e-02
9.549999999999999600e-01,6.766516843186308472e-02,1.916893081790411735e-01,-1.520379882972713315e-01
9.559999999999999609e-01,1.897299650842114993e-01,1.105204758972352097e-01,-1.988556916391885088e-01
9.569999999999999618e-01,3.151198638940856389e-01,-2.569208910157868425e-02,-2.401324778406836447e-01
9.579999999999999627e-01,4.079606305378141173e-01,-9.133547993908923412e-02,-2.663026060060003086e-01
9.589999999999999636e-01,4.955266527766466478e-01,-1.734035026849094774e-01,-3.016319974999912001e-01
9.599999999999999645e-01,5.366827688948856423e-01,-2.533575930084839278e-01,-3.022824068412147125e-01
9.609999999999999654e-01,5.689069321873032603e-01,-3.116205105701465583e-01,-2.867780389239368843e-01
9.619999999999999662e-01,5.675375491627365765e-01,-3.553351270143506602e-01,-2.623577385105614890e-01
9.629999999999999671e-01,5.676659907844258113e-01,-3.461443988767148316e-01,-2.198267563958035964e-01
9.639999999999999680e-01,4.775737741259294955e-01,-3.390372139136445528e-01,-1.811034947199008371e-01
9.649999999999999689e-01,4.220040606195569755e-01,-3.104853992736517632e-01,-1.045688667243042796e-01
9.659999999999999698e-01,3.110374369132195560e-01,-2.895488872056533047e-01,-3.100895343096552598e-02
9.669999999999999707e-01,2.253196852846316156e-01,-1.943131660834027663e-01,5.790959696243068444e-02
9.679999999999999716e-01,8.698101729443771801e-02,-1.148769316308246025e-01,1.260965890548994273e-01
9.689999999999999725e-01,-4.888706857580502052e-02,-1.931891870781772200e-02,1.910165454210456804e-01
9.699999999999999734e-01,-1.186655045098829464e-01,5.357520856025840134e-02,2.342240706983228227e-01
9.709999999999999742e-01,-2.397285600007735828e-01,1.424669532818209627e-01,2.907197600986781150e-01
9.719999999999999751e-01,-3.204878830978470372e-01,2.138807817817968693e-01,3.269606335565512500e-01
9.729999999999999760e-01,-3.880264699774119697e-01,2.860591029512048467e-01,3.293143483501764224e-01
9.739999999999999769e-01,-4.248026510265038858e-01,3.263786791989055636e-01,3.382921399573633470e-01
9.749999999999999778e-01,-4.329156872158903546e-01,3.763568187432434486e-01,3.422939919445296408e-01
9.759999999999999787e-01,-4.422185873918383914e-01,3.726354455953504452e-01,2.904283679745420788e-01
9.769999999999999796e-01,-3.904044500079132396e-01,3.535315248660207410e-01,2.501179761519277678e-01
9.779999999999999805e-01,-3.221898404425716511e-01,3.020912901861071420e-01,1.870674655388918917e-01
9.789999999999999813e-01,-2.246276048514478929e-01,2.345060416523138680e-01,1.203478516696677575e-01
9.799999999999999822e-01,-1.234022848381741005e-01,1.772327706917396495e-01,5.899840232785173028e-02
9.809999999999999831e-01,-1.472154359638505952e-02,7.132409543211118419e-02,-1.530406801858306964e-02
9.819999999999999840e-01,1.149611920315782299e-01,-3.331307735101892483e-03,-8.618036095251570272e-02
9.829999999999999849e-01,1.987772509089074657e-01,-1.057528083461244522e-01,-1.522388691984298548e-01
9.839999999999999858e-01,2.979861107347817062e-01,-1.919055376782842492e-01,-1.792987204641591226e-01
9.849999999999999867e-01,3.804690930090861567e-01,-2.916435296905495189e-01,-2.083319494340056532e-01
9.859999999999999876e-01,4.343001193404764648e-01,-3.674518600220020859e-01,-2.520372705831897542e-01
9.869999999999999885e-01,4.755342875900134825e-01,-4.244660431919197729e-01,-2.522163633921125081e-01
9.879999999999999893e-01,4.684261754598921246e-01,-4.542081666298679599e-01,-2.473514455114232402e-01
9.889999999999999902e-01,4.583513119918858902e-01,-4.593305293815148627e-01,-2.202608133610135244e-01
9.899999999999999911e-01,3.843714323722889903e-01,-4.581772216790372942e-01,-1.826428215592592053e-01
9.909999999999999920e-01,3.227165423913949116e-01,-4.268367949116872451e-01,-1.388570665087616729e-01
9.919999999999999929e-01,2.349552036146632383e-01,-3.581515123226173269e-01,-6.734953651774616690e-02
9.929999999999999938e-01,1.313772641505482619e-01,-2.906970660238708537e-01,-4.896695980334364422e-04
9.939999999999999947e-01,7.107346353153664795e-03,-2.125658779557853817e-01,5.987253499890423519e-02
9.949999999999999956e-01,-1.143633371650207980e-01,-1.207487568035445907e-01,1.187956316145502705e-01
9.959999999999999964e-01,-2.459121861551304133e-01,-1.972451592190307967e-02,1.834797130307384561e-01
9.969999999999999973e-01,-3.512335095841790933e-01,1.003199368048485612e-01,2.208544763618915108e-01
9.979999999999999982e-01,-4.429167686574455032e-01,1.696832530260009853e-01,2.853707284094744723e-01
9.989999999999999991e-01,-5.271725460522953544e-01,2.530963243273995911e-01,2.906445396811185855e-01
1.000000000000000000e+00,-5.551704294041526211e-01,3.057631609283454344e-01,2.921964355412784986e-01
1.000999999999999890e+00,-5.808315532050779550e-01,3.502069468130533658e-01,2.819595599973539479e-01
1.002000000000000002e+00,-5.674215318329481894e-01,3.707298955434099597e-01,2.553146375466003315e-01
1.002999999999999892e+00,-5.441160032300100813e-01,3.541896012400331806e-01,1.957646424986841938e-01
1.004000000000000004e+00,-4.599170613147178788e-01,3.392830219017878846e-01,1.601241548842831930e-01
1.004999999999999893e+00,-3.750780735862464521e-01,2.685042207887072818e-01,9.804787912083448576e-02
1.006000000000000005e+00,-2.594511812225614444e-01,2.395269118220578197e-01,1.197410443169355174e-02
1.006999999999999895e+00,-1.561043861245147990e-01,1.362272470008355496e-01,-7.386304910703651860e-02
1.008000000000000007e+00,-3.075418586753737860e-02,5.490536198416515884e-02,-1.212401707349578805e-01
1.008999999999999897e+00,9.024872181586186815e-02,-3.402060952473085625e-02,-1.931821793636650797e-01
1.010000000000000009e+00,1.926782117983048548e-01,-1.177953863153680253e-01,-2.574792843867650949e-01
1.010999999999999899e+00,2.824488110877457214e-01,-1.874670944947051110e-01,-2.817091381488316948e-01
1.012000000000000011e+00,3.554855837988649681e-01,-2.666776357135378084e-01,-3.094948307022483691e-01
1.012999999999999901e+00,4.030729914498636934e-01,-3.008837111566436406e-01,-3.538121912494966992e-01
1.014000000000000012e+00,4.387706374351373340e-01,-3.534415684930261037e-01,-3.216871841176744962e-01
1.014999999999999902e+00,4.411960243867271703e-01,-3.563615282250233718e-01,-3.343904710224133714e-01
1.016000000000000014e+00,4.209276981499122106e-01,-3.501231058712585553e-01,-2.855053222130096158e-01
1.016999999999999904e+00,3.575964927064336218e-01,-3.113940680444463593e-01,-2.486381187862646558e-01
1.018000000000000016e+00,2.839664705465823613e-01,-2.560672648818199670e-01,-1.683486597103732718e-01
1.018999999999999906e+00,1.851317287547957213e-01,-1.733914242898628166e-01,-1.144899708036418995e-01
1.020000000000000018e+00,8.512504261260742111e-02,-9.630911462296411207e-02,-5.911410150893225274e-02
1.020999999999999908e+00,-2.240840402355361027e-02,2.320222743348972477e-03,3.658513513157581748e-02
1.022000000000000020e+00,-1.296363846853811341e-01,9.589614825981987445e-02,8.856204761831246164e-02
1.022999999999999909e+00,-2.329890035356328715e-01,1.976040893861107928e-01,1.479451846655299996e-01
1.024000000000000021e+00,-3.318485577031124456e-01,2.619819635171712902e-01,1.974851512884511218e-01
1.024999999999999911e+00,-4.068026445344891662e-01,3.505938054569680551e-01,2.327517234629238596e-01
1.026000000000000023e+00,-4.289547860596701345e-01,3.968365410308624663e-01,2.439506500396249056e-01
1.026999999999999913e+00,-4.701203174735636980e-01,4.532465196310849209e-01,2.722199347834832195e-01
1.028000000000000025e+00,-4.631039782796650406e-01,4.570321363255702707e-01,2.381087916500003177e-01
1.028999999999999915e+00,-4.207499233705853103e-01,4.519485141832723651e-01,2.130549501030006565e-01
1.030000000000000027e+00,-3.404692019193009123e-01,4.307865501265105701e-01,1.942096619108773792e-01
1.030999999999999917e+00,-2.911015728329451879e-01,3.698759532642713621e-01,1.255205589596956051e-01
1.032000000000000028e+00,-1.780171578078107997e-01,2.950598565497037362e-01,7.585503657501949104e-02
1.032999999999999918e+00,-6.897039054611757425e-02,2.406089212551763279e-01,4.524816577028740842e-03
1.034000000000000030e+00,4.453735031276649659e-02,1.291305792300719846e-01,-5.456434925660163388e-02
1.034999999999999920e+00,1.892554254053346041e-01,2.508927970319203837e-02,-1.208168322531385230e-01
1.036000000000000032e+00,2.878088188114201751e-01,-6.189176432627931101e-02,-1.799678688647503855e-01
1.036999999999999922e+00,4.020273757898241707e-01,-1.482551219607435300e-01,-2.165200749104844169e-01
1.038000000000000034e+00,4.928058092636942167e-01,-2.400301736666258789e-01,-2.747736957195924812e-01
1.038999999999999924e+00,5.311498456698824366e-01,-3.120493395120688684e-01,-2.876332346325878309e-01
1.040000000000000036e+00,5.782585565206724842e-01,-3.430364132869018756e-01,-2.801351218083342753e-01
1.040999999999999925e+00,5.876314886841785823e-01,-3.668275372730599448e-01,-2.612561863129794770e-01
1.042000000000000037e+00,5.526507930496784571e-01,-3.670255883068372915e-01,-2.365947384606922610e-01
1.042999999999999927e+00,5.083614097916896446e-01,-3.577060088498845158e-01,-2.079343524370106944e-01
1.044000000000000039e+00,4.154014261494942684e-01,-2.951261818429335992e-01,-1.718809959252243780e-01
1.044999999999999929e+00,3.380929901390535286e-01,-2.402872855823723897e-01,-9.724108923827869122e-02
1.046000000000000041e+00,2.285735502829032428e-01,-1.648176652842060219e-01,-1.831160389322205456e-02
1.046999999999999931e+00,1.088819497861299446e-01,-7.835039931182963269e-02,4.943781309066172525e-02
1.048000000000000043e+00,-6.203829005873341858e-03,3.414169317778353429e-03,1.271593690613878058e-01
1.048999999999999932e+00,-1.254569594042471981e-01,9.182308013097162380e-02,1.992845863053124555e-01
1.050000000000000044e+00,-2.227479367416007883e-01,1.764257970837050937e-01,2.562733577032991761e-01
1.050999999999999934e+00,-3.196553221047299664e-01,2.597182427986425846e-01,2.783592021218979640e-01
1.052000000000000046e+00,-3.890821533249261277e-01,3.046262849063878231e-01,3.285414626408105776e-01
1.052999999999999936e+00,-4.277572495771834737e-01,3.383956925078867028e-01,3.545597564824056747e-01
1.054000000000000048e+00,-4.518373594694671813e-01,3.463690511507332426e-01,3.542332929054584079e-01
1.054999999999999938e+00,-4.497269543066769182e-01,3.432168554408185912e-01,3.288363960499470773e-01
1.056000000000000050e+00,-3.997744669618092939e-01,3.151158206710353293e-01,2.972391115700748210e-01
1.056999999999999940e+00,-3.562175875392293301e-01,2.776657590201941916e-01,2.395572209890890758e-01
1.058000000000000052e+00,-2.602651258490056851e-01,1.951262009293811828e-01,1.811306149607929128e-01
1.058999999999999941e+00,-1.660079924142512098e-01,1.146912491246070420e-01,1.169161385063521158e-01
1.060000000000000053e+00,-6.238022668048310432e-02,2.509833065326480886e-02,5.320514593844902218e-02
1.060999999999999943e+00,6.201040652241433110e-02,-6.484225719870098659e-02,-6.563505819890847783e-03
1.062000000000000055e+00,1.649054821624388045e-01,-1.660098592548653607e-01,-1.015148739596434396e-01
1.062999999999999945e+00,2.549750048816302184e-01,-2.563137452648661663e-01,-1.412249115775239261e-01
1.064000000000000057e+00,3.443488344299879822e-01,-3.602515533219918242e-01,-1.966717065189529101e-01
1.064999999999999947e+00,4.084527846330722745e-01,-4.142536017400707538e-01,-2.419870571933087078e-01
1.066000000000000059e+00,4.329923577164350168e-01,-4.506503470672694189e-01,-2.534934878059193486e-01
1.066999999999999948e+00,4.549054786235267600e-01,-4.627864068113530238e-01,-2.742989888599451920e-01
1.068000000000000060e+00,4.441555077058885193e-01,-4.607706081549735599e-01,-2.662111364463846663e-01
1.068999999999999950e+00,3.753839020116427339e-01,-4.393078851192392942e-01,-2.401220972941349452e-01
1.070000000000000062e+00,3.190507646824685684e-01,-3.788309866462217235e-01,-1.895775377776818260e-01
1.070999999999999952e+00,2.273032740730497048e-01,-3.064935881979152232e-01,-1.526291189963686623e-01
1.072000000000000064e+00,1.276523662845151230e-01,-2.236614563883255469e-01,-7.438092950437265316e-02
1.072999999999999954e+00,1.605590327258869581e-03,-1.421158765118704093e-01,-6.555283290662814420e-03
1.074000000000000066e+00,-1.112178613443545322e-01,-4.459022246188876215e-02,2.882240783230382089e-02
1.074999999999999956e+00,-2.324205912711193311e-01,4.952139011629626969e-02,1.142319186080101440e-01
1.076000000000000068e+00,-3.343235346225978399e-01,1.422733162742492175e-01,1.750449930706640678e-01
1.076999999999999957e+00,-4.329807340314356656e-01,2.454267448488950121e-01,2.187249530397933905e-01
1.078000000000000069e+00,-5.106231594764003567e-01,3.103239150113934475e-01,2.443631192973526323e-01
1.078999999999999959e+00,-5.576073674839376881e-01,3.569215692369965831e-01,2.807527932136115734e-01
1.080000000000000071e+00,-5.760986451467964287e-01,3.787439908510212283e-01,2.980215063849748214e-01
1.080999999999999961e+00,-5.713571732343644127e-01,3.869015283143772965e-01,2.739222059931006314e-01
1.082000000000000073e+00,-5.588146367643193058e-01,3.949454366377823655e-01,2.630154426479316965e-01
1.082999999999999963e+00,-4.814166252601640994e-01,3.255256115713313636e-01,1.971761820985600266e-01
1.084000000000000075e+00,-4.044024994176295129e-01,2.942587669102625925e-01,1.327932730825002461e-01
1.084999999999999964e+00,-2.819465201724561942e-01,2.028037383302745134e-01,7.589434358121802116e-02
1.086000000000000076e+00,-1.747154115968982124e-01,1.122421308962613384e-01,3.215104931303320451e-02
1.086999999999999966e+00,-4.781956720699090391e-02,3.140262549947043375e-02,-6.903935721799109304e-02
1.088000000000000078e+00,7.850162851560942012e-02,-7.630609363415022384e-02,-1.397467652576396546e-01
1.088999999999999968e+00,1.766950212568919876e-01,-1.493619096015704473e-01,-2.004386680285072941e-01
1.090000000000000080e+00,2.805529015131013604e-01,-2.318888426284859694e-01,-2.738966738367574760e-01
1.090999999999999970e+00,3.534104580750009883e-01,-2.994614010084401534e-01,-2.947610201859414691e-01
1.092000000000000082e+00,4.217980295380484024e-01,-3.202715920150931428e-01,-3.329702295299944992e-01
1.092999999999999972e+00,4.508826365776241185e-01,-3.413792096272445509e-01,-3.424885752437563102e-01
1.094000000000000083e+00,4.517246493070668500e-01,-3.602522028985040148e-01,-3.653034872226933460e-01
1.094999999999999973e+00,4.370446463850182761e-01,-3.252440121373194604e-01,-3.109089137560696603e-01
1.096000000000000085e+00,3.966285661556019360e-01,-2.829765242694162186e-01,-2.912329341775667935e-01
1.096999999999999975e+00,3.153580983153216888e-01,-2.017389940498073020e-01,-2.511366350336823872e-01
1.098000000000000087e+00,2.225646788601812753e-01,-1.235707978403709495e-01,-1.861603049295962875e-01
1.098999999999999977e+00,1.278401986810713264e-01,-3.224811803906318247e-02,-1.110752414338689875e-01
1.100000000000000089e+00,1.634932366888073099e-02,4.910519191754791901e-02,-5.605706139615600908e-02
1.100999999999999979e+00,-8.701457410288267191e-02,1.552579435582055467e-01,5.001461204950877031e-03
1.102000000000000091e+00,-1.906326607207395885e-01,2.417027178665986098e-01,9.469534574987435727e-02
1.102999999999999980e+00,-3.003324846315941210e-01,3.253472154473530109e-01,1.536668749723716088e-01
1.104000000000000092e+00,-3.479694571177264772e-01,3.684353252842736404e-01,2.074593072829309381e-01
1.104999999999999982e+00,-4.221857273776419284e-01,4.394993710019865496e-01,2.560542422380339689e-01
1.106000000000000094e+00,-4.568314440827208056e-01,4.419753641302366920e-01,2.873399611242443696e-01
1.106999999999999984e+00,-4.341527580021962707e-01,4.508155890856550552e-01,2.655429425454202130e-01
1.108000000000000096e+00,-4.269234400094451543e-01,4.498605835014551357e-01,2.651625222920585001e-01
1.108999999999999986e+00,-3.716555406764596170e-01,3.883239020584772772e-01,2.434331284375952642e-01
1.110000000000000098e+00,-2.739203840174612159e-01,3.222371857120493455e-01,1.885959045067316930e-01
1.110999999999999988e+00,-1.818316895017884349e-01,2.489984608527064658e-01,1.399967635753643080e-01
1.112000000000000099e+00,-6.796352187582919979e-02,1.610662614814052651e-01,7.978967045933527125e-02
1.112999999999999989e+00,3.805982547162689578e-02,5.942514028295250300e-02,3.446609201764960773e-02
1.114000000000000101e+00,1.616347836213171130e-01,-2.890945180135395115e-02,-2.136634306580330669e-02
1.114999999999999991e+00,2.761612165469036206e-01,-1.315112311762914044e-01,-1.020880977492581443e-01
1.116000000000000103e+00,3.811179664911940601e-01,-2.324206629149526138e-01,-1.532608144559776120e-01
1.116999999999999993e+00,4.600346735666420162e-01,-2.935620828380458014e-01,-2.215394864374267414e-01
1.118000000000000105e+00,5.214912858564363374e-01,-3.525406761842047598e-01,-2.444013453166829219e-01
1.118999999999999995e+00,5.586826690676731655e-01,-3.761706469471222114e-01,-2.634939582080129683e-01
1.120000000000000107e+00,5.953328929444546835e-01,-3.941737180803616125e-01,-2.637991786981165321e-01
1.120999999999999996e+00,5.768823043639154102e-01,-3.866097025395827114e-01,-2.700836961226275035e-01
1.122000000000000108e+00,4.886285996304917667e-01,-3.202962944319335814e-01,-2.364397371648937485e-01
1.122999999999999998e+00,4.315850066199688473e-01,-3.039973356471970534e-01,-1.991958200702407811e-01
1.124000000000000110e+00,3.414379031137083631e-01,-2.109168783472788467e-01,-1.382511214229679153e-01
1.125000000000000000e+00,2.370113554588267335e-01,-1.254682968768924267e-01,-7.467859849250189919e-02
1.125999999999999890e+00,1.141945004027505595e-01,-4.704964989327283659e-02,1.535229964910125693e-03
1.127000000000000002e+00,2.613278001993922083e-03,3.310957129189715659e-02,5.249458768657441765e-02
1.127999999999999892e+00,-1.268081692802990879e-01,1.295971083861398032e-01,1.215893074951806541e-01
1.129000000000000004e+00,-2.249299060514243775e-01,1.936861215244279344e-01,2.084985568693217828e-01
1.129999999999999893e+00,-3.241318117865426562e-01,2.753666457530445921e-01,2.522108254684028994e-01
1.131000000000000005e+00,-4.003018896724212516e-01,3.102909213810112754e-01,2.929808287129194166e-01
1.131999999999999895e+00,-4.504106858369182342e-01,3.232766698077127465e-01,3.217159159280040259e-01
1.133000000000000007e+00,-4.720802781990651176e-01,3.344660130618048455e-01,3.587311113116284922e-01
1.133999999999999897e+00,-4.704552806002089693e-01,3.146108402813696525e-01,3.506421226641301403e-01
1.135000000000000009e+00,-4.308271385710447099e-01,2.729188443326679425e-01,3.197850499129735180e-01
1.135999999999999899e+00,-3.753961742759958087e-01,2.168525665932264090e-01,2.931622664982476145e-01
1.137000000000000011e+00,-2.927030812284787120e-01,1.448163076575230690e-01,2.435170155043990536e-01
1.137999999999999901e+00,-2.145809756035123306e-01,4.208263675316743085e-02,1.915255304678604442e-01
1.139000000000000012e+00,-9.536913245629878577e-02,-5.265532441209134357e-02,1.206470757364677820e-01
1.139999999999999902e+00,1.205790647346674863e-02,-1.371233353180026926e-01,5.069667005121272080e-02
1.141000000000000014e+00,1.264198371355943207e-01,-2.363466008803772889e-01,-1.293114390165581336e-02
1.141999999999999904e+00,2.226048810017585422e-01,-3.047980452219212211e-01,-1.014141403432123473e-01
1.143000000000000016e+00,3.160204732339251255e-01,-3.749834039679534325e-01,-1.477513090232815685e-01
1.143999999999999906e+00,3.593157590479695296e-01,-4.197172262409016308e-01,-2.119202003255988842e-01
1.145000000000000018e+00,4.196923105020446965e-01,-4.448457169162779445e-01,-2.365681016011576820e-01
1.145999999999999908e+00,4.197450930833421801e-01,-4.584539623537567388e-01,-2.752937124683331738e-01
1.147000000000000020e+00,4.083820301483382931e-01,-4.325075539612218134e-01,-2.830610726919205455e-01
1.147999999999999909e+00,3.893095674922263383e-01,-4.178240698273611997e-01,-2.643802785516708442e-01
1.149000000000000021e+00,3.097257148128161885e-01,-3.421815850286791250e-01,-2.619888811699073727e-01
1.149999999999999911e+00,2.245656036303902425e-01,-2.395687169222480151e-01,-2.117041045658246690e-01
1.151000000000000023e+00,1.485032095339030023e-01,-1.579940120623627708e-01,-1.554390655961728207e-01
1.151999999999999913e+00,3.525115259131428314e-02,-7.911378372893118627e-02,-1.096258640402691664e-01
1.153000000000000025e+00,-9.649862137178918942e-02,3.285682585691611368e-02,-3.939644529558711944e-02
1.153999999999999915e+00,-2.235795287799350051e-01,1.207687054404368160e-01,4.182191265244701583e-02
1.155000000000000027e+00,-3.124932647298820365e-01,2.147058458861873242e-01,9.599672385862557944e-02
1.155999999999999917e+00,-4.174838219167084086e-01,2.926375477125011115e-01,1.434598003653284326e-01
1.157000000000000028e+00,-4.929109445592778083e-01,3.533565771314376436e-01,2.111297338138693747e-01
1.157999999999999918e+00,-5.589254332989821439e-01,4.028350772635811428e-01,2.489669949697613238e-01
1.159000000000000030e+00,-5.689212214030544557e-01,3.997498865071735796e-01,2.587481525006858907e-01
1.159999999999999920e+00,-5.570658788920920257e-01,3.867980131746265871e-01,2.624754177000154232e-01
1.161000000000000032e+00,-5.401746291561848601e-01,3.677579200806100901e-01,2.770797719638712353e-01
1.161999999999999922e+00,-4.804147858037884355e-01,3.043637837402334290e-01,2.279765081596462628e-01
1.163000000000000034e+00,-4.016324298010346960e-01,2.383590400872584170e-01,1.922829848535996533e-01
1.163999999999999924e+00,-3.088932109392000247e-01,1.718893995756549664e-01,1.322490741032914252e-01
1.165000000000000036e+00,-1.717937485898446970e-01,6.312509052572361223e-02,7.054893598827537138e-02
1.165999999999999925e+00,-7.182448630079105167e-02,-1.759832501824661055e-02,-1.316041871061444067e-02
1.167000000000000037e+00,7.709751665993624936e-02,-9.875170566361139712e-02,-5.380607826608253819e-02
1.167999999999999927e+00,1.848145441953024937e-01,-1.667102938845991256e-01,-1.377081345456011297e-01
1.169000000000000039e+00,2.799741783904852732e-01,-2.625509193672002084e-01,-1.838850024613788159e-01
1.169999999999999929e+00,3.640433700435652953e-01,-3.144175317418192450e-01,-2.442160294159359257e-01
1.171000000000000041e+00,4.429717454245525321e-01,-3.378960838816402745e-01,-2.978755052239935308e-01
1.171999999999999931e+00,4.795573801161374106e-01,-3.610883105403447924e-01,-3.271717883302968088e-01
1.173000000000000043e+00,4.738266803302413344e-01,-3.252876892023984223e-01,-3.284371244272190626e-01
1.173999999999999932e+00,4.791143986261920396e-01,-2.751187584672443731e-01,-3.333205587844770279e-01
1.175000000000000044e+00,4.131454192691300098e-01,-2.509959485084209962e-01,-3.191726432911546341e-01
1.175999999999999934e+00,3.559541038940534641e-01,-1.434418444728251807e-01,-2.695685445517149725e-01
1.177000000000000046e+00,2.751147679143359226e-01,-6.643169356421758931e-02,-2.466816095014108812e-01
1.177999999999999936e+00,1.768298140173206190e-01,1.483063495556399478e-02,-1.925088596194612089e-01
1.179000000000000048e+00,7.888480100052677746e-02,1.070663624583374218e-01,-1.113424806187345018e-01
1.179999999999999938e+00,-5.176460132781759982e-02,1.959101938206630200e-01,-3.062984502617956822e-02
