time,acc_x,acc_y,acc_z
0.000000000000000000e+00,-1.395563880861990513e-01,-2.797282880331374288e-01,7.429766789071412525e-02
1.000000000000000021e-03,-5.966647342298038170e-01,-5.384184401290574851e-01,-2.489482402138779027e-01
2.000000000000000042e-03,-7.122661759710905427e-01,-4.839338352781387687e-01,-4.176442810303075959e-01
3.000000000000000062e-03,-4.065078251109910390e-01,-1.315091087832258587e-01,-3.592899884219745710e-01
4.000000000000000083e-03,6.242829611736398082e-02,2.305101984109630131e-01,-9.002852462547840384e-02
5.000000000000000104e-03,4.645971510410329963e-01,4.496497888758368977e-01,1.890928227601899603e-01
6.000000000000000125e-03,5.776259437851436473e-01,3.977170611891952534e-01,3.498385190325444816e-01
7.000000000000000146e-03,3.846158766000974949e-01,1.458461203880227208e-01,3.143460962723823027e-01
8.000000000000000167e-03,-2.427782807889643235e-02,-1.613732248541800973e-01,1.187242967156923179e-01
8.999999999999999320e-03,-3.373023503024121794e-01,-3.260367163025691961e-01,-1.173602063313172184e-01
1.000000000000000021e-02,-4.268279224928249738e-01,-3.007710587834408478e-01,-2.479414451593883462e-01
1.099999999999999936e-02,-3.018727073099182201e-01,-1.296193352927367259e-01,-2.373449636362468806e-01
1.200000000000000025e-02,-2.499387970193238037e-02,7.953129848819770475e-02,-1.074676748813653826e-01
1.299999999999999940e-02,1.880141255772523889e-01,1.863539776475386933e-01,4.026185410250113922e-02
1.400000000000000029e-02,2.542813230806081348e-01,1.648665733304847392e-01,1.468099109164046623e-01
1.499999999999999944e-02,1.857178416455291248e-01,7.740051159828656435e-02,1.577778094023477296e-01
1.600000000000000033e-02,6.587226632558280948e-02,2.160166917561173131e-03,9.470633676068261619e-02
1.700000000000000122e-02,-4.457496073000356829e-02,-3.956121490196154444e-02,-3.497303135310176041e-03
1.799999999999999864e-02,-5.899037446230973036e-02,-3.259163851476455653e-02,-4.303010603060949263e-02
1.899999999999999953e-02,-6.731520554209359519e-02,-5.740944804364531834e-02,-5.040303558952564933e-02
2.000000000000000042e-02,-6.068201382500645197e-02,-7.997920135999136981e-02,-4.975583861605776398e-02
2.100000000000000130e-02,-1.018198322890717794e-01,-1.256197459364584157e-01,-3.383357709766705163e-02
2.199999999999999872e-02,-1.333225375476339847e-01,-8.966679054426718309e-02,-6.684340423354237504e-02
2.299999999999999961e-02,-8.689413846131195662e-02,9.593890469443292282e-03,-7.117015028075465710e-02
2.400000000000000050e-02,7.174928823806446532e-02,1.520808566544183671e-01,-1.139516042375395000e-02
2.500000000000000139e-02,2.314367565271223115e-01,2.366778886693751971e-01,8.026646908953433135e-02
2.599999999999999881e-02,3.211316548514802083e-01,2.232432879877503662e-01,1.612202398926720903e-01
2.699999999999999969e-02,2.130698746816940270e-01,3.520715676507472913e-02,1.824950328384591092e-01
2.800000000000000058e-02,-4.347249914693600281e-02,-2.217902425764652630e-01,9.126520692055831163e-02
2.900000000000000147e-02,-3.293881571538440078e-01,-3.868210703638166326e-01,-5.713084031515636846e-02
2.999999999999999889e-02,-4.882562142572696162e-01,-3.420545330818920426e-01,-2.249143832625709050e-01
3.099999999999999978e-02,-3.543511469998941177e-01,-8.737975860694340013e-02,-2.882872812951480235e-01
3.200000000000000067e-02,1.056169595585148245e-02,2.555406117959979073e-01,-1.737705370053564125e-01
3.300000000000000155e-02,4.118617760550337681e-01,4.875713419792679915e-01,7.757410983883128441e-02
3.400000000000000244e-02,6.226258691926140898e-01,4.457637472885600527e-01,2.853171536203673586e-01
3.500000000000000333e-02,4.999262797904874822e-01,1.288149642484112956e-01,3.708753369790641630e-01
3.599999999999999728e-02,3.223811326421526652e-02,-2.956932352646456930e-01,2.368908053138323311e-01
3.699999999999999817e-02,-4.526891238243334059e-01,-5.835283522879239904e-01,-3.385894832726973197e-02
3.799999999999999906e-02,-7.359245773828895221e-01,-5.099349298100164241e-01,-3.257251914147146210e-01
3.899999999999999994e-02,-5.859803368252329836e-01,-1.673491620850203476e-01,-4.369736851604298922e-01
4.000000000000000083e-02,-7.692365839785419990e-02,3.209650491984669118e-01,-3.193934092254457902e-01
4.100000000000000172e-02,4.749361671959940190e-01,6.068146950103260329e-01,-1.915443496467319652e-05
4.200000000000000261e-02,7.990897781762078544e-01,5.672905419316954800e-01,3.305960283395819044e-01
4.299999999999999656e-02,6.690968209889331941e-01,1.718872095500164621e-01,4.716697644851504667e-01
4.399999999999999745e-02,1.508086738484992750e-01,-3.142335002826115997e-01,3.622088052667953861e-01
4.499999999999999833e-02,-4.588169131807461887e-01,-6.292440173279805204e-01,5.069211830282185222e-02
4.599999999999999922e-02,-8.157581349560404371e-01,-6.021310042175640476e-01,-3.008879408301654568e-01
4.700000000000000011e-02,-7.102461863274159848e-01,-2.081423693852766377e-01,-4.961960483362392593e-01
4.800000000000000100e-02,-1.836386383562091384e-01,2.928115138748147439e-01,-4.140715763771679048e-01
4.900000000000000189e-02,4.242024189038409165e-01,6.209613664022543000e-01,-9.763995921120696697e-02
5.000000000000000278e-02,7.932518060447009134e-01,5.921466679065203742e-01,2.660897032945174212e-01
5.099999999999999672e-02,7.155026273352538269e-01,2.012576761933904390e-01,4.781020405307742638e-01
5.199999999999999761e-02,2.267715230350615396e-01,-2.617931416417326740e-01,4.198818760571414455e-01
5.299999999999999850e-02,-3.420235732828912356e-01,-5.671402488211366721e-01,1.264268995293622022e-01
5.399999999999999939e-02,-7.030235219540814651e-01,-5.267279284609441836e-01,-2.366364732508531854e-01
5.500000000000000028e-02,-6.599085327379243804e-01,-2.106864177803254023e-01,-4.300306039442903794e-01
5.600000000000000117e-02,-2.615342661695765347e-01,2.187386509020567138e-01,-3.953228818704764280e-01
5.700000000000000205e-02,2.578327864824837556e-01,4.768437716090907497e-01,-1.315014075026465501e-01
5.800000000000000294e-02,5.884476571508598930e-01,4.474850522142682085e-01,1.807785469657032795e-01
5.899999999999999689e-02,5.851353798110118243e-01,1.848232809941479649e-01,3.632884086872886775e-01
5.999999999999999778e-02,2.649560850501955778e-01,-1.512873606976216645e-01,3.646102716017809997e-01
6.099999999999999867e-02,-1.757350826874125860e-01,-3.650890419559701394e-01,1.603807475865572929e-01
6.199999999999999956e-02,-4.525184221825112596e-01,-3.507490931507987186e-01,-1.031583833302594649e-01
6.300000000000000044e-02,-4.645656757414136639e-01,-1.562669583909817583e-01,-2.673749016758092401e-01
6.400000000000000133e-02,-2.173202066787482956e-01,8.147749093267235565e-02,-2.834044800201704351e-01
6.500000000000000222e-02,9.409503847724079439e-02,2.133632144890931226e-01,-1.615758958873604045e-01
6.600000000000000311e-02,2.907338452500310422e-01,2.381078879933404557e-01,4.855353396314805725e-02
6.700000000000000400e-02,3.208925350900003193e-01,1.193451353301851481e-01,1.766942678078619045e-01
6.800000000000000488e-02,1.708299359732337042e-01,-2.752217111329473623e-02,1.877697490650675483e-01
6.900000000000000577e-02,-1.149349968355287133e-02,-8.984377769999550567e-02,1.190486221785971299e-01
7.000000000000000666e-02,-1.355773061477751618e-01,-8.954438718564775024e-02,3.097947657099950607e-03
7.099999999999999367e-02,-1.339665531047972424e-01,-6.918188071014419460e-02,-6.760750185867753226e-02
7.199999999999999456e-02,-9.434984010731896353e-02,-6.716575000522080618e-02,-9.140701298234665817e-02
7.299999999999999545e-02,-6.526328605078593470e-02,-5.888696282766645029e-02,-7.118517208149972852e-02
7.399999999999999634e-02,-5.825799849854612633e-02,-5.051646935245537873e-02,-2.722981649224804138e-02
7.499999999999999722e-02,-5.631265639901850834e-02,4.846670680550453636e-03,-3.602890026696749237e-02
7.599999999999999811e-02,9.299256726569192499e-03,1.280932939758332445e-01,-8.559821228581251593e-03
7.699999999999999900e-02,1.334346332060079021e-01,1.972087391352459196e-01,6.121837378845548447e-03
7.799999999999999989e-02,2.167002866472657885e-01,1.727445153501890596e-01,5.591935575163017869e-02
7.900000000000000078e-02,2.437554848635865579e-01,3.793965153210451108e-02,1.029831873075131993e-01
8.000000000000000167e-02,1.008331285983268405e-01,-1.668847101202180216e-01,1.387394609768285436e-01
8.100000000000000255e-02,-1.473449915665014931e-01,-3.191339970168697304e-01,6.734795292524671517e-02
8.200000000000000344e-02,-3.709290879281817999e-01,-3.208419533332174667e-01,-4.811425748545084674e-02
8.300000000000000433e-02,-4.017625404029256941e-01,-8.606006989044473476e-02,-2.020692536426623720e-01
8.400000000000000522e-02,-2.131043701093579545e-01,2.007861345080881876e-01,-2.361896378375581973e-01
8.500000000000000611e-02,1.448655007147267859e-01,4.411003823666295176e-01,-1.561760711760385445e-01
8.599999999999999312e-02,5.058879036321016764e-01,4.253713472236269610e-01,1.928544325416506333e-02
8.699999999999999400e-02,5.669183300202349507e-01,1.541208567535130858e-01,2.134726403948851159e-01
8.799999999999999489e-02,3.257862250933573622e-01,-2.413271577739163065e-01,3.395658719840775053e-01
8.899999999999999578e-02,-1.531626061524768156e-01,-5.177282349537227768e-01,2.642551376665800977e-01
8.999999999999999667e-02,-5.725685271342929594e-01,-5.252092992639886271e-01,7.763405512166003317e-03
9.099999999999999756e-02,-6.986557363342319471e-01,-2.037224382021757541e-01,-2.653166164276767325e-01
9.199999999999999845e-02,-4.046920731396918547e-01,2.624220909010769320e-01,-4.132437070055591799e-01
9.299999999999999933e-02,1.220622911166456132e-01,5.862324009545253345e-01,-3.343357406736605086e-01
9.400000000000000022e-02,6.295512054130962820e-01,5.868378979863301259e-01,-6.634530376024459775e-02
9.500000000000000111e-02,7.871728884496866918e-01,2.243974198493627337e-01,2.642369138249011651e-01
9.600000000000000200e-02,4.910481298865327915e-01,-2.597827008883916711e-01,4.635316078978479748e-01
9.700000000000000289e-02,-8.809494315132807007e-02,-6.090665616011062822e-01,3.970142616141826286e-01
9.800000000000000377e-02,-6.446231013135967913e-01,-6.081714627170520249e-01,8.938720851286716118e-02
9.900000000000000466e-02,-8.361133599107652969e-01,-2.498378809996099070e-01,-2.452752349947220356e-01
1.000000000000000056e-01,-5.477440607719844534e-01,2.570476373024378480e-01,-4.726695719196951639e-01
1.010000000000000064e-01,3.951265345159273717e-02,6.069229085478519137e-01,-4.319234381182919247e-01
1.019999999999999934e-01,6.006943669502984307e-01,6.144711442903326715e-01,-1.407755067511584912e-01
1.029999999999999943e-01,8.221212900465266760e-01,2.629992353950640904e-01,2.343752894885155202e-01
1.039999999999999952e-01,5.685390169430160068e-01,-2.314774824458118996e-01,4.771550203095683562e-01
1.049999999999999961e-01,-1.333165727354824028e-03,-5.673115759351234910e-01,4.336591285959661146e-01
1.059999999999999970e-01,-5.413163293841815049e-01,-5.614892768681668533e-01,1.788539456714816345e-01
1.069999999999999979e-01,-7.843453190847007317e-01,-2.719296193328679112e-01,-1.697525070010642845e-01
1.079999999999999988e-01,-5.565025951940041349e-01,1.846113410724439241e-01,-4.350414326900724493e-01
1.089999999999999997e-01,-5.126962151333132323e-02,5.076603677229585276e-01,-4.479225467895948665e-01
1.100000000000000006e-01,4.656490969322696349e-01,4.947421057038990377e-01,-2.135916116610166449e-01
1.110000000000000014e-01,6.817782679770206800e-01,2.279046120998945713e-01,1.212495658572521062e-01
1.120000000000000023e-01,5.209997088339464177e-01,-1.459076147898904774e-01,3.529840208248208322e-01
1.130000000000000032e-01,7.211784482550424868e-02,-3.862985710337883960e-01,4.105489276918572461e-01
1.140000000000000041e-01,-3.445599402556029367e-01,-4.105434931457768166e-01,2.118541652610856918e-01
1.150000000000000050e-01,-5.647505487351950348e-01,-1.839308412202395326e-01,-6.494557702463320259e-02
1.160000000000000059e-01,-4.149089104848284193e-01,9.042404635041266514e-02,-3.000968400589203999e-01
1.170000000000000068e-01,-1.122449655446609018e-01,2.585046448893705828e-01,-3.198997691734679627e-01
1.179999999999999938e-01,2.385629271273911611e-01,2.905406673453330146e-01,-1.950478494724061651e-01
1.189999999999999947e-01,4.019310766805440638e-01,1.676029899822938096e-01,2.758482519577689154e-02
1.199999999999999956e-01,3.258252951912671835e-01,-3.188970285354274931e-02,1.935056220926729131e-01
1.209999999999999964e-01,1.204669107639874392e-01,-1.354613632771552167e-01,2.425636129395707663e-01
1.219999999999999973e-01,-1.065807279522672929e-01,-1.505288115757917877e-01,1.624070443301024735e-01
1.229999999999999982e-01,-2.010536963484459427e-01,-8.390965060112526297e-02,3.399518248501460106e-03
1.239999999999999991e-01,-2.013108067891954400e-01,-2.672864241689588624e-02,-1.063062849549008121e-01
1.250000000000000000e-01,-9.245415387024591425e-02,-6.076683779707831544e-03,-1.252779035958908604e-01
1.260000000000000009e-01,-3.066447671274766598e-03,7.969059571367039310e-03,-1.095187121656208823e-01
1.270000000000000018e-01,1.640441537478902825e-02,3.869371894694573905e-02,-3.398487226786098270e-02
1.280000000000000027e-01,3.045712406972809344e-02,8.033283539480909341e-02,7.510387158398037187e-03
1.290000000000000036e-01,5.117523012251375819e-02,1.399071998897252755e-01,2.798243551535192428e-02
1.300000000000000044e-01,1.102011407607010607e-01,1.458053453704590829e-01,2.986523143934982291e-02
1.310000000000000053e-01,1.672473523775918902e-01,2.081859277623093404e-02,4.594568962050247368e-02
1.320000000000000062e-01,1.415517756043443431e-01,-1.277632122994295794e-01,7.767230358568510962e-02
1.330000000000000071e-01,-5.382972114421743538e-03,-2.711407180706594811e-01,1.007403070852903593e-01
1.340000000000000080e-01,-2.160084151455728685e-01,-2.857731829657149669e-01,5.711357434632664126e-02
1.350000000000000089e-01,-3.406465950018791600e-01,-1.240225142480909926e-01,-4.959280548114818749e-02
1.360000000000000098e-01,-3.046898728226429820e-01,1.710328914029062841e-01,-1.464982850243906898e-01
1.370000000000000107e-01,-5.471370350953997513e-02,4.046583973631527886e-01,-2.142708158216849734e-01
1.380000000000000115e-01,2.744969209704949953e-01,3.908853857697402456e-01,-1.604822220907952124e-01
1.390000000000000124e-01,4.961749139691205013e-01,1.785881992181847788e-01,-5.577455607113473469e-03
1.400000000000000133e-01,4.613334815668239108e-01,-1.993037332932819095e-01,1.965914429421544429e-01
1.409999999999999865e-01,1.430685138378143262e-01,-4.883315652295167619e-01,3.080558809437675127e-01
1.419999999999999873e-01,-3.194340383453067589e-01,-5.105556611519886934e-01,2.483149338056732935e-01
1.429999999999999882e-01,-6.289827030902475080e-01,-2.272104843986454403e-01,5.044664893394312094e-02
1.439999999999999891e-01,-6.069657801473744563e-01,2.240334689562226977e-01,-2.199456504059069117e-01
1.449999999999999900e-01,-2.025668926993678121e-01,5.577385636311733563e-01,-3.825080188450465934e-01
1.459999999999999909e-01,3.262528986968571409e-01,5.868672010942389550e-01,-3.461620507641803846e-01
1.469999999999999918e-01,7.072179079207209229e-01,2.699185894185047729e-01,-9.887781593460377716e-02
1.479999999999999927e-01,6.986430367114897511e-01,-2.151485999431378138e-01,2.319153746913730496e-01
1.489999999999999936e-01,2.771335389455031883e-01,-5.916184883347671564e-01,4.117648197760408468e-01
1.499999999999999944e-01,-3.206399689769142691e-01,-6.157604194897899896e-01,4.087148558747429328e-01
1.509999999999999953e-01,-7.510694637177022237e-01,-2.993227913178758692e-01,1.562933825250875930e-01
1.519999999999999962e-01,-7.495262433433161897e-01,2.036223004155833238e-01,-2.233989943014777768e-01
1.529999999999999971e-01,-3.389963927641401198e-01,5.965947309510757357e-01,-4.547274168888463808e-01
1.539999999999999980e-01,2.833907647834323917e-01,6.487630939331262558e-01,-4.574422517450331127e-01
1.549999999999999989e-01,7.377818816760655096e-01,3.012063501833124324e-01,-1.998521451592543130e-01
1.559999999999999998e-01,7.912503789261678966e-01,-1.824142894810087956e-01,1.790955316355500870e-01
1.570000000000000007e-01,3.907043339895062695e-01,-5.730070856145611513e-01,4.485924229179454881e-01
1.580000000000000016e-01,-2.453937348026714316e-01,-6.272951683438020565e-01,4.720620759553351697e-01
1.590000000000000024e-01,-6.838632329167602109e-01,-3.095325314742083389e-01,2.353847853882997665e-01
1.600000000000000033e-01,-7.716963999766317528e-01,1.614742252426295821e-01,-1.242484142461792312e-01
1.610000000000000042e-01,-3.955186702002988497e-01,4.934635317307115021e-01,-4.136648047453050925e-01
1.620000000000000051e-01,1.727512263776545542e-01,5.492213399202782176e-01,-4.823852803876052531e-01
1.630000000000000060e-01,6.283678996626435032e-01,2.968460645269145881e-01,-2.564730883029045505e-01
1.640000000000000069e-01,7.136863724662205755e-01,-9.743520939645815282e-02,8.832263964501395337e-02
1.650000000000000078e-01,4.089524436762645432e-01,-3.948356210782274500e-01,3.497586166768957283e-01
1.660000000000000087e-01,-9.505328138528183757e-02,-4.621738322014213862e-01,4.245921451449735651e-01
1.670000000000000095e-01,-5.199270381920803041e-01,-2.511573219526735956e-01,2.521028142199288613e-01
1.680000000000000104e-01,-5.893431499959195241e-01,6.988753013988704965e-02,-5.316914011391374317e-02
1.690000000000000113e-01,-3.520541441415476203e-01,3.185547042710388799e-01,-2.940300748903211803e-01
1.700000000000000122e-01,5.152695195830935687e-02,3.390762125676811123e-01,-3.585992862707192974e-01
1.710000000000000131e-01,3.791529262061926753e-01,2.040032441490719495e-01,-2.556762817794852594e-01
1.719999999999999862e-01,4.479434223463728548e-01,-1.102505030396607084e-02,8.347032636410000109e-03
1.729999999999999871e-01,2.751431670031457277e-01,-1.810837335964869121e-01,1.990931552227183654e-01
1.739999999999999880e-01,1.109677193996928476e-02,-2.250334797007475518e-01,2.969043464502964524e-01
1.749999999999999889e-01,-2.165310291233382978e-01,-1.025762036904509789e-01,2.162576661454922167e-01
1.759999999999999898e-01,-2.718688776229376547e-01,-2.474343182255307055e-02,2.782019112690254162e-02
1.769999999999999907e-01,-1.848694213342929327e-01,4.406669279391885186e-02,-1.229369476128694544e-01
1.779999999999999916e-01,-5.034251632032529788e-02,5.680055303468286437e-02,-1.747421609425875710e-01
1.789999999999999925e-01,5.699194806257210782e-02,4.568586157045315121e-02,-1.379004444000088980e-01
1.799999999999999933e-01,8.812325238779986081e-02,5.787326983138189884e-02,-5.802959963969268886e-02
1.809999999999999942e-01,7.653222047377566950e-02,9.209312793818048848e-02,3.065509642516010477e-02
1.819999999999999951e-01,6.532933153938648430e-02,9.329377816658775135e-02,6.389666761153885155e-02
1.829999999999999960e-01,8.150293808081010560e-02,3.392849089814453656e-02,7.062108416767132191e-02
1.839999999999999969e-01,9.628189592597979907e-02,-9.255936585520085913e-02,4.969059691019286212e-02
1.849999999999999978e-01,5.255852142255065113e-02,-2.119023335101576921e-01,4.110678189402802024e-02
1.859999999999999987e-01,-8.733474189023350542e-02,-2.270371765930881414e-01,5.128586741914237940e-02
1.869999999999999996e-01,-2.236025768324632901e-01,-1.272330317517383347e-01,3.771022131018206269e-02
1.880000000000000004e-01,-2.807852492045875836e-01,1.253698771259629252e-01,-1.623532982077415671e-02
1.890000000000000013e-01,-1.779291723264422587e-01,3.294012575394131281e-01,-1.013822465295915465e-01
1.900000000000000022e-01,6.304482968524745268e-02,3.593989682311690692e-01,-1.773553118101162673e-01
1.910000000000000031e-01,3.444585976713233078e-01,1.853146046902736654e-01,-1.320268293249432789e-01
1.920000000000000040e-01,4.722960429474359900e-01,-1.538762686518465039e-01,-2.191583067213907082e-02
1.930000000000000049e-01,3.228761212903258349e-01,-4.281809690803659585e-01,1.491070232621687364e-01
1.940000000000000058e-01,-2.949131385512919479e-02,-4.925325294971215628e-01,2.540951706160462509e-01
1.950000000000000067e-01,-4.392028604581431073e-01,-2.292248949426741456e-01,2.324238307431354955e-01
1.960000000000000075e-01,-6.171549371489170044e-01,1.533407352241307475e-01,7.796051395564447539e-02
1.970000000000000084e-01,-4.603803920938378536e-01,5.054085943825095129e-01,-1.720577826761666151e-01
1.980000000000000093e-01,-3.223372809845263809e-02,5.688447280579825849e-01,-3.234442804992455622e-01
1.990000000000000102e-01,4.714972293725392949e-01,3.038224464214802634e-01,-3.175978564078698607e-01
2.000000000000000111e-01,7.336901689022738982e-01,-1.606882428782343830e-01,-1.436966720169527978e-01
2.010000000000000120e-01,5.670791382428527205e-01,-5.318107989911976530e-01,1.527347884174921344e-01
2.020000000000000129e-01,7.036690017254076945e-02,-6.114558217912525739e-01,3.841240602806173521e-01
2.030000000000000138e-01,-5.159322812261021296e-01,-3.573304178136438303e-01,4.169354551025689082e-01
2.039999999999999869e-01,-7.940561426643344412e-01,1.471848469399435477e-01,1.846515827016080580e-01
2.049999999999999878e-01,-6.518800165202485175e-01,5.626994847300705871e-01,-1.387719367113698643e-01
2.059999999999999887e-01,-1.057795467606525153e-01,6.473793587430078933e-01,-4.235871606952210655e-01
2.069999999999999896e-01,4.923286036029625445e-01,3.659241828815625319e-01,-4.699814097544339764e-01
2.079999999999999905e-01,8.221133576006387500e-01,-1.413773212730947693e-01,-2.342990374273712928e-01
2.089999999999999913e-01,6.838658677087976479e-01,-5.491342355757953264e-01,1.126794097585557680e-01
2.099999999999999922e-01,1.566720525542638909e-01,-6.287925006527329552e-01,4.230447938063340851e-01
2.109999999999999931e-01,-4.680005419932261601e-01,-3.681012570381046456e-01,4.984360305237365840e-01
2.119999999999999940e-01,-8.035040637644891293e-01,1.102269278507655853e-01,2.756209541017266562e-01
2.129999999999999949e-01,-6.838877909676658318e-01,5.104866959955065564e-01,-9.050272826699769235e-02
2.139999999999999958e-01,-1.866466113176762642e-01,5.731332667440434125e-01,-4.139779500062764073e-01
2.149999999999999967e-01,3.879941478089637408e-01,3.395270546031657344e-01,-4.882942801899038399e-01
2.159999999999999976e-01,7.348464030851790119e-01,-8.471576298626778967e-02,-3.023660874071043003e-01
2.169999999999999984e-01,6.542501725925550238e-01,-4.277181253528062332e-01,1.992191399384090483e-02
2.179999999999999993e-01,2.324492395083112839e-01,-5.019741451658060738e-01,3.587381188575947677e-01
2.190000000000000002e-01,-3.042760449096079123e-01,-3.072492635233137204e-01,4.648483114397917726e-01
2.200000000000000011e-01,-6.201642300985443779e-01,4.250221484885041007e-02,3.179398866629205567e-01
2.210000000000000020e-01,-5.751806750778662991e-01,3.289799784627588375e-01,2.137368934019755803e-03
2.220000000000000029e-01,-2.200122110548808629e-01,3.994664638492675390e-01,-2.676427718481189100e-01
2.230000000000000038e-01,2.263018047141519273e-01,2.501677756016181253e-01,-4.024950340596719078e-01
2.240000000000000047e-01,4.837057626069511396e-01,-2.858993643019788408e-02,-2.983554598832074967e-01
2.250000000000000056e-01,4.731944918078362372e-01,-2.280300214491669530e-01,-3.995450166007082082e-02
2.260000000000000064e-01,1.985923659427459298e-01,-2.782423269079763450e-01,2.075434298953358070e-01
2.270000000000000073e-01,-1.205819073010516440e-01,-1.649976323616114127e-01,3.068432873066477828e-01
2.280000000000000082e-01,-3.285396980611013373e-01,-2.116236259385147547e-02,2.487516289078531007e-01
2.290000000000000091e-01,-3.197731200489704606e-01,1.017425020441894562e-01,5.840456042005327114e-02
2.300000000000000100e-01,-1.717407662217665110e-01,1.227648385390643637e-01,-1.224181356984363200e-01
2.310000000000000109e-01,2.536731335166493920e-02,8.222722948341898430e-02,-2.291042207324468227e-01
2.320000000000000118e-01,1.449920918767089728e-01,3.485040713912820887e-02,-1.888715410274859063e-01
2.330000000000000127e-01,1.532146850786032799e-01,4.478178154480373652e-02,-7.600553329702360028e-02
2.340000000000000135e-01,1.065997309672157556e-01,3.250237478838789718e-02,4.706620178803123944e-02
2.349999999999999867e-01,5.199064912747735495e-02,-1.296804931649110301e-02,1.080512077986131164e-01
2.359999999999999876e-01,3.176829214085176434e-02,-7.224255162123714713e-02,9.290278353486960961e-02
2.369999999999999885e-01,3.919301325325520030e-02,-1.636662167577896398e-01,5.356933347489765962e-02
2.379999999999999893e-01,-8.236807065121962146e-03,-1.887649822138071087e-01,2.020070147989625267e-02
2.389999999999999902e-01,-1.183617439517430092e-01,-9.722935633020821089e-02,-3.961143204804305762e-03
2.399999999999999911e-01,-2.131540072666534280e-01,7.241875174337635002e-02,-6.946150511696139347e-03
2.409999999999999920e-01,-2.014737592069741623e-01,2.722976144643710072e-01,-3.263877010792545080e-02
2.419999999999999929e-01,-5.940907938417439027e-02,3.150077442097516944e-01,-6.501812108083640518e-02
2.429999999999999938e-01,1.613785151825709308e-01,1.743223076486481726e-01,-1.128314660755697779e-01
2.439999999999999947e-01,3.621146087395730739e-01,-1.122821861154483375e-01,-9.798955674253045922e-02
2.449999999999999956e-01,3.950341201972756289e-01,-3.702387390638647857e-01,-1.333927921958598557e-02
2.459999999999999964e-01,1.737361270988098949e-01,-4.441863734779600836e-01,9.111837608148910805e-02
2.469999999999999973e-01,-1.847557853099961456e-01,-2.547395105131138315e-01,2.132460812173790354e-01
2.479999999999999982e-01,-4.929081599922200962e-01,1.159575249284086201e-01,2.076905059449320468e-01
2.489999999999999991e-01,-5.442718025919222047e-01,4.519022141862240050e-01,8.191532002997728434e-02
2.500000000000000000e-01,-2.818900491328861779e-01,5.618827552949502424e-01,-1.212607774054877130e-01
2.510000000000000009e-01,1.673977688919117690e-01,3.331239801392343325e-01,-2.947342214197904986e-01
2.520000000000000018e-01,5.815920662977924760e-01,-1.110953036827602575e-01,-3.026925064588860681e-01
2.530000000000000027e-01,6.885162052489930407e-01,-4.918790911516686681e-01,-1.530461098483537341e-01
2.540000000000000036e-01,3.877089413872469303e-01,-6.057608896200217252e-01,1.400091822514042128e-01
2.550000000000000044e-01,-1.765697149674608779e-01,-3.736582777146721934e-01,3.634226051329189633e-01
2.560000000000000053e-01,-6.522202920298700857e-01,1.137685447174567321e-01,3.997473327484696859e-01
2.570000000000000062e-01,-7.625710264165076469e-01,5.422638255253862116e-01,2.175459239282551138e-01
2.580000000000000071e-01,-4.559334003269018831e-01,6.780242817616818352e-01,-9.475680670279336415e-02
2.590000000000000080e-01,1.450953804703972172e-01,4.042872207109943217e-01,-3.814058855840286033e-01
2.600000000000000089e-01,6.565993652913973966e-01,-1.027620190840366904e-01,-4.525743379030274238e-01
2.610000000000000098e-01,8.251876390402398398e-01,-5.327295767451676323e-01,-2.850649851009128266e-01
2.620000000000000107e-01,5.028524235826270505e-01,-6.554166886375533130e-01,6.481095792524654842e-02
2.630000000000000115e-01,-8.524997344646023656e-02,-4.166913846203191274e-01,3.746896117769228929e-01
2.640000000000000124e-01,-6.351549004308042479e-01,7.330491134277851428e-02,4.898805684222352630e-01
2.650000000000000133e-01,-8.145815343312738932e-01,5.105678031778819737e-01,3.290917749661123048e-01
2.660000000000000142e-01,-5.292817605654656088e-01,6.213890523842868774e-01,-2.217751060151083517e-02
2.670000000000000151e-01,5.876119235575892608e-02,3.867348288691360714e-01,-3.618386967526027176e-01
2.680000000000000160e-01,5.839757546710232505e-01,-3.693110148739438964e-02,-4.964436685560607021e-01
2.690000000000000169e-01,7.750315463982737629e-01,-4.351809988105620475e-01,-3.524989995244807717e-01
2.700000000000000178e-01,5.402105066008041634e-01,-5.468100468438623629e-01,-1.195932728356818679e-02
2.710000000000000187e-01,8.733704480993495153e-03,-3.641353854165829684e-01,3.217649822133517024e-01
2.720000000000000195e-01,-4.956298101264157707e-01,2.284320751575645222e-02,4.772272757716678471e-01
2.730000000000000204e-01,-7.089004548287310969e-01,3.424100841897970149e-01,3.602967410957354510e-01
2.740000000000000213e-01,-5.040767668203450791e-01,4.446647659398762498e-01,6.068180126004832364e-02
2.750000000000000222e-01,-4.692476936448287950e-02,2.857854423740837091e-01,-2.484179285825807992e-01
2.760000000000000231e-01,3.826559907787189796e-01,-1.533649552891935353e-03,-4.209509919423551350e-01
2.770000000000000240e-01,5.627296106421707522e-01,-2.418527346606180461e-01,-3.474489305337277734e-01
2.780000000000000249e-01,4.185450728055182257e-01,-3.054393030917202378e-01,-8.724608774025149893e-02
2.790000000000000258e-01,8.324812493990510487e-02,-2.104191932047668467e-01,1.921848404034258162e-01
2.800000000000000266e-01,-2.564512995417783658e-01,-2.302901253828135153e-02,3.434148480120711722e-01
2.810000000000000275e-01,-4.132019007250832265e-01,1.205753502221899587e-01,3.085939146130518007e-01
2.819999999999999729e-01,-3.284476089896611328e-01,1.618511971904235125e-01,1.095961383730308519e-01
2.829999999999999738e-01,-8.688357492257074710e-02,1.185851706710250864e-01,-1.199556962088988432e-01
2.839999999999999747e-01,1.339130666134266678e-01,4.853114708158462465e-02,-2.362094223285164940e-01
2.849999999999999756e-01,2.278737102829281325e-01,-1.182664193913464216e-02,-2.290521662854007046e-01
2.859999999999999765e-01,1.940040412571321371e-01,-2.376819038108677826e-02,-9.752754430347394810e-02
2.869999999999999774e-01,9.346408202091509299e-02,-2.030632943835137746e-02,4.602652893594851718e-02
2.879999999999999782e-01,4.090301174998673176e-04,-5.702580004262929741e-02,1.407857384724149064e-01
2.889999999999999791e-01,-3.531796143611046906e-02,-1.227793224981678921e-01,1.433570989510629945e-01
2.899999999999999800e-01,-4.455578925670004159e-02,-1.502331828813378289e-01,8.885286921784091296e-02
2.909999999999999809e-01,-4.982788709405579913e-02,-8.590644676472210250e-02,1.204196316038324589e-02
2.919999999999999818e-01,-1.182355705179129607e-01,8.210475932223749995e-02,-3.522973608845681587e-02
2.929999999999999827e-01,-1.518237205984487026e-01,2.313072626393201936e-01,-3.416713218360153265e-02
2.939999999999999836e-01,-1.081501255050563853e-01,2.692187412175074401e-01,-3.348272076496546651e-02
2.949999999999999845e-01,1.103945661997903123e-02,1.792841165835133976e-01,-4.158162195879776257e-02
2.959999999999999853e-01,2.089834053127091473e-01,-5.875377766595543672e-02,-7.286319710135369387e-02
2.969999999999999862e-01,3.142246302540388503e-01,-3.192893967200701177e-01,-8.014512812000657016e-02
2.979999999999999871e-01,2.656535179877900221e-01,-3.960510292261403831e-01,-2.111675929421387432e-02
2.989999999999999880e-01,2.080213193676440017e-02,-2.558348883796509599e-01,7.950829247639594477e-02
2.999999999999999889e-01,-2.861783618788330541e-01,7.548252357392423728e-02,1.686571262464289234e-01
3.009999999999999898e-01,-4.827852666523210212e-01,3.917759061211479876e-01,1.971873249721675103e-01
3.019999999999999907e-01,-4.360074180631465235e-01,5.129282526817959820e-01,9.298505620943382788e-02
3.029999999999999916e-01,-9.390795081279919299e-02,3.415735596388400075e-01,-8.708049712069601545e-02
3.039999999999999925e-01,3.354177912874728440e-01,-6.737022382923291142e-02,-2.538026152733007246e-01
3.049999999999999933e-01,6.243839957720871414e-01,-4.567771708963989652e-01,-2.904000598080018758e-01
3.059999999999999942e-01,5.710050512394888589e-01,-5.971499348497975035e-01,-1.685440396608639535e-01
3.069999999999999951e-01,1.618375869695414804e-01,-4.023928258336783581e-01,7.152512139301744898e-02
3.079999999999999960e-01,-3.581628340883587502e-01,5.615405166126063302e-02,3.066826704957257843e-01
3.089999999999999969e-01,-7.133858342770292849e-01,4.931475320353866931e-01,3.811363897915598375e-01
3.099999999999999978e-01,-6.750458532996456151e-01,6.499223827356359617e-01,2.502809797607686848e-01
3.109999999999999987e-01,-2.385102795283099986e-01,4.108503150648284974e-01,-4.329051530439308182e-02
3.119999999999999996e-01,3.377125740948938581e-01,-2.758941879073801770e-02,-3.153006660830200425e-01
3.130000000000000004e-01,7.633693672113287532e-01,-5.066983392606146941e-01,-4.579479787074144381e-01
3.140000000000000013e-01,7.489112727153327542e-01,-6.488013660307183628e-01,-3.189960064027561049e-01
3.150000000000000022e-01,3.013669815449593892e-01,-4.434992957356552190e-01,5.463519837254038683e-03
3.160000000000000031e-01,-3.272858934545472276e-01,3.133311838090203916e-02,3.247544031060886627e-01
3.170000000000000040e-01,-7.712614394811700969e-01,4.740536308602442683e-01,4.654747319911506920e-01
3.180000000000000049e-01,-7.692193181151931736e-01,6.317422584665951524e-01,3.644818868434696046e-01
3.190000000000000058e-01,-3.463297595639595050e-01,4.369500558873304907e-01,3.423062145871397927e-02
3.200000000000000067e-01,2.656457146509836886e-01,1.074204857663746057e-02,-3.138756295946398822e-01
3.210000000000000075e-01,7.186109292410860494e-01,-4.352379715078669720e-01,-4.904772095902991680e-01
3.220000000000000084e-01,7.690006746714576069e-01,-5.858685868226044535e-01,-4.061758679987576004e-01
3.230000000000000093e-01,3.575640529628157926e-01,-4.218326964348261821e-01,-7.804908140598319777e-02
3.240000000000000102e-01,-2.172169823536692912e-01,-1.858721614386666526e-02,2.878645620743753852e-01
3.250000000000000111e-01,-6.489252356100345676e-01,3.482792743083427123e-01,4.680933897036158031e-01
3.260000000000000120e-01,-6.944398828824005498e-01,4.741248994969307073e-01,4.023937491794516430e-01
3.270000000000000129e-01,-3.719325444884541421e-01,3.354450275342031884e-01,1.174226983494011112e-01
3.280000000000000138e-01,1.604595141268261027e-01,3.827626136205313639e-02,-2.290748022390756422e-01
3.290000000000000147e-01,5.248858519224811614e-01,-2.710051769366432772e-01,-4.353620794556848361e-01
3.300000000000000155e-01,6.028149443797168328e-01,-3.836905824054778757e-01,-4.009465666747608070e-01
3.310000000000000164e-01,3.325683477252500131e-01,-2.586146327612412477e-01,-1.484166555159046885e-01
3.320000000000000173e-01,-8.365677208547242505e-02,-2.995504982176934797e-02,1.768293687905247713e-01
3.330000000000000182e-01,-3.960949848865487621e-01,1.456098567925249720e-01,3.537359879061648393e-01
3.340000000000000191e-01,-4.505552922654307846e-01,2.457988172954243267e-01,3.474289212646198832e-01
3.350000000000000200e-01,-2.662930071743939142e-01,1.783693764896526757e-01,1.539836142993519230e-01
3.360000000000000209e-01,1.189824151255863653e-02,6.524458090990326031e-02,-1.099712625345751205e-01
3.370000000000000218e-01,2.451533531756811546e-01,-3.908210460779601436e-02,-2.793598250211048462e-01
3.380000000000000226e-01,3.001842008529926331e-01,-9.053207870363630394e-02,-2.704591296067258566e-01
3.390000000000000235e-01,1.959313340489236555e-01,-6.132914688650510648e-02,-1.495722828431317875e-01
3.400000000000000244e-01,3.260672359915292584e-02,-5.873727274259157860e-02,5.455540439462734648e-02
3.410000000000000253e-01,-8.594438656785297059e-02,-5.971643909902467351e-02,1.735071273899763400e-01
3.420000000000000262e-01,-1.278355750477995212e-01,-6.583491865127494291e-02,2.026424666206922409e-01
3.430000000000000271e-01,-8.761831173590818589e-02,-5.812655950592737764e-02,1.102457107097203903e-01
3.439999999999999725e-01,-8.572142877483331092e-02,4.052599627762284301e-02,3.117754379919994261e-03
3.449999999999999734e-01,-7.208545822152376270e-02,1.616972188688525769e-01,-6.534281696253042837e-02
3.459999999999999742e-01,-7.643452873755698929e-02,2.322001943274877023e-01,-7.664148863958719637e-02
3.469999999999999751e-01,-2.927807881384483779e-02,1.520305339541589973e-01,-5.066392638764580236e-02
3.479999999999999760e-01,7.757837464094888280e-02,-5.216811075619133542e-02,-3.055061335397584246e-02
3.489999999999999769e-01,2.188579792889571718e-01,-2.557720001404607535e-01,-4.351405742559186912e-02
3.499999999999999778e-01,2.707822185161306572e-01,-3.745214667215399085e-01,-3.728437183386944936e-02
3.509999999999999787e-01,1.752850167883252819e-01,-2.599530095611395364e-01,-9.569682343678040382e-03
3.519999999999999796e-01,-9.513828720664291305e-02,4.295268001173101202e-02,5.373999196536078521e-02
3.529999999999999805e-01,-3.327537250800973734e-01,3.474327232828125500e-01,1.289800660901671281e-01
3.539999999999999813e-01,-4.476626057356297150e-01,4.947789992161411576e-01,1.569440410097155680e-01
3.549999999999999822e-01,-2.898087083009625586e-01,3.464814197152189523e-01,7.764170188344821089e-02
3.559999999999999831e-01,6.211952381868276335e-02,-1.403067308431908689e-02,-5.399190114619353137e-02
3.569999999999999840e-01,4.404577763732194229e-01,-4.090633728232830890e-01,-2.067021785555841762e-01
3.579999999999999849e-01,5.829786844621365205e-01,-5.798709113508101476e-01,-2.631761881268794845e-01
3.589999999999999858e-01,4.094218598861452119e-01,-4.071957858396597629e-01,-1.823917358517446463e-01
3.599999999999999867e-01,-3.793199115912480185e-02,1.248815698722368674e-02,3.570973383098883375e-02
3.609999999999999876e-01,-4.931511958290544229e-01,4.579906802761375406e-01,2.451610548310025894e-01
3.619999999999999885e-01,-7.203139560150138010e-01,6.416841941255193582e-01,3.631777989839541920e-01
3.629999999999999893e-01,-5.284454216873557542e-01,4.540125678586173219e-01,2.687396539968314735e-01
3.639999999999999902e-01,-9.004385654352301677e-03,4.388045702579926668e-03,-5.073089090609141961e-03
3.649999999999999911e-01,5.265575856424671297e-01,-4.534165675967399833e-01,-2.747559865297258819e-01
3.659999999999999920e-01,8.019283868171824814e-01,-6.598529171898860346e-01,-4.172619267969213674e-01
3.669999999999999929e-01,5.952291733231520610e-01,-4.957800196437913698e-01,-3.332382018927296796e-01
3.679999999999999938e-01,5.267682163427066244e-02,-2.866352320901828857e-02,-3.173469101694265798e-02
3.689999999999999947e-01,-5.527697780989957455e-01,4.581494884761871944e-01,2.884635865516191333e-01
3.699999999999999956e-01,-8.320559611593969507e-01,6.738849600386705996e-01,4.452999235753148932e-01
3.709999999999999964e-01,-6.579074915522105105e-01,4.883381010177141879e-01,4.029008726882837288e-01
3.719999999999999973e-01,-1.104010767584836100e-01,4.152064910896737654e-02,9.066363332728646918e-02
3.729999999999999982e-01,4.976955692014621846e-01,-4.040155295877209674e-01,-2.756504917914075481e-01
3.739999999999999991e-01,8.062223288774673646e-01,-6.058001638432461977e-01,-4.897969754992705371e-01
3.750000000000000000e-01,6.581522480356675198e-01,-4.401863383893371839e-01,-4.270374231584410096e-01
3.760000000000000009e-01,1.478916731582359811e-01,-5.086804346194941095e-02,-1.306432761692270517e-01
3.770000000000000018e-01,-4.369890663894646088e-01,3.367743270637781894e-01,2.284270722405658538e-01
3.780000000000000027e-01,-7.503823553509221256e-01,5.319114259394055466e-01,4.736701077771032775e-01
3.790000000000000036e-01,-6.420670310517501145e-01,4.072303807095834505e-01,4.446081672091238279e-01
3.800000000000000044e-01,-1.733072470673151233e-01,7.368599250526426669e-02,1.813324846327062645e-01
3.810000000000000053e-01,3.478070072328917628e-01,-2.644285825618222230e-01,-1.921350275010019482e-01
3.820000000000000062e-01,6.646747777497716836e-01,-4.239377727546355112e-01,-4.150693153387259304e-01
3.830000000000000071e-01,5.655684599022250403e-01,-3.028658542738378312e-01,-4.340246192944119397e-01
3.840000000000000080e-01,1.852354367668807011e-01,-8.041455062324349978e-02,-1.935137012543953206e-01
3.850000000000000089e-01,-2.633204447366039314e-01,1.728718676799446130e-01,1.116599697190329976e-01
3.860000000000000098e-01,-5.252887239375028106e-01,2.852340694326832571e-01,3.670134205948362149e-01
3.870000000000000107e-01,-4.709089144076215039e-01,2.432190745681297728e-01,4.027302178539425292e-01
3.880000000000000115e-01,-1.790007880681400432e-01,7.298825913607467908e-02,2.049120108340457824e-01
3.890000000000000124e-01,1.549155339236100992e-01,-7.585506685438793417e-02,-6.619760383296313666e-02
3.900000000000000133e-01,3.638182248589702517e-01,-1.396349173948677469e-01,-2.725047675862011243e-01
3.910000000000000142e-01,3.271392766342021141e-01,-1.180951633911222209e-01,-3.197510738337075997e-01
3.920000000000000151e-01,1.598577539685727689e-01,-6.215549621145174258e-02,-1.822600671933966299e-01
3.930000000000000160e-01,-5.139237859919681267e-02,-2.085672902989245403e-02,3.279706889666934161e-02
3.940000000000000169e-01,-1.702444858370684433e-01,-2.573635648713408497e-02,1.831146122564975831e-01
3.950000000000000178e-01,-1.772391354145852749e-01,1.833050647905000181e-03,2.288779183697048358e-01
3.960000000000000187e-01,-1.000695346096432820e-01,4.811153344351636052e-02,1.491060956560034401e-01
3.970000000000000195e-01,-4.051515999706426646e-02,1.208508369807888422e-01,1.500880820642809532e-02
3.980000000000000204e-01,-1.924768079335550377e-03,1.816008121484760374e-01,-8.705629056972469249e-02
3.990000000000000213e-01,1.337625130622243502e-02,1.247231177704966470e-01,-1.340415151169974950e-01
4.000000000000000222e-01,2.225835290703550087e-02,-3.806114405774906062e-02,-1.014589029195475667e-01
4.010000000000000231e-01,1.076188832076344498e-01,-2.139089126541488806e-01,-3.368910642350307627e-02
4.020000000000000240e-01,1.795601355578269331e-01,-3.152084318121710083e-01,-1.987653478720210684e-02
4.030000000000000249e-01,2.037151867616344425e-01,-2.571249166048117374e-01,1.468113403681960485e-02
4.040000000000000258e-01,5.431244315216213203e-02,1.216519528092425972e-02,1.441135990024385678e-03
4.050000000000000266e-01,-1.820875881988127665e-01,3.106976256147780946e-01,5.465260442421483039e-02
4.060000000000000275e-01,-3.485583144284314372e-01,4.457118640365939632e-01,7.528994700008460883e-02
4.069999999999999729e-01,-3.488066232491609520e-01,3.378445354410243295e-01,1.310573990325279714e-01
4.079999999999999738e-01,-1.471134638025400343e-01,1.063613339748103667e-02,5.538630205361024655e-02
4.089999999999999747e-01,2.029103602627435332e-01,-3.595764754098082494e-01,-3.411017863381164694e-02
4.099999999999999756e-01,4.723756677191758291e-01,-5.495557211007164877e-01,-1.651730303751575701e-01
4.109999999999999765e-01,5.158478618542295946e-01,-4.157243564627935983e-01,-2.154531572414411233e-01
4.119999999999999774e-01,2.479366351319987616e-01,-3.116851537728748678e-02,-1.626361644815523533e-01
4.129999999999999782e-01,-2.180694569853136588e-01,3.936068558223394520e-01,3.898578007363931279e-03
4.139999999999999791e-01,-5.840999178059304020e-01,6.152368827242892246e-01,2.153062890158839726e-01
4.149999999999999800e-01,-6.564776795154581013e-01,4.785855126205350585e-01,3.088485709877855090e-01
4.159999999999999809e-01,-3.367733730403498216e-01,5.456392076656438328e-02,2.508981779715101501e-01
4.169999999999999818e-01,2.012453861990255721e-01,-4.140782507978895688e-01,3.239044854438292292e-02
4.179999999999999827e-01,6.627756343779034331e-01,-6.367137288163052800e-01,-2.290687466523298188e-01
4.189999999999999836e-01,7.549187372253721717e-01,-5.192524547730762441e-01,-3.839706550458475420e-01
4.199999999999999845e-01,4.192080979482502578e-01,-8.509288929622277342e-02,-3.400563286755475256e-01
4.209999999999999853e-01,-1.925674550018231790e-01,3.959374492082241570e-01,-8.512637736665275290e-02
4.219999999999999862e-01,-6.805574264763999404e-01,6.397286258684464766e-01,2.483901000802251346e-01
4.229999999999999871e-01,-8.087487861617651541e-01,5.245460930516401277e-01,4.405514814729595274e-01
4.239999999999999880e-01,-4.715178423634744376e-01,8.992986800726800178e-02,4.132235909384798789e-01
4.249999999999999889e-01,1.508414469678789060e-01,-3.783211742283925649e-01,1.358918804067546782e-01
4.259999999999999898e-01,6.788307447349933854e-01,-6.155842791623281629e-01,-2.302490736937486959e-01
4.269999999999999907e-01,8.061792088842564263e-01,-5.130758276988222066e-01,-4.656398228038721721e-01
4.279999999999999916e-01,4.985071469592212701e-01,-1.022033908296531429e-01,-4.438000021719647470e-01
4.289999999999999925e-01,-8.298867953326685698e-02,3.379829953464387193e-01,-1.917317304503420305e-01
4.299999999999999933e-01,-6.259514466404354494e-01,5.615127803821184926e-01,1.798726098569354281e-01
4.309999999999999942e-01,-7.829490367892379954e-01,4.518025195336524691e-01,4.419557532330594674e-01
4.319999999999999951e-01,-5.235754241071484127e-01,1.067524298501811852e-01,4.723707517565995939e-01
4.329999999999999960e-01,3.843326616893460133e-03,-2.654839506842578967e-01,2.133949883116564583e-01
4.339999999999999969e-01,5.402875038310201994e-01,-4.477864272091438003e-01,-1.470037482092250714e-01
4.349999999999999978e-01,7.179588567719193959e-01,-3.882881943641831590e-01,-4.194069460610421185e-01
4.359999999999999987e-01,4.708943260932352826e-01,-1.015824577847047328e-01,-4.447432050704799855e-01
4.369999999999999996e-01,2.592553017654820532e-02,1.910263837218222627e-01,-2.551700405331838173e-01
4.380000000000000004e-01,-4.344251399890811660e-01,3.444592899413717046e-01,8.418359080015758167e-02
4.390000000000000013e-01,-6.042924341098572238e-01,2.566341007914694772e-01,3.572917119489495419e-01
4.400000000000000022e-01,-4.224790820785978562e-01,8.832623965630355400e-02,4.193031222415674053e-01
4.410000000000000031e-01,-5.312707146752613380e-02,-1.037410544350313713e-01,2.431960102841805305e-01
4.420000000000000040e-01,2.963066180201623379e-01,-1.801971551805560123e-01,-6.239699408730781799e-02
4.430000000000000049e-01,4.438159528835232681e-01,-1.733535113840308228e-01,-2.783188368710839411e-01
4.440000000000000058e-01,3.367925814943850682e-01,-6.692883815616676446e-02,-3.478183838403281491e-01
4.450000000000000067e-01,7.968440890196752668e-02,2.477958055016763264e-02,-2.236530358488635073e-01
4.460000000000000075e-01,-1.808155172025794899e-01,4.477216408143228771e-02,3.614783974768809392e-03
4.470000000000000084e-01,-2.632808284472982763e-01,3.206479056419203610e-02,1.912303806938547568e-01
4.480000000000000093e-01,-2.029514767746631865e-01,4.255744538846280983e-02,2.647013203633433176e-01
4.490000000000000102e-01,-6.802064495669513100e-02,8.232210927573850590e-02,1.836407992288746627e-01
4.500000000000000111e-01,3.905440074849964027e-02,1.118235906733069940e-01,3.555147034844829967e-02
4.510000000000000120e-01,5.946697134538883600e-02,7.880310683092182911e-02,-1.069093291205551743e-01
4.520000000000000129e-01,6.389674594098754268e-02,-3.302643143514778779e-02,-1.715505409725367192e-01
4.530000000000000138e-01,6.223888903288858632e-02,-1.667579006635272754e-01,-1.230934825009581540e-01
4.540000000000000147e-01,8.632968546433432422e-02,-2.681265830350713086e-01,-5.194591432905788092e-02
4.550000000000000155e-01,1.413341076521521522e-01,-1.966580082487175418e-01,2.160223628006359420e-02
4.560000000000000164e-01,7.406240905316788248e-02,1.366647689318645264e-03,5.169907708306212962e-02
4.570000000000000173e-01,-2.871290648698966372e-02,2.329185509467864290e-01,4.865337986052669511e-02
4.580000000000000182e-01,-2.056820973491114424e-01,3.857519262639084179e-01,3.539867409289249034e-02
4.590000000000000191e-01,-3.167139880405022700e-01,3.271020039709646721e-01,3.971449276249937321e-02
4.600000000000000200e-01,-2.372321678381978660e-01,6.465569238876212044e-02,6.745139279594274118e-02
4.610000000000000209e-01,-1.230371108581864922e-02,-3.003159535535477875e-01,3.991958120564292889e-02
4.620000000000000218e-01,2.974810123893030789e-01,-5.226636080668032314e-01,-2.051606692437800070e-02
4.630000000000000226e-01,4.755699709897360239e-01,-4.007484324921417596e-01,-1.150886016488788244e-01
4.640000000000000235e-01,4.055470782236283989e-01,-7.449083503632922265e-02,-1.569528004725978254e-01
4.650000000000000244e-01,5.384632073732709828e-02,3.449265440255545045e-01,-1.474620864676833565e-01
4.660000000000000253e-01,-3.514529840947961392e-01,5.868615785071257251e-01,-1.326385631415182356e-02
4.670000000000000262e-01,-6.266139099046473815e-01,5.127053453428139784e-01,1.483976296700325048e-01
4.680000000000000271e-01,-5.320943195917713364e-01,9.231106985782808194e-02,2.709898411776599514e-01
4.689999999999999725e-01,-1.195529760012923465e-01,-3.552492304787496780e-01,2.377396379751398336e-01
4.699999999999999734e-01,3.918729224844459957e-01,-6.298096118373538443e-01,7.098342180615596630e-02
4.709999999999999742e-01,7.050267329031023600e-01,-5.492140685820098289e-01,-1.732167994463585936e-01
4.719999999999999751e-01,6.454797865424584113e-01,-1.240999608629296952e-01,-3.408898457868316800e-01
4.729999999999999760e-01,2.033002881726336253e-01,3.626392374944925057e-01,-3.332904643431247593e-01
4.739999999999999769e-01,-3.969742025520427986e-01,6.414600302237728480e-01,-1.293551962330369565e-01
4.749999999999999778e-01,-7.878737998337065340e-01,5.666707548603058253e-01,1.920259202368786444e-01
4.759999999999999787e-01,-7.154069258327524494e-01,1.507046328295991722e-01,4.083007399971212426e-01
4.769999999999999796e-01,-2.703387187513042189e-01,-3.405484489603325948e-01,4.257304149996514187e-01
4.779999999999999805e-01,3.777943706327328566e-01,-6.294220711118765355e-01,1.850215537518696551e-01
4.789999999999999813e-01,8.090704068597904808e-01,-5.392248892967967944e-01,-1.679314287533301975e-01
4.799999999999999822e-01,7.363205279190137009e-01,-1.561671689965413168e-01,-4.271675660684991493e-01
4.809999999999999831e-01,3.171775709297909307e-01,3.093648978859444010e-01,-4.607478544351772398e-01
4.819999999999999840e-01,-3.144278582507563091e-01,5.900734095614346142e-01,-2.320412371382995498e-01
4.829999999999999849e-01,-7.534921193421645347e-01,4.908922618193891640e-01,1.326784572483499514e-01
4.839999999999999858e-01,-7.382938340953023593e-01,1.511721494261326626e-01,4.183326426985213842e-01
4.849999999999999867e-01,-3.249210544583411853e-01,-2.690056163988897575e-01,4.783938776877683097e-01
4.859999999999999876e-01,2.808586507794389453e-01,-4.878410136701444855e-01,2.730266416234610194e-01
4.869999999999999885e-01,6.791571187161956624e-01,-4.312243297580550805e-01,-9.617599619260852606e-02
4.879999999999999893e-01,7.064002769010335747e-01,-1.364465651783805245e-01,-4.025035722658998338e-01
4.889999999999999902e-01,3.195836136764348412e-01,1.869859787678120333e-01,-4.815578895251266256e-01
4.899999999999999911e-01,-2.030005597134176276e-01,3.700346155973292528e-01,-2.926452218055459742e-01
4.909999999999999920e-01,-5.728018605017278775e-01,3.307034283308768474e-01,6.064755275232901199e-02
4.919999999999999929e-01,-6.123423315022658020e-01,1.202918535644822984e-01,3.466938160384778755e-01
4.929999999999999938e-01,-3.041233439658574400e-01,-1.242406676118816139e-01,4.561878988338590735e-01
4.939999999999999947e-01,1.253253310003475673e-01,-2.393089905409434281e-01,3.117181220539142483e-01
4.949999999999999956e-01,4.349041162723439879e-01,-2.312157715211947684e-01,3.804372142818856876e-03
4.959999999999999964e-01,4.986564488025119202e-01,-8.590956585746854779e-02,-2.752725492412745889e-01
4.969999999999999973e-01,2.675992285046560060e-01,2.356155968700049050e-02,-3.868563385967941914e-01
4.979999999999999982e-01,-3.722331317304508613e-02,9.003622138436458144e-02,-2.906892386986406618e-01
4.989999999999999991e-01,-2.774317324261071915e-01,7.914338205827692319e-02,-2.097663838640073664e-02
5.000000000000000000e-01,-3.241704369383408557e-01,4.449854795038993976e-02,2.135211472249728126e-01
5.010000000000000009e-01,-1.930767259019803006e-01,4.020035362475484625e-02,3.091293794792326355e-01
5.020000000000000018e-01,-1.444345521734852721e-02,4.676137116292793799e-02,2.376174119552929564e-01
5.030000000000000027e-01,1.195747192953633964e-01,3.129749385769695774e-02,4.805127144803265221e-02
5.040000000000000036e-01,1.505991235737323963e-01,-1.737772005136963005e-02,-1.122060474361226273e-01
5.050000000000000044e-01,9.900917557375478462e-02,-1.237248971097220512e-01,-2.179689561324767710e-01
5.060000000000000053e-01,4.972523998224232661e-02,-2.108923351181649641e-01,-1.733902192999402514e-01
5.070000000000000062e-01,3.342135163261346353e-02,-1.789712354395473493e-01,-5.641687453843161060e-02
5.080000000000000071e-01,5.422653292103248035e-02,-1.284771025749087935e-02,3.632638862411281810e-02
5.090000000000000080e-01,1.347640063582400058e-02,2.013450588978579203e-01,9.454888607623485042e-02
5.100000000000000089e-01,-9.454243419362924616e-02,3.408644762676817930e-01,8.106479929751816971e-02
5.110000000000000098e-01,-2.009598929329772521e-01,3.010686317857705352e-01,5.177061935012893662e-02
5.120000000000000107e-01,-2.405917034328209636e-01,7.247357157626359292e-02,2.230897128507585911e-02
5.130000000000000115e-01,-1.371272023259023642e-01,-2.610520868937972194e-01,1.984977549129845337e-02
5.140000000000000124e-01,1.083827060508754797e-01,-4.432168391964406151e-01,1.617414430060868519e-02
5.150000000000000133e-01,3.328189356442157187e-01,-4.157442052517798525e-01,-2.468370736400563384e-02
5.160000000000000142e-01,3.919477670371826483e-01,-9.613217156606079783e-02,-8.113970801305381286e-02
5.170000000000000151e-01,2.675376770818356231e-01,3.000608452601943865e-01,-1.319340907432441090e-01
5.180000000000000160e-01,-9.930549550197113884e-02,5.463898706858446586e-01,-1.213829931204680190e-01
5.190000000000000169e-01,-4.353365052460608786e-01,4.939527948793505097e-01,-1.982577959583850871e-02
5.200000000000000178e-01,-5.715144051761769095e-01,1.416722981119266089e-01,1.285767640932797828e-01
5.210000000000000187e-01,-3.888537140504476630e-01,-3.134116655141276908e-01,2.223142849336126325e-01
5.220000000000000195e-01,7.377270659982294865e-02,-6.179600712745907387e-01,2.220201092609632720e-01
5.230000000000000204e-01,5.056760400467208427e-01,-5.492899809463674954e-01,7.266777350970897442e-02
5.240000000000000213e-01,7.045899416109688840e-01,-1.821759257854339842e-01,-1.171478075797506291e-01
5.250000000000000222e-01,4.853107293283214219e-01,3.339988731971667013e-01,-2.938913238473609413e-01
5.260000000000000231e-01,-3.325868800129386238e-02,6.506709409833167923e-01,-3.220484324914258956e-01
5.270000000000000240e-01,-5.491909907452425799e-01,5.940007105390218145e-01,-1.540819058655256701e-01
5.280000000000000249e-01,-7.999261066163627643e-01,1.892265982889204112e-01,1.247191900318255081e-01
5.290000000000000258e-01,-5.733617266709505333e-01,-3.035133068879724005e-01,3.669075895340681570e-01
5.300000000000000266e-01,-1.873530857825093238e-02,-6.284714520706137231e-01,4.155501082046208494e-01
5.310000000000000275e-01,5.565113230855356363e-01,-5.811585092234027305e-01,2.117052887042380760e-01
5.320000000000000284e-01,8.313612755870082305e-01,-2.087174943602901345e-01,-1.088595287043673532e-01
5.330000000000000293e-01,6.310303291144195859e-01,2.819263557923619157e-01,-3.823537145609140486e-01
5.340000000000000302e-01,7.519536635806767233e-02,5.814281425219649524e-01,-4.616930289683821576e-01
5.350000000000000311e-01,-5.437459248442719772e-01,5.394806146872644925e-01,-2.710360054438007982e-01
5.360000000000000320e-01,-8.152472495680488374e-01,1.977281020285800994e-01,5.800677622279572232e-02
5.370000000000000329e-01,-6.412829959291569404e-01,-2.424181391042989908e-01,3.963981380461615300e-01
5.380000000000000338e-01,-9.011975664822620413e-02,-5.033379731940103019e-01,4.938045515361620952e-01
5.390000000000000346e-01,4.701859244580910979e-01,-4.837429039123725683e-01,3.299235777771776235e-01
5.400000000000000355e-01,7.753132564059779241e-01,-1.804077689191382616e-01,-3.106739272727230411e-02
5.410000000000000364e-01,6.274062501486784571e-01,1.780600239917075889e-01,-3.704153789547561804e-01
5.420000000000000373e-01,1.245845910452826055e-01,4.169449528473406219e-01,-5.055935527903019366e-01
5.430000000000000382e-01,-3.817050069803020751e-01,4.039797417399432766e-01,-3.584507515776913511e-01
5.440000000000000391e-01,-6.735898699887667984e-01,1.695779413428979976e-01,-7.370999913288969231e-03
5.450000000000000400e-01,-5.599844791602138772e-01,-1.330138759840546470e-01,3.130266809040988529e-01
5.460000000000000409e-01,-1.524982049145842400e-01,-2.855252973438444641e-01,4.744898287686630800e-01
5.470000000000000417e-01,2.872959670201049032e-01,-2.509590523067006806e-01,3.455229405590956593e-01
5.480000000000000426e-01,5.560341705924259914e-01,-1.201238490522089503e-01,6.364054250450902617e-02
5.490000000000000435e-01,4.806589148445901682e-01,3.418457745799288738e-02,-2.532799796767814526e-01
5.500000000000000444e-01,1.770917178916720514e-01,1.442880905352436349e-01,-4.039240774566235093e-01
5.510000000000000453e-01,-2.014072018284772669e-01,1.241398092936063513e-01,-3.366924047259317598e-01
5.520000000000000462e-01,-3.752011331160527430e-01,9.777385966930580985e-02,-8.648512005770077338e-02
5.530000000000000471e-01,-3.270979493626895440e-01,3.311824070548686355e-03,1.922510291590502907e-01
5.540000000000000480e-01,-1.399688734957100222e-01,3.315765766253454382e-03,3.241659224063659916e-01
5.550000000000000488e-01,6.658685399325026122e-02,-1.587036840758921036e-03,2.916344062659149139e-01
5.560000000000000497e-01,2.042338204030332283e-01,-4.336467431516937560e-02,1.076584971561349580e-01
5.570000000000000506e-01,1.830576819724382409e-01,-9.878264756243847200e-02,-1.262868798626716194e-01
5.580000000000000515e-01,1.008798121181085222e-01,-1.461981224459359685e-01,-2.399854821549902983e-01
5.590000000000000524e-01,1.260167527152160870e-02,-1.532295994093031966e-01,-2.136398695249008273e-01
5.600000000000000533e-01,-1.200576624722020889e-02,-2.201858369895842021e-02,-1.147437344347807114e-01
5.610000000000000542e-01,-3.139891006178743837e-02,1.533018478127122775e-01,4.341039601682896570e-02
5.620000000000000551e-01,-4.061452561957398788e-02,2.924300912523301044e-01,1.181675129215291609e-01
5.629999999999999449e-01,-1.188756958563175065e-01,2.583323798572269570e-01,1.445908153526594131e-01
5.639999999999999458e-01,-1.694849807614728365e-01,7.165814603283252038e-02,6.518484476218679158e-02
5.649999999999999467e-01,-1.594488686796190491e-01,-1.995976249154406135e-01,1.029834019229942943e-02
5.659999999999999476e-01,-2.634164648546845691e-02,-4.080557465323688127e-01,-2.575702268019385358e-02
5.669999999999999485e-01,1.877061564940394056e-01,-3.683369708872598070e-01,-3.181093152351872205e-02
5.679999999999999494e-01,3.307912590009470799e-01,-1.219424675990343626e-01,-3.170942600139346063e-02
5.689999999999999503e-01,3.162094774238867756e-01,2.392347030727362545e-01,-5.509948375346565563e-02
5.699999999999999512e-01,1.088490397197494908e-01,5.223461590899147744e-01,-9.202932392260859684e-02
5.709999999999999520e-01,-2.162235546674711462e-01,4.874148936364023910e-01,-1.059602303372330218e-01
5.719999999999999529e-01,-4.948497408867013614e-01,1.720956986859735471e-01,-2.898686375581427041e-02
5.729999999999999538e-01,-5.000349584046932527e-01,-2.552557519383610862e-01,7.541086641949361347e-02
5.739999999999999547e-01,-2.137453985473502793e-01,-5.720745828652782361e-01,1.738799695258882727e-01
5.749999999999999556e-01,2.525958982192870739e-01,-5.531444891134300601e-01,1.983529766096153724e-01
5.759999999999999565e-01,6.043996032128803320e-01,-2.106698209482631978e-01,1.051382238105032091e-01
5.769999999999999574e-01,6.267655223565848921e-01,2.541682317775302846e-01,-9.172377976253003051e-02
5.779999999999999583e-01,2.945842678047541630e-01,6.174375716929738633e-01,-2.496055435396874467e-01
5.789999999999999591e-01,-2.412560862907258685e-01,6.087770132947660784e-01,-3.029180441848929872e-01
5.799999999999999600e-01,-6.650980049084892487e-01,2.433724632750265959e-01,-1.754953483853775587e-01
5.809999999999999609e-01,-7.261299727292421791e-01,-2.734961310997437445e-01,8.569737527410137279e-02
5.819999999999999618e-01,-3.658968386449047983e-01,-6.193748192070080982e-01,3.247520851082363880e-01
5.829999999999999627e-01,2.347320878153049961e-01,-6.124918205435876395e-01,3.736830202993774996e-01
5.839999999999999636e-01,7.046257425697283194e-01,-2.683724013862930913e-01,2.400542262693473872e-01
5.849999999999999645e-01,7.970965057736681958e-01,2.373245498724946279e-01,-5.973875261837222062e-02
5.859999999999999654e-01,4.303770705168097899e-01,5.939637113152033132e-01,-3.425638054866125826e-01
5.869999999999999662e-01,-2.096771713154463590e-01,5.842065598316932284e-01,-4.518979751759839569e-01
5.879999999999999671e-01,-6.741953279022171452e-01,2.461693765421363311e-01,-3.160394358209534516e-01
5.889999999999999680e-01,-8.137734151897872970e-01,-2.077127269985324098e-01,1.132682944410296974e-02
5.899999999999999689e-01,-4.668768707546547825e-01,-5.398039812539204840e-01,3.521413084906615532e-01
5.909999999999999698e-01,1.243471104306224373e-01,-5.170179394318720201e-01,4.808856791852573198e-01
5.919999999999999707e-01,6.415045424797570783e-01,-2.235478495131296151e-01,3.660889498985402390e-01
5.929999999999999716e-01,7.874797928940222569e-01,1.695652094789878439e-01,3.736891954777360469e-02
5.939999999999999725e-01,4.869845739073958568e-01,4.445376958797580547e-01,-3.135751705269841372e-01
5.949999999999999734e-01,-8.503678910353718035e-02,4.457344601875277146e-01,-4.920242395390460599e-01
5.959999999999999742e-01,-5.858361099130032779e-01,1.938827560071555434e-01,-4.081101625528727461e-01
5.969999999999999751e-01,-7.051976753486012273e-01,-1.087856573316115100e-01,-6.048012517274390515e-02
5.979999999999999760e-01,-4.624197217421383566e-01,-3.242756067774129058e-01,2.853969626630760703e-01
5.989999999999999769e-01,1.665293129293220903e-02,-3.432152828020158530e-01,4.976524631616034977e-01
5.999999999999999778e-01,4.601260490245952517e-01,-1.685536951884951395e-01,4.122127166530257791e-01
6.009999999999999787e-01,6.068785249585310071e-01,4.576647834188285469e-02,1.084163063830795581e-01
6.019999999999999796e-01,4.005864440803235671e-01,1.783681261201326140e-01,-2.368161670914296635e-01
6.029999999999999805e-01,1.991707185799148423e-04,1.968523848337731808e-01,-4.301215727129232280e-01
6.039999999999999813e-01,-3.384144540606875418e-01,1.276783885736557100e-01,-3.970569096597244552e-01
6.049999999999999822e-01,-4.677050657738857087e-01,1.137350781024409896e-02,-1.124940677336508377e-01
6.059999999999999831e-01,-3.341785627877982834e-01,-6.301145362727018917e-02,1.819840780695476945e-01
6.069999999999999840e-01,-5.332665984741557369e-02,-6.248130366976260147e-02,3.507773767120156427e-01
6.079999999999999849e-01,1.960107462989621741e-01,-4.135772372747272690e-02,3.380776679058702938e-01
6.089999999999999858e-01,2.730884304482385505e-01,-6.634381763267242771e-02,1.356750405324271269e-01
6.099999999999999867e-01,2.159851752306684025e-01,-7.816603564687771288e-02,-9.889433763420943380e-02
6.109999999999999876e-01,6.876377440872871727e-02,-8.433487076398389626e-02,-2.616834302568886161e-01
6.119999999999999885e-01,-5.018467928270727019e-02,-7.078273843727962006e-03,-2.579845097975414503e-01
6.129999999999999893e-01,-8.720237844993004861e-02,1.178636129536551752e-01,-1.275540603923443483e-01
6.139999999999999902e-01,-1.009912025620769566e-01,2.289776914720959289e-01,3.718626317755350380e-02
6.149999999999999911e-01,-8.671774806079869669e-02,2.202035509740951635e-01,1.587706544906641315e-01
6.159999999999999920e-01,-8.986224053302117876e-02,9.395922065339316898e-02,1.666586715420495246e-01
6.169999999999999929e-01,-9.436131836269991136e-02,-1.686083811182634007e-01,1.058086715183953613e-01
6.179999999999999938e-01,-5.219030055301216581e-02,-3.379071041106349593e-01,3.745886804759779136e-03
6.189999999999999947e-01,5.578531099806831317e-02,-3.664646200842565094e-01,-5.620954513115437867e-02
6.199999999999999956e-01,2.106359281322636723e-01,-1.369994749909870524e-01,-7.441405542988574484e-02
6.209999999999999964e-01,2.810965950440235117e-01,1.962344525813596585e-01,-7.296585392768155376e-02
6.219999999999999973e-01,2.197684712838780252e-01,4.534799427003550210e-01,-4.149655597298423926e-02
6.229999999999999982e-01,-2.224222767264926598e-02,4.721058735153665364e-01,-4.896965598142945936e-02
6.239999999999999991e-01,-3.002623752272999824e-01,1.965017851960803308e-01,-4.445989629773254570e-02
6.250000000000000000e-01,-4.758057273928349984e-01,-2.027106921704508180e-01,-1.021068032156989026e-02
6.260000000000000009e-01,-3.576856323018521300e-01,-5.225906932272540439e-01,6.134939371257434187e-02
6.270000000000000018e-01,-4.250672294385637179e-02,-5.613283434576459285e-01,1.274588220876080313e-01
6.280000000000000027e-01,3.769743858667534142e-01,-2.460030811591634448e-01,1.628969322401667141e-01
6.290000000000000036e-01,5.840911732638801590e-01,2.164517497765208187e-01,9.294836818330494410e-02
6.300000000000000044e-01,5.097316276493598641e-01,5.805894750808014981e-01,-5.278203662678179753e-02
6.310000000000000053e-01,7.350963112654702869e-02,6.232858775543750340e-01,-2.037077595606976710e-01
6.320000000000000062e-01,-4.164586495192872384e-01,2.893451571500442743e-01,-2.642853764047813914e-01
6.330000000000000071e-01,-7.170323652244180446e-01,-1.953657631266168260e-01,-1.676887567501577636e-01
6.340000000000000080e-01,-5.916452778999187201e-01,-5.997017373991344602e-01,3.376904107858336862e-02
6.350000000000000089e-01,-1.541829358925450033e-01,-6.485609136605786640e-01,2.660846908538667122e-01
6.360000000000000098e-01,4.454319490807707727e-01,-2.989559063797960770e-01,3.583090904735978799e-01
6.370000000000000107e-01,7.844459667959401417e-01,2.047950074644861174e-01,2.565416499763420455e-01
6.380000000000000115e-01,6.903228101240711512e-01,5.640414996793097213e-01,1.027963622380676650e-02
6.390000000000000124e-01,1.988486144587348348e-01,6.230195917082872459e-01,-2.703416090147289230e-01
6.400000000000000133e-01,-3.982103448983713156e-01,2.957886129639062944e-01,-4.347439745065197481e-01
6.410000000000000142e-01,-7.972937534697660533e-01,-1.542293982437070721e-01,-3.430466365095293790e-01
6.420000000000000151e-01,-7.408552456450085977e-01,-5.344125251661057119e-01,-2.086122542359689774e-02
6.430000000000000160e-01,-2.536867366825793502e-01,-5.679795764163904082e-01,2.914831430294881343e-01
6.440000000000000169e-01,3.610097636821336109e-01,-2.982199844962085122e-01,4.696409240879703129e-01
6.450000000000000178e-01,7.717041027973422507e-01,1.301241858713922395e-01,4.002509103652442946e-01
6.460000000000000187e-01,7.255581610274655091e-01,4.661601153083111404e-01,7.852130299418279280e-02
6.470000000000000195e-01,2.906235829444120400e-01,4.863584879381530612e-01,-2.600971769467435024e-01
6.480000000000000204e-01,-3.059262478896249693e-01,2.509351954121162853e-01,-4.758380169212195754e-01
6.490000000000000213e-01,-7.016313713304073163e-01,-9.308807673096633484e-02,-4.151978999074119048e-01
6.500000000000000222e-01,-7.021477468139046829e-01,-3.453673271085690444e-01,-1.207246222597010421e-01
6.510000000000000231e-01,-2.995966063916471467e-01,-3.879200415526757317e-01,2.391823016101745636e-01
6.520000000000000240e-01,2.355022285918551006e-01,-2.262745420947520347e-01,4.735093355103347501e-01
6.530000000000000249e-01,6.034646888301793410e-01,3.695028067839922076e-02,4.265341176197431916e-01
6.540000000000000258e-01,6.151385192760010501e-01,2.360831602409109720e-01,1.486013053964720942e-01
6.550000000000000266e-01,2.896903939839027275e-01,2.591432813856917039e-01,-1.963858015637434673e-01
6.560000000000000275e-01,-1.702550121895357038e-01,1.529324101416235371e-01,-4.378596196562796194e-01
6.570000000000000284e-01,-4.853059321363361600e-01,-2.017930585305466665e-03,-4.309743384873139238e-01
6.580000000000000293e-01,-4.873670609073171289e-01,-1.005111212682226751e-01,-1.817985862690940924e-01
6.590000000000000302e-01,-2.475817779089609372e-01,-1.194874339833126714e-01,1.428369629537723506e-01
6.600000000000000311e-01,7.446335457357201870e-02,-7.224621984769885596e-02,3.570267218642592666e-01
6.610000000000000320e-01,3.021613802112612102e-01,-5.563390104310591416e-02,3.823898372668455559e-01
6.620000000000000329e-01,3.434051775531561379e-01,-4.319699205080774346e-02,1.756552927134706898e-01
6.630000000000000338e-01,1.945931275332500043e-01,-3.120821131312368976e-02,-7.749822089991220686e-02
6.640000000000000346e-01,1.208245147347246536e-02,1.538963607607751229e-02,-2.756639409626270854e-01
6.650000000000000355e-01,-1.277788394368525315e-01,8.503926023344855756e-02,-2.946056723795335563e-01
6.660000000000000364e-01,-1.793967909690823426e-01,1.714068742339949214e-01,-1.828139478994485201e-01
6.670000000000000373e-01,-1.210070382378119341e-01,1.898028190065919607e-01,3.680853305498136413e-02
6.680000000000000382e-01,-5.845155364433005096e-02,7.002252959165075619e-02,1.758398643382953763e-01
6.690000000000000391e-01,-3.163537647276667975e-02,-1.376539415916961939e-01,2.134850957449814790e-01
6.700000000000000400e-01,-3.047680538983680437e-02,-2.860570804617912910e-01,1.369716764518728869e-01
6.710000000000000409e-01,3.151121856092785334e-02,-3.194953524116472265e-01,1.316113037549551494e-02
6.720000000000000417e-01,9.785793749377835749e-02,-1.443900894897263698e-01,-9.680705769879564826e-02
6.730000000000000426e-01,1.929570276709135779e-01,1.491341539806184668e-01,-1.056761737503875836e-01
6.740000000000000435e-01,2.189812510263796919e-01,4.010641826485260575e-01,-7.602585922301774435e-02
6.750000000000000444e-01,9.261297064105449006e-02,4.323727204815436265e-01,-3.561440986080472576e-02
6.760000000000000453e-01,-1.308345371314521555e-01,2.129059184896352763e-01,-2.145045386243585664e-02
6.770000000000000462e-01,-3.174061389918368392e-01,-1.612871960085720813e-01,-1.210752753248357967e-02
6.780000000000000471e-01,-3.912222222020323437e-01,-4.965331860803626762e-01,4.497198083902083192e-03
6.790000000000000480e-01,-2.205573744460254948e-01,-5.297065581395503653e-01,3.291226596068747012e-02
6.800000000000000488e-01,1.163034665350890090e-01,-2.873867583134727122e-01,9.549672606034133315e-02
6.810000000000000497e-01,4.641278953533121698e-01,1.687085661748637666e-01,1.251028422071055191e-01
6.820000000000000506e-01,5.638954308245482938e-01,5.305308876525299810e-01,8.601189070018726290e-02
6.830000000000000515e-01,3.539874519849339762e-01,6.093980512492440660e-01,-3.317062900088304372e-02
6.840000000000000524e-01,-1.120491535893677060e-01,3.201491807409547197e-01,-1.774624678948773238e-01
6.850000000000000533e-01,-5.396052365900777525e-01,-1.595586269735985163e-01,-2.481997712944844503e-01
6.860000000000000542e-01,-6.775070299251201300e-01,-5.643280306584318451e-01,-1.679486585565820034e-01
6.870000000000000551e-01,-4.317306182847454044e-01,-6.589098469554460769e-01,-1.082200047387760038e-02
6.879999999999999449e-01,6.146734997387715699e-02,-3.356194715974186726e-01,2.034584896609860361e-01
6.889999999999999458e-01,5.760342584095861085e-01,1.455886819129064702e-01,3.262461103119383976e-01
6.899999999999999467e-01,7.776480186113299276e-01,5.664801317276192405e-01,2.567924425131333233e-01
6.909999999999999476e-01,5.270154655308668668e-01,6.404831319178697635e-01,4.921478300522410393e-02
6.919999999999999485e-01,-3.199097411937921326e-02,3.605767629687133824e-01,-2.313211145711210059e-01
6.929999999999999494e-01,-6.005590881876650133e-01,-1.169679104404183351e-01,-3.985430409528671891e-01
6.939999999999999503e-01,-8.184641790770785796e-01,-5.196864076160121471e-01,-3.383716196006767984e-01
6.949999999999999512e-01,-5.713380423103304739e-01,-6.117551539412049433e-01,-8.742503380728899876e-02
6.959999999999999520e-01,-1.756042341399366435e-02,-3.397532309615718948e-01,2.194177478312328844e-01
6.969999999999999529e-01,5.684646069268949331e-01,1.098035371891173256e-01,4.397898085063987605e-01
6.979999999999999538e-01,8.275952329368296834e-01,4.603092043883397211e-01,4.055175764951560180e-01
6.989999999999999547e-01,5.998469087628787166e-01,5.539079202878265384e-01,1.437728807474341342e-01
6.999999999999999556e-01,5.970188735166198635e-02,3.003698353327381443e-01,-2.263866235942485761e-01
7.009999999999999565e-01,-5.204136113864903379e-01,-6.845373976231511337e-02,-4.604120240965223765e-01
7.019999999999999574e-01,-7.965699176499104750e-01,-3.794947633552558375e-01,-4.450219087198084011e-01
7.029999999999999583e-01,-5.999898244718252505e-01,-4.397201647792605694e-01,-1.789539307635601428e-01
7.039999999999999591e-01,-1.102434563720811195e-01,-2.668874915013030313e-01,2.041093636375239107e-01
7.049999999999999600e-01,4.378294844115718787e-01,3.202578243638559002e-02,4.515614943250235158e-01
7.059999999999999609e-01,7.010475235737311239e-01,2.599317320427061428e-01,4.538027863953247865e-01
7.069999999999999618e-01,5.443961757982662686e-01,3.153379034050320384e-01,2.247942401637909038e-01
7.079999999999999627e-01,1.237580499438207388e-01,1.892644849968866672e-01,-1.505738552256511709e-01
7.089999999999999636e-01,-3.394587450568418707e-01,-1.125472029926093132e-02,-4.222274996913753520e-01
7.099999999999999645e-01,-5.696211258588599335e-01,-1.388241926228819256e-01,-4.410748476220839875e-01
7.109999999999999654e-01,-4.662468385358504719e-01,-1.762689031548912155e-01,-2.392235693205435609e-01
7.119999999999999662e-01,-1.569744131290393419e-01,-1.281376633248240415e-01,8.751433794137541966e-02
7.129999999999999671e-01,2.281102007726135417e-01,-4.048396976619555304e-02,3.748520617517079323e-01
7.139999999999999680e-01,4.075882560727322468e-01,1.875979233988638376e-02,4.144357675243002803e-01
7.149999999999999689e-01,3.488548300107779387e-01,3.069287445370624118e-02,2.413529481558052414e-01
7.159999999999999698e-01,1.324108511192904625e-01,3.521506296184052920e-02,-3.352359845288905432e-02
7.169999999999999707e-01,-1.075956486725865580e-01,6.360231559166379389e-02,-2.735300791154274269e-01
7.179999999999999716e-01,-2.446440472768988683e-01,1.114982460689721844e-01,-3.550623486806577800e-01
7.189999999999999725e-01,-2.218189601688122514e-01,1.448204630702128459e-01,-2.288638798266482699e-01
7.199999999999999734e-01,-1.002185823440589069e-01,6.807811871231626843e-02,1.327714114391154165e-02
7.209999999999999742e-01,-2.451898071591710956e-03,-8.552770183166345797e-02,1.984713357166934811e-01
7.219999999999999751e-01,4.550054444665622283e-02,-2.345666418570461487e-01,2.544829493273882415e-01
7.229999999999999760e-01,4.472887948652790741e-02,-2.745813097537412317e-01,1.823639812592089127e-01
7.239999999999999769e-01,7.433039198722374286e-02,-1.516379598270559681e-01,1.814689871683411795e-02
7.249999999999999778e-01,9.974483759131845539e-02,1.186412664262944672e-01,-1.169483079065955500e-01
7.259999999999999787e-01,1.468435839537270415e-01,3.479226270218329642e-01,-1.517359579867824104e-01
7.269999999999999796e-01,1.253304991686045866e-01,4.093810553226027160e-01,-1.201130267349173608e-01
7.279999999999999805e-01,2.030366545632558695e-02,2.103983614346567610e-01,-3.488928743127913540e-02
7.289999999999999813e-01,-1.490259211857354604e-01,-1.043566516086450457e-01,1.629854723174227471e-02
7.299999999999999822e-01,-3.288024147855525547e-01,-4.377378631000911069e-01,3.113025963029270732e-02
7.309999999999999831e-01,-2.846859143302924444e-01,-5.049579110135138382e-01,2.790330105962937277e-02
7.319999999999999840e-01,-7.407152134518343867e-02,-2.987483986268399949e-01,3.419908273587856512e-02
7.329999999999999849e-01,2.424674058869678017e-01,1.206274051803609276e-01,6.277493220212536362e-02
7.339999999999999858e-01,4.491217930419845739e-01,4.904185409461132017e-01,6.997771626931516276e-02
7.349999999999999867e-01,4.512152429782561036e-01,6.029252903206223646e-01,6.696507188968994773e-02
7.359999999999999876e-01,1.622856837920067241e-01,3.459950273009014809e-01,-2.329118924665421822e-02
7.369999999999999885e-01,-2.745334757361209133e-01,-1.205256822621445650e-01,-1.196380472946073081e-01
7.379999999999999893e-01,-5.927907561136508408e-01,-5.399739332467675679e-01,-2.065882279674706445e-01
7.389999999999999902e-01,-5.908159203226300837e-01,-6.666735581331441063e-01,-1.447623598680892187e-01
7.399999999999999911e-01,-2.379045137350840056e-01,-3.934708701720188717e-01,-1.702448568432038747e-02
7.409999999999999920e-01,2.823753380357145737e-01,1.073610547944553323e-01,1.629462428612532265e-01
7.419999999999999929e-01,6.821551617580530191e-01,5.347751209828383034e-01,3.031507451821970900e-01
7.429999999999999938e-01,7.127522379660875540e-01,6.415306592178002809e-01,2.550203775267242956e-01
7.439999999999999947e-01,3.280398837108716159e-01,4.047023770342211835e-01,5.023460173639633652e-02
7.449999999999999956e-01,-2.595401740919520139e-01,-8.833506918772227046e-02,-1.857262139015657121e-01
7.459999999999999964e-01,-7.153342780309990268e-01,-5.206991169527354080e-01,-3.557815544915511885e-01
7.469999999999999973e-01,-7.737196976910067914e-01,-6.424519379800665009e-01,-3.296381545038165606e-01
7.479999999999999982e-01,-3.884070198386379014e-01,-3.746499500822093043e-01,-1.292553824790341477e-01
7.489999999999999991e-01,2.353926769470120750e-01,6.001036321028576509e-02,1.997524395740509495e-01
7.500000000000000000e-01,7.302071119731098348e-01,4.505395234441998409e-01,4.161468035395355924e-01
7.510000000000000009e-01,8.280192108870163548e-01,5.940358516853116999e-01,4.293688036309459832e-01
7.520000000000000018e-01,4.345234000474049729e-01,3.694104481753513469e-01,1.884122162220918939e-01
7.530000000000000027e-01,-1.792090089500237016e-01,-3.398558095302250948e-02,-1.854237362292881497e-01
7.540000000000000036e-01,-6.865622556070426485e-01,-3.832099680738431102e-01,-4.387347179790596630e-01
7.550000000000000044e-01,-8.015990281324295585e-01,-4.910495028634278003e-01,-4.621222598802764980e-01
7.560000000000000053e-01,-4.437406828083683696e-01,-3.094732391935968718e-01,-2.308920258963660377e-01
7.570000000000000062e-01,1.344865021231377578e-01,2.620033216812702598e-02,1.276388871899263588e-01
7.580000000000000071e-01,5.933119551794157065e-01,2.972806289474638763e-01,4.313808146297989365e-01
7.590000000000000080e-01,7.338208428008183848e-01,3.681625271892199902e-01,5.106951111283272171e-01
7.600000000000000089e-01,4.338593862146137847e-01,2.419447770462604674e-01,2.693443328690974248e-01
7.610000000000000098e-01,-8.687956004602200022e-02,1.832369593365512639e-02,-9.623422212949121757e-02
7.620000000000000107e-01,-4.951185152111257648e-01,-1.871307022086781680e-01,-4.027102950233693579e-01
7.630000000000000115e-01,-6.053721813631138815e-01,-2.428610755792920683e-01,-4.733602273463533017e-01
7.640000000000000124e-01,-3.881432363731542323e-01,-1.647857502207650260e-01,-2.958445008875446036e-01
7.650000000000000133e-01,2.777654605632242854e-02,-3.793610169465386900e-02,5.665517957708557373e-02
7.660000000000000142e-01,3.804428785478174979e-01,7.037720078233464238e-02,3.519311237631914668e-01
7.670000000000000151e-01,4.797544277738326479e-01,8.663374227620314338e-02,4.477231864134644246e-01
7.680000000000000160e-01,3.168341777779436486e-01,5.547409753740056154e-02,3.056273539149576002e-01
7.690000000000000169e-01,1.599627331696318669e-02,6.066412944120216227e-02,1.063885826576896430e-03
7.700000000000000178e-01,-2.336445002721566355e-01,4.982002702160289592e-02,-2.817626417988855492e-01
7.710000000000000187e-01,-2.958744856447700355e-01,7.542522007821415853e-02,-3.848512997082723652e-01
7.720000000000000195e-01,-2.302762841924885506e-01,2.142263705415209385e-02,-2.835133884343534194e-01
7.730000000000000204e-01,-6.869274984812731577e-02,-6.010156359562600359e-02,-3.527135848121471656e-02
7.740000000000000213e-01,6.974410673864692156e-02,-1.975164530695907861e-01,2.008070975559480276e-01
7.750000000000000222e-01,1.333716739711060251e-01,-2.347890383835961048e-01,2.906193762559499127e-01
7.760000000000000231e-01,1.125384921951041173e-01,-1.307487437795469831e-01,2.221861641106777363e-01
7.770000000000000240e-01,5.775261493869091045e-02,8.932886294364870972e-02,6.123345455324315928e-02
7.780000000000000249e-01,7.088533236901205237e-02,2.875851457182762583e-01,-1.130752325849882362e-01
7.790000000000000258e-01,6.137239229838856863e-02,3.566029602813266530e-01,-1.928034007755156654e-01
7.800000000000000266e-01,3.776501971104010563e-02,2.202109208110419047e-01,-1.554336975852831926e-01
7.810000000000000275e-01,-5.865555783822767183e-02,-7.804422913181878474e-02,-6.371292030790699779e-02
7.820000000000000284e-01,-1.985834742804701569e-01,-3.915933384771483894e-01,2.978176310867450619e-02
7.830000000000000293e-01,-2.694845569842362343e-01,-4.734875206339265175e-01,7.072695609207177436e-02
7.840000000000000302e-01,-1.871406055588508421e-01,-2.949120244065169261e-01,7.137719731558124503e-02
7.850000000000000311e-01,4.489407633460086589e-02,6.572130868146185134e-02,5.478590104512134212e-02
7.860000000000000320e-01,2.996184482568184371e-01,4.297120735857020701e-01,4.386168415236883084e-02
7.870000000000000329e-01,4.469921802565939295e-01,5.826130305157898315e-01,4.284732013618881147e-02
7.880000000000000338e-01,3.113069564567608749e-01,3.524590210425146974e-01,3.625139782561317275e-02
7.890000000000000346e-01,-4.108649285652360081e-03,-6.736298183696823316e-02,-2.375922017670797567e-02
7.900000000000000355e-01,-3.913220389541832156e-01,-4.977532691607918225e-01,-1.041347388279884739e-01
7.910000000000000364e-01,-6.032259371934344250e-01,-6.470210233474577022e-01,-1.287710336353791174e-01
7.920000000000000373e-01,-4.637210334315279292e-01,-4.397448179641283428e-01,-1.405924073267674490e-01
7.930000000000000382e-01,-4.075274702741946836e-02,4.124145698058553217e-02,-2.478879854391896273e-02
7.940000000000000391e-01,4.403045197022927293e-01,5.055137044876991670e-01,1.213528847933816324e-01
7.950000000000000400e-01,7.064194151189827631e-01,6.740433411282117371e-01,2.466369642412200858e-01
7.960000000000000409e-01,5.784009866672468192e-01,4.502576922354510347e-01,2.270983210521017870e-01
7.970000000000000417e-01,1.011799497864404734e-01,-3.658874091863590500e-02,7.678035917635379903e-02
7.980000000000000426e-01,-4.593506522202392417e-01,-4.890665888058192690e-01,-1.368055797657237727e-01
7.990000000000000435e-01,-7.553754302350252914e-01,-6.554679660116964346e-01,-3.137751805790688908e-01
8.000000000000000444e-01,-6.720657103062016580e-01,-4.498388055251325568e-01,-3.250406901533471893e-01
8.010000000000000453e-01,-1.410793500736835793e-01,1.090169929426989225e-02,-1.428112379109951480e-01
8.020000000000000462e-01,4.579790015170556727e-01,4.456961895506399984e-01,1.254665018536344767e-01
8.030000000000000471e-01,8.250824257404526518e-01,5.888569111520038923e-01,3.766514861437145201e-01
8.040000000000000480e-01,7.087239001314156184e-01,4.262994235617703076e-01,4.046882154114876395e-01
8.050000000000000488e-01,2.145203194205080599e-01,-9.412033747203805978e-03,2.229288956282655387e-01
8.060000000000000497e-01,-4.193839861619012566e-01,-3.905320828837366975e-01,-1.113925643504196511e-01
8.070000000000000506e-01,-7.915286559725157600e-01,-5.328597743173772994e-01,-3.857577172263011445e-01
8.080000000000000515e-01,-7.187939826910401120e-01,-3.829985089228579165e-01,-4.697381500001754362e-01
8.090000000000000524e-01,-2.424304127739476955e-01,-8.186370772437823878e-03,-2.847523359694723033e-01
8.100000000000000533e-01,3.588313026258407312e-01,3.032488916259243328e-01,8.828247260908383964e-02
8.110000000000000542e-01,7.309679760614274935e-01,4.270952079314187522e-01,3.952194971132630408e-01
8.120000000000000551e-01,6.856887053053848380e-01,3.121317632159443800e-01,5.030476722511233456e-01
8.129999999999999449e-01,2.545094601810622970e-01,3.257749327632274150e-02,3.123391879485883926e-01
8.139999999999999458e-01,-2.781620387226061419e-01,-1.971339975711342840e-01,-3.246388105844181388e-02
8.149999999999999467e-01,-6.242692627109731607e-01,-2.964469993034924422e-01,-3.683443286004337014e-01
8.159999999999999476e-01,-6.234564310563026623e-01,-1.971950693817600686e-01,-4.825576746905936854e-01
8.169999999999999485e-01,-2.816406990741930350e-01,-6.784008354423971821e-02,-3.448158421715544208e-01
8.179999999999999494e-01,1.946629360815049226e-01,1.036374358894535386e-01,-2.128529632271122275e-03
8.189999999999999503e-01,4.900843764277002523e-01,1.571418485873436743e-01,3.392691705104919908e-01
8.199999999999999512e-01,5.082917488569267395e-01,1.393446834538522860e-01,4.527401501242085402e-01
8.209999999999999520e-01,2.396727232859013068e-01,5.281902912736920891e-02,3.506413797789605935e-01
8.219999999999999529e-01,-1.153284322709360182e-01,3.207114244529193220e-02,4.468845041635378934e-02
8.229999999999999538e-01,-3.284579483867977046e-01,-6.692831872977429708e-03,-2.617333089478116603e-01
8.239999999999999547e-01,-3.503872055111666994e-01,-1.817564259291262405e-02,-3.953305434250686257e-01
8.249999999999999556e-01,-1.796421783180462972e-01,-5.247754316734561802e-02,-3.186165524740640076e-01
8.259999999999999565e-01,2.587480937986573817e-02,-1.461408663310706790e-01,-9.652553007625021275e-02
8.269999999999999574e-01,1.586989383227584149e-01,-1.655732984699605503e-01,1.744406160329161626e-01
8.279999999999999583e-01,1.737613772219064046e-01,-1.028806547678866590e-01,3.233462337270500697e-01
8.289999999999999591e-01,1.210732654314629342e-01,6.208358378445810039e-02,2.765512173160898368e-01
8.299999999999999600e-01,4.360222754762849151e-02,2.464160547809982060e-01,9.320101025402556527e-02
8.309999999999999609e-01,-8.610817355525140354e-03,3.136768632461116035e-01,-1.136275617311494068e-01
8.319999999999999618e-01,-2.523807749394601369e-03,2.084581768220851172e-01,-2.300637639768123854e-01
8.329999999999999627e-01,-2.362427567511979701e-02,-4.885203486586597171e-02,-1.994339214212788869e-01
8.339999999999999636e-01,-9.286910382952916210e-02,-3.358670443629090396e-01,-8.099184409190636480e-02
8.349999999999999645e-01,-1.781639469348540172e-01,-4.320332366548157998e-01,4.009988427547474255e-02
8.359999999999999654e-01,-2.024983290176198825e-01,-3.002179948000073262e-01,1.231063651231251999e-01
8.369999999999999662e-01,-8.488542908213859983e-02,4.455736008460167014e-02,1.167765174229370567e-01
8.379999999999999671e-01,1.188359109703614608e-01,3.934765223877517148e-01,6.199418394463036830e-02
8.389999999999999680e-01,3.177662821073907740e-01,5.369121832484958778e-01,2.766576830900295894e-02
8.399999999999999689e-01,3.744124483676489756e-01,3.853430288063433573e-01,-8.742612161753718358e-03
8.409999999999999698e-01,1.915838861178189578e-01,-1.193382337207148786e-02,-5.162437712432773988e-03
8.419999999999999707e-01,-1.417854341492062187e-01,-4.296226844769178155e-01,3.725221052094783263e-03
8.429999999999999716e-01,-4.647359431009186470e-01,-6.187689633275682555e-01,-6.623833143311960714e-02
8.439999999999999725e-01,-5.307646496978474238e-01,-4.321142140177491320e-01,-9.404641348461471873e-02
8.449999999999999734e-01,-3.036037803406988478e-01,2.280249950740362991e-02,-1.004026649733315013e-01
8.459999999999999742e-01,1.402162506726485347e-01,4.402741264284876777e-01,-3.697511634075081877e-02
8.469999999999999751e-01,5.517208052330148105e-01,6.503317378350995659e-01,1.032440109480867035e-01
8.479999999999999760e-01,6.478053079336412168e-01,4.630229831562344134e-01,1.849225452039054973e-01
8.489999999999999769e-01,3.844591735147198652e-01,6.590164734675481827e-03,1.799977059570525006e-01
8.499999999999999778e-01,-1.183312606265881639e-01,-4.660928161088151445e-01,8.922358247206060855e-02
8.509999999999999787e-01,-6.128131482001176744e-01,-6.480147128961047942e-01,-1.071465868101999230e-01
8.519999999999999796e-01,-7.534471428228867174e-01,-5.017622492785955846e-01,-2.760782130089724506e-01
8.529999999999999805e-01,-4.938315589520949622e-01,-3.627774952890372440e-02,-3.053522515881498256e-01
8.539999999999999813e-01,7.952587587215874387e-02,4.356891062471849319e-01,-1.688525917867607640e-01
8.549999999999999822e-01,6.134012738407077503e-01,6.285446920905674029e-01,8.758198846907302992e-02
8.559999999999999831e-01,8.315147808174806476e-01,4.494755908959895407e-01,3.136148170072987629e-01
8.569999999999999840e-01,5.346629536298070917e-01,5.477298584880805482e-02,3.753960825412031577e-01
8.579999999999999849e-01,-4.566324929566855512e-02,-4.060805215384479805e-01,2.459629355829073827e-01
8.589999999999999858e-01,-6.041621940274091163e-01,-5.425752056838630821e-01,-5.384106538926322627e-02
8.599999999999999867e-01,-8.306785483074797805e-01,-4.251163642823166944e-01,-3.468438396855840211e-01
8.609999999999999876e-01,-5.750956303410051929e-01,-5.606828929570327469e-02,-4.526609002661392545e-01
8.619999999999999885e-01,2.614326816073229108e-03,3.044039100077665649e-01,-3.050549872085347447e-01
8.629999999999999893e-01,5.486514206600906496e-01,4.770407555128768906e-01,2.562574997629964851e-02
8.639999999999999902e-01,7.857817154819126682e-01,3.638721405256133967e-01,3.480777015486838377e-01
8.649999999999999911e-01,5.774982406956105097e-01,6.992774821550210018e-02,4.892612057839613726e-01
8.659999999999999920e-01,4.902826464670582973e-02,-2.159678370841515704e-01,3.634370440279601766e-01
8.669999999999999929e-01,-4.655294952086423410e-01,-3.332889060661757274e-01,2.044210456834395090e-02
8.679999999999999938e-01,-7.086221095130366132e-01,-2.746214685378783882e-01,-3.318793754801184770e-01
8.689999999999999947e-01,-5.421758098202367204e-01,-5.588578498201837719e-02,-5.002722389564359107e-01
8.699999999999999956e-01,-9.129935648395567926e-02,1.246547811173532583e-01,-3.813270075255247860e-01
8.709999999999999964e-01,3.696143585672531651e-01,2.006912591398047618e-01,-5.779157510523118269e-02
8.719999999999999973e-01,5.789654985884402638e-01,1.588379443997380014e-01,2.811377581580887797e-01
8.729999999999999982e-01,4.649278848030100608e-01,6.132843970304389936e-02,4.739899832117487333e-01
8.739999999999999991e-01,1.000062452781063926e-01,-1.045850330008814277e-02,3.834849531830927805e-01
8.750000000000000000e-01,-2.443662462159116588e-01,-3.960502859997065694e-02,9.682300626421744272e-02
8.760000000000000009e-01,-4.311624551288086304e-01,-5.193224693912375928e-02,-2.307143276849412394e-01
8.770000000000000018e-01,-3.529502048682179871e-01,-6.372509428140084309e-02,-4.259551323754703911e-01
8.780000000000000027e-01,-1.186455979050964477e-01,-9.179137415144127121e-02,-3.598234554759633386e-01
8.790000000000000036e-01,1.119970574035269451e-01,-9.941006041556561812e-02,-1.315953173582441738e-01
8.800000000000000044e-01,2.655602618526015091e-01,-6.150207496419586584e-02,1.711274212752159629e-01
8.810000000000000053e-01,2.339177490387682468e-01,2.882789068670252655e-02,3.598161314682321033e-01
8.820000000000000062e-01,9.905358286490556496e-02,1.772569962199860849e-01,3.238871892903970040e-01
8.830000000000000071e-01,-2.704388327428852712e-02,2.747254326745547925e-01,1.365050273886032062e-01
8.840000000000000080e-01,-6.544510210725631993e-02,1.833213011508416646e-01,-1.018582068486547643e-01
8.850000000000000089e-01,-6.228871533415382411e-02,-2.864860352863489792e-02,-2.658022981995987188e-01
8.860000000000000098e-01,-6.870888144460877978e-02,-2.702737205903764650e-01,-2.570928347132326874e-01
8.870000000000000107e-01,-8.985994435148716986e-02,-3.904732584008783758e-01,-1.204018170438804630e-01
8.880000000000000115e-01,-1.228690343613016295e-01,-3.059204616467126603e-01,3.404506093976573944e-02
8.890000000000000124e-01,-8.758053745779216526e-02,1.525829610528553308e-02,1.446942909042704950e-01
8.900000000000000133e-01,1.394275740486676692e-02,3.567586851323291675e-01,1.527450881650531112e-01
8.910000000000000142e-01,1.698663875716725224e-01,5.169120484767829593e-01,1.103225708415692674e-01
8.920000000000000151e-01,2.927858857415048810e-01,3.909114422379054710e-01,4.534361046678078819e-04
8.930000000000000160e-01,2.712059861138481631e-01,2.916032468208437645e-02,-5.349692424417588910e-02
8.940000000000000169e-01,4.377850403267409540e-02,-3.808315795142307447e-01,-4.327414478884399757e-02
8.950000000000000178e-01,-2.508553971736639521e-01,-5.769401108029533765e-01,-2.946417373947207707e-02
8.960000000000000187e-01,-4.446886706226402808e-01,-4.513656521580700076e-01,-6.007318124783438823e-02
8.970000000000000195e-01,-4.271370645619784745e-01,-4.853074385956921560e-02,-4.831137598647949893e-02
8.980000000000000204e-01,-1.255870443766489708e-01,4.376435133777260011e-01,-6.171204580237180798e-02
8.990000000000000213e-01,2.871805481053029685e-01,6.326071928316456816e-01,-2.172434229859452476e-02
9.000000000000000222e-01,6.045162675245572270e-01,4.926912267813983726e-01,6.507840294232600242e-02
9.010000000000000231e-01,5.820046553248289234e-01,6.530539857598045839e-02,1.351365416448322698e-01
9.020000000000000240e-01,2.041184448650402439e-01,-4.216244616723335281e-01,1.792619384556988493e-01
9.030000000000000249e-01,-3.271545695548408461e-01,-6.604661817597173856e-01,9.367750717156018980e-02
9.040000000000000258e-01,-6.930186665731121742e-01,-5.311252142030641332e-01,-6.411564633516241007e-02
9.050000000000000266e-01,-6.847654422624858128e-01,-7.637200076864165965e-02,-2.124740296124612293e-01
9.060000000000000275e-01,-2.704463205831608708e-01,4.133439968994181424e-01,-2.765921539170320131e-01
9.070000000000000284e-01,3.074888053239945296e-01,6.536147919552208752e-01,-1.663740713470709398e-01
9.080000000000000293e-01,7.448753180314339195e-01,5.133057547842763135e-01,3.987488021968347424e-02
9.090000000000000302e-01,7.751961736990621299e-01,9.355170560288172954e-02,2.706118131847229935e-01
9.100000000000000311e-01,3.546442443249686050e-01,-3.594913731248092770e-01,3.747968883487487468e-01
9.110000000000000320e-01,-2.728520119221249929e-01,-5.674298937498464257e-01,2.552446651330948502e-01
9.120000000000000329e-01,-7.472340933616641312e-01,-4.742114843458755669e-01,-3.544599848702442019e-02
9.130000000000000338e-01,-7.907843462939805335e-01,-9.275177735671598367e-02,-3.098876763944571899e-01
9.140000000000000346e-01,-3.914736410255645893e-01,2.915247809017832981e-01,-4.516121499142668472e-01
9.150000000000000355e-01,2.216031631641929012e-01,4.899005889587066398e-01,-3.201245927325109819e-01
9.160000000000000364e-01,7.121933267361340025e-01,3.970737133282704057e-01,-3.486739967152345521e-02
9.170000000000000373e-01,7.725380117543174663e-01,9.290881498100958535e-02,3.009928894874790428e-01
9.180000000000000382e-01,4.071685938131673343e-01,-2.068867395853222768e-01,4.676243959258963301e-01
9.190000000000000391e-01,-1.698161482894472718e-01,-3.807016870266117237e-01,3.777983014240695048e-01
9.200000000000000400e-01,-6.468429735527341240e-01,-3.221592585799739616e-01,7.494976904414335506e-02
9.210000000000000409e-01,-7.347162740858319552e-01,-9.735090626194337071e-02,-2.847266715632120748e-01
9.220000000000000417e-01,-4.202835993539655313e-01,1.556492625941830465e-01,-4.861705947402428230e-01
9.230000000000000426e-01,1.097369545356625536e-01,2.579733356188200211e-01,-4.312247958272183435e-01
9.240000000000000435e-01,5.505826196855093668e-01,2.152047519021625666e-01,-1.058916912206860350e-01
9.250000000000000444e-01,6.272635755010343983e-01,8.161029418098215971e-02,2.428934587441464454e-01
9.260000000000000453e-01,3.934158997251273049e-01,-2.579056556511089005e-02,4.847458736936871571e-01
9.270000000000000462e-01,-2.677321422679448601e-02,-1.154530449074716303e-01,4.304126280636296764e-01
9.280000000000000471e-01,-4.183503100601208557e-01,-7.838174443173639983e-02,1.581942995521135042e-01
9.290000000000000480e-01,-4.804354245546108015e-01,-5.873538176470383121e-02,-2.062104097495260357e-01
9.300000000000000488e-01,-3.136912142137020520e-01,-3.873424107008891643e-02,-4.264415652975421800e-01
9.310000000000000497e-01,4.358187560904889721e-03,-4.970664777857240063e-02,-4.165196436062700847e-01
9.320000000000000506e-01,2.539310153986696905e-01,-3.147709250417739246e-02,-1.754101204111890577e-01
9.330000000000000515e-01,3.219871169980130787e-01,3.804316668824739289e-02,1.537877161694869710e-01
9.340000000000000524e-01,2.300929009757687049e-01,1.351425806433916854e-01,3.529961420300347097e-01
9.350000000000000533e-01,4.189699337771208426e-02,2.030707525435509753e-01,3.723464738557472620e-01
9.360000000000000542e-01,-1.067390075104883845e-01,1.744679640963752165e-01,1.766979844162716307e-01
9.370000000000000551e-01,-1.461859244438856453e-01,-1.330794452115618455e-02,-9.250840329763332370e-02
9.379999999999999449e-01,-1.041788131858987082e-01,-2.114757010694876260e-01,-2.858714062939662903e-01
9.389999999999999458e-01,-6.428206448448023358e-02,-3.352543795416242367e-01,-2.967565386725368182e-01
9.399999999999999467e-01,-5.835992110375255726e-02,-2.797519421274576867e-01,-1.653416923482141643e-01
9.409999999999999476e-01,-3.709634210774468560e-02,-2.696421737267870947e-02,4.161126930902587368e-02
9.419999999999999485e-01,-1.233650619572198258e-02,2.761557363681996224e-01,1.801879432638135159e-01
9.429999999999999494e-01,7.783342576319887685e-02,4.756806443726926403e-01,1.866161546762721835e-01
9.439999999999999503e-01,1.908828352742474865e-01,3.861747918702342353e-01,1.269603112283460011e-01
9.449999999999999512e-01,2.506896687137783464e-01,6.482655234811672551e-02,2.880116525327711726e-03
9.459999999999999520e-01,1.578357668751388942e-01,-3.407392948300213553e-01,-7.524412504676673830e-02
9.469999999999999529e-01,-6.771745608403033356e-02,-5.656268491435876289e-01,-1.060784090643707295e-01
9.479999999999999538e-01,-3.006921126325317051e-01,-4.521678613275369463e-01,-7.349110517731856362e-02
9.489999999999999547e-01,-4.101072209008245761e-01,-9.434697543361854344e-02,-3.451023441528914409e-02
9.499999999999999556e-01,-2.904302422522245797e-01,3.557582755843804456e-01,-3.538894549284853780e-02
9.509999999999999565e-01,3.886304873326448805e-02,6.119288697001313837e-01,-1.835555615988006956e-02
9.519999999999999574e-01,3.890058974100064626e-01,5.190852668656421587e-01,7.378621802766470623e-04
9.529999999999999583e-01,5.640572303919850761e-01,1.060746573055453279e-01,4.961828548198500555e-02
9.539999999999999591e-01,4.287414419508588370e-01,-3.851760910167186247e-01,1.203556737431576845e-01
9.549999999999999600e-01,1.450438730839764476e-02,-6.509402211762606028e-01,1.483590792290361282e-01
9.559999999999999609e-01,-4.687490038165166850e-01,-5.594227065618861960e-01,8.118675336487249372e-02
9.569999999999999618e-01,-6.908226160520966053e-01,-1.290746370602282034e-01,-4.035955621570694318e-02
9.579999999999999627e-01,-5.380235211357056180e-01,3.629190887947350563e-01,-1.842580599464816171e-01
9.589999999999999636e-01,-6.613201730406580159e-02,6.340751164420542763e-01,-2.392727163769303722e-01
9.599999999999999645e-01,4.883168487000756897e-01,5.531263067496356989e-01,-1.768928872807669639e-01
9.609999999999999654e-01,7.633531694339131812e-01,1.508572109897504121e-01,2.078835093031602271e-02
9.619999999999999662e-01,6.183354917991110700e-01,-3.337300767018729353e-01,2.347906134640199427e-01
9.629999999999999671e-01,1.036029131584401131e-01,-5.853967305430657353e-01,3.318389933407362435e-01
9.639999999999999680e-01,-4.872223540741636438e-01,-5.051373704552518662e-01,2.543590615808670186e-01
9.649999999999999689e-01,-8.145144331849971664e-01,-1.525951782829644554e-01,3.475691143315694231e-02
9.659999999999999698e-01,-6.925633458661999420e-01,2.851771046191237668e-01,-2.572628839724229732e-01
9.669999999999999707e-01,-1.742734010407578638e-01,5.177823776694876479e-01,-4.025653090978841275e-01
9.679999999999999716e-01,4.635590200423014284e-01,4.536014892565950474e-01,-3.404874993741223155e-01
9.689999999999999725e-01,8.106034095331048350e-01,1.406107495258991369e-01,-7.967837002208180697e-02
9.699999999999999734e-01,6.971602015851725564e-01,-2.255309121603672751e-01,2.492964439156818701e-01
9.709999999999999742e-01,2.027318089835428161e-01,-4.295612698820538422e-01,4.585431325196587804e-01
9.719999999999999751e-01,-3.954596944020731808e-01,-3.662305869691854787e-01,3.997618819341289820e-01
9.729999999999999760e-01,-7.344389262557590170e-01,-1.146530778243452092e-01,1.239837795758674394e-01
9.739999999999999769e-01,-6.647778511781348154e-01,1.417793753426541681e-01,-2.425186758036704249e-01
9.749999999999999778e-01,-2.277991440977282511e-01,2.960714928821008840e-01,-4.652840816403365776e-01
9.759999999999999787e-01,3.206735668950171370e-01,2.803897797073928166e-01,-4.406236608895941487e-01
9.769999999999999796e-01,6.494555977928900825e-01,9.481131734915365650e-02,-1.771093910005067384e-01
9.779999999999999805e-01,5.986208253145198777e-01,-5.340975979635769616e-02,1.917778595705373623e-01
9.789999999999999813e-01,2.196070517758223761e-01,-1.591984156024671693e-01,4.643732195665516427e-01
9.799999999999999822e-01,-2.128945819452562338e-01,-1.511481208912004714e-01,4.490983983849362593e-01
9.809999999999999831e-01,-5.224042852610883969e-01,-6.950797538043906876e-02,2.264500090490729201e-01
9.819999999999999840e-01,-5.017675432125527912e-01,-2.657265255233799348e-02,-1.635722622999881137e-01
9.829999999999999849e-01,-2.335256181329227743e-01,-1.825439347358787448e-02,-4.155870323971098124e-01
9.839999999999999858e-01,1.605279018232404487e-01,1.684899321032568703e-02,-4.525453444092802924e-01
9.849999999999999867e-01,3.780604893974661707e-01,4.556381018707444941e-02,-2.203275180056315785e-01
9.859999999999999876e-01,3.609601872144292400e-01,9.218865911475611352e-02,1.152238319833786134e-01
9.869999999999999885e-01,1.773986008396982172e-01,1.510122274911845919e-01,3.614681062869855022e-01
9.879999999999999893e-01,-4.385342212132868622e-02,1.261133488460031149e-01,4.173038008865272430e-01
9.889999999999999902e-01,-1.918652198365779493e-01,-1.001855525393944776e-02,2.258270680459227575e-01
9.899999999999999911e-01,-2.041805539042924056e-01,-1.659985766836296339e-01,-5.740403514885767527e-02
9.909999999999999920e-01,-1.192417721050445523e-01,-2.881110899422671956e-01,-2.832074182429232256e-01
9.919999999999999929e-01,-2.586239806008154216e-02,-2.450468513564745265e-01,-3.284342968385297601e-01
9.929999999999999938e-01,5.336839482372898909e-03,-5.079398546827844363e-02,-1.958661334049440761e-01
9.939999999999999947e-01,2.043002797381684998e-02,2.452365516320958727e-01,-6.976151542945155729e-03
9.949999999999999956e-01,4.239848002252322168e-02,4.201174882962157020e-01,1.806020151488867409e-01
9.959999999999999964e-01,9.963433432469706585e-02,3.876492748832862101e-01,2.428374072212282631e-01
9.969999999999999973e-01,1.775705419218767123e-01,8.706654577811061280e-02,1.733226586608632436e-01
9.979999999999999982e-01,1.714005406826912825e-01,-2.967122549428133360e-01,2.078086683487145175e-02
9.989999999999999991e-01,4.180117387411384777e-02,-5.163792071643822368e-01,-1.037735645988365485e-01
1.000000000000000000e+00,-1.406177013456801628e-01,-4.549619739402471219e-01,-1.321631479754254157e-01
1.000999999999999890e+00,-3.099447632810560793e-01,-1.197971389115579516e-01,-1.013509236381646555e-01
1.002000000000000002e+00,-3.352176909815618999e-01,3.076846206604321177e-01,-4.247294882470434990e-02
1.002999999999999892e+00,-1.521886858683750843e-01,5.702173635066120072e-01,1.385648093199895979e-02
1.004000000000000004e+00,1.567208348412354735e-01,5.195915494048056749e-01,2.057443942679940130e-02
1.004999999999999893e+00,4.565475565977121231e-01,1.365254257640466651e-01,3.857956252101810840e-02
1.006000000000000005e+00,5.018425743934944450e-01,-3.344438292035272209e-01,3.220309332582391854e-02
1.006999999999999895e+00,2.531828354879689935e-01,-6.286174940029224389e-01,7.666999989722257658e-02
1.008000000000000007e+00,-1.851826438735539870e-01,-5.741504047819721013e-01,1.085939158373555036e-01
1.008999999999999897e+00,-5.635764238392405590e-01,-1.736886238969304608e-01,6.492222415076054354e-02
1.010000000000000009e+00,-6.552002356444158737e-01,3.080048917656461605e-01,-1.541851726288016693e-02
1.010999999999999899e+00,-3.650172503163742754e-01,6.351137705887545115e-01,-1.203617000463956810e-01
1.012000000000000011e+00,1.346053207495846449e-01,5.895437903526717927e-01,-2.009910830907463419e-01
1.012999999999999901e+00,6.146891734148417497e-01,2.048455173383978700e-01,-1.587422055610140104e-01
1.014000000000000012e+00,7.495499749036553805e-01,-2.993453960343466225e-01,-4.649192759176259092e-03
1.014999999999999902e+00,4.348393514865624976e-01,-6.082636615756130682e-01,1.753006778507648078e-01
1.016000000000000014e+00,-1.288583249741620529e-01,-5.597261867798599688e-01,3.046342820659598272e-01
1.016999999999999904e+00,-6.566892836137558920e-01,-1.906961332171815959e-01,2.463527910117280784e-01
1.018000000000000016e+00,-8.077666888403267631e-01,2.597123660990282024e-01,5.692930615399022926e-02
1.018999999999999906e+00,-5.248397026621064443e-01,5.604713613339000755e-01,-1.896003168378248283e-01
1.020000000000000018e+00,8.578102506138854388e-02,5.062605659194634455e-01,-3.754472373720899592e-01
1.020999999999999908e+00,6.444818013096806908e-01,1.882768270529784627e-01,-3.439662046399846185e-01
1.022000000000000020e+00,8.328574883121994121e-01,-2.048213982417148304e-01,-1.226940312097127006e-01
1.022999999999999909e+00,5.506182769996990078e-01,-4.559584362497652310e-01,2.083807066891658899e-01
1.024000000000000021e+00,-2.558253969686193410e-02,-4.364034910378196130e-01,4.170189035675159750e-01
1.024999999999999911e+00,-5.925555149416835699e-01,-1.676052417255924631e-01,4.139078147098852467e-01
1.026000000000000023e+00,-8.072353099604722138e-01,1.283423724148284595e-01,1.699743655641845486e-01
1.026999999999999913e+00,-5.598174013936610960e-01,3.471513988339086643e-01,-1.788918946293375500e-01
1.028000000000000025e+00,-1.825216208579771154e-02,3.028648480048426461e-01,-4.369540602883947855e-01
1.028999999999999915e+00,5.276648927478185813e-01,1.395685091930355115e-01,-4.389142050386454774e-01
1.030000000000000027e+00,7.323530050444631012e-01,-7.164249414950304984e-02,-2.151285493867977627e-01
1.030999999999999917e+00,5.231172022606958016e-01,-2.020372407685259442e-01,1.434229118010927617e-01
1.032000000000000028e+00,5.359358114599223344e-02,-1.873124369165805325e-01,4.319052595934451122e-01
1.032999999999999918e+00,-4.004795088411081116e-01,-1.053286584472506310e-01,4.803395969928349052e-01
1.034000000000000030e+00,-6.020661839329876086e-01,7.288461032405712213e-03,2.498673222797783700e-01
1.034999999999999920e+00,-4.560003279945586407e-01,5.739325863788089649e-02,-9.303581336643690358e-02
1.036000000000000032e+00,-7.127155674883038639e-02,6.970238273613306446e-02,-3.929543737987824525e-01
1.036999999999999922e+00,2.743403598606811711e-01,6.249285138408113005e-02,-4.634093541697643648e-01
1.038000000000000034e+00,4.671684289558973857e-01,6.874589921908512424e-02,-2.888079828044110564e-01
1.038999999999999924e+00,3.665545704787124826e-01,9.180454892707494430e-02,5.660534103237965797e-02
1.040000000000000036e+00,8.268397415548243978e-02,7.106019367309948653e-02,3.485261890690012354e-01
1.040999999999999925e+00,-1.698652076268792888e-01,-7.814154811037376386e-03,4.287743811287092477e-01
1.042000000000000037e+00,-2.839953034489076655e-01,-1.275429189159252852e-01,2.866324524681911901e-01
1.042999999999999927e+00,-2.267302939352041913e-01,-2.207866532376465130e-01,-1.448229420357885315e-02
1.044000000000000039e+00,-9.487793352887718967e-02,-1.946620743413219334e-01,-2.725294874640526999e-01
1.044999999999999929e+00,3.996864846781048725e-02,-4.572821761469788443e-02,-3.838102685028645933e-01
1.046000000000000041e+00,9.043494042572322589e-02,1.909344624914063593e-01,-2.639075644663975151e-01
1.046999999999999931e+00,7.819152323425837547e-02,3.484543042990971284e-01,-3.361908042671652580e-02
1.048000000000000043e+00,5.617301393481639871e-02,3.496535208192778077e-01,1.974923585879089782e-01
1.048999999999999932e+00,8.876374843528410385e-02,1.156426834450857144e-01,2.835879032432037650e-01
1.050000000000000044e+00,9.208481090570394545e-02,-2.340981740759081053e-01,2.178292470917706225e-01
1.050999999999999934e+00,7.481931231985511355e-02,-4.604336928690356823e-01,5.185318139431892986e-02
1.052000000000000046e+00,-2.470357645813665501e-02,-4.426928111701193824e-01,-1.168755130942149972e-01
1.052999999999999936e+00,-1.696590215111452027e-01,-1.425050453043981147e-01,-1.755104946816775091e-01
1.054000000000000048e+00,-2.794271234901879453e-01,2.523625974927317661e-01,-1.427266351235454978e-01
1.054999999999999938e+00,-2.398472244811008791e-01,5.663609457811846770e-01,-4.594998084602842231e-02
1.056000000000000050e+00,-2.462419139159448961e-02,5.261463711742579985e-01,2.429666115127749812e-02
1.056999999999999940e+00,2.591475423097946429e-01,2.054416181423352472e-01,6.900754374168752148e-02
1.058000000000000052e+00,4.541128464718527380e-01,-2.598738221515011215e-01,4.748670799307037199e-02
1.058999999999999941e+00,3.888900911697076856e-01,-6.035568661556446335e-01,4.064635864893317158e-02
1.060000000000000053e+00,9.166953871710144253e-02,-5.732476532140398096e-01,3.450131733987398669e-02
1.060999999999999943e+00,-2.986533215499734273e-01,-1.985815541641289539e-01,5.585029349810823746e-02
1.062000000000000055e+00,-5.915794109033236658e-01,2.901421794805888466e-01,4.142080716578292604e-02
1.062999999999999945e+00,-5.372856803143142290e-01,6.406669940290267151e-01,-2.740456720889354256e-02
1.064000000000000057e+00,-1.698864684686077486e-01,5.950457354258336107e-01,-8.246483495596976243e-02
1.064999999999999947e+00,3.324070017944227295e-01,2.495680995929913382e-01,-1.589034965034379077e-01
1.066000000000000059e+00,6.836756851020210357e-01,-2.566074137166423075e-01,-1.507296084363311806e-01
1.066999999999999948e+00,6.514248416896957217e-01,-6.156741998704663432e-01,-4.429249001810397351e-02
1.068000000000000060e+00,2.341799503127585946e-01,-6.127024195510275550e-01,1.332611327817860014e-01
1.068999999999999950e+00,-3.341481240670140518e-01,-2.607304498794561498e-01,2.433936981515328613e-01
1.070000000000000062e+00,-7.502627462196079788e-01,2.284988580998861263e-01,2.511233748959146861e-01
1.070999999999999952e+00,-7.285571125755718747e-01,5.732104584863413343e-01,7.122569472446223238e-02
1.072000000000000064e+00,-2.932699800498578258e-01,5.655539187019732461e-01,-1.668431489727166539e-01
1.072999999999999954e+00,3.175435414776890397e-01,2.439080515714855402e-01,-3.366587716522462803e-01
1.074000000000000066e+00,7.664822306612140146e-01,-1.792379753267950016e-01,-3.281718188869778285e-01
1.074999999999999956e+00,7.738898012398615078e-01,-4.941217699070730718e-01,-1.383810372800853283e-01
1.076000000000000068e+00,3.282170848712634426e-01,-4.728950978712453956e-01,1.429524199877671709e-01
1.076999999999999957e+00,-2.769184939750153340e-01,-2.192544811184096720e-01,3.736787489984370048e-01
1.078000000000000069e+00,-7.194431857215265458e-01,1.403984774437538052e-01,4.116220180700465026e-01
1.078999999999999959e+00,-7.926318541384083094e-01,3.869556288046768211e-01,2.096435155194334432e-01
1.080000000000000071e+00,-3.727513199355355633e-01,3.797783732767693876e-01,-1.175249921489808502e-01
1.080999999999999961e+00,2.235506567514848608e-01,1.851505141611812510e-01,-4.029360234810925867e-01
1.082000000000000073e+00,6.858331132480716130e-01,-9.254017743197454071e-02,-4.677383970483772746e-01
1.082999999999999963e+00,7.206745316906165710e-01,-2.405299115835875801e-01,-2.763838140828496215e-01
1.084000000000000075e+00,3.735032096293143811e-01,-2.490875086034944619e-01,9.327293569731150147e-02
1.084999999999999964e+00,-1.472636686693077901e-01,-1.258851492939759842e-01,4.022403912334476250e-01
1.086000000000000076e+00,-5.546516130217975515e-01,1.104719064522455968e-02,4.948120749253584472e-01
1.086999999999999966e+00,-6.380388397285635671e-01,1.074695768515923217e-01,2.967405093008842476e-01
1.088000000000000078e+00,-3.562439040739193707e-01,1.170575951301401768e-01,-5.039396948551661676e-02
1.088999999999999968e+00,9.043740178210042668e-02,8.741949480340441281e-02,-3.826593989436151699e-01
1.090000000000000080e+00,4.378971409244270530e-01,4.830245452117175320e-02,-4.878828437789515249e-01
1.090999999999999970e+00,5.188869091882378770e-01,2.709363181869279408e-02,-3.358617394962393754e-01
1.092000000000000082e+00,3.038722116020292074e-01,2.465910555807170404e-02,6.517721534627959716e-03
1.092999999999999972e+00,-3.741454707477742669e-02,2.251955415530816282e-03,3.141648229471019071e-01
1.094000000000000083e+00,-2.866756744036809690e-01,-1.010675426716878267e-01,4.593295608543429553e-01
1.094999999999999973e+00,-3.537425042771499273e-01,-1.625331557644944247e-01,3.403344542610655110e-01
1.096000000000000085e+00,-2.237654658245456785e-01,-1.758854381439444448e-01,3.242352771952751456e-02
1.096999999999999975e+00,-3.235741761618296519e-02,-6.138945860700077695e-02,-2.652181800504446740e-01
1.098000000000000087e+00,1.279311757474129174e-01,1.574572148166015484e-01,-3.921644039509036839e-01
1.098999999999999977e+00,1.493256846202718480e-01,3.163519587562106383e-01,-3.172058099771650763e-01
1.100000000000000089e+00,1.185843860763446389e-01,2.963466184536294734e-01,-6.975377224980387758e-02
1.100999999999999979e+00,5.067019162544911248e-02,1.058202638954408997e-01,1.856423197140748549e-01
1.102000000000000091e+00,3.968309859326935030e-02,-1.982553864136358812e-01,3.115259467418303729e-01
1.102999999999999980e+00,2.555391780648517963e-02,-4.115159316809670620e-01,2.603982062614407789e-01
1.104000000000000092e+00,-1.698304420064487841e-02,-4.373240769268021966e-01,8.318844535999675438e-02
1.104999999999999982e+00,-6.490192410302450532e-02,-1.686557236708607632e-01,-1.043341371562536840e-01
1.106000000000000094e+00,-1.800665234709543372e-01,2.165607025621677506e-01,-2.102409508590350473e-01
1.106999999999999984e+00,-2.283161917395530316e-01,5.274931414947273689e-01,-1.869115401301121582e-01
1.108000000000000096e+00,-1.269457347584204421e-01,5.215870506277929808e-01,-6.701294556489172105e-02
1.108999999999999986e+00,6.919870745235320864e-02,2.327415282456758994e-01,3.348715460478544903e-02
1.110000000000000098e+00,2.998757114074762642e-01,-2.194163043854782946e-01,8.944010941755897726e-02
1.110999999999999988e+00,3.898267610616387713e-01,-5.591881830629756855e-01,9.225077008429015402e-02
1.112000000000000099e+00,2.554046856670315613e-01,-5.815512437212686514e-01,5.913683622428150127e-02
1.112999999999999989e+00,-5.867214794828715801e-02,-2.675973338200524632e-01,1.374533570905870673e-02
1.114000000000000101e+00,-4.110564989430788851e-01,2.282564436374811268e-01,1.027733540345143401e-02
1.114999999999999991e+00,-5.660990095841501590e-01,6.082815543276861581e-01,6.246362640975508876e-03
1.116000000000000103e+00,-3.858274840380507831e-01,6.293685873773370298e-01,-1.958846363019950063e-02
1.116999999999999993e+00,3.216902525656242101e-02,3.009164890830619554e-01,-8.048660492984226200e-02
1.118000000000000105e+00,4.813301517149637943e-01,-2.048273627554473286e-01,-1.154347916972273264e-01
1.118999999999999995e+00,6.931670904056410620e-01,-6.021698057335777010e-01,-1.019854828999831181e-01
1.120000000000000107e+00,5.081750433637003406e-01,-6.145227942085847994e-01,-3.825600544587019064e-02
1.120999999999999996e+00,4.743229273954625326e-03,-3.146081032463541871e-01,8.941064241683403802e-02
1.122000000000000108e+00,-5.140394270665415988e-01,1.888733606611985860e-01,2.096022513935753562e-01
1.122999999999999998e+00,-7.800307091431132323e-01,5.531301088930724585e-01,2.289608784357454463e-01
1.124000000000000110e+00,-5.940173139926739898e-01,5.859146486614531524e-01,8.349151414417134431e-02
1.125000000000000000e+00,-5.605978905321054584e-02,2.989252424346389159e-01,-1.103190908728848146e-01
1.125999999999999890e+00,5.233699920932958216e-01,-1.576371829036428696e-01,-2.850460945432641835e-01
1.127000000000000002e+00,8.267086338422581226e-01,-4.947360580325602664e-01,-3.137654294668074106e-01
1.127999999999999892e+00,6.460899285982893980e-01,-5.292413490683022248e-01,-1.632675710577143890e-01
1.129000000000000004e+00,1.149031677260831802e-01,-2.575722771053843840e-01,1.080347540601384326e-01
1.129999999999999893e+00,-5.052486913995402062e-01,1.401890408255261067e-01,3.463771924002623237e-01
1.131000000000000005e+00,-7.990206549745575426e-01,4.031186204212255930e-01,3.929486417303333923e-01
1.131999999999999895e+00,-6.814127987854931012e-01,4.290110504692318250e-01,2.307269221064472131e-01
1.133000000000000007e+00,-1.659848919012425206e-01,2.265358520394573083e-01,-8.324659064427229749e-02
1.133999999999999897e+00,4.289329528548131987e-01,-9.506155453735462557e-02,-3.753292979396634643e-01
1.135000000000000009e+00,7.784285411168043733e-01,-3.004695495082156387e-01,-4.602030492352887636e-01
1.135999999999999899e+00,6.644965569344757350e-01,-3.028405348695787924e-01,-3.096616545273622734e-01
1.137000000000000011e+00,1.843815365914530102e-01,-1.783833862694678973e-01,3.645107705750146726e-02
1.137999999999999901e+00,-3.662273247646953278e-01,2.632712702188617568e-02,3.659307292169802772e-01
1.139000000000000012e+00,-6.913683878945267036e-01,1.560900125637585401e-01,4.899587152018747283e-01
1.139999999999999902e+00,-6.062255871598520862e-01,1.700175326597181680e-01,3.554971969715960967e-01
1.141000000000000014e+00,-2.069120720965166027e-01,1.265998880374902269e-01,8.729972463322738588e-03
1.141999999999999904e+00,2.729711443426582340e-01,2.315471393742910347e-02,-3.464234659938161265e-01
1.143000000000000016e+00,5.437865672647893556e-01,-2.530841704193689812e-02,-5.059051212196464808e-01
1.143999999999999906e+00,5.029375002193812172e-01,-2.536935806871348439e-02,-3.711107696875703965e-01
1.145000000000000018e+00,1.831620731854536055e-01,-4.790982516228507043e-02,-6.009900778962572881e-02
1.145999999999999908e+00,-1.632697985603169533e-01,-6.206516278010397458e-02,2.990623082444416880e-01
1.147000000000000020e+00,-3.973014958022971221e-01,-1.143973698247125054e-01,4.829343522650811904e-01
1.147999999999999909e+00,-3.802312355785115727e-01,-1.265174477993835644e-01,3.808262234140305513e-01
1.149000000000000021e+00,-1.548842001643133404e-01,-3.089649396701562092e-02,8.738904409752584757e-02
1.149999999999999911e+00,8.240499317349488095e-02,1.096490050697309510e-01,-2.377060306480240359e-01
1.151000000000000023e+00,2.142384888962076961e-01,2.557623514589720815e-01,-4.042859760462834129e-01
1.151999999999999913e+00,2.373318743273025444e-01,2.692907944285968802e-01,-3.741084651394315785e-01
1.153000000000000025e+00,1.154186190867760309e-01,1.263941934998411565e-01,-1.267124213125669363e-01
1.153999999999999915e+00,1.932506402832629517e-03,-1.390758424587018593e-01,1.742967483391735795e-01
1.155000000000000027e+00,-4.973411142864924556e-02,-3.612926112506563703e-01,3.375487596554049285e-01
1.155999999999999917e+00,-4.194373018818637472e-02,-3.771980557087148411e-01,3.006768163691491136e-01
1.157000000000000028e+00,-3.969348232138774496e-02,-1.778331281175509204e-01,1.300272233201998362e-01
1.157999999999999918e+00,-1.008719959685703410e-01,1.702479016657275357e-01,-1.065233802196961094e-01
1.159000000000000030e+00,-1.435370329516827970e-01,4.512177929395572717e-01,-2.444198982402432663e-01
1.159999999999999920e+00,-1.407045298295467872e-01,4.922687691323023307e-01,-2.444661212521151428e-01
1.161000000000000032e+00,-3.187051905941976071e-02,2.438773269451365855e-01,-1.061548729681371095e-01
1.161999999999999922e+00,1.549158653505695038e-01,-1.881215852945453959e-01,4.806458753270873713e-02
1.163000000000000034e+00,3.026241538527722486e-01,-5.235936690336562283e-01,1.424601478712521352e-01
1.163999999999999924e+00,3.193360161401825326e-01,-5.647462583487872223e-01,1.542650650717825311e-01
1.165000000000000036e+00,1.194702422789543500e-01,-3.003990432950134348e-01,7.902982373093686563e-02
1.165999999999999925e+00,-1.773131698628298281e-01,1.700238757069385820e-01,9.711340222026899199e-03
1.167000000000000037e+00,-4.518056027053561352e-01,5.754938463547933925e-01,-3.518743981833881429e-02
1.167999999999999927e+00,-4.737000261648652288e-01,6.206998687991006625e-01,-3.661325781433284743e-02
1.169000000000000039e+00,-2.278191722895030469e-01,3.272883876351146415e-01,-2.827997043608039204e-02
1.169999999999999929e+00,1.996848285026526226e-01,-1.771033459208064542e-01,-5.357358869026897924e-02
1.171000000000000041e+00,5.656437102492440916e-01,-5.904668270397964713e-01,-6.853647125522856209e-02
1.171999999999999931e+00,6.222037297910509857e-01,-6.575499586131257068e-01,-8.120612060095838691e-02
1.173000000000000043e+00,3.373536258170411473e-01,-3.368970026856934474e-01,-1.676986377864642455e-02
1.173999999999999932e+00,-2.027804230587860468e-01,1.575166380642033237e-01,6.585571023048027162e-02
1.175000000000000044e+00,-6.353155646971494486e-01,5.519014825371028055e-01,1.666205471849110664e-01
1.175999999999999934e+00,-7.281615546462681943e-01,6.204215283888246946e-01,1.996319561191773340e-01
1.177000000000000046e+00,-4.053899676510452910e-01,3.410436926200030028e-01,1.229159145726960167e-01
1.177999999999999936e+00,1.550718419287645256e-01,-1.301116229814095471e-01,-6.951790282695526069e-02
1.179000000000000048e+00,6.599267664204451211e-01,-4.867343748552405147e-01,-2.402744920892403435e-01
1.179999999999999938e+00,8.008527451221706395e-01,-5.663178248821703065e-01,-2.998066668142413405e-01
1.181000000000000050e+00,4.688381625310615308e-01,-3.215728946183445958e-01,-1.896012522541823120e-01
