time,acc_x,acc_y,acc_z
0.000000000000000000e+00,8.125588723868176766e-03,2.969785926195904827e-02,4.939661267286083596e-03
1.000000000000000021e-03,4.237689035443032576e-02,3.923782601043984686e-02,3.418345451713842437e-02
2.000000000000000042e-03,5.440386321160348843e-02,3.290295548263572067e-02,4.234937249358313588e-02
3.000000000000000062e-03,7.899223080929310484e-03,-1.189669124063691928e-02,-3.103866484895289810e-02
4.000000000000000083e-03,-8.374780037974047242e-02,-4.184374360455973135e-02,-3.034587600790312686e-02
5.000000000000000104e-03,-2.621723686529702987e-02,-4.093759959207873833e-02,-3.320580895000624366e-02
6.000000000000000125e-03,1.341876221798307678e-02,1.497740539974497763e-02,1.212295060727713696e-02
7.000000000000000146e-03,6.693776238180287885e-02,5.145745212514515193e-02,6.347251307032647505e-03
8.000000000000000167e-03,3.463806382002010409e-02,-6.321898475101748148e-03,3.954534888075406790e-02
8.999999999999999320e-03,-2.483318032829248331e-02,-8.682909000154647935e-04,-1.193559645081648281e-02
1.000000000000000021e-02,-2.670759526261701211e-02,-6.634433272874906695e-02,-2.260428394804548866e-02
1.099999999999999936e-02,-4.308322861492241973e-02,-1.189318656612890074e-02,-2.639020848675190448e-02
1.200000000000000025e-02,-8.046085849770111612e-03,4.181604400268460094e-03,1.265964382254708073e-02
1.299999999999999940e-02,4.433283133344605165e-02,3.702544503362888845e-02,4.183517178132125508e-02
1.400000000000000029e-02,5.566839069195859968e-02,5.220919772642720891e-02,4.438409701122145862e-02
1.499999999999999944e-02,-3.115762486395768499e-02,-3.579090801131586813e-02,-5.903818832856356710e-03
1.600000000000000033e-02,-5.403778943689056813e-02,-7.384269881521009216e-02,-4.132483194557529799e-02
1.700000000000000122e-02,-3.764795225212134305e-02,-2.767063786049884372e-02,-3.011558081280674842e-02
1.799999999999999864e-02,9.001889090297756149e-03,4.442861204784664952e-02,1.664593228732600197e-02
1.899999999999999953e-02,5.650324138074795666e-02,3.115391282547902777e-02,3.569290818680967772e-03
2.000000000000000042e-02,3.767767284819550228e-02,-1.055979697917885929e-02,3.005274663340135738e-02
2.100000000000000130e-02,-3.999027546452436910e-02,-3.860699926392900660e-02,1.553600685564518989e-02
2.199999999999999872e-02,-5.182444662107499322e-02,-3.555803819331728594e-02,-2.717868097392482987e-02
2.299999999999999961e-02,-4.022306755668556694e-02,-2.828496346790160265e-02,-1.174191016065332348e-02
2.400000000000000050e-02,4.327699538015554459e-02,2.036975571422899867e-02,-2.328360544645646443e-02
2.500000000000000139e-02,5.302708249569532822e-02,4.430213535469828406e-02,1.125601148195327396e-02
2.599999999999999881e-02,5.683812855590980595e-02,2.121459446013322994e-02,5.945671880430943024e-02
2.699999999999999969e-02,2.515942787722429130e-03,-1.710277520428429843e-02,7.167591980026753393e-03
2.800000000000000058e-02,-5.176413856342159531e-02,-6.135938944341507578e-02,-6.052436730697449696e-02
2.900000000000000147e-02,-6.450484817369817048e-02,-1.831085762943814380e-02,-2.416702463906494555e-02
2.999999999999999889e-02,3.231739502226547989e-02,2.220453898990825889e-02,3.606039132093751681e-02
3.099999999999999978e-02,3.664448852650611238e-02,3.683222318089201391e-02,2.569309127355828490e-02
3.200000000000000067e-02,2.728270512104244427e-02,2.529357968973053143e-03,2.962457600085326506e-02
3.300000000000000155e-02,-1.216452623029661874e-02,-8.533674433981286445e-03,8.719592281595946182e-03
3.400000000000000244e-02,-7.231682688085561139e-02,-5.170992676744072536e-02,-4.387637075884109200e-02
3.500000000000000333e-02,-3.070743772761926407e-02,-2.003001276466505332e-02,-1.518654391807297034e-02
3.599999999999999728e-02,4.802271029631335897e-02,1.039601443895496469e-02,-2.517875002744692989e-02
3.699999999999999817e-02,6.572361056229968079e-02,1.471114732506987287e-02,3.150731735935059091e-02
3.799999999999999906e-02,4.911597071176725809e-02,9.196629678629369281e-03,6.056784158959477998e-02
3.899999999999999994e-02,-9.264507900732681100e-03,-1.778818069474686833e-02,-1.219040336647576016e-02
4.000000000000000083e-02,-6.318640423022729713e-02,-1.457444622582167865e-02,-9.447102069468561736e-03
4.100000000000000172e-02,-8.820285295411950735e-03,1.584308926796910641e-02,-1.862317101524666244e-02
4.200000000000000261e-02,2.485054235138453929e-02,2.854570519109700388e-02,1.824166033095729958e-02
4.299999999999999656e-02,6.504090128447530261e-02,7.026773526556004401e-02,1.988022789289862514e-03
4.399999999999999745e-02,3.040628218576400810e-02,2.813478906115138983e-02,3.049971198301244454e-02
4.499999999999999833e-02,-2.684577234355800014e-03,-3.064994630861596001e-02,-1.331981284187138109e-03
4.599999999999999922e-02,-5.286397674816472464e-02,-4.501011425679316696e-02,-4.348361619815017953e-02
4.700000000000000011e-02,-6.403699933584790227e-02,-1.968018862462370816e-02,-1.429439545831883741e-02
4.800000000000000100e-02,-1.666542675347166755e-02,2.192485234377096470e-02,-1.850711907957027641e-02
4.900000000000000189e-02,4.901281181352878241e-02,3.861431304365930961e-02,6.602044480097152626e-03
5.000000000000000278e-02,3.101149888431879026e-02,2.554519463634645146e-02,1.226846127863105707e-02
5.099999999999999672e-02,-1.728264223431847518e-02,-5.466968919645129321e-02,1.776984006689028700e-02
5.199999999999999761e-02,-5.022136730027251805e-02,-3.646586052375361958e-02,-3.275772349024910074e-02
5.299999999999999850e-02,-2.946409105380444829e-02,-2.055127366828796848e-02,-4.219235326389213919e-02
5.399999999999999939e-02,1.595351480543290637e-02,5.135357247356299448e-02,8.120759833725644042e-03
5.500000000000000028e-02,4.343585703466480707e-02,2.852160401325214839e-02,3.863487629871770190e-02
5.600000000000000117e-02,6.626928068228819801e-02,-3.758658592847853933e-03,3.215976850633083667e-02
5.700000000000000205e-02,-4.562584849208536908e-02,-4.595846034623904397e-02,1.326148606902216587e-02
5.800000000000000294e-02,-6.326554399331701939e-02,-3.079816930824476676e-02,-5.432122191493528318e-02
5.899999999999999689e-02,-4.977400933974365088e-02,-2.725065327584222027e-02,3.857600839026151598e-03
5.999999999999999778e-02,4.182827464797236189e-02,4.471670480173544487e-02,-3.561621467280177977e-02
6.099999999999999867e-02,7.681473624832318992e-02,5.283905845127963991e-02,2.374991291488551953e-02
6.199999999999999956e-02,3.914308277054764224e-02,-8.251803467068696482e-03,5.380515577334806648e-02
6.300000000000000044e-02,-1.931734456358542374e-03,6.582603594238542076e-04,-5.990688432729215614e-04
6.400000000000000133e-02,-2.556633126332456124e-02,-6.728539119903234611e-02,-3.427127407762838723e-02
6.500000000000000222e-02,-2.661086049509205770e-02,-1.306926063717629878e-02,-5.951699620203257379e-02
6.600000000000000311e-02,2.857777190246314422e-02,2.822025457246044380e-02,-1.750010965716142231e-02
6.700000000000000400e-02,4.875516806223991612e-02,2.879604364068526559e-02,6.746584592767935346e-03
6.800000000000000488e-02,4.410253161498971924e-02,-5.735188441774977282e-03,1.377242229212439530e-02
6.900000000000000577e-02,-1.389806658085826312e-02,-2.176491897671009590e-02,8.142029319778028990e-03
7.000000000000000666e-02,-8.202643147301413862e-02,-6.048916036627444842e-02,-1.998151695834740268e-02
7.099999999999999367e-02,-3.211854851772696223e-02,-5.542071233908122882e-03,-6.773075351472723467e-04
7.199999999999999456e-02,5.490636916550322745e-03,4.149038835821328153e-02,9.902469907796741105e-03
7.299999999999999545e-02,2.321432016530703898e-02,5.707414829535958911e-02,2.141681365524352593e-02
7.399999999999999634e-02,3.454709472011894406e-02,2.506179365594245721e-03,1.437350469887591770e-02
7.499999999999999722e-02,9.749992123548694573e-03,-4.820780060583469001e-02,1.688085610826400851e-02
7.599999999999999811e-02,-3.185931746753969951e-02,-7.901519877725594887e-02,-2.552259427345837314e-02
7.699999999999999900e-02,-5.373275219555678772e-02,-1.529155236143864803e-02,-3.840428443773655914e-02
7.799999999999999989e-02,2.646660542314487486e-03,3.089584815265627657e-02,2.411126926279355716e-03
7.900000000000000078e-02,6.858753660727853751e-02,3.680564529530867823e-02,1.319652449723381082e-02
8.000000000000000167e-02,4.426586222313987767e-02,-1.561767685859459000e-02,2.118708766063840537e-02
8.100000000000000255e-02,-1.766534016891644840e-02,-1.638972075367314124e-02,3.448506195373306216e-02
8.200000000000000344e-02,-8.219767343359819789e-02,-1.308444262269138451e-02,-1.505295683502333275e-02
8.300000000000000433e-02,-5.984783132727546778e-02,-1.516652272538957132e-02,-7.952766350399646800e-02
8.400000000000000522e-02,-1.687037965811540030e-02,7.210412917386825604e-02,-2.546116535507237516e-02
8.500000000000000611e-02,6.137193003825179571e-02,2.689195281916551428e-03,2.564939238669240035e-02
8.599999999999999312e-02,2.518617565597704513e-02,-1.650773066409247369e-02,4.948053783249552889e-02
8.699999999999999400e-02,-4.604423820361470965e-02,-4.059303999667985413e-02,4.434879993806433579e-02
8.799999999999999489e-02,-7.727280954228464560e-02,-3.020193532682629786e-02,2.364902701662344869e-03
8.899999999999999578e-02,-2.250731005754096417e-02,1.722652209677373591e-02,-4.854839268007032915e-02
8.999999999999999667e-02,2.981833739689301530e-02,5.615893322081762229e-02,-2.355116099266475055e-02
9.099999999999999756e-02,6.415988142810016837e-02,2.362938903764372212e-02,1.540223604443048157e-02
9.199999999999999845e-02,-5.644583386383111162e-03,-2.015340997786711774e-03,1.922097892522912910e-02
9.299999999999999933e-02,-1.852611674445294246e-02,-4.243560335879013184e-02,2.512944518501483964e-03
9.400000000000000022e-02,-1.009659242241425087e-01,-4.254792883095605965e-02,6.345315251515801268e-04
9.500000000000000111e-02,-2.480313710109083650e-02,3.413072466598110911e-03,-7.607271831069191415e-02
9.600000000000000200e-02,4.650391790396377067e-04,3.610268278994865215e-02,-1.925299051278631796e-02
9.700000000000000289e-02,5.273842670776793945e-02,7.592376267104118670e-02,-2.677604749374238972e-03
9.800000000000000377e-02,4.086984340511431307e-02,-2.469113939658160867e-02,3.256587461740926420e-02
9.900000000000000466e-02,-1.089117881055023766e-02,-6.724365527726545999e-02,2.136884057786529734e-02
1.000000000000000056e-01,-4.378195991378248247e-02,-2.632193726174122603e-02,-6.825524413076534958e-02
1.010000000000000064e-01,-5.564599476288129010e-02,8.667661426373830455e-03,-3.083673085605126429e-02
1.019999999999999934e-01,5.317678935118793498e-02,4.395772778127585850e-02,-3.616872381856929553e-02
1.029999999999999943e-01,7.221556275948000370e-02,2.202935811993600446e-02,1.469161313031127573e-03
1.039999999999999952e-01,2.997202818164192151e-02,-3.746098821954269627e-03,3.798853531919672843e-02
1.049999999999999961e-01,-2.272873176774107065e-02,-2.383192643873678282e-02,1.533439689090713293e-02
1.059999999999999970e-01,-2.143811649148368026e-02,-1.191531739338336747e-02,-1.652103394066638947e-02
1.069999999999999979e-01,-6.573043660569929947e-02,3.201812053298716196e-03,-2.957853585150637885e-02
1.079999999999999988e-01,1.745279197565665838e-02,3.211871858256535456e-02,6.527606327243526581e-03
1.089999999999999997e-01,4.212135352229066931e-02,9.726946941795240956e-03,1.694670357144597780e-02
1.100000000000000006e-01,4.315741628931497181e-02,8.250793146990937840e-03,4.514383896801216212e-02
1.110000000000000014e-01,-1.990980006777341715e-02,-4.337505393481665139e-02,2.074671518364650663e-02
1.120000000000000023e-01,-8.137488469537518254e-02,-3.128876159869295459e-02,-3.886476706123314501e-02
1.130000000000000032e-01,-3.287193581402633041e-02,2.671473187757165621e-02,-2.229883388734002492e-02
1.140000000000000041e-01,3.389714681596300155e-02,2.949318987086105640e-02,-4.549312281510393269e-02
1.150000000000000050e-01,3.171518156186625692e-02,3.357893807257322002e-03,2.115757050984641910e-02
1.160000000000000059e-01,5.912942960616780763e-02,-3.043638821480337299e-03,3.980613175297768869e-02
1.170000000000000068e-01,-2.869994286311138357e-02,-2.454382939940890143e-02,2.101271223041404138e-02
1.179999999999999938e-01,-4.683172962203790285e-02,-2.922522122536120107e-02,-3.965516770535462004e-02
1.189999999999999947e-01,-5.078802589250305810e-02,-1.050110919831304460e-02,-5.053739774271934909e-02
1.199999999999999956e-01,2.029087736387036323e-02,3.403263421395411048e-02,-4.497422537660716174e-02
1.209999999999999964e-01,6.383230234476544585e-02,1.878749486540779584e-02,2.061125969982861503e-02
1.219999999999999973e-01,4.213719497866949548e-02,-2.549167682621938588e-02,5.764442344060235340e-02
1.229999999999999982e-01,-1.118726611413269761e-02,-4.584012951025369376e-02,6.804093998955883238e-02
1.239999999999999991e-01,-5.468462279516222296e-02,9.613006999951285297e-03,-8.152015809722889736e-03
1.250000000000000000e-01,-3.252610819082377147e-02,4.323972119971937478e-02,1.075284285230380900e-03
1.260000000000000009e-01,4.964805898560079728e-03,5.946802163172989347e-02,-2.587132079170413254e-02
1.270000000000000018e-01,4.081658025528948214e-02,1.401753256219210632e-02,1.733051621567930842e-02
1.280000000000000027e-01,4.075650731141339245e-02,-6.409377663606490028e-02,1.406909852980093439e-02
1.290000000000000036e-01,-2.856374262500572126e-03,-7.504396349270336941e-02,4.675569650653786657e-02
1.300000000000000044e-01,-8.097789405756850023e-02,-4.046845100733771627e-02,-3.453443860030907392e-02
1.310000000000000053e-01,-3.467552660991542191e-02,2.246257740776870515e-02,-2.890713583294180974e-02
1.320000000000000062e-01,3.104196711643700257e-02,6.176567624381876231e-02,-3.490260922535919769e-02
1.330000000000000071e-01,3.991030435235397300e-02,6.698028602316621893e-03,3.080372372765550690e-03
1.340000000000000080e-01,8.038609641159266250e-04,-5.226950886256386680e-02,2.454076512572975904e-02
1.350000000000000089e-01,-4.899940615440930014e-02,-4.754030204855076019e-02,4.520687776800565161e-02
1.360000000000000098e-01,-8.192536668429914459e-02,-2.905831264150146587e-02,1.582273923192687153e-03
1.370000000000000107e-01,-5.464372361535716621e-02,-2.026144945270045737e-04,-3.185865036080386820e-02
1.380000000000000115e-01,2.476163214976121515e-03,4.681594265103870139e-02,-4.516901194767232453e-02
1.390000000000000124e-01,9.210116453820081650e-02,2.195013436354125227e-02,-1.521809408566440931e-02
1.400000000000000133e-01,1.281037904297713248e-02,-2.435988724811020273e-02,4.475417050685212561e-02
1.409999999999999865e-01,-4.443921252924899756e-02,-1.366586389034363941e-02,4.054958293087645993e-02
1.419999999999999873e-01,-6.748761365541185164e-02,1.029004521981826369e-02,-2.369882970369635231e-02
1.429999999999999882e-01,-2.771393636869398658e-02,2.838649339220021897e-02,-2.303685491634288596e-02
1.439999999999999891e-01,1.442758917754459642e-02,2.245154983598253093e-02,-5.398830945063985004e-02
1.449999999999999900e-01,6.545209020778276765e-02,3.199623089365412343e-02,-5.642640115145863312e-03
1.459999999999999909e-01,3.330089555227416093e-02,-2.121621725699332842e-02,1.033519494408901250e-02
1.469999999999999918e-01,-2.587521121410934002e-02,-4.332043154607320701e-02,4.301936266340321974e-02
1.479999999999999927e-01,-7.998233875037928653e-02,-1.203686480249916216e-02,2.264998791356091605e-03
1.489999999999999936e-01,-1.930693798620450406e-03,5.076938600498335369e-02,-3.517910219441643810e-02
1.499999999999999944e-01,2.505235753034297519e-02,5.254773737332599226e-02,-5.271769701034026423e-02
1.509999999999999953e-01,7.487090436023356721e-02,1.114272247668741597e-02,3.772172493723517650e-02
1.519999999999999962e-01,2.381206700382566127e-02,-5.704389475794729991e-02,4.240581545475833464e-02
1.529999999999999971e-01,-2.085313542349154226e-02,-2.920576192043033981e-02,5.095743308463694665e-02
1.539999999999999980e-01,-3.617613642655687772e-02,-7.078178870974420264e-03,3.288426080882942814e-03
1.549999999999999989e-01,-4.019549708449471348e-02,1.718892499493613474e-02,-3.091304429055957703e-02
1.559999999999999998e-01,7.960089951192439103e-03,8.054981618918719000e-02,-1.293120873300588995e-02
1.570000000000000007e-01,4.773995953690610139e-02,7.178583101245033724e-03,-1.973850970882085401e-02
1.580000000000000016e-01,3.054004715968747577e-02,-1.158410699419825003e-02,1.899363583016417875e-02
1.590000000000000024e-01,-4.150426002240086704e-02,-3.860272023263977559e-02,4.384687468638262704e-03
1.600000000000000033e-01,-4.216596923152555326e-02,-3.554501170052818890e-03,1.170730347018180718e-02
1.610000000000000042e-01,-1.846848245340853428e-02,5.161292882208667193e-02,-4.064434567745488919e-02
1.620000000000000051e-01,-1.742393083746991353e-02,2.771710862128127714e-02,-2.905769226488679260e-02
1.630000000000000060e-01,6.090079617816292895e-02,-2.213672768284168785e-03,-2.964221584551168451e-02
1.640000000000000069e-01,3.581472063852431803e-02,-2.230943925334937655e-02,3.433584199897191797e-02
1.650000000000000078e-01,-2.593813715210912738e-02,-2.865721644020515976e-02,3.582385565871253758e-02
1.660000000000000087e-01,-5.600770929757170613e-02,-1.833315722942787740e-03,6.994602051417078865e-03
1.670000000000000095e-01,-5.713316586551707432e-02,6.483245478712969245e-02,-1.724774869221710333e-02
1.680000000000000104e-01,1.148286873267134744e-02,5.823900782257427494e-02,-6.341012904132053984e-02
1.690000000000000113e-01,5.113057963149953561e-02,-1.541560995039240912e-02,-1.306198633424677895e-02
1.700000000000000122e-01,2.879742199511748854e-02,-6.717544724722311622e-02,4.599211437465752089e-02
1.710000000000000131e-01,-1.956185571136111537e-02,-1.399720973501408783e-02,3.822587812053430262e-02
1.719999999999999862e-01,-5.776058453021040706e-02,3.784120260981342632e-03,4.104263632100108028e-02
1.729999999999999871e-01,-6.534856638141374463e-02,1.906894813359723967e-02,-1.356384304417346948e-02
1.739999999999999880e-01,4.242404574353914742e-02,3.944709728418769462e-02,-6.615221323255483787e-02
1.749999999999999889e-01,5.399376992630531419e-02,1.316230758903408869e-02,-4.407297166923954818e-03
1.759999999999999898e-01,3.531816095514884318e-02,-2.582490708191563164e-02,1.000710092370452227e-02
1.769999999999999907e-01,-1.503868721561917206e-02,-1.376936602199824514e-02,5.632777787383638768e-02
1.779999999999999916e-01,-4.060535284217174634e-02,7.304491403637015066e-03,-4.296728602964428913e-03
1.789999999999999925e-01,-3.687126262888559131e-02,3.888199772656161790e-02,1.071951969231589412e-02
1.799999999999999933e-01,-1.085916314811829955e-03,9.347675530382073064e-03,-3.392004750163667842e-02
1.809999999999999942e-01,3.825801711125616927e-02,-9.236185504351044490e-03,-2.884828734438985368e-02
1.819999999999999951e-01,3.918598508440462869e-02,-4.097062204374424949e-02,2.652991821306120365e-02
1.829999999999999960e-01,-1.366782672583966886e-02,-4.298335866590322768e-02,2.342715056413122859e-02
1.839999999999999969e-01,-4.373037713512197000e-02,1.196470181787848662e-02,2.297521064154855325e-02
1.849999999999999978e-01,-4.405396007937190800e-02,3.567143000706178568e-02,-3.517742086470086044e-02
1.859999999999999987e-01,5.103412084640310958e-02,3.895168807686645585e-02,-3.150614961533808323e-02
1.869999999999999996e-01,4.050587767567535857e-02,1.352299942170120083e-02,-1.309681097016676503e-02
1.880000000000000004e-01,2.953223148365183987e-02,-3.419904473611699858e-03,8.574469942711257509e-03
1.890000000000000013e-01,-1.603334945456357657e-02,-3.786310771925071456e-02,3.831799131551660853e-02
1.900000000000000022e-01,-6.820848172638527274e-02,2.218342313937182037e-02,2.178080707618383974e-02
1.910000000000000031e-01,-2.979950284010125794e-02,2.711941511205824204e-02,-2.142337627763239022e-02
1.920000000000000040e-01,7.879114282913556727e-03,9.886604810094472631e-03,-3.997137083717668821e-02
1.930000000000000049e-01,5.853201946863414301e-02,3.247819782352382584e-02,-4.705832515589907644e-02
1.940000000000000058e-01,2.476903243568176483e-02,-6.052423768604055232e-02,3.230213196070667175e-02
1.950000000000000067e-01,-5.461757100663132587e-03,-1.746399507642411308e-02,5.701320560589054516e-04
1.960000000000000075e-01,-4.585327511171472664e-02,3.795773281055043330e-02,-8.250173902729896445e-04
1.970000000000000084e-01,-2.886200825038082174e-02,3.981225007673734606e-02,-2.774448400077751328e-02
1.980000000000000093e-01,1.324478618824851545e-02,1.934023292040035202e-02,-4.778378019973773122e-02
1.990000000000000102e-01,3.136272497366734968e-02,-2.520830105234473859e-02,-2.643591074716390363e-02
2.000000000000000111e-01,9.194845371774493237e-03,-3.633307018434417390e-02,3.730846232257375994e-03
2.010000000000000120e-01,-3.328683695632474182e-02,-1.280533466900962009e-02,3.008565297071309416e-02
2.020000000000000129e-01,-5.874373899214895695e-02,2.779623690721986715e-02,3.041243832919613560e-02
2.030000000000000138e-01,-5.347137420005910330e-02,3.642464034203613671e-02,-1.651122097847948847e-02
2.039999999999999869e-01,4.055867065081220774e-02,1.029324458584219594e-02,-2.592300808428746328e-02
2.049999999999999878e-01,5.799901112939064712e-02,-3.033974449626331699e-02,-2.342792668719946916e-02
2.059999999999999887e-01,4.058005507954454139e-02,-1.803319691180127818e-02,-4.849187298086561973e-03
2.069999999999999896e-01,-3.157555831119805700e-02,-2.881223663322054346e-02,2.516156206167004597e-02
2.079999999999999905e-01,-3.435594804364835997e-02,2.393817743186762298e-02,2.375155479554532691e-03
2.089999999999999913e-01,-7.167833973345948129e-02,6.070729333221337731e-02,-1.891682157781462634e-02
2.099999999999999922e-01,-3.635885525314270540e-03,3.099897079370169534e-02,-3.570637877270344679e-02
2.109999999999999931e-01,5.197041646160079770e-02,-2.121567519291179746e-02,-2.813283024713866473e-02
2.119999999999999940e-01,2.893070645304332209e-02,-5.456533188753528996e-02,-4.081151388384253453e-03
2.129999999999999949e-01,-8.725914790700664211e-03,-1.678490475252613148e-02,3.288553451600463584e-02
2.139999999999999958e-01,-5.547015598771440348e-02,5.184524114548195312e-02,2.625249042001346483e-02
2.149999999999999967e-01,2.751281108757388464e-04,4.121781720462702053e-02,8.385024740032559140e-03
2.159999999999999976e-01,4.378830397853085421e-02,2.901102717670498571e-02,-2.054757356291672318e-02
2.169999999999999984e-01,4.938274053138847625e-02,-1.634328685159230909e-02,-3.188377726842146070e-02
2.179999999999999993e-01,5.690189343425264973e-02,-4.864356710592532967e-02,6.421633113911071923e-03
2.190000000000000002e-01,-2.373780896371502705e-02,-3.892117932492137472e-02,1.524222174916532724e-02
2.200000000000000011e-01,-6.288329078147644746e-02,4.630305844344488608e-02,1.208452902943161177e-02
2.210000000000000020e-01,-4.312297317996626606e-02,7.056270350910243128e-02,-2.483761092527578956e-02
2.220000000000000029e-01,-7.082801725838412492e-03,1.037232120744152088e-02,-3.692368440680041108e-02
2.230000000000000038e-01,6.018634580698952602e-02,-2.876310607990778187e-02,1.140113271279088666e-02
2.240000000000000047e-01,2.914272777751463969e-02,-1.996782254520391292e-02,-6.146395042736811296e-03
2.250000000000000056e-01,-2.593300860050189519e-02,-1.029123020543271615e-02,-6.954120972452816456e-03
2.260000000000000064e-01,-4.005784797186456164e-02,5.677023664168496381e-02,8.648576988082012093e-04
2.270000000000000073e-01,-1.144653141263671237e-02,3.006829787959979308e-02,-1.716705866318196660e-02
2.280000000000000082e-01,1.246198747670801063e-02,2.403165831201082778e-02,-1.737421463946786648e-02
2.290000000000000091e-01,6.763293539073161886e-02,-1.889459056095200637e-02,-3.357876806530449981e-02
2.300000000000000100e-01,5.334723877979528212e-02,-4.387372657874094584e-02,1.059022363174712267e-02
2.310000000000000109e-01,-2.188697171786418288e-03,-2.215942171437631711e-03,3.602244224178700882e-02
2.320000000000000118e-01,-3.570571593644544101e-02,1.292357156973711688e-02,4.058575020598478855e-02
2.330000000000000127e-01,-4.146339199084254218e-02,1.403591160735368111e-02,2.649816727269997674e-02
2.340000000000000135e-01,1.187406632416310691e-02,-1.465034844712988617e-03,-3.557082152829204452e-02
2.349999999999999867e-01,9.623860095449300600e-02,-2.642130707944830709e-02,-3.736969090016261513e-02
2.359999999999999876e-01,4.113699814838098212e-02,-6.549271787410292089e-02,-1.355992655768294315e-02
2.369999999999999885e-01,-2.450737251367114677e-02,-6.988017276960050393e-03,4.310708574344746663e-02
2.379999999999999893e-01,-6.196913880359936067e-02,5.884901005248989285e-03,4.537493458664951934e-02
2.389999999999999902e-01,-5.430155816820231296e-02,5.746472336011644588e-02,1.392901962649084960e-02
2.399999999999999911e-01,7.566593239359494828e-03,3.371542166873472968e-02,-3.280842033323198154e-02
2.409999999999999920e-01,5.662309909992666035e-02,-4.435260732862648242e-02,-1.943324467027167379e-02
2.419999999999999929e-01,2.766523642531919930e-02,-6.433994307144824676e-02,1.325116452948583295e-02
2.429999999999999938e-01,-5.590299003807480682e-02,-5.828040000614429124e-03,2.469450796670610154e-02
2.439999999999999947e-01,-3.654208425616467526e-02,2.967724222977276630e-02,3.688021644901556817e-02
2.449999999999999956e-01,-5.582609506183156683e-02,4.358850269704374336e-02,-9.251178974849710163e-03
2.459999999999999964e-01,2.310697447100949070e-02,-5.754437046673995665e-03,-5.234790098185001378e-03
2.469999999999999973e-01,7.034617977707394165e-02,-3.296788366116772812e-02,-4.640519213838679990e-02
2.479999999999999982e-01,5.722286728933025091e-02,-4.299374811923385720e-02,8.475342013625156851e-03
2.489999999999999991e-01,-1.460505675711133537e-02,1.048313120125414326e-02,3.039815055756128412e-02
2.500000000000000000e-01,-2.556015149225598915e-02,2.289686951764204753e-02,3.094433980189359792e-02
2.510000000000000009e-01,-3.609978866651242929e-02,6.740940367320127913e-02,-3.856154193178155856e-03
2.520000000000000018e-01,2.712809267337446678e-02,1.613088763673746484e-02,-3.307317849211417055e-02
2.530000000000000027e-01,5.731815855650830571e-02,-2.027636111875080402e-02,-4.720118315634148215e-02
2.540000000000000036e-01,-5.751925136975134106e-03,-3.257406707296008064e-02,-3.329535445413510375e-02
2.550000000000000044e-01,-1.866247302579819925e-02,9.449752133360867987e-03,3.436988143427074233e-02
2.560000000000000053e-01,-7.654170525986744855e-02,2.264358888727111344e-02,4.815117653056990438e-02
2.570000000000000062e-01,-1.228574684677440770e-02,2.828654143609317037e-02,1.587863991804945238e-02
2.580000000000000071e-01,4.663871292907853343e-03,1.507187035166608277e-02,-8.562445201969597639e-04
2.590000000000000080e-01,4.468851806752164452e-02,1.018220463275875363e-02,-3.353005749691989612e-02
2.600000000000000089e-01,1.335383668310718627e-02,-4.367165335804278764e-02,8.303866307199809019e-03
2.610000000000000098e-01,-3.307386084274039489e-02,1.934145511429616283e-03,4.554296956339368152e-02
2.620000000000000107e-01,-2.992585345122093093e-02,3.936058692552558969e-02,3.459738022126159634e-02
2.630000000000000115e-01,-5.614894538734342688e-02,6.267819724097531409e-02,-1.237098164878605057e-02
2.640000000000000124e-01,3.010153796742669197e-02,-8.856633640933395807e-03,-3.051922414480017984e-02
2.650000000000000133e-01,4.225565003949956211e-02,-1.496522530899186895e-02,-2.831568436806934999e-02
2.660000000000000142e-01,5.227136824691278744e-02,-4.396493519454384297e-02,-7.444412020876813377e-03
2.670000000000000151e-01,-3.261119328560741631e-02,-2.972582382826891370e-03,2.191308608733281114e-03
2.680000000000000160e-01,-1.171240715299913700e-02,5.157635406875869105e-02,1.103283716001698944e-02
2.690000000000000169e-01,-1.680073962285736494e-02,2.494270929462413106e-02,2.458973272973855474e-03
2.700000000000000178e-01,3.107330685778796064e-02,-8.041363581266870730e-03,-2.443080696496244958e-02
2.710000000000000187e-01,9.026542039262097639e-02,-2.107393843303188505e-02,-4.556187581010266024e-02
2.720000000000000195e-01,6.578030900161353778e-02,-1.942450418874679119e-02,8.734822505690374717e-03
2.730000000000000204e-01,-1.288556278512104428e-02,1.446328419680581977e-02,2.357083417288967364e-02
2.740000000000000213e-01,-7.661751690968829354e-02,6.172668250469229290e-02,4.975992574613927882e-02
2.750000000000000222e-01,-4.394948652868110178e-02,1.090004433560436484e-02,5.657294390382723755e-03
2.760000000000000231e-01,2.727837514445836942e-02,-8.070293253506645448e-03,-4.057549885989550353e-02
2.770000000000000240e-01,7.870148684557033703e-02,-5.236116719111796186e-02,-3.407212105113500283e-02
2.780000000000000249e-01,3.875402730212539060e-02,-2.010908857095167201e-02,-5.245033911813071215e-02
2.790000000000000258e-01,-3.188179881961799439e-02,1.598388502460833596e-02,2.142116863060420165e-02
2.800000000000000266e-01,-7.273945688763749917e-02,4.715305837013258200e-02,2.338474916936932393e-02
2.810000000000000275e-01,-2.497209683360797003e-02,3.050061545052578510e-02,2.041824649624371379e-02
2.819999999999999729e-01,9.863482591278732378e-03,-2.171392907195202407e-02,3.779487595464071491e-03
2.829999999999999738e-01,6.759186607993698803e-02,-6.685377589900073914e-02,-3.840132243139042501e-02
2.839999999999999747e-01,1.489696703723156559e-02,-4.483004063233159836e-02,-4.699208204713135190e-02
2.849999999999999756e-01,9.455003949806846039e-03,1.280398312058256965e-02,-1.355719510375920540e-02
2.859999999999999765e-01,-8.237673077149809675e-02,6.690961516755560045e-05,1.657860302342584191e-02
2.869999999999999774e-01,-3.308232330560361562e-02,5.299130944009209504e-02,2.132577614778147224e-02
2.879999999999999782e-01,2.855334069054005306e-03,-3.004096758588075192e-02,-2.547054291262615053e-02
2.889999999999999791e-01,2.594529140847737919e-02,-4.678408117695969509e-02,-3.587139484889299845e-02
2.899999999999999800e-01,5.967445452202835114e-03,-9.125055464221964660e-03,2.579599596048608601e-03
2.909999999999999809e-01,-1.339921989755336711e-02,1.873107175813040065e-02,1.778582141692126167e-02
2.919999999999999818e-01,-3.546651215366683485e-02,2.792919182215840637e-02,7.020498851534946738e-02
2.929999999999999827e-01,-2.268668911844077749e-02,-1.797766221733875305e-03,2.176027131095972095e-02
2.939999999999999836e-01,2.756099575575939389e-02,9.807610187666650908e-03,3.553542517292286075e-03
2.949999999999999845e-01,6.901250572104708492e-02,-3.416011696354544908e-02,-2.547591865573351974e-02
2.959999999999999853e-01,1.508213677806377259e-02,-2.025668370184798353e-02,1.200953003452404945e-02
2.969999999999999862e-01,-4.631569994879115859e-02,4.707466122246728793e-03,3.426726655431584778e-02
2.979999999999999871e-01,-4.737180808729789250e-02,4.490701696618625005e-02,6.028998175094665152e-02
2.989999999999999880e-01,-1.244294621376631008e-02,3.810630669567070805e-02,2.883965376237686284e-02
2.999999999999999889e-01,3.467867732733956321e-02,-5.998382258824835889e-02,-2.141838289603392731e-02
3.009999999999999898e-01,7.828087149725225513e-02,-3.499408807325528337e-02,-3.100811557581763245e-02
3.019999999999999907e-01,3.224470911773292398e-02,-4.309625870111492493e-03,-2.232579497802744672e-02
3.029999999999999916e-01,-2.281148715750880296e-02,2.114510341686374681e-02,7.568590133030102599e-03
3.039999999999999925e-01,-5.569945919881498508e-02,3.694326211705255963e-02,2.389963150961596852e-02
3.049999999999999933e-01,-3.337021799117374787e-02,1.469686598357789094e-02,-8.351337439289296255e-03
3.059999999999999942e-01,2.079033683433804958e-02,-4.814490343550767958e-03,1.389799806773764704e-02
3.069999999999999951e-01,5.848895762923243813e-02,-6.372739683368904007e-02,-1.295437002528457456e-02
3.079999999999999960e-01,2.099247148175701141e-02,-4.604150496698994344e-02,-1.559819336472962129e-02
3.089999999999999969e-01,-3.337238154152140368e-02,1.649978426774208889e-02,1.128379759151810872e-02
3.099999999999999978e-01,-8.450934924925596059e-02,6.879450976476145230e-02,3.050474292461349130e-02
3.109999999999999987e-01,-3.902563405979269512e-02,2.619247621492533026e-02,8.664735483081591671e-04
3.119999999999999996e-01,2.437253510195074371e-02,-2.750123031404610313e-02,8.362965581470298976e-03
3.130000000000000004e-01,3.826021290029229388e-02,-3.134485232139889999e-02,-3.774078684383559701e-02
3.140000000000000013e-01,1.306262691214594117e-02,-1.879213784845663870e-02,-4.356774425598095718e-02
3.150000000000000022e-01,-5.712944156592710682e-02,6.032958744219381157e-03,4.328274871714223038e-02
3.160000000000000031e-01,-6.509991003297656287e-02,4.040964715843776978e-02,3.052031018685772562e-02
3.170000000000000040e-01,-2.896707592638671225e-02,1.567488006559464644e-02,4.079374738633229774e-02
3.180000000000000049e-01,3.719011566752413595e-02,-4.661305970673624427e-02,-3.697331106853589400e-02
3.190000000000000058e-01,5.063806891759787404e-02,-6.314220119396347919e-02,-3.286150538114589875e-02
3.200000000000000067e-01,3.580422158948021183e-02,-3.729172680720146960e-02,-4.173330165222929183e-02
3.210000000000000075e-01,-2.364297249411926455e-02,2.109894614514374461e-02,8.744776285369721888e-03
3.220000000000000084e-01,-5.134473150080049592e-02,3.788003528273121978e-02,4.694851115047677520e-02
3.230000000000000093e-01,-3.446695842470339638e-02,1.379100249315793301e-02,2.855139388159176270e-02
3.240000000000000102e-01,3.844360311267500802e-02,-4.135355207636798314e-02,-8.838098991445136887e-03
3.250000000000000111e-01,3.824475892456788428e-02,-3.297278471527887583e-02,-5.385084042514587388e-03
3.260000000000000120e-01,2.423347759577635513e-02,-1.998027116935536390e-02,4.089086800609074718e-04
3.270000000000000129e-01,-1.699033904783651960e-02,-2.213939182095955421e-06,1.317526956535374633e-02
3.280000000000000138e-01,-6.320747492295389347e-02,8.757436669231628834e-02,3.023636430213807319e-02
3.290000000000000147e-01,-5.977786031023640118e-02,1.946029695548676455e-02,2.332418999512238938e-02
3.300000000000000155e-01,1.492699550465800482e-02,-1.414374612264527632e-03,-1.500008399642774846e-02
3.310000000000000164e-01,4.643969792777084132e-02,-6.940931732427450818e-02,-5.490421288587868376e-02
3.320000000000000173e-01,2.444528321115402303e-02,-2.331777264350161014e-02,-4.756948611203504901e-02
3.330000000000000182e-01,-1.601770604730102729e-02,5.061853401728939189e-02,8.478754771867951304e-03
3.340000000000000191e-01,-1.261985921073880725e-02,2.711639851010527041e-02,4.887401732460117110e-02
3.350000000000000200e-01,-3.360300919200191749e-02,3.829730714678325344e-06,3.862475330597112816e-02
3.360000000000000209e-01,3.567268165562734877e-02,-1.491515320197250687e-02,3.526545953787128449e-04
3.370000000000000218e-01,3.894685780979652984e-02,-5.964047086656477231e-02,-3.089138869691011521e-02
3.380000000000000226e-01,2.057361246617760153e-02,-3.684570676642908577e-02,-5.848339574278171860e-02
3.390000000000000235e-01,-1.301623682568871882e-03,4.967222845951552168e-02,2.321809445029232588e-02
3.400000000000000244e-01,-2.824566821232844804e-02,7.590416765028945578e-02,5.334326689990930709e-02
3.410000000000000253e-01,-1.155471411956110819e-02,3.623145223165165959e-03,1.553274538497037734e-02
3.420000000000000262e-01,3.614553316927301627e-03,-7.702499123964917128e-03,2.060685328447069836e-02
3.430000000000000271e-01,3.289706849376957537e-02,-4.937754757199416117e-02,-1.858118706456561922e-02
3.439999999999999725e-01,3.145520683953281771e-02,6.255872667600906843e-03,-1.995117358494009896e-02
3.449999999999999734e-01,-3.408627635890371099e-02,5.654580337249794780e-02,-3.580969709503985243e-02
3.459999999999999742e-01,-8.351140110559848728e-02,3.505566316129198057e-02,2.531485515402996309e-02
3.469999999999999751e-01,-1.283968283612115652e-02,-1.259298242050532020e-03,6.264799186051711599e-02
3.479999999999999760e-01,9.546169729937502985e-03,-2.771427469159622875e-02,3.107363677242830011e-02
3.489999999999999769e-01,6.002292465656121345e-02,-3.897251224716361678e-02,-2.831254290070549587e-02
3.499999999999999778e-01,2.770267357334263089e-02,-1.246072376106670439e-02,-3.090615222806356727e-02
3.509999999999999787e-01,-2.804723256468601156e-02,6.532225770410786392e-02,-2.394575279786881079e-03
3.519999999999999796e-01,-2.392148267715385815e-02,2.186856327405749256e-02,5.648017321242938121e-02
3.529999999999999805e-01,-3.717799212337268011e-02,7.448578658992215801e-03,4.178723777888532220e-02
3.539999999999999813e-01,2.302859107083944645e-02,-2.733937643203642257e-02,-2.219290213561087022e-02
3.549999999999999822e-01,6.032566884679907426e-02,-1.649219553319307072e-02,-3.280766335412724222e-02
3.559999999999999831e-01,3.561819986837812951e-02,-4.297674343658054730e-03,-4.491934092069974765e-02
3.569999999999999840e-01,-2.142682866358504301e-02,6.412113489501057584e-02,1.273310987003455248e-02
3.579999999999999849e-01,-2.915681870693609401e-02,2.604339251458909557e-02,2.006683944767192335e-02
3.589999999999999858e-01,-1.076217877921187976e-02,-1.828251625040465053e-02,3.323540713627103765e-02
3.599999999999999867e-01,3.283412351197639162e-02,-3.066965830278261737e-02,7.366677350646449671e-03
3.609999999999999876e-01,4.028082573679195311e-02,-4.176233943587080721e-02,-1.908768117711502968e-02
3.619999999999999885e-01,3.440761767964203854e-02,1.804017674569772210e-03,-5.746153513760154929e-02
3.629999999999999893e-01,-2.843534021675225495e-02,1.114645097603988826e-02,-2.743134814818583289e-02
3.639999999999999902e-01,-4.995247475166088996e-02,2.801079111463414956e-02,2.144416253833878946e-02
3.649999999999999911e-01,-8.627180451710571296e-02,-2.609365786820692576e-03,4.397299540317907429e-02
3.659999999999999920e-01,1.171662489718264949e-02,-1.236446356342718773e-02,1.113385509154741701e-02
3.669999999999999929e-01,5.474969774057560773e-02,-6.555627144092604497e-02,-2.251860028699824087e-02
3.679999999999999938e-01,5.340834262219181644e-02,-6.145718466106677011e-04,-5.098307716461026456e-02
3.689999999999999947e-01,-1.845575755409473162e-02,3.341599857477506319e-02,-3.163341589887973954e-02
3.699999999999999956e-01,-6.987536235194173606e-02,-1.331567563584745142e-03,2.135620901073038199e-03
3.709999999999999964e-01,-2.107517863186748192e-02,-3.065627670585767059e-02,3.061714244626196138e-02
3.719999999999999973e-01,3.604745412879691024e-02,-1.615260834970587769e-02,3.187424879199036304e-02
3.729999999999999982e-01,2.476037313161398579e-02,-3.246320135303392557e-02,1.785569752330862583e-02
3.739999999999999991e-01,2.849494418254163580e-02,-4.825559334005616666e-03,-3.737802000221333854e-02
3.750000000000000000e-01,-4.594209621322579290e-02,3.360487803361851544e-02,-1.581155028848578795e-02
3.760000000000000009e-01,-4.216786665423979952e-02,4.138755338357831548e-02,3.857634141706748308e-03
3.770000000000000018e-01,-9.653807503429241363e-03,1.415962055018998855e-02,6.272020523193365393e-02
3.780000000000000027e-01,3.161057075509177139e-02,-7.113044748666218220e-02,1.256072132862484647e-02
3.790000000000000036e-01,6.112497153360218344e-02,-2.461661173498594715e-02,-2.338952611269600260e-02
3.800000000000000044e-01,1.580518032001976617e-02,1.391112419577273870e-02,-3.758593984456039261e-02
3.810000000000000053e-01,-3.857805421575985494e-02,6.655277267514440875e-02,-3.033889270789066894e-02
3.820000000000000062e-01,-7.942214893984093915e-02,3.228005893348789151e-02,8.949220890955579197e-03
3.830000000000000071e-01,-2.997774271832268078e-02,-1.065139898282599362e-02,4.319909564207885522e-02
3.840000000000000080e-01,2.775204595810499067e-02,-5.436506230269837897e-02,2.131022888409080801e-02
3.850000000000000089e-01,6.930895144495384519e-02,-5.860865293848980390e-02,-2.144821420747072133e-02
3.860000000000000098e-01,2.068052096307067961e-02,-1.821237390656069155e-02,-2.830074625406911459e-02
3.870000000000000107e-01,-2.427577413602269654e-02,2.611987217462049052e-02,-2.860558432444472096e-02
3.880000000000000115e-01,-7.665299462359956295e-02,-1.524419738006122134e-02,1.292988651969130195e-02
3.890000000000000124e-01,8.271540464871456402e-03,-2.394446183552596807e-02,2.344443710169856129e-02
3.900000000000000133e-01,-9.508930850185225679e-04,-4.330600126357191798e-02,-1.336702041440852862e-03
3.910000000000000142e-01,5.630449964256940831e-02,-2.463289898485531218e-02,-1.757592217055911968e-03
3.920000000000000151e-01,4.239293797138591474e-02,4.276169296820544335e-02,-2.942397147063679011e-02
3.930000000000000160e-01,7.748554768245873546e-03,6.974901722131882087e-02,-6.082356274645689398e-02
3.940000000000000169e-01,-4.151211081650519469e-02,3.463700622834454956e-02,7.542357476835360661e-03
3.950000000000000178e-01,-2.883318731220922346e-02,-7.253326911856254611e-03,5.224077396555733971e-02
3.960000000000000187e-01,2.925137948592222356e-02,-4.802788551275204848e-02,3.246221656474667684e-03
3.970000000000000195e-01,1.217481213772426095e-02,-4.929274206618762012e-03,-1.272104028084037990e-02
3.980000000000000204e-01,1.684807759313389566e-02,2.392440961461744439e-02,-4.889540807945535333e-02
3.990000000000000213e-01,-2.109810481414340494e-02,6.324083338369439200e-02,-3.187322269662216240e-02
4.000000000000000222e-01,-5.180747330997081956e-02,1.507042713480398650e-02,3.005026740442682739e-02
4.010000000000000231e-01,-2.901713661943573427e-02,2.075692959931135090e-02,2.219257775654712855e-02
4.020000000000000240e-01,2.184807940019619157e-02,-8.392894288140352599e-02,2.585717552740117442e-02
4.030000000000000249e-01,3.732219167328634790e-02,-5.982036388466219212e-02,-8.989476107747331607e-03
4.040000000000000258e-01,2.200126698731081493e-02,-1.204313276751609388e-02,3.530231732369731694e-03
4.050000000000000266e-01,-2.363003303111303396e-02,3.731288857137687182e-02,1.452535710024937914e-02
4.060000000000000275e-01,-4.291169584756120842e-02,-8.690709982181493059e-04,2.141580074318544247e-02
4.069999999999999729e-01,-7.259505811604544112e-02,-1.026938487773788400e-03,2.924269029464041797e-02
4.079999999999999738e-01,2.845110097645470529e-02,-1.381980303973755556e-02,1.105234965650006042e-02
4.089999999999999747e-01,3.089906010003980533e-02,-1.386605881298664730e-02,-1.892936928054562290e-02
4.099999999999999756e-01,4.009363121749405859e-03,2.093165131267077719e-02,-2.613907110825218830e-02
4.109999999999999765e-01,-4.444174180015745407e-02,2.899468944811212437e-03,-1.448019229034632621e-02
4.119999999999999774e-01,-2.984671166889557234e-02,3.049713997776978824e-02,2.117352063197885242e-02
4.129999999999999782e-01,-1.006071883214880273e-02,-3.477451827582024504e-03,1.190098403368891264e-02
4.139999999999999791e-01,4.029494586058463002e-02,-5.222860271520322895e-02,-6.594947405605911146e-03
4.149999999999999800e-01,5.363542122269291529e-02,-2.639528255632550904e-02,1.190270346183898605e-02
4.159999999999999809e-01,5.262713811035367450e-02,2.276637811963032332e-02,-4.855693327272975895e-02
4.169999999999999818e-01,-3.972176046500681956e-02,4.077854249700006012e-02,7.659646531906418206e-04
4.179999999999999827e-01,-7.966812200618204887e-02,1.737363015344725245e-02,3.327315705966588794e-02
4.189999999999999836e-01,-3.317718166981123429e-02,-1.622357395568255201e-02,3.861036636803084204e-02
4.199999999999999845e-01,4.979719078053766734e-02,-4.257589466366545200e-02,2.976049121856975954e-02
4.209999999999999853e-01,4.587984839169262363e-02,-5.105491824655478648e-03,4.136757788152834250e-03
4.219999999999999862e-01,6.349173933030478889e-02,2.627450461221205943e-02,-2.943766475317343215e-02
4.229999999999999871e-01,-1.317324561785461999e-02,3.303162858243573891e-02,-3.882496212827637322e-02
4.239999999999999880e-01,-5.456908767735368232e-02,3.821590336635329998e-03,1.933342390397646505e-03
4.249999999999999889e-01,-3.520483775598608200e-02,-5.304925582278089552e-02,4.790114289748503146e-02
4.259999999999999898e-01,3.528021394502666580e-02,-6.288420486932735920e-02,2.223492144578451124e-02
4.269999999999999907e-01,6.714591037365537363e-02,-4.830832260043304779e-03,-3.453725053661615019e-03
4.279999999999999916e-01,2.308183260498220327e-02,2.960191331120701555e-02,-4.221066408440548451e-02
4.289999999999999925e-01,2.090253989777182339e-03,5.501513985675036272e-02,-7.042586497724284515e-03
4.299999999999999933e-01,-6.821356851386163600e-02,2.218832299791514626e-02,1.783882342117923750e-02
4.309999999999999942e-01,-9.014323552419758676e-03,-3.443160112959732511e-02,1.967762178646241186e-02
4.319999999999999951e-01,4.069181821572695479e-02,-5.789678035049490579e-02,2.593513258368199473e-02
4.329999999999999960e-01,4.869995401503841165e-02,-1.883853400822596211e-02,5.953196534976802450e-03
4.339999999999999969e-01,3.784203942141527860e-02,1.229254895899107441e-02,-4.686438243195850673e-02
4.349999999999999978e-01,-4.047918752109991303e-02,3.168908363836955150e-02,-4.553828086602662757e-03
4.359999999999999987e-01,-3.875299593956939986e-02,1.150216141641148895e-02,3.417961561235142998e-02
4.369999999999999996e-01,-4.900448944934338198e-03,-3.970139566384807417e-02,3.994467658904930080e-02
4.380000000000000004e-01,6.641777971426118983e-03,-5.104291145253170986e-02,4.524135268848741842e-02
4.390000000000000013e-01,6.320076682180550409e-02,3.628472088426077866e-03,2.500088142805741501e-02
4.400000000000000022e-01,3.200081679150129643e-02,3.489924741459419361e-02,-4.190458802358194151e-02
4.410000000000000031e-01,-9.274362231432013715e-03,3.978827379781910839e-02,-2.835737151380745419e-02
4.420000000000000040e-01,-5.240718831687737195e-02,-9.579352669168487294e-03,-2.342652729457174107e-02
4.430000000000000049e-01,-3.595633282667536762e-02,-6.858998198732575713e-02,7.431694296586124557e-03
4.440000000000000058e-01,4.541508846720578724e-02,-3.372320739672443612e-02,1.097198791552135046e-02
4.450000000000000067e-01,5.218906890068408105e-02,-4.693290876721857574e-03,-1.719529072132874523e-02
4.460000000000000075e-01,3.188731545447167498e-02,5.908398812728347244e-02,-4.465194943788743792e-02
4.470000000000000084e-01,-2.762230839750775407e-02,9.092564475822873318e-03,-3.362951512978115676e-02
4.480000000000000093e-01,-7.478797455801074190e-02,-1.632535068236074319e-02,7.707535970938549346e-04
4.490000000000000102e-01,-2.688490074669846672e-02,-3.372269359306821063e-02,1.760113473536542225e-02
4.500000000000000111e-01,2.685506126748090153e-02,-6.535528372134065400e-02,5.922487873412890513e-02
4.510000000000000120e-01,6.621668730732649388e-02,-1.172766577622286026e-02,1.926999182219006623e-02
4.520000000000000129e-01,3.229494140539575925e-02,4.484971265765871906e-02,-5.316158332027150907e-02
4.530000000000000138e-01,-2.188130301535762962e-02,2.819258793184142853e-02,-2.198038545101532043e-02
4.540000000000000147e-01,-3.501720223720315717e-02,-1.764764071784734670e-02,6.020260580136113995e-03
4.550000000000000155e-01,7.787184216223042021e-03,-5.524461105805267974e-02,4.070837639513503331e-02
4.560000000000000164e-01,3.948191135694577303e-02,-3.464962454758223342e-02,5.767243299256658712e-02
4.570000000000000173e-01,5.373647191672405177e-02,-1.585275955456847199e-02,5.354962369086098926e-03
4.580000000000000182e-01,4.058921479771553792e-02,7.006711273769884729e-02,-4.542515077403606188e-02
4.590000000000000191e-01,-8.910988663500971074e-03,5.071728718895742588e-02,-4.025042313261927018e-02
4.600000000000000200e-01,-5.234280989419493046e-02,-9.055297261151954574e-03,1.858827372276755652e-02
4.610000000000000209e-01,-6.214956272136346743e-02,-3.589700536656145746e-02,3.823551122381705497e-02
4.620000000000000218e-01,2.466960688178152297e-02,-6.423908141541534444e-02,2.947926079235253793e-02
4.630000000000000226e-01,7.329213492628135207e-02,-1.764595130919255003e-02,-7.864041995880454924e-03
4.640000000000000235e-01,3.631584345026526994e-02,3.556725236919767302e-02,-3.402378387369744267e-02
4.650000000000000244e-01,-5.026986604934433750e-02,3.877522850555464168e-02,-1.828595836848572950e-02
4.660000000000000253e-01,-5.261157799037104871e-02,7.852551441897668780e-03,1.777694462270679177e-02
4.670000000000000262e-01,-2.004817575911950131e-02,-7.402909738915038063e-02,3.245952511592796463e-02
4.680000000000000271e-01,-6.188049717874155239e-03,-2.722846928380085602e-02,3.162870289425208370e-02
4.689999999999999725e-01,5.618805815523851555e-02,3.436596975159982026e-02,3.948642345941002357e-02
4.699999999999999734e-01,2.326816610586987175e-02,3.403981880834533458e-02,-4.676565222126610050e-02
4.709999999999999742e-01,-4.117787651017056072e-02,1.483013154537933358e-02,-5.406288092441271370e-02
4.719999999999999751e-01,-4.820228607606329152e-02,-7.605529946104834862e-03,-2.830769268483989548e-02
4.729999999999999760e-01,-1.828530349234070568e-02,-3.308803845990803544e-02,2.820640466438968999e-02
4.739999999999999769e-01,3.869389024858486265e-02,-2.276110464767718000e-02,1.092548478658175379e-02
4.749999999999999778e-01,6.973182542602313072e-02,6.330127393805015656e-02,1.630357836726796864e-02
4.759999999999999787e-01,4.779027584605757134e-02,5.408057983685969627e-02,-7.992660006834233222e-03
4.769999999999999796e-01,-2.236131781857588971e-02,2.756662182075461653e-02,-2.357776121194622362e-02
4.779999999999999805e-01,-6.139003056601097935e-02,-3.600763053800547665e-03,7.405295209441697599e-03
4.789999999999999813e-01,-3.243389655484139877e-02,-3.483167122698520302e-02,3.409399768759738270e-02
4.799999999999999822e-01,5.778675776663890623e-02,-7.293152152375345643e-02,1.503284624814988507e-02
4.809999999999999831e-01,5.789275685892634332e-02,-1.888203725293082641e-02,8.392270924940544580e-03
4.819999999999999840e-01,8.153431620250633019e-03,4.314736068713097283e-02,2.876311651187764620e-03
4.829999999999999849e-01,-7.898229391091481782e-03,-1.908899653188600443e-02,-5.959146777780386511e-02
4.839999999999999858e-01,-5.442306530236702689e-02,-2.959934003496565019e-02,1.230509358392170051e-02
4.849999999999999867e-01,-4.694395331240765190e-02,-5.338491036341029561e-02,4.589675172127185426e-02
4.859999999999999876e-01,1.332587933804186761e-02,-2.429386782015418786e-02,4.656518861478124716e-02
4.869999999999999885e-01,6.581533984977905316e-02,2.862639666338174377e-02,2.679151116238056435e-02
4.879999999999999893e-01,2.495922912132152519e-02,2.844190887901561215e-02,-3.988648057760379312e-02
4.889999999999999902e-01,-4.857352031465959896e-02,1.808501449227367316e-02,-2.690041923063321572e-02
4.899999999999999911e-01,-5.980059097865007833e-02,-4.005293625727665910e-03,-1.454331351229282837e-02
4.909999999999999920e-01,-2.387840483567530564e-02,-5.530055607799752582e-02,6.868922937772711443e-03
4.919999999999999929e-01,2.591094642061082809e-02,-4.012337949258982378e-02,6.691260362951064258e-03
4.929999999999999938e-01,6.949099100564741505e-02,2.442003266662384764e-02,8.448215864097816108e-03
4.939999999999999947e-01,4.196680793468707954e-02,4.321365398122103962e-02,-1.460340985568599030e-02
4.949999999999999956e-01,-3.931831390232396611e-02,1.261524302426595898e-02,-3.223402518326190513e-02
4.959999999999999964e-01,-6.077906945427907770e-02,-2.256886351534166668e-02,-4.133685016548219876e-02
4.969999999999999973e-01,-2.314094899392822244e-02,-4.608466629699357192e-02,2.032320312193678161e-02
4.979999999999999982e-01,3.271268954231907385e-03,-4.952143682849432377e-02,8.256867614421736778e-03
4.989999999999999991e-01,6.867748343479060380e-02,2.927334221085313784e-02,-2.615750291000774538e-02
5.000000000000000000e-01,1.623734689283283517e-02,6.378922791273924919e-02,1.246604263979712510e-02
5.010000000000000009e-01,-5.654871976343919804e-02,3.709948980113151468e-03,-2.690919926957735520e-02
5.020000000000000018e-01,-4.331004205377879390e-02,-1.239043780443003194e-02,-1.024518566380093823e-02
5.030000000000000027e-01,-3.499871432646491781e-02,-3.904833507958865857e-02,6.312487341549272157e-02
5.040000000000000036e-01,1.260782471524482529e-02,-6.799114197794197886e-03,1.703474813488637871e-02
5.050000000000000044e-01,5.618204763664542273e-02,3.374559854672864317e-02,4.265865813103518478e-02
5.060000000000000053e-01,3.854931970846244699e-02,4.553635105171489894e-02,-1.350543418160716873e-02
5.070000000000000062e-01,-2.949095611858292346e-02,5.380213318918557891e-02,-2.112269607908491553e-02
5.080000000000000071e-01,-3.924810397574624715e-02,-4.367073801633281072e-02,4.786141880039731893e-03
5.090000000000000080e-01,-4.572010230645435352e-02,-3.536192409689756233e-02,-1.226420554510504295e-02
5.100000000000000089e-01,-5.926175379140954415e-03,-1.181596268456228636e-02,8.833267795537920811e-03
5.110000000000000098e-01,6.589962374346708396e-02,6.231377516115912257e-02,1.968133021494042692e-02
5.120000000000000107e-01,-4.074057383328113027e-03,-1.664422569794919010e-02,-3.552784832701126605e-02
5.130000000000000115e-01,-1.731047702076268444e-02,1.180859845146885537e-02,-5.191036294834532050e-02
5.140000000000000124e-01,-3.345882977306487843e-02,-6.720015697647489794e-02,-3.350620128305454443e-02
5.150000000000000133e-01,-5.525969230437666191e-02,-6.194809997821709713e-02,3.775547787352734330e-02
5.160000000000000142e-01,4.991940663441623433e-02,8.697396922584855767e-04,4.578378878030594373e-02
5.170000000000000151e-01,6.793856724797446567e-02,6.497717089348083175e-02,2.031498904923816073e-02
5.180000000000000160e-01,2.843127085410837931e-02,5.765526054326516187e-02,-1.038423305927637166e-02
5.190000000000000169e-01,-2.364295179887391640e-03,2.396428525125290226e-02,-4.590436198408667789e-02
5.200000000000000178e-01,-4.098362861276298036e-02,-6.603612405804226704e-02,-2.436600298315191870e-02
5.210000000000000187e-01,-2.271878735029880456e-02,-1.142963455404450053e-02,8.964647223907289478e-03
5.220000000000000195e-01,5.472348424040299197e-02,-1.537360378108916167e-02,2.739308017920599400e-02
5.230000000000000204e-01,7.284832098659899113e-02,1.575082836067603215e-02,1.621011016404489205e-02
5.240000000000000213e-01,2.267488480618447960e-02,2.301003312116893171e-02,2.059094641892038335e-02
5.250000000000000222e-01,-4.393993780107910418e-02,2.739533627372986793e-02,-6.016298968084634463e-02
5.260000000000000231e-01,-4.356464580598146813e-02,-1.419473394973475543e-02,-4.481704930823561528e-02
5.270000000000000240e-01,-2.951328099197984833e-02,-1.845093146182841953e-02,1.540066784598893498e-02
5.280000000000000249e-01,2.998483951377668016e-02,-2.657857738184817367e-02,3.357174277373588256e-02
5.290000000000000258e-01,1.296259469240167161e-02,3.069611911585995445e-02,6.367598832011192068e-03
5.300000000000000266e-01,3.266642849239756452e-02,4.391821082768653656e-02,-1.563008601013926580e-02
5.310000000000000275e-01,-3.473792352975691583e-02,-2.168583844379469959e-03,-3.124344845058218967e-02
5.320000000000000284e-01,-8.523399438775629278e-02,-3.512828939428753322e-02,-2.266857081092901738e-02
5.330000000000000293e-01,-4.666153491788876256e-02,-3.712216902312499150e-02,3.120112293223835723e-02
5.340000000000000302e-01,1.468147406490381487e-02,2.410497547506163657e-02,1.528143136010733441e-02
5.350000000000000311e-01,1.676571626877465179e-02,4.319030243176542883e-02,4.041380909788258591e-02
5.360000000000000320e-01,7.606523067912615219e-03,2.145921006440195886e-02,1.758669029562944311e-02
5.370000000000000329e-01,-4.747153451947064284e-02,1.268655493008934154e-02,-2.954454074170950045e-02
5.380000000000000338e-01,-5.839585493562537977e-02,-8.860714007536021897e-02,-3.010625206413003463e-02
5.390000000000000346e-01,-1.062768346998270788e-02,-4.488849525577889854e-02,5.554192767316792900e-03
5.400000000000000355e-01,2.788603168091430967e-02,-2.628579037143988651e-03,3.156139908232550445e-02
5.410000000000000364e-01,5.810510191363576354e-02,2.772512625109195203e-02,1.369352051233153726e-02
5.420000000000000373e-01,2.498046181742261118e-02,1.998595176149863331e-02,-2.483915310516852590e-02
5.430000000000000382e-01,-9.660995712887605197e-03,-3.045732510226782305e-02,-1.883933440470163603e-02
5.440000000000000391e-01,-7.709259470578588846e-02,-5.559152366184214045e-02,-3.164241669623867742e-02
5.450000000000000400e-01,1.466058268986874732e-02,-1.927972050401326187e-02,1.442550412251001647e-02
5.460000000000000409e-01,1.382623621066532112e-03,-1.190584317776993001e-02,5.177415141970052870e-02
5.470000000000000417e-01,6.963423993816879320e-02,6.365641453246746739e-02,3.388430683534402604e-02
5.480000000000000426e-01,3.361074939314834253e-02,6.443079384871312765e-02,-1.029023770376446449e-03
5.490000000000000435e-01,-1.321008203352229751e-02,-1.765535704500316785e-02,6.690541341087140673e-03
5.500000000000000444e-01,-8.822734859182632117e-02,-1.501790140527433683e-02,-4.008312704120713110e-02
5.510000000000000453e-01,-6.112283636605655990e-02,-4.105830729556550485e-02,-1.242384000603390624e-02
5.520000000000000462e-01,4.139047166965972857e-02,-1.484237356637881436e-02,4.156853674559470024e-02
5.530000000000000471e-01,3.963904063086692159e-02,5.053481455263966748e-02,2.852794501466182284e-02
5.540000000000000480e-01,2.328449800112716156e-02,4.252506885753560423e-02,-1.526354342350185085e-02
5.550000000000000488e-01,-1.926797195009281177e-02,-1.692399181526928892e-02,-4.446954747104725492e-02
5.560000000000000497e-01,-7.463220575714712979e-02,-4.592038642840082230e-02,-4.173992266545892976e-02
5.570000000000000506e-01,6.524193431687135003e-03,-3.384515853058127355e-02,-1.905174993408923975e-02
5.580000000000000515e-01,5.058522095113121564e-03,3.847351489187499779e-02,1.639695429207296481e-02
5.590000000000000524e-01,5.783099572782972320e-02,3.412772321369889061e-02,6.221331637173246887e-02
5.600000000000000533e-01,-8.761391922009255720e-03,4.057704640150465447e-02,-4.582373682863562399e-03
5.610000000000000542e-01,-4.237996769902577926e-02,-5.471525951477441627e-03,-2.371377466056137293e-02
5.620000000000000551e-01,-6.443227918362952333e-02,-5.176149925495597548e-02,-3.956806063749808422e-02
5.629999999999999449e-01,-5.928123929626252092e-02,-5.433776069083362525e-02,9.497130411449885776e-03
5.639999999999999458e-01,5.253440033927399971e-02,4.745766965840055029e-02,2.751885424710438788e-02
5.649999999999999467e-01,4.585559158642493749e-02,2.622630816265386286e-02,2.949842055350231085e-02
5.659999999999999476e-01,6.014833557974117589e-02,7.205456101754310547e-03,-9.072865131955242576e-04
5.669999999999999485e-01,-2.751588710433006124e-02,-2.961868354242885165e-02,-2.582419965148714455e-02
5.679999999999999494e-01,-2.718157727298458129e-02,-4.637027803992903319e-02,-2.246056241025033446e-03
5.689999999999999503e-01,-5.052080792987386632e-02,-2.367195808877409560e-02,-1.851291170485982671e-02
5.699999999999999512e-01,8.233482377250335438e-03,-2.443696202556447719e-03,1.152202559027644055e-02
5.709999999999999520e-01,5.709456755526397947e-02,1.719634857283218118e-02,3.418010789334782057e-02
5.719999999999999529e-01,2.885037818343710522e-02,1.941233106057673949e-02,-2.137228294588665225e-03
5.729999999999999538e-01,-4.067715420606878018e-02,2.607307806082006813e-03,-6.669636621872449857e-03
5.739999999999999547e-01,-6.274230787415868704e-02,-6.063570505332575161e-02,-3.537720768997218435e-02
5.749999999999999556e-01,-1.997259160209511122e-02,-1.288143221992285245e-02,-3.930625048234313162e-02
5.759999999999999565e-01,1.723344233306833492e-02,-6.009648777346146900e-03,1.583130399908054542e-02
5.769999999999999574e-01,5.764358770493840933e-02,3.617016206140646895e-02,2.478740044715661492e-02
5.779999999999999583e-01,1.449770243916115309e-02,1.620073318185480046e-02,2.725691279338668394e-02
5.789999999999999591e-01,-2.049327121315662123e-02,-1.156137965391113541e-02,-1.745359979358880945e-02
5.799999999999999600e-01,-7.290481278091393014e-02,-6.053021323095392897e-02,-6.144569216191921729e-02
5.809999999999999609e-01,-1.578763605604839929e-02,-4.081774826974100823e-02,-2.726658977098063083e-02
5.819999999999999618e-01,5.065798050330361929e-02,2.365100486337700855e-02,8.221868650720796923e-03
5.829999999999999627e-01,6.900367386283350057e-02,5.084495096971038824e-02,5.662046235269934530e-02
5.839999999999999636e-01,3.797505406304027553e-02,-1.695904418335677328e-03,4.080082318603375953e-03
5.849999999999999645e-01,-3.507244675412686530e-02,-7.965582739307593141e-03,-4.761693948285573158e-02
5.859999999999999654e-01,-7.274908416996062055e-02,-6.087643464740093852e-02,-4.269864048442734150e-02
5.869999999999999662e-01,-3.229954088137625134e-02,-4.216588983810718068e-03,4.865455999111058076e-03
5.879999999999999671e-01,3.839620918412667283e-02,8.967745303697772716e-03,1.710230801797934554e-03
5.889999999999999680e-01,4.892525051375822692e-02,4.826407795998734207e-02,3.209039040269252852e-02
5.899999999999999689e-01,4.390839984959278575e-02,1.349332493842810878e-02,1.123021017908656070e-02
5.909999999999999698e-01,-2.625033188441469600e-03,-1.411182305234038453e-02,-2.911826000660108424e-02
5.919999999999999707e-01,-3.856802551740991930e-02,-3.096657407256112049e-02,-7.081844562195938053e-02
5.929999999999999716e-01,-1.371861491513219448e-02,-4.816625952049639892e-02,-1.476294762571970023e-02
5.939999999999999725e-01,3.021647417575937244e-02,2.840453165007664552e-02,9.849371852495486523e-03
5.949999999999999734e-01,3.589568078994294364e-02,6.325457490667886484e-02,2.684817154550186991e-02
5.959999999999999742e-01,3.406947640195506083e-02,2.573382712130184782e-02,2.766119163490281252e-02
5.969999999999999751e-01,-4.239932918253198901e-02,-1.534552477319927125e-02,-4.763102239381887537e-02
5.979999999999999760e-01,-3.202562730021542986e-02,-5.041516753274564999e-02,-4.212636546188522346e-02
5.989999999999999769e-01,-1.204319494316054805e-02,-3.030380776765317918e-02,-3.148148669313121772e-03
5.999999999999999778e-01,2.182394835785824230e-02,1.736148466089502615e-02,5.348733063424032652e-02
6.009999999999999787e-01,5.010063807740729874e-02,4.001703286441356949e-02,6.372688428418345208e-02
6.019999999999999796e-01,8.592873679417922100e-03,6.047807687103919777e-02,1.797409037577944041e-02
6.029999999999999805e-01,-3.879536679796144472e-02,-4.952698337011602475e-02,-1.715950827522414943e-02
6.039999999999999813e-01,-5.604665252832510131e-02,-6.066849790316317798e-02,-5.267633855722290287e-02
6.049999999999999822e-01,1.494796475906366370e-02,1.030761696553934327e-02,-4.952481692881356007e-02
6.059999999999999831e-01,7.668837308565204167e-03,3.941892822032416754e-02,1.753175285814387611e-03
6.069999999999999840e-01,4.310429113348174940e-02,1.360879787344270592e-02,5.750508834229258598e-02
6.079999999999999849e-01,2.392236402017898847e-02,2.535992525021472932e-02,3.561698962801175539e-02
6.089999999999999858e-01,-2.767905882145568763e-02,-3.124855711412806436e-02,-3.732845138897645382e-02
6.099999999999999867e-01,-2.596147355122942202e-02,-2.373746301949108267e-02,-1.987100995626157190e-02
6.109999999999999876e-01,-1.817397697419980904e-02,-1.994102178730523117e-02,-2.661689952258651862e-02
6.119999999999999885e-01,3.524219580633156795e-02,2.493184565807623002e-02,3.162429890744272026e-02
6.129999999999999893e-01,6.665473665726606711e-02,2.040977724723420927e-02,1.852536198681816945e-02
6.139999999999999902e-01,2.094769398178022296e-02,2.239114651750051879e-02,1.546507837970373909e-02
6.149999999999999911e-01,-5.206286978186983050e-02,4.419144903367640091e-03,-4.242211257331224977e-03
6.159999999999999920e-01,-7.984511739744300229e-02,-4.650207079129431431e-02,-3.355369154959463723e-02
6.169999999999999929e-01,-2.470050512082842820e-02,-2.523141419629345433e-02,-3.817134927082749957e-02
6.179999999999999938e-01,4.760217660306823029e-02,4.500801070839365731e-02,-2.479786140699783304e-03
6.189999999999999947e-01,3.466154185142982652e-02,3.811715642409966437e-02,1.491257062231665480e-02
6.199999999999999956e-01,8.974208213154982391e-03,-1.587513982921468988e-02,-1.294382768484483165e-02
6.209999999999999964e-01,-1.916973966056050721e-02,-6.710794076590144430e-02,8.701519965662574650e-04
6.219999999999999973e-01,-4.432086021610100179e-02,-3.838201810923506929e-02,-4.046886531858508856e-02
6.229999999999999982e-01,-5.136745168554533031e-02,8.056884123267329121e-04,7.826570678885265420e-03
6.239999999999999991e-01,3.015835233678677493e-02,3.934675141786156405e-02,8.953627374021055907e-03
6.250000000000000000e-01,6.618688246271631215e-02,3.353907827187864454e-02,3.444841684925258746e-02
6.260000000000000009e-01,-2.120337734077091391e-02,8.588494365539449740e-03,3.103189215389826061e-02
6.270000000000000018e-01,-2.013894566421893864e-02,-1.432248605705120810e-02,-1.199527024762622393e-02
6.280000000000000027e-01,-4.803510734177187519e-02,-4.361158229660830332e-02,-5.597538530891166264e-02
6.290000000000000036e-01,-1.510304458311484063e-02,-1.958329642534981790e-02,-2.572221242098883184e-02
6.300000000000000044e-01,2.724182681271674136e-02,2.338627121754065924e-02,-1.144817808542617985e-02
6.310000000000000053e-01,4.595779200111472368e-02,6.222922304400665267e-02,1.591449549015728701e-02
6.320000000000000062e-01,4.710506630398065414e-02,-7.055072979374681953e-03,1.010802567089445249e-02
6.330000000000000071e-01,-4.444638022731328686e-02,-6.320897533725686190e-02,-4.298619398780441012e-03
6.340000000000000080e-01,-6.079216159877496445e-02,-9.324280895971794048e-03,-2.158553766677378388e-02
6.350000000000000089e-01,-2.924033405663072072e-02,1.166617309087876172e-03,-2.983753808383226690e-03
6.360000000000000098e-01,3.265548454906027492e-02,2.391455299389305331e-02,-5.151010537449773408e-04
6.370000000000000107e-01,5.236344029894213215e-02,3.887346179871639662e-02,3.735356757196477140e-02
6.380000000000000115e-01,3.862730103926345637e-02,2.088359165997174909e-03,2.529405147830488670e-02
6.390000000000000124e-01,-2.103867345238891531e-02,-3.508986640052765699e-02,-2.085168677713185575e-03
6.400000000000000133e-01,-3.577886796098922462e-02,-2.223876039713822833e-02,-1.705157937784637992e-02
6.410000000000000142e-01,-4.742667322035763744e-02,3.479511501618680639e-04,-4.131991697742827541e-02
6.420000000000000151e-01,9.174179949192257100e-03,3.082285944970279343e-02,-8.933186888376746376e-03
6.430000000000000160e-01,5.748814011014090342e-02,4.092628586663981521e-02,3.720341612780735108e-02
6.440000000000000169e-01,6.107167571470025966e-03,1.625311984214476355e-02,1.378194009960381598e-02
6.450000000000000178e-01,-6.161537120393725288e-03,-5.002182488488398499e-02,1.147778020234966993e-02
6.460000000000000187e-01,-2.585843965078181081e-02,-3.793792053675960202e-02,-5.981859103249792357e-03
6.470000000000000195e-01,-3.672318536350534235e-02,1.236551207589793588e-02,-4.011570392033637217e-02
6.480000000000000204e-01,1.743169519634648387e-03,5.496599168202585817e-02,2.881568894166440867e-02
6.490000000000000213e-01,7.585830471203998393e-02,3.246327349889770869e-02,3.445730903808874590e-02
6.500000000000000222e-01,2.075618127843849650e-02,1.358487478603145372e-02,2.379643521308127604e-02
6.510000000000000231e-01,-5.690509023059061450e-02,-2.975819153906887268e-02,-1.045005163018359641e-02
6.520000000000000240e-01,-8.201715112782599626e-02,-3.110526419331437892e-02,-2.137887480202288470e-02
6.530000000000000249e-01,-2.781399284703374788e-02,-1.197056280011864768e-03,-4.835514655594957273e-02
6.540000000000000258e-01,2.550441921324805503e-02,2.418921970420108213e-05,-2.649024611095335182e-03
6.550000000000000266e-01,6.462509340730789031e-02,6.173309052092804811e-02,2.833512622508541773e-02
6.560000000000000275e-01,1.254539543331732385e-02,-1.872367836489675919e-02,1.514154991416873618e-02
6.570000000000000284e-01,-3.966098852173181866e-02,-3.904437940607041052e-02,-1.066485468696061305e-02
6.580000000000000293e-01,-4.920032112230399851e-02,-5.207372912471255888e-02,-5.814571861530937191e-02
6.590000000000000302e-01,-2.252258950654147454e-02,2.336315722780227602e-02,-2.272984729358806105e-02
6.600000000000000311e-01,1.360845133102751674e-02,2.075235459527152021e-02,6.861366673629799330e-03
6.610000000000000320e-01,3.432510172928666947e-02,5.335718707935704214e-02,5.636021514898729295e-03
6.620000000000000329e-01,2.597546732998589833e-02,-3.522494386263617244e-02,1.624561909168529758e-02
6.630000000000000338e-01,-5.876180031747094828e-02,-2.676325086395968389e-02,-1.342934083115421978e-02
6.640000000000000346e-01,-7.992337385231428060e-02,-1.271235051145766688e-02,-1.193173980589074673e-02
6.650000000000000355e-01,-2.830271247612510532e-02,1.304026099317471404e-02,3.550445765202593727e-03
6.660000000000000364e-01,2.018053858756698599e-02,6.379755694874772454e-02,-1.313443649432157433e-02
6.670000000000000373e-01,5.645276590233277991e-02,3.815746611842580488e-02,3.468193231925483649e-02
6.680000000000000382e-01,3.748210150913430100e-02,-2.557251669708594972e-03,1.641607420005613757e-02
6.690000000000000391e-01,-2.248105645543952910e-02,-6.112094989243958137e-02,-7.828438059084417977e-03
6.700000000000000400e-01,-5.460260644963303017e-02,-2.579793397565519411e-02,-1.403429503011432121e-02
6.710000000000000409e-01,-1.348083928966493233e-02,8.490976530020366911e-03,-2.100838010716410062e-02
6.720000000000000417e-01,3.889250841955281535e-02,4.937121463468861077e-02,-1.474158047759995850e-02
6.730000000000000426e-01,4.657136586985741872e-02,2.005116365724025559e-02,4.056404589491465623e-02
6.740000000000000435e-01,7.077919363271008117e-03,-1.823267352308375819e-02,1.979176241355146831e-02
6.750000000000000444e-01,-7.312040229533006003e-03,-3.187263061689761534e-02,2.475917168345015754e-02
6.760000000000000453e-01,-3.724487507959167026e-02,-2.373249925604468957e-02,-5.515742200743731227e-02
6.770000000000000462e-01,-1.501007894735695118e-02,9.938319090509104697e-03,-3.544749903973379995e-02
6.780000000000000471e-01,2.674438637570650604e-02,4.772108511353651689e-02,-2.873919668105616443e-02
6.790000000000000480e-01,3.576844937782146239e-02,2.681986887712417209e-02,2.910530824652504331e-02
6.800000000000000488e-01,2.291977216663182437e-02,-3.309720495523302969e-02,5.913546805632176415e-04
6.810000000000000497e-01,-2.491823744742736185e-02,-3.253539217181380949e-02,-2.177727305951995471e-03
6.820000000000000506e-01,-6.525389413077722911e-02,-4.678712847692522575e-02,-4.858694608460066566e-02
6.830000000000000515e-01,-3.108704263768590978e-02,5.863102192099721444e-02,-4.687190709146157874e-02
6.840000000000000524e-01,4.302435023768046152e-02,-2.071292324104671075e-04,-1.972734627961166432e-03
6.850000000000000533e-01,5.999469024552293167e-02,2.430350202775169097e-02,8.751582337849887760e-03
6.860000000000000542e-01,1.846058467104650519e-02,-2.931033990294066444e-02,3.058035809121245965e-02
6.870000000000000551e-01,-5.863987479152770604e-02,-4.912202661735772663e-02,7.651836498845061146e-03
6.879999999999999449e-01,-2.810945209359045141e-02,-4.601022643076916989e-03,-1.366944887725894328e-02
6.889999999999999458e-01,-1.426505054261980633e-02,5.251626455662686960e-02,-1.122652229413814012e-02
6.899999999999999467e-01,4.522568318266066006e-02,4.011673026158444483e-02,5.981309975336360912e-04
6.909999999999999476e-01,4.019359242257101311e-02,2.443034266370787411e-02,1.054492444466719435e-02
6.919999999999999485e-01,3.411619205306819138e-03,-2.900872161926154255e-02,1.387884748147984008e-02
6.929999999999999494e-01,-3.172664437541883320e-02,-7.419357280399141441e-02,1.743060178496502396e-02
6.939999999999999503e-01,-6.232539714641754242e-02,-2.503813693377433119e-02,2.199738572839962658e-02
6.949999999999999512e-01,-1.901140130103536399e-02,1.747817119488858165e-02,-3.119768079979093681e-02
6.959999999999999520e-01,2.434124494104720343e-02,5.251633407277375015e-02,1.346015036354094620e-02
6.969999999999999529e-01,7.001685926722915621e-02,-8.977165850322006008e-03,7.521724696845363996e-03
6.979999999999999538e-01,1.604397387817062953e-02,-7.449730267855644850e-02,2.853100745732038007e-02
6.989999999999999547e-01,-5.153045477957887005e-02,-3.205729130251077502e-02,3.011715914635394037e-02
6.999999999999999556e-01,-6.564765981053201360e-02,-9.217538416738632265e-03,-3.397469535303244970e-02
7.009999999999999565e-01,-3.026555967990330470e-02,3.529311823520588087e-02,-2.512125590889717139e-02
7.019999999999999574e-01,4.220978700469708161e-02,4.275063531110662174e-02,-2.237634172499367025e-02
7.029999999999999583e-01,7.221494763861793786e-02,-1.157834458429359177e-02,1.264218098248865753e-02
7.039999999999999591e-01,-3.420288683293598413e-03,-3.616340443866324084e-02,4.496606190041926160e-02
7.049999999999999600e-01,-4.246709118675712213e-02,-3.695816771713781451e-02,-4.885383554767129891e-03
7.059999999999999609e-01,-4.925027597175179322e-02,7.429008180990849010e-03,-2.858061347594489932e-03
7.069999999999999618e-01,-1.184879698978702316e-02,6.615446842923387426e-04,-3.121577289448199122e-02
7.079999999999999627e-01,5.981975751593571894e-02,5.603917114718467984e-02,-4.611997696321817972e-05
7.089999999999999636e-01,5.111710191411966003e-02,3.911871517467272082e-03,2.570250153482007104e-03
7.099999999999999645e-01,2.756057344207530138e-02,-1.448153338030720196e-02,2.849993931670720751e-02
7.109999999999999654e-01,-2.285572275359844252e-02,-1.957148785849904468e-02,1.743151683155930859e-02
7.119999999999999662e-01,-6.290928597811031031e-02,-2.165466470350942835e-02,-4.395597038053793149e-02
7.129999999999999671e-01,6.756492623564527497e-03,2.952749014833397356e-02,-4.458876448212695937e-02
7.139999999999999680e-01,6.532143261928440026e-02,3.460897501177782887e-02,-1.219373511426492460e-03
7.149999999999999689e-01,5.096989883753442335e-02,7.076960836952109375e-03,5.643289522978306612e-03
7.159999999999999698e-01,-3.122099233291409856e-02,-2.749427830647432208e-02,2.612396368260491014e-02
7.169999999999999707e-01,-3.538547335110139164e-02,-2.337834283284229153e-02,1.439100818568595300e-02
7.179999999999999716e-01,-5.445229928795486396e-02,-5.561703781176293229e-03,-7.281344357531053732e-03
7.189999999999999725e-01,-3.009541930504907800e-02,3.650949346407196539e-02,-4.381156518043865383e-03
7.199999999999999734e-01,2.506145545685468934e-02,5.916837899239910797e-02,-7.499507942629923644e-03
7.209999999999999742e-01,8.250259230751447181e-02,-8.162861693564782417e-03,2.353437544715425780e-02
7.219999999999999751e-01,3.847970146050305046e-02,-3.052682458087957809e-02,1.680971075376172866e-02
7.229999999999999760e-01,-9.863983175423871388e-03,-1.540194981622132996e-02,2.640995883768506095e-02
7.239999999999999769e-01,-4.544227158250831178e-02,2.074612654402547759e-02,-2.363441266204938454e-02
7.249999999999999778e-01,-3.414450327671793295e-02,5.726567036094031699e-02,-4.713416784320068748e-02
7.259999999999999787e-01,4.775977097912015128e-03,3.332934440962041084e-02,-7.211784341507608380e-03
7.269999999999999796e-01,3.162113188930797125e-02,-6.413176066925849010e-03,1.603924753391450242e-02
7.279999999999999805e-01,1.945657754527051675e-03,-4.712265341290113041e-02,1.763257714097193896e-02
7.289999999999999813e-01,-3.763156714613351272e-02,-5.994930410937319293e-02,2.197093308657808650e-02
7.299999999999999822e-01,-5.779647149131506706e-02,-7.079671328463274863e-03,-3.104963503038632791e-02
7.309999999999999831e-01,-3.845724698684204607e-02,3.967873489352904265e-02,-6.895978891907201397e-03
7.319999999999999840e-01,3.865015737453251360e-02,2.802458346686269308e-02,-4.146531060078839648e-02
7.329999999999999849e-01,3.769983877318645871e-02,2.032133514496525448e-02,9.345866014914206571e-03
7.339999999999999858e-01,5.955112188284345659e-02,-4.666452228761388404e-02,6.523505816767721788e-02
7.349999999999999867e-01,-4.272010040541797393e-02,-4.108574990223313322e-02,1.556510678859756094e-02
7.359999999999999876e-01,-9.476863476661266661e-02,-2.174074669740687707e-02,-5.348806858897227866e-03
7.369999999999999885e-01,-2.670349167566684126e-02,2.373190798876421287e-02,-2.554048886303045621e-02
7.379999999999999893e-01,3.864110839709485046e-02,6.389352126069115789e-02,3.733057840743351369e-03
7.389999999999999902e-01,5.978961312431229497e-02,-6.865594221054855881e-03,8.218648671181067594e-03
7.399999999999999911e-01,2.518516257889277105e-02,-3.750256655846962578e-02,4.111222347211205413e-02
7.409999999999999920e-01,-2.818679041387354631e-02,-5.709283261383307079e-02,2.847773565167264001e-02
7.419999999999999929e-01,-6.885810890617594104e-02,-1.166180879801784372e-02,-3.082728737495333757e-02
7.429999999999999938e-01,-1.705929539355702240e-02,4.122410912062706573e-02,-5.063851049720446973e-02
7.439999999999999947e-01,3.943788380549634320e-02,5.560620176281216853e-02,-1.203834808875628784e-02
7.449999999999999956e-01,5.049645683341543595e-02,1.340355441381388402e-02,2.838987560155204967e-02
7.459999999999999964e-01,7.313506598661576909e-03,-4.926893577280197500e-02,2.991982371765473936e-02
7.469999999999999973e-01,-1.664839200163877736e-02,-2.783958944567192784e-02,2.444337937047491929e-02
7.479999999999999982e-01,-5.369262435301153102e-02,1.006756542299750215e-02,2.114619793075251178e-03
7.489999999999999991e-01,-6.060090609196633858e-03,6.393621285620350314e-02,-2.692671163829816333e-02
7.500000000000000000e-01,1.649788041569448874e-02,2.201975862104824794e-02,-6.075138016967734922e-02
7.510000000000000009e-01,8.162774732091981900e-02,-1.256112933169877162e-02,-2.911751552572816940e-02
7.520000000000000018e-01,2.333577766629462563e-02,-2.427954111780651972e-02,5.225566959459871513e-02
7.530000000000000027e-01,-3.751288096547708562e-02,-2.277071611384036409e-02,2.863697197192083266e-02
7.540000000000000036e-01,-4.748870497318008477e-02,2.872926367242341003e-02,2.973088867111070479e-03
7.550000000000000044e-01,-2.815848346544812947e-03,3.347609117440463605e-02,-2.087235297015633401e-02
7.560000000000000053e-01,3.062797904512386260e-02,5.580383887254854181e-02,-2.500358376468409666e-02
7.570000000000000062e-01,5.105344649149530512e-02,-1.510957425160782720e-02,1.089503320867169639e-02
7.580000000000000071e-01,-1.115410541279305591e-02,-2.862710859381835740e-02,3.820096587911898933e-02
7.590000000000000080e-01,-2.961474778420546475e-02,-3.790336635872471743e-02,2.475027115125695912e-02
7.600000000000000089e-01,-4.286504481945220546e-02,2.189584537340445031e-02,-1.504099204178325697e-02
7.610000000000000098e-01,-3.789801571023537763e-02,5.234762254107772766e-02,-4.438587747821181456e-02
7.620000000000000107e-01,6.753920346732127100e-02,1.431026974696496777e-02,-3.399594221463025229e-02
7.630000000000000115e-01,5.696103697883154321e-02,-2.026241595332227072e-02,1.808942642957113087e-02
7.640000000000000124e-01,3.129495716279819678e-02,-1.730017829900877199e-02,2.442390130177930427e-02
7.650000000000000133e-01,-7.756605653358757124e-02,-1.224249875895375324e-02,4.107989503353227240e-02
7.660000000000000142e-01,-6.863341978671838595e-02,1.107812404108125814e-02,1.013132881085547846e-02
7.670000000000000151e-01,-2.319308344233043245e-02,6.500262442885529346e-02,-6.843367928814531737e-03
7.680000000000000160e-01,3.653257605268146746e-02,3.494303686563958455e-02,-2.777072484525658358e-02
7.690000000000000169e-01,6.699079151359664530e-02,-3.321918699910780121e-02,-2.966565679257727323e-02
7.700000000000000178e-01,4.002890511379610106e-02,-6.324608188956935828e-02,2.378008699375977128e-02
7.710000000000000187e-01,-2.368134093835304321e-02,-3.351342446410621179e-02,4.064756022970564958e-02
7.720000000000000195e-01,-4.312319783781608240e-02,1.805057070088730148e-02,1.690520577111489023e-02
7.730000000000000204e-01,2.867699020158582298e-03,5.501976294515208143e-02,-1.527652373395887997e-02
7.740000000000000213e-01,4.678896876046610004e-02,3.416240419500814196e-02,-3.514519829125515443e-02
7.750000000000000222e-01,6.984536948703541637e-02,-4.130959897789317908e-02,-4.678172356741675669e-03
7.760000000000000231e-01,1.353118661286991861e-02,-2.522755167746700000e-02,5.187054309240859279e-02
7.770000000000000240e-01,-4.466866958160337076e-02,1.190448164075776387e-03,2.712815727279515796e-02
7.780000000000000249e-01,-3.318810750363098555e-02,2.845975242586765153e-02,-1.658385848926935066e-02
7.790000000000000258e-01,-3.177560825313045095e-02,5.866622379260336140e-02,-1.890792880719232433e-02
7.800000000000000266e-01,8.217981776508477554e-02,4.861091373555852940e-02,5.462058464208233155e-03
7.810000000000000275e-01,6.587019963937643108e-02,-4.916497604927242554e-02,-2.916350149247186330e-02
7.820000000000000284e-01,2.353041941093052258e-02,-3.176596810873688614e-02,4.057215118293031053e-02
7.830000000000000293e-01,-3.541932902743607364e-02,-3.525245926648765127e-02,1.090927696996755840e-02
7.840000000000000302e-01,-5.806148117667236930e-02,2.821806573392317621e-02,9.360443845926373629e-03
7.850000000000000311e-01,-4.083195898973121518e-02,4.094665928299816987e-02,-5.227123222253030055e-02
7.860000000000000320e-01,2.552854982036350390e-02,3.748773148013607830e-04,-4.191566301570685132e-02
7.870000000000000329e-01,4.085874948309393961e-02,-4.426567207774576712e-02,-7.432608855939791537e-04
7.880000000000000338e-01,1.264998832645627090e-02,-1.962233279633187472e-02,2.759594704875380222e-02
7.890000000000000346e-01,-4.698881590278815995e-02,-4.667131243390595235e-02,4.231085390582407790e-02
7.900000000000000355e-01,-4.684697103673340218e-02,3.752253739325922544e-02,2.622301872984869262e-02
7.910000000000000364e-01,-1.356047027667075557e-02,3.098486836996327057e-02,-1.239929724054373780e-02
7.920000000000000373e-01,3.704257503525273248e-02,2.623508488617003198e-02,-2.804929874415616059e-02
7.930000000000000382e-01,4.644452703066108412e-02,-4.393492705868442399e-02,-2.677073823315735679e-02
7.940000000000000391e-01,2.149501944201883188e-02,-5.065627476150338926e-02,5.685374916996249750e-03
7.950000000000000400e-01,-3.737396707680969848e-02,-3.936456537288953589e-02,5.379850253173858177e-02
7.960000000000000409e-01,-8.161535673713850303e-02,1.095190740294680644e-02,-9.304209784785698149e-04
7.970000000000000417e-01,1.275192861130155890e-02,1.539717646960112214e-02,9.396761984934873246e-03
7.980000000000000426e-01,1.221013764154171670e-02,1.894587373531044991e-02,-2.742327485890836899e-02
7.990000000000000435e-01,6.518520826623998288e-02,-3.592108995511514996e-02,-1.854612020861978738e-02
8.000000000000000444e-01,2.749235234265827443e-02,-4.204131308299646763e-02,1.505565316615373010e-02
8.010000000000000453e-01,-5.008715861687049187e-02,-2.498320333151565764e-02,2.169637250650323368e-02
8.020000000000000462e-01,-5.472676955206502714e-02,2.262122138390116124e-02,2.235493065393731604e-02
8.030000000000000471e-01,-1.746014166841440996e-03,1.719406381743616638e-02,-2.481825556169270711e-02
8.040000000000000480e-01,4.113608228940279082e-02,1.639117033523432646e-02,-1.202681473939444176e-02
8.050000000000000488e-01,4.767096811352689034e-02,-3.894194806584457685e-02,-2.889572465666473411e-02
8.060000000000000497e-01,2.428751448277724490e-02,4.804957464544716388e-03,2.115255803520908404e-02
8.070000000000000506e-01,-7.376104525974571703e-03,-1.958973939963728692e-02,4.861912673430669740e-02
8.080000000000000515e-01,-7.054382716071795623e-02,4.146411059851978775e-02,2.226181183174113370e-02
8.090000000000000524e-01,-2.405421288343665906e-02,5.618479562346508777e-02,-2.709342506182068917e-03
8.100000000000000533e-01,4.687142357272706256e-02,2.639318724003732880e-02,-3.873220527421306764e-02
8.110000000000000542e-01,7.434523701367874715e-02,-1.854838622176701105e-02,-2.440906295619708552e-02
8.120000000000000551e-01,3.838302622774478201e-02,-3.807195675557625836e-02,1.262140610777795144e-02
8.129999999999999449e-01,-3.263959703708716603e-02,-3.327583702565230228e-03,6.358267268381611985e-03
8.139999999999999458e-01,-5.054177624667435115e-02,1.475140119794639444e-02,2.919486141054464983e-04
8.149999999999999467e-01,-2.610906319393392627e-02,2.330668750446712734e-02,-1.309139734140552479e-02
8.159999999999999476e-01,4.579148090050035730e-02,3.334979150116219870e-02,-4.017423946889792791e-02
8.169999999999999485e-01,5.028247277209577093e-02,-2.358229433854044585e-02,-1.438764494238843270e-02
8.179999999999999494e-01,2.774755339265602000e-03,-2.846239184767643607e-02,1.773677179819896366e-02
8.189999999999999503e-01,-3.907567418276009646e-02,-3.160804129923399210e-04,5.907323538402372079e-03
8.199999999999999512e-01,-5.718109703351419854e-02,5.027936641197908868e-02,2.080919247750043916e-02
8.209999999999999520e-01,2.269929868092552226e-03,4.755099663247881053e-02,-2.117501048701096733e-02
8.219999999999999529e-01,3.070812650095395072e-02,3.471063625366707997e-03,-6.570757729613019293e-02
8.229999999999999538e-01,4.696955544450917563e-02,-5.786578705666767936e-02,1.106453573082338826e-02
8.239999999999999547e-01,1.464894255123244497e-02,-3.650585790188327906e-02,1.513443230363487393e-02
8.249999999999999556e-01,-5.560004894589873348e-02,6.306667867605158032e-03,5.649755420193242755e-02
8.259999999999999565e-01,-3.555523474935485401e-02,6.021291308241524809e-02,1.994753001353815128e-02
8.269999999999999574e-01,-2.113245147292452594e-02,3.963691310663268463e-02,7.170157684631460818e-03
8.279999999999999583e-01,4.316379485459356791e-02,1.477405135129082831e-03,-5.310368256540293208e-02
8.289999999999999591e-01,6.686913364193534937e-02,5.232769746327082562e-03,-9.249890885446867064e-03
8.299999999999999600e-01,4.432298853607338079e-02,-4.546227012406539592e-02,-1.975579208506971635e-02
8.309999999999999609e-01,-5.411721582627732757e-02,1.598132166667477067e-02,1.957031329658014823e-02
8.319999999999999618e-01,-6.983804138195483235e-02,5.586209551390916572e-02,2.289160585327070646e-02
8.329999999999999627e-01,1.087822772962571301e-02,3.867140277689604805e-02,-2.477390961172923345e-02
8.339999999999999636e-01,4.578299030550787851e-02,-1.100007841588655083e-02,-7.191459646183809284e-02
8.349999999999999645e-01,6.925700093046718853e-02,-5.105159880619581508e-02,-1.555992672538951752e-02
8.359999999999999654e-01,1.846982652558318630e-02,-7.214636037984710482e-02,-1.795128061014119106e-02
8.369999999999999662e-01,-6.005939791227212637e-02,-2.113761532742332479e-03,2.844033080855958365e-02
8.379999999999999671e-01,-3.510875263578150385e-02,2.539677712294195755e-02,4.042050368713043934e-02
8.389999999999999680e-01,-3.064492395243852488e-02,5.950605629043326933e-02,-1.991587367342225953e-02
8.399999999999999689e-01,3.754133551301933047e-02,-7.451669142081551560e-03,-2.154496075379623565e-02
8.409999999999999698e-01,4.998373139267370258e-02,-5.350779703919323477e-02,-1.997094810280627269e-02
8.419999999999999707e-01,6.435598068140100173e-03,-4.378985123531502210e-02,3.481743728836262969e-04
8.429999999999999716e-01,-2.947866112598959351e-02,-2.010269766843608436e-03,1.516383152372397479e-02
8.439999999999999725e-01,-5.814404870145265664e-02,4.780010064884999271e-02,3.245878149528109990e-02
8.449999999999999734e-01,-1.068604286280006380e-02,2.627106912030744562e-02,-3.682354222356670065e-02
8.459999999999999742e-01,6.908039785972490410e-02,-4.026614766424053971e-02,-1.613331962112594942e-02
8.469999999999999751e-01,5.209725464669349299e-02,-5.016553736471603825e-02,-5.902195945189190468e-02
8.479999999999999760e-01,6.761749593910469473e-03,-4.738623118667686235e-02,1.222803474146818593e-02
8.489999999999999769e-01,-3.480950361439931473e-02,6.947063187986025901e-03,2.191679038427934989e-02
8.499999999999999778e-01,-5.962712660253297048e-02,2.461783754112181061e-02,3.914266507504042536e-02
8.509999999999999787e-01,1.591998599961967631e-02,2.146603781299542130e-02,1.933438033986163360e-02
8.519999999999999796e-01,3.069497308225823881e-02,-1.200105077290648109e-02,-6.059507770324481748e-05
8.529999999999999805e-01,5.122518428826983161e-02,-3.023643137365263078e-02,-2.785404024980963917e-03
8.539999999999999813e-01,-4.899056266478159574e-03,-1.204434836610229591e-02,-6.105166725342961453e-03
8.549999999999999822e-01,-4.814489468562204583e-02,3.380520760091481475e-02,5.853821698938323215e-02
8.559999999999999831e-01,-5.679135340768871193e-02,4.464657748037243606e-02,1.742351533164838984e-02
8.569999999999999840e-01,-4.886074444326043639e-03,-2.687809832685780775e-03,9.984327234656791700e-03
8.579999999999999849e-01,4.099190715113650713e-02,-1.861491616754891096e-02,-2.724154754699495071e-02
8.589999999999999858e-01,3.766207642697735197e-02,-7.129196263678543033e-02,-1.725234616852447736e-02
8.599999999999999867e-01,-2.720032544311514963e-02,-2.063447432500332968e-02,-6.922173924155602953e-03
8.609999999999999876e-01,-3.992891763667292399e-02,1.571980027529761362e-02,4.129568212235455726e-02
8.619999999999999885e-01,-5.330795760746837031e-02,4.440077237025814166e-02,1.926894541152454621e-02
8.629999999999999893e-01,-4.302941055861245895e-02,2.555184423983646730e-02,-5.874330384013736264e-03
8.639999999999999902e-01,5.187539486312260639e-02,-1.112240576390081948e-02,-2.761074953254936265e-02
8.649999999999999911e-01,6.433917682189797815e-02,-3.603160797635464319e-02,-1.695058325959201279e-02
8.659999999999999920e-01,-4.576202992200237470e-03,-2.377546687464240222e-02,3.923847883695978644e-04
8.669999999999999929e-01,-6.436123532166959128e-03,-1.177190883772512254e-03,1.829154803188631773e-02
8.679999999999999938e-01,-6.537579640062002317e-02,2.331663377938426873e-02,4.003065088747613520e-02
8.689999999999999947e-01,-2.715009120153045671e-02,3.911345286292140788e-02,-4.332637419494574094e-02
8.699999999999999956e-01,3.779401061870760886e-02,3.732094699948504402e-02,-3.525700220842543919e-02
8.709999999999999964e-01,5.856929782892964648e-02,-5.586480891006498362e-02,-3.134858656162360646e-02
8.719999999999999973e-01,2.421482602920752014e-02,-2.132489324490375801e-02,1.742610583580917263e-02
8.729999999999999982e-01,-3.719290846526270011e-02,1.461552577020727370e-02,3.199206296436567232e-02
8.739999999999999991e-01,-4.670062426558782565e-02,6.996380185862578760e-02,5.373316790247390645e-02
8.750000000000000000e-01,-2.458071007595954635e-02,9.440455557806586018e-03,7.173304911177044545e-03
8.760000000000000009e-01,4.154955410569725893e-02,-2.275715679627497712e-02,-4.639468911394175471e-02
8.770000000000000018e-01,2.919278317993162161e-02,-5.442831700358400498e-02,-4.717719951520726873e-02
8.780000000000000027e-01,5.290846524659816724e-02,-1.862592948537870885e-02,1.113756680048005572e-03
8.790000000000000036e-01,-6.862240399141830184e-03,3.992816222508202562e-02,3.647751817696890525e-02
8.800000000000000044e-01,-6.356670256194860147e-02,4.340775000319702093e-02,1.834427444379996969e-02
8.810000000000000053e-01,-1.423163173584408511e-02,3.476203413750909854e-02,-2.419926413112110687e-04
8.820000000000000062e-01,4.527956381665534935e-02,-4.750526594558854981e-03,-4.417456879924460539e-02
8.830000000000000071e-01,6.622958645112760057e-02,-4.899743410106634223e-02,-4.515721999467640912e-02
8.840000000000000080e-01,1.637636556462824643e-03,-2.507105541067978106e-03,-2.476017945134227280e-02
8.850000000000000089e-01,-6.165275233791610993e-02,2.215986967798578081e-02,3.301693656873498639e-02
8.860000000000000098e-01,-6.173388934333047529e-02,2.911246624276541198e-02,4.706041225882608148e-02
8.870000000000000107e-01,-2.114869582827152636e-02,2.779746888941745861e-02,-1.524435784790862010e-02
8.880000000000000115e-01,2.484124336370373623e-02,-5.249478314076625948e-03,8.959858180321649337e-03
8.890000000000000124e-01,3.038153299055500536e-02,-4.019061626170906953e-02,-4.669363788906927271e-02
8.900000000000000133e-01,4.942822305868796798e-03,-6.431965418510349197e-02,-1.733284261021422398e-02
8.910000000000000142e-01,-4.715072106667395069e-02,1.155364676831488642e-02,2.137861386162712846e-02
8.920000000000000151e-01,-5.512285696903119342e-02,6.799243986518783978e-02,4.862387681884951934e-02
8.930000000000000160e-01,-3.545850868777505188e-02,7.481301820767336137e-03,1.861032917331793476e-02
8.940000000000000169e-01,4.929885752198671922e-02,-3.784148710998557624e-02,-1.473734409336270243e-02
8.950000000000000178e-01,6.741345892006476992e-02,-6.602667889176434823e-02,-3.101042818525826320e-02
8.960000000000000187e-01,1.665064599172609225e-02,-1.019839682614910809e-03,-1.558115148271217720e-02
8.970000000000000195e-01,-2.835367884954266907e-02,2.249800984164829556e-02,1.542712771957635044e-02
8.980000000000000204e-01,-6.424256325802980838e-02,2.603835912116442275e-02,2.053867014390644771e-02
8.990000000000000213e-01,-4.921978933054242666e-02,-1.288454635007622515e-02,2.313926614634960119e-02
9.000000000000000222e-01,4.049466073999893195e-02,-2.733748631976472623e-02,-2.208778788701478910e-02
9.010000000000000231e-01,6.418334460034863520e-02,-5.336247653135965663e-02,-2.419452327880761491e-02
9.020000000000000240e-01,2.125707583881791471e-02,1.249340948064997861e-02,-8.905048099571651748e-03
9.030000000000000249e-01,-2.365095191672567793e-02,5.229763455173255110e-02,-1.552181457218982340e-02
9.040000000000000258e-01,-4.163586403845268707e-02,2.566767827216275347e-02,9.153396065035864990e-03
9.050000000000000266e-01,-5.569168235464756755e-02,-3.267781460499583068e-02,5.622605077106319731e-03
9.060000000000000275e-01,3.264869561235585887e-02,-1.275832488822010134e-02,-3.069886525144292083e-02
9.070000000000000284e-01,3.672913526507973203e-02,-5.788840048990863407e-02,-4.509224073236820646e-02
9.080000000000000293e-01,2.078996434044729641e-02,-1.701191694205464011e-04,-1.757194327508425878e-03
9.090000000000000302e-01,-4.015108695317507609e-02,2.930467050342136850e-02,-9.295186210328749629e-03
9.100000000000000311e-01,-8.294311910022807155e-02,4.812599643725743587e-02,3.117703196735138044e-02
9.110000000000000320e-01,-2.288449807968936239e-02,2.798668799048814604e-02,5.765016368587875910e-03
9.120000000000000329e-01,4.866477699132826934e-02,-2.932864275895730524e-02,-7.511050475288337351e-03
9.130000000000000338e-01,6.644635541941493195e-02,-4.183512549697377542e-02,7.354227696114333350e-03
9.140000000000000346e-01,1.456293974776166206e-02,-1.013411723572289237e-02,-2.986464803627783549e-02
9.150000000000000355e-01,-2.970744195092448262e-02,2.685850330595249830e-02,2.344594609692918566e-02
9.160000000000000364e-01,-5.595327550697308527e-02,5.302433617380893083e-02,5.525978301431764411e-02
9.170000000000000373e-01,-2.398245105042757369e-02,-5.534845137633195682e-03,4.124301615449375152e-02
9.180000000000000382e-01,2.530580770861558249e-02,-1.786633233886166308e-02,-3.651570918578038449e-02
9.190000000000000391e-01,5.658872631584527246e-02,-2.579969772188582533e-02,-2.290314095034163416e-02
9.200000000000000400e-01,1.429943935440462083e-02,-9.615320519665437535e-03,1.463595243495612909e-02
9.210000000000000409e-01,-7.692746600871393226e-02,2.675584047480434810e-02,2.519188239232471316e-02
9.220000000000000417e-01,-7.987619400097054068e-02,3.355618464593838196e-02,3.585767976918206867e-02
9.230000000000000426e-01,-4.590062893404171611e-03,3.067133554849927474e-02,3.074449127265576134e-02
9.240000000000000435e-01,1.023143459470148703e-02,-4.332995185237839553e-02,-4.048379516434447850e-02
9.250000000000000444e-01,4.249862118095246166e-02,-3.661339410945717299e-02,-4.535077930254751560e-02
9.260000000000000453e-01,-9.021078987741347347e-04,4.164417576628110830e-03,-2.235540215126985072e-02
9.270000000000000462e-01,-3.469674246619650765e-02,4.902382351813668743e-02,2.143494227307528310e-02
9.280000000000000471e-01,-5.757388803481213596e-02,3.578785183319559832e-02,4.310901344297567162e-02
9.290000000000000480e-01,-2.279114926869660676e-02,-9.088184764401225496e-03,1.077179367421429897e-02
9.300000000000000488e-01,2.854078484504237942e-02,-3.936991334842401824e-02,-2.913878780444520769e-02
9.310000000000000497e-01,6.856057699233324143e-02,-7.830964626271100237e-03,-2.162818344470341866e-02
9.320000000000000506e-01,2.304726503555253742e-02,2.332785805256219411e-02,-3.810923026009201131e-02
9.330000000000000515e-01,-4.766712064332569165e-02,2.959147500967869437e-02,7.235280625976718560e-03
9.340000000000000524e-01,-7.138742579913043285e-02,4.114920976942536279e-02,2.144137756745163534e-02
9.350000000000000533e-01,-3.374028631264873457e-02,-4.455541186298025112e-03,-9.236442641875961326e-03
9.360000000000000542e-01,4.161341300475299848e-02,-3.219496595505758757e-02,1.060575085874915918e-02
9.370000000000000551e-01,4.096835327976076913e-02,-3.080182417489345237e-02,-3.839400635579345161e-02
9.379999999999999449e-01,2.087289075792782278e-02,-3.007459400647603115e-02,-2.034314779029446421e-02
9.389999999999999458e-01,-4.543804996452126266e-02,3.330117589739291228e-02,3.244637366304425896e-02
9.399999999999999467e-01,-5.709292888587814974e-02,2.485328177480787895e-02,3.443273389152181480e-02
9.409999999999999476e-01,7.987010868202991387e-03,-2.226087721693273055e-02,-2.444993947987972316e-03
9.419999999999999485e-01,1.123733153820594306e-02,-1.414974263237556151e-02,-6.768170369524653500e-03
9.429999999999999494e-01,3.711137513201703125e-02,-3.945144537295745824e-02,-2.728122765591691617e-02
9.439999999999999503e-01,3.926390646558836767e-02,-1.104951656573143620e-02,-3.454740879649511459e-02
9.449999999999999512e-01,-2.147714146177612249e-02,7.817164681327720688e-02,-3.562714339608206993e-02
9.459999999999999520e-01,-6.385061828692151220e-02,4.132478165746378967e-02,3.024721304262532884e-02
9.469999999999999529e-01,-1.694899441810867116e-02,-2.098213799122839937e-02,3.421567044401471747e-02
9.479999999999999538e-01,5.327351265675039915e-02,-4.664206607591982190e-02,9.114071122332988856e-03
9.489999999999999547e-01,8.014404538131006395e-02,-3.617997668569099268e-02,-2.881035733310367483e-02
9.499999999999999556e-01,3.183127377724961904e-02,6.850587598471695808e-03,-1.020040123556876198e-02
9.509999999999999565e-01,-4.168590989936754587e-02,7.509010115883490988e-02,1.878308803285972436e-03
9.519999999999999574e-01,-6.139766630904145567e-02,5.689539111005299105e-02,4.748756984645067375e-02
9.529999999999999583e-01,-2.208537694585028036e-02,4.813269053175079910e-04,8.673923117405016314e-03
9.539999999999999591e-01,2.826339256529195737e-02,-4.713127094760885538e-02,1.401666832607113876e-03
9.549999999999999600e-01,6.901464626448959583e-02,-4.837130674022895732e-02,1.323859666395053869e-03
9.559999999999999609e-01,5.075863138230747064e-03,2.593376932404953695e-03,1.322249989466357453e-02
9.569999999999999618e-01,-3.139505551769625896e-02,5.989163348358852307e-02,-1.410006608123699420e-02
9.579999999999999627e-01,-6.312211353515256862e-02,4.153563146973490716e-02,3.515369040395237288e-02
9.589999999999999636e-01,-1.461656973781144675e-02,-9.728121008013707049e-03,2.082993475501027092e-02
9.599999999999999645e-01,6.924082864955126426e-02,-1.583336683240308546e-02,1.587214868761547756e-02
9.609999999999999654e-01,5.942066041869563386e-02,-2.709275039730807411e-02,-4.224972371703246410e-02
9.619999999999999662e-01,2.672811740379820583e-03,2.318549160093277481e-02,-3.495673546475831089e-02
9.629999999999999671e-01,-2.925422437040864701e-02,4.626445186230811191e-02,-6.512675092123951584e-03
9.639999999999999680e-01,-3.766777844267142628e-02,2.471143968256839588e-02,5.394997164508914811e-02
9.649999999999999689e-01,1.448859639868945934e-02,-4.940862596306933030e-02,2.393686994408941032e-02
9.659999999999999698e-01,5.344389462967516491e-02,-2.070761264108670827e-02,-9.835450241370974345e-03
9.669999999999999707e-01,7.241901237920067569e-02,-1.369222382876130947e-02,-2.913819032433333234e-02
9.679999999999999716e-01,1.523725266412569342e-02,2.308663298040665446e-02,-3.590380787879440122e-02
9.689999999999999725e-01,-4.884807244104708707e-02,4.366423857253751151e-02,-4.456395402083839635e-02
9.699999999999999734e-01,-5.463116967161543713e-02,2.162947223810572986e-02,4.767435797702276185e-02
9.709999999999999742e-01,-8.752207080193367267e-03,-5.556877195003144532e-02,5.999011124439140169e-02
9.719999999999999751e-01,8.818211979398513090e-02,-5.451192251114417991e-02,2.176634239802416673e-02
9.729999999999999760e-01,8.387679838495203100e-02,-2.829345476708186244e-02,-3.837469536296083533e-02
9.739999999999999769e-01,-7.505120820461585497e-03,2.024998558114843999e-02,-2.602152433610910309e-02
9.749999999999999778e-01,-3.596723818646327397e-02,3.034472217534498958e-02,-3.217199759815978638e-02
9.759999999999999787e-01,-2.391853953150100548e-02,2.565812324644647577e-02,1.847377568905796477e-02
9.769999999999999796e-01,-3.467416256810719466e-02,-4.780059363203679329e-02,1.592456719419723526e-02
9.779999999999999805e-01,2.972316101281115633e-02,-6.242553100714871156e-02,9.492517713604944896e-03
9.789999999999999813e-01,8.378723967722774557e-02,-2.761899483049838969e-02,-5.816671915060374343e-02
9.799999999999999822e-01,2.979684380510359484e-02,3.538001391109232147e-02,-4.852772331056904448e-02
9.809999999999999831e-01,-1.326586528158132938e-02,5.808138562567419921e-02,-2.146929330074998695e-03
9.819999999999999840e-01,-7.140320281072222441e-02,1.491562781482612572e-02,5.960040635577930346e-02
9.829999999999999849e-01,-2.645922647119512000e-02,-3.936946779439180755e-02,3.132644179229297082e-02
9.839999999999999858e-01,5.009541484093089220e-02,-6.327391844765020701e-02,-1.616733861856750262e-02
9.849999999999999867e-01,4.141026901754003842e-02,-1.791141080193490651e-02,-3.381803556781196735e-02
9.859999999999999876e-01,-3.398325657313158027e-02,3.799611930383688975e-03,-4.100412541814092704e-02
9.869999999999999885e-01,-2.235503232672235441e-02,7.749759918848173057e-02,-3.504828242685577994e-02
9.879999999999999893e-01,-5.361218903427593385e-02,4.343489059530468953e-03,-1.534496221613456356e-02
9.889999999999999902e-01,-2.071593100543965213e-02,-2.158594337912191075e-02,4.870301413314229166e-02
9.899999999999999911e-01,2.155331121502306047e-02,-1.242167062440469386e-02,2.074229333038875647e-02
9.909999999999999920e-01,2.574696172441736167e-02,-1.516560075320252769e-02,-5.904145245737044828e-03
9.919999999999999929e-01,6.462629434765057579e-02,4.528848545073069221e-02,-1.718147277421872704e-02
9.929999999999999938e-01,-5.250554156380309728e-02,3.815456677380931610e-02,1.704269307108254375e-02
9.939999999999999947e-01,-5.900266315635319808e-02,5.592679245086313450e-02,1.866283155065132093e-02
9.949999999999999956e-01,-2.534624275457741244e-02,-2.908495791207867109e-02,1.858769407780254401e-02
9.959999999999999964e-01,4.287427711751543719e-02,-4.911082588139793065e-02,-3.588967059804258099e-03
9.969999999999999973e-01,2.912201755666673011e-02,-1.937068701440908258e-02,1.293903365281308046e-02
9.979999999999999982e-01,2.999065207265146776e-02,2.902010191666248851e-02,-3.614723372664994244e-02
9.989999999999999991e-01,-6.236094075821748545e-02,1.642920381362700938e-02,-1.134702830525918457e-02
1.000000000000000000e+00,-4.713049915651633393e-02,-2.167746199969732696e-02,4.517244367762684315e-02
1.000999999999999890e+00,-2.727870411334769665e-02,-1.950674484321169438e-02,1.410545464074532129e-02
1.002000000000000002e+00,5.601696540037769123e-02,-2.252954929267434250e-02,1.367362512930659843e-02
1.002999999999999892e+00,4.777923262589819225e-02,1.354962796745795735e-02,1.076028023828147495e-02
1.004000000000000004e+00,1.690963234067618254e-02,3.611730312414378197e-02,-5.369474365995918416e-03
1.004999999999999893e+00,-5.078468180435316559e-02,1.944660853101232503e-02,-1.382626988976136395e-02
1.006000000000000005e+00,-9.612250740596940679e-02,1.014671963608416316e-05,1.103358676473695406e-02
1.006999999999999895e+00,-3.167064632157051002e-02,-7.894436960347788607e-03,1.894548623332698023e-02
1.008000000000000007e+00,5.221931467310667735e-02,-5.092127682991745563e-02,-1.435722225442346775e-02
1.008999999999999897e+00,5.257689149699420333e-02,-3.892422548542291000e-02,-4.080270307787446649e-02
1.010000000000000009e+00,1.362054622490733308e-02,5.518719612298206290e-02,-4.775199179946983813e-02
1.010999999999999899e+00,-3.289674198130088795e-02,4.330534194230895723e-02,-2.332403288732870928e-04
1.012000000000000011e+00,-4.956680453467644104e-02,6.115343749451129275e-03,1.984118378532290922e-02
1.012999999999999901e+00,-2.523935003251127560e-02,-6.193900505197020429e-02,1.535764558289511028e-02
1.014000000000000012e+00,1.453766684776386896e-02,-2.086356782941836685e-02,-1.423577760605725974e-02
1.014999999999999902e+00,6.041851328013853745e-02,-6.286926874877227928e-03,1.486827810278702061e-02
1.016000000000000014e+00,2.970387287967853410e-02,1.293966913289677605e-02,-2.017004279466696332e-02
1.016999999999999904e+00,-3.515589028358937634e-02,2.227002099327625093e-02,-3.405104600350111060e-02
1.018000000000000016e+00,-6.358627002763984903e-02,4.514092442479739065e-02,-1.371157169707466414e-02
1.018999999999999906e+00,4.153103087636426764e-03,-7.947008204593794534e-02,1.952940350774187359e-02
1.020000000000000018e+00,1.913051923642293886e-02,-3.998706415911972012e-02,3.786296067836135426e-02
1.020999999999999908e+00,7.687781017245297333e-02,-3.671983978111800512e-03,-1.072841795049206751e-02
1.022000000000000020e+00,1.985577190406279807e-03,3.625925824863586444e-02,-3.615624147530198396e-02
1.022999999999999909e+00,-3.150664966051552884e-02,2.359714091888388474e-02,-1.063167294124083874e-02
1.024000000000000021e+00,-4.739428214267150941e-02,-1.043044961543161198e-03,1.056625163831696225e-02
1.024999999999999911e+00,-3.587457798516405921e-02,-4.456705575140627873e-02,4.111928546484641678e-02
1.026000000000000023e+00,4.800727248061865265e-02,-4.882227381356347984e-02,3.457891199771880725e-02
1.026999999999999913e+00,2.631796962826439198e-02,-1.360997527596004807e-02,-2.538482857046325120e-02
1.028000000000000025e+00,2.749521722495524428e-02,3.510383653070821286e-02,-2.637172884034882231e-02
1.028999999999999915e+00,-2.671013935126046943e-02,6.103942122758193589e-02,8.886351782726195289e-03
1.030000000000000027e+00,-4.975468248464624127e-02,-2.681150197439604449e-02,4.027537372772047736e-02
1.030999999999999917e+00,-4.449973987786802303e-03,-3.930129289595415965e-02,5.114649667446729414e-02
1.032000000000000028e+00,3.838472031952232244e-02,-3.951195997443687075e-02,1.576105264784118803e-02
1.032999999999999918e+00,6.515157576333588385e-02,1.201198212375680086e-02,-1.704832688457419768e-02
1.034000000000000030e+00,1.586929246908182906e-02,4.407167321863846021e-02,-1.572101697841252893e-02
1.034999999999999920e+00,-3.594394513707901972e-02,3.833035963695554521e-02,8.044593436462722791e-03
1.036000000000000032e+00,-7.482725469436582455e-02,-2.883283623862371511e-02,1.356815828087170640e-02
1.036999999999999922e+00,-1.883100875554406112e-02,-5.252356624610992480e-02,3.417500174853730505e-02
1.038000000000000034e+00,4.934022191432301668e-02,-5.411287745783381620e-02,2.157525578817608494e-02
1.038999999999999924e+00,4.250554950826315043e-02,1.377170720795085901e-02,9.781423786573834739e-03
1.040000000000000036e+00,2.772651531987820051e-02,2.163245267712563327e-02,-4.760738629659930915e-02
1.040999999999999925e+00,-6.966849367643038193e-02,3.516620524210975658e-03,-2.947260961732992707e-02
1.042000000000000037e+00,-4.772984639919440608e-02,-3.804692576200557896e-02,1.968320397427988575e-02
1.042999999999999927e+00,-7.823842710186913740e-03,-4.556090623402275080e-02,3.536151107281627903e-02
1.044000000000000039e+00,3.626966400560589082e-02,-4.741865381195203150e-02,1.330533651672017280e-02
1.044999999999999929e+00,6.369073093340545111e-02,2.101473378922389182e-02,6.390617552452107641e-06
1.046000000000000041e+00,1.739294079128432535e-02,6.777000620755252447e-02,-5.905742680154361934e-02
1.046999999999999931e+00,-6.321445627815923396e-02,6.177975457084680481e-03,-3.698352619510211076e-02
1.048000000000000043e+00,-8.870963851196723982e-02,-1.670033424471151565e-02,-1.254248052945460164e-02
1.048999999999999932e+00,-1.849793081958328936e-02,-4.302295203904086401e-02,1.840832236559447263e-02
1.050000000000000044e+00,7.629017357668274602e-02,-1.769299465181807529e-02,-5.360170459163386171e-03
1.050999999999999934e+00,6.463994934574006368e-02,3.966819003944877312e-03,-2.369091131804245201e-02
1.052000000000000046e+00,1.018421972666352422e-04,6.608609421268200890e-02,3.133579725631562701e-03
1.052999999999999936e+00,-4.388619979036827157e-02,4.477595127940632580e-02,-2.504486034220046453e-02
1.054000000000000048e+00,-5.152791819829697501e-02,-1.456616443772675538e-02,6.484295651675834118e-03
1.054999999999999938e+00,-8.538947027478864527e-03,-3.683911105370201583e-02,6.608600841713331911e-03
1.056000000000000050e+00,3.583734629060046639e-02,-1.687401151637168278e-02,2.655478590577315876e-02
1.056999999999999940e+00,5.088277106929866428e-02,2.672572767333209962e-02,-1.599627210343681702e-02
1.058000000000000052e+00,-2.126720227178659315e-04,4.152298306239968206e-02,6.161962169894241031e-03
1.058999999999999941e+00,-4.861646032437244580e-02,5.200185251661125496e-02,-4.272434702669412193e-02
1.060000000000000053e+00,-2.708585449017438321e-02,9.063483478002058724e-03,1.581467025530695555e-02
1.060999999999999943e+00,-2.025995986323561246e-02,-4.083036581126772008e-02,4.320280642974339003e-02
1.062000000000000055e+00,6.644148789638107400e-02,-1.962924229674480395e-02,2.054148817786949702e-02
1.062999999999999945e+00,6.500186444629622862e-02,3.402947292324106504e-02,-3.262281483696849449e-02
1.064000000000000057e+00,2.615216187258337724e-02,4.712593508822048721e-02,-3.645415508291401097e-02
1.064999999999999947e+00,-3.930448492416542539e-02,2.973749947854302869e-02,-5.537675576892903823e-03
1.066000000000000059e+00,-3.729407990367227671e-02,-2.943813073937369060e-02,1.696198064582482914e-02
1.066999999999999948e+00,-5.341992743093115781e-02,-5.426193198141195106e-02,1.678650980844471202e-02
1.068000000000000060e+00,1.860455442082031841e-02,-1.568180636798301511e-02,3.521354615392317811e-02
1.068999999999999950e+00,7.741754026481320605e-02,3.072008115781780721e-02,2.682518842009740459e-02
1.070000000000000062e+00,4.402297981205379428e-03,4.338622380555891278e-02,-2.231416197631463927e-02
1.070999999999999952e+00,-4.120556811193593072e-02,2.258304960235562459e-02,-5.303860498552629386e-03
1.072000000000000064e+00,-4.801355374065184589e-02,-1.156699575967381696e-02,1.765563017251578840e-02
1.072999999999999954e+00,-2.170173126145734377e-02,-3.091589087821259782e-02,6.281958090859720602e-03
1.074000000000000066e+00,2.670337250815623883e-02,-1.904502498932388044e-02,1.595945951424002779e-02
1.074999999999999956e+00,4.528748823968870713e-02,4.957344729733981908e-02,-6.276616111685459111e-03
1.076000000000000068e+00,-1.567221698487136425e-02,8.194988658305364659e-02,-2.384812665471038387e-02
1.076999999999999957e+00,-2.364330380744519150e-02,2.653501099955181061e-02,-5.677065732612422005e-02
1.078000000000000069e+00,-5.486816596171410071e-02,-2.192959798864026547e-02,-8.704986300749409378e-03
1.078999999999999959e+00,-1.623474582702087070e-03,-5.156491805973275472e-02,2.620337512053020138e-02
1.080000000000000071e+00,5.275847230482256373e-02,-1.813053723731732417e-02,4.914247624482735721e-02
1.080999999999999961e+00,5.339708018358432784e-02,2.792488511929114986e-02,-1.273034125595618252e-02
1.082000000000000073e+00,1.148050035914722176e-02,4.891028062436006407e-02,-5.528817534293527930e-02
1.082999999999999963e+00,-6.084999795487721491e-02,3.657366898580530212e-02,-5.585083650101902580e-02
1.084000000000000075e+00,-2.941566670087011198e-02,2.695946407121284014e-03,3.511072760929720427e-02
1.084999999999999964e+00,-3.609318023311052642e-02,-5.088196145113828284e-02,2.992942558601945774e-02
1.086000000000000076e+00,4.278479238694694875e-02,-1.830393301755936855e-02,5.522335646515823954e-02
1.086999999999999966e+00,6.104571140121761719e-02,4.308522560832500625e-02,3.070838642925402366e-03
1.088000000000000078e+00,3.077804463447558758e-02,6.916507010447547898e-02,1.573176567228947538e-03
1.088999999999999968e+00,-3.153310765028580903e-02,2.106912739832741965e-02,-9.483200118677422713e-03
1.090000000000000080e+00,-7.220195617594299398e-02,-2.938089251084627027e-02,-1.357977807748051921e-02
1.090999999999999970e+00,-8.360630256994539336e-03,-3.715562453888453243e-02,4.630088180671652204e-02
1.092000000000000082e+00,4.005849112316033078e-02,-7.908247334804366716e-03,3.967897884576081224e-02
1.092999999999999972e+00,5.965960633740605840e-02,2.185261287033927677e-02,-1.903217886729136749e-02
1.094000000000000083e+00,-1.282356436550922268e-02,5.134303428841745232e-02,-1.518770706757591182e-02
1.094999999999999973e+00,-3.149030964654867676e-02,-9.777790930541402359e-03,-6.315298192003867238e-03
1.096000000000000085e+00,-2.909100762499237935e-02,-3.890205769534694352e-02,-1.253012671084985548e-02
1.096999999999999975e+00,8.456077501907461116e-03,-4.984579841477712603e-02,7.840523832374667740e-03
1.098000000000000087e+00,4.422737697191385375e-02,-2.977038552898962978e-02,4.172260398673752202e-02
1.098999999999999977e+00,5.226803999645755067e-02,7.407213352684442580e-03,2.581906698151457610e-02
1.100000000000000089e+00,-5.996343181483397219e-03,4.917648221311626128e-02,-5.004975747110382289e-02
1.100999999999999979e+00,-3.387019533480675054e-02,1.327862704397001978e-02,-5.013670797700078841e-02
1.102000000000000091e+00,-5.223551843085354196e-02,-1.939753278278501247e-02,-2.979776862231194728e-02
1.102999999999999980e+00,2.125353844583731909e-03,-4.037119375829295587e-02,4.145326037743412434e-02
1.104000000000000092e+00,3.466074339696516987e-02,-9.705179462131624177e-03,4.255546960743135376e-02
1.104999999999999982e+00,4.899732832915806163e-02,3.603646466412568222e-02,7.327006399888895925e-03
1.106000000000000094e+00,5.066737800793612995e-02,2.086252715859349127e-02,-4.768528887116132986e-02
1.106999999999999984e+00,-3.951861941374280179e-02,7.425177591905140172e-03,-6.503199131714824943e-02
1.108000000000000096e+00,-7.220950466617770402e-02,-3.534156664578825408e-02,-1.447708309868721635e-02
1.108999999999999986e+00,-1.111968712964101803e-02,-2.565790836916810591e-02,5.254440287420696597e-03
1.110000000000000098e+00,4.221977742691118696e-02,-1.177104862016739063e-02,7.750353320339925522e-02
1.110999999999999988e+00,4.398620941931760675e-02,2.014083510927666340e-02,1.144728406203784172e-03
1.112000000000000099e+00,-3.212993478102070012e-03,2.677680385401949928e-02,-8.614889685013825751e-03
1.112999999999999989e+00,-2.357082027240037236e-02,-9.267847660933328097e-03,-4.232819641916998887e-02
1.114000000000000101e+00,-4.116820303314483454e-02,-4.112492224154861570e-02,-1.408021165637003864e-02
1.114999999999999991e+00,-2.729216325002953650e-02,-4.455464220128854680e-02,1.347895175886438396e-02
1.116000000000000103e+00,5.589556980972430061e-02,-1.812533206286657053e-02,2.804137405754137877e-02
1.116999999999999993e+00,5.155877723652663169e-02,5.368217645396807652e-02,2.176662701273533382e-02
1.118000000000000105e+00,-3.735893169039785754e-03,5.049395047449227458e-02,3.181133135487558832e-04
1.118999999999999995e+00,-5.609283981353872101e-02,3.165194682860310912e-03,-1.955379062966510970e-02
1.120000000000000107e+00,-4.899144271495390474e-02,-5.734973945614216945e-02,-1.598002084158410205e-02
1.120999999999999996e+00,-8.215606896881579718e-03,-3.691434536152440188e-02,2.627358803456203082e-02
1.122000000000000108e+00,5.146974131730735341e-02,-6.291148219678197170e-04,6.114482730584094167e-03
1.122999999999999998e+00,2.830497407958408249e-02,6.168936818023082469e-02,1.453016861529483547e-02
1.124000000000000110e+00,-6.492935296021611763e-03,4.838310140007898857e-02,-1.240637198136431037e-02
1.125000000000000000e+00,-3.431129328550674984e-02,-1.716429898432996967e-02,-5.786735582654831817e-03
1.125999999999999890e+00,-5.982494126668765760e-02,-1.002555010845243913e-02,-1.951740867113457498e-02
1.127000000000000002e+00,-2.334314969458334277e-02,-1.501141081639116928e-02,4.192485753231200291e-02
1.127999999999999892e+00,5.186873244787715970e-02,1.850112388535105762e-02,1.102794605128318110e-02
1.129000000000000004e+00,4.070217268070409206e-02,2.135529041883018481e-02,1.514627532531954805e-02
1.129999999999999893e+00,-1.041250541086781792e-02,2.270431001702183371e-02,-5.027643679982242431e-02
1.131000000000000005e+00,-4.823864827519046966e-02,-9.966489046079730560e-03,-4.296835871059510176e-02
1.131999999999999895e+00,-8.515184154846885956e-02,-4.320423872521329811e-02,-1.487224078493382812e-02
1.133000000000000007e+00,-3.044018253221849116e-02,-1.601188547593517669e-02,2.758523298672814483e-02
1.133999999999999897e+00,3.596858760240586456e-02,4.841527708810815928e-02,2.191337907785135403e-02
1.135000000000000009e+00,5.925428378262041773e-02,5.840993494268539171e-02,1.814636391319614239e-02
1.135999999999999899e+00,1.591026305112029984e-02,4.305019463085173193e-02,-2.749186435803321199e-02
1.137000000000000011e+00,-6.045474240226012680e-02,-2.459491231914579402e-03,-3.812479308531650096e-02
1.137999999999999901e+00,-5.629818997864705077e-02,-4.614493914295467875e-02,8.328366812139073247e-03
1.139000000000000012e+00,1.024218546553945682e-02,-4.331908117412169856e-02,2.275090521168334629e-02
1.139999999999999902e+00,2.378468407444694899e-02,7.829310953917752863e-03,4.020753322763155613e-02
1.141000000000000014e+00,2.836935284917633734e-02,4.437580228075981709e-02,1.950855763324021649e-02
1.141999999999999904e+00,2.231600252815248500e-02,5.179672917750439282e-02,-1.757450813103492507e-02
1.143000000000000016e+00,-5.009295502243825415e-02,-4.427477026084696010e-03,-6.122119019252339478e-02
1.143999999999999906e+00,-6.063857203409989127e-02,-4.068802543244053743e-02,-2.319720235296740193e-02
1.145000000000000018e+00,-8.479127347257883404e-03,-1.612832818356493142e-02,3.225140181726603855e-02
1.145999999999999908e+00,5.535512974791741841e-02,7.242725901280315341e-03,3.389830248670233637e-02
1.147000000000000020e+00,4.052839906694002264e-02,2.198176792024552836e-02,6.473039034382881141e-02
1.147999999999999909e+00,9.699342940727490384e-03,1.176259719672736494e-02,-1.051028394200022146e-04
1.149000000000000021e+00,-3.787260822443456326e-02,-3.544643491672903185e-02,-2.066851820224852726e-02
1.149999999999999911e+00,-7.211845246463855115e-03,-5.475512797013827593e-02,-5.680424978206323125e-03
1.151000000000000023e+00,-4.929878611735796085e-03,-4.981791087569167192e-02,-9.242470971859201214e-04
1.151999999999999913e+00,3.192543914323374421e-02,2.603897290524708613e-02,2.766292688488255352e-02
1.153000000000000025e+00,6.084832092004886783e-02,4.327330039471129208e-02,4.088645248258072906e-02
1.153999999999999915e+00,1.290221964452257890e-02,9.909970595535763649e-03,-3.623096776745261816e-02
1.155000000000000027e+00,-5.980430365138234700e-02,-1.027795198336581284e-02,1.720662616048803956e-03
1.155999999999999917e+00,-4.527296091553616175e-02,-5.044327427364424243e-02,-3.145684655074396097e-02
1.157000000000000028e+00,2.826582570489201678e-03,-7.466593134479392567e-03,7.296979029295237555e-03
1.157999999999999918e+00,3.550637081361572578e-02,1.129220632598366275e-02,4.340268144531477662e-02
1.159000000000000030e+00,4.685792902957146289e-02,8.563603775952804975e-03,2.402907723849797769e-02
1.159999999999999920e+00,3.187436189058926589e-02,3.992038603209283054e-02,1.410830734686048353e-02
1.161000000000000032e+00,-1.340618361313907284e-02,-7.251546013056270681e-03,-3.333640176699550345e-02
1.161999999999999922e+00,-5.876923834086050791e-02,-4.426864669227879856e-02,-3.836512888305191465e-02
1.163000000000000034e+00,-2.273900377013613611e-02,-2.570348151097482173e-02,1.634467156773002777e-02
1.163999999999999924e+00,2.352096509028102356e-02,6.082351286001743719e-03,1.194431689435748040e-02
1.165000000000000036e+00,5.720281806709363870e-02,1.095644007977949336e-02,3.476951373521287858e-02
1.165999999999999925e+00,2.754076907039798225e-02,3.263816559563707982e-03,2.506292355287679727e-02
1.167000000000000037e+00,-2.358317027390070819e-02,-2.515612191451028698e-02,1.507969259408309046e-02
1.167999999999999927e+00,-3.760099689660643257e-02,-5.504604058770316832e-02,1.100252202580531908e-03
1.169000000000000039e+00,-2.049996345573506032e-02,-4.302273042576423151e-02,3.239572148632057641e-02
1.169999999999999929e+00,7.899015738561157574e-02,1.955578171464760276e-02,-5.046647887166039008e-03
1.171000000000000041e+00,5.022449388041015650e-02,4.829222653867974030e-02,2.654557003003975291e-02
1.171999999999999931e+00,3.819316128147259848e-02,1.149109577059719001e-02,1.414092498427484308e-02
1.173000000000000043e+00,-6.633397326877298050e-02,-3.634513129021776923e-02,-9.021875577721358112e-04
1.173999999999999932e+00,-5.634024319959450577e-02,-4.306322049683326825e-02,-2.995406441555230337e-02
1.175000000000000044e+00,-4.560713657151733297e-03,4.206323335851908443e-03,-2.992656814284053515e-02
1.175999999999999934e+00,5.256199792715489372e-02,2.806478549553203736e-02,3.444323142105942814e-02
1.177000000000000046e+00,5.874324221700822496e-02,5.498291462315894884e-02,5.228003314903712645e-02
1.177999999999999936e+00,8.085076855867472448e-03,2.458856984590836875e-02,-9.778401468700955584e-03
1.179000000000000048e+00,-3.287295862855525719e-02,-2.716926004818522901e-03,-2.595967077427734429e-02
1.179999999999999938e+00,-5.217471989897604773e-02,-1.868101343027431943e-02,-2.022600440140790226e-02
1.181000000000000050e+00,-1.168074544980616906e-02,-2.422982410322846621e-03,2.549451504887523604e-02
