time,acc_x,acc_y,acc_z
0.000000000000000000e+00,2.244517557222497003e-03,4.778759775414635064e-02,3.219152013894797937e-02
1.000000000000000021e-03,-2.726091746081156508e-02,3.624943329091193794e-02,-1.531937883976989233e-02
2.000000000000000042e-03,-7.397286026563282268e-02,-1.327896800040638710e-02,-8.395146685453097612e-02
3.000000000000000062e-03,-4.515608715736760259e-02,-3.924835801530748847e-02,-6.621602664605025224e-02
4.000000000000000083e-03,8.474829200034846022e-02,7.044393847361340999e-02,3.629411223020322097e-02
5.000000000000000104e-03,2.418487243233978234e-01,1.541140060031832015e-01,1.619601370809899687e-01
6.000000000000000125e-03,1.593112863687005665e-01,9.263071633570289787e-02,1.669030229577926905e-01
7.000000000000000146e-03,-7.958595414690404490e-02,-1.338879324805388737e-01,1.225119281556063915e-02
8.000000000000000167e-03,-3.126432232917769061e-01,-2.732207853168900913e-01,-1.706385833201768676e-01
8.999999999999999320e-03,-3.207708722253804767e-01,-1.358314385102594724e-01,-2.601349814150626383e-01
1.000000000000000021e-02,-7.961384271497572857e-03,9.080059928370826094e-02,-1.076857259743653761e-01
1.099999999999999936e-02,3.395866279013718958e-01,2.973287813250239386e-01,9.357232055547522187e-02
1.200000000000000025e-02,3.971147099312604678e-01,2.678308098760074363e-01,2.466309574786412773e-01
1.299999999999999940e-02,1.466816386564577246e-01,-3.380777116684878514e-02,1.382627602157677771e-01
1.400000000000000029e-02,-2.271514664437347120e-01,-2.853161581587255746e-01,-2.560406038013641333e-02
1.499999999999999944e-02,-3.677246456440430022e-01,-2.846016902295401829e-01,-1.957711899196945549e-01
1.600000000000000033e-02,-2.224577823056653192e-01,-4.977163766302344916e-02,-1.709226157788983902e-01
1.700000000000000122e-02,6.672037115843984512e-02,1.853673722427572335e-01,-3.596836975175551898e-02
1.799999999999999864e-02,2.426438483994615980e-01,2.492196228997256013e-01,8.804069987833924860e-02
1.899999999999999953e-02,1.630552722885964256e-01,8.375436072192410375e-02,1.049194706755280371e-01
2.000000000000000042e-02,3.565911588327523151e-03,-8.556318897601510043e-02,3.856807430157995625e-02
2.100000000000000130e-02,-8.105056455659287451e-02,-1.035453474755324427e-01,-1.687593631483436801e-02
2.199999999999999872e-02,-2.437785234014399824e-02,-4.723978526811647288e-02,-2.532543561236888854e-02
2.299999999999999961e-02,1.530196835088107679e-02,1.370435052794461914e-02,2.633759320068447887e-02
2.400000000000000050e-02,-4.089960892283089205e-02,-4.565416944273617723e-03,5.194209217600171367e-03
2.500000000000000139e-02,-1.173053496028333281e-01,-4.914985945248031424e-02,-6.682417863638484556e-02
2.599999999999999881e-02,-1.233271156580025563e-01,-4.261995871239288025e-02,-1.428217227794193467e-01
2.699999999999999969e-02,3.497009397041116185e-02,1.177058162404503866e-01,-4.890238747894945504e-02
2.800000000000000058e-02,2.649715179742074267e-01,1.978129729329916597e-01,1.017498254508951705e-01
2.900000000000000147e-02,2.824606500888287575e-01,1.218516353718052114e-01,2.191668816389585606e-01
2.999999999999999889e-02,3.825825248346156199e-02,-1.379870713817416827e-01,1.351030476949857950e-01
3.099999999999999978e-02,-2.912221891235558524e-01,-3.123270724394988651e-01,-3.978636778341604341e-02
3.200000000000000067e-02,-3.984747380218660040e-01,-2.338661854816398433e-01,-2.264210373132242438e-01
3.300000000000000155e-02,-1.742140064282725331e-01,6.950692390429935585e-02,-2.058094984237506253e-01
3.400000000000000244e-02,2.044139668326037385e-01,3.237018666694116420e-01,-1.648766486742028747e-02
3.500000000000000333e-02,4.247250244132022567e-01,2.841026684525512769e-01,1.856910544135269570e-01
3.599999999999999728e-02,2.577642239312679662e-01,1.487187083611121036e-02,2.183986994011839489e-01
3.699999999999999817e-02,-8.448854748919334967e-02,-2.302766246219016821e-01,9.010964309048168086e-02
3.799999999999999906e-02,-3.321705155087024131e-01,-2.807416527592380695e-01,-7.782490983583913169e-02
3.899999999999999994e-02,-2.357680602449645779e-01,-1.028912885370207725e-01,-1.383351854986030471e-01
4.000000000000000083e-02,-3.407961119499567509e-02,1.238932151760627487e-01,-8.241636129672254285e-02
4.100000000000000172e-02,1.565571838507321678e-01,1.983173489509254261e-01,1.713133038310222719e-02
4.200000000000000261e-02,1.771464363356366201e-01,8.018042617658711901e-02,8.747090167701490615e-02
4.299999999999999656e-02,2.331588325392399547e-02,-3.346433700490775848e-02,4.005700563107607304e-02
4.399999999999999745e-02,-1.432717215015098453e-02,-7.538491067552632874e-02,-1.218694815708117139e-03
4.499999999999999833e-02,6.383454598771876043e-03,-2.911901135131695489e-02,1.545819164174483396e-02
4.599999999999999922e-02,4.481373325966535315e-02,1.046380421147131978e-02,1.321624732105153646e-02
4.700000000000000011e-02,-2.989389550153977518e-02,-6.352505139436802339e-02,6.245885418050791532e-02
4.800000000000000100e-02,-1.685960150073016195e-01,-1.039568967612039957e-01,-3.262650956163688776e-02
4.900000000000000189e-02,-1.789480375462664252e-01,-5.336577364240707722e-02,-1.380897516652869195e-01
5.000000000000000278e-02,-3.169718877163670706e-02,1.266986488760822593e-01,-1.569405205636837941e-01
5.099999999999999672e-02,2.219857744063947480e-01,2.352249668295971208e-01,-5.704638936924928856e-03
5.199999999999999761e-02,3.700412168628104403e-01,1.564331141708345252e-01,1.888706139453671662e-01
5.299999999999999850e-02,1.900580816736960610e-01,-8.663877431370249627e-02,2.265613705862564720e-01
5.399999999999999939e-02,-1.997107083936102701e-01,-2.944125193743452606e-01,1.187236456942580426e-01
5.500000000000000028e-02,-4.075229723059974329e-01,-2.282591094090194450e-01,-1.641239082820438455e-01
5.600000000000000117e-02,-2.831765588312059601e-01,1.679180984756615397e-02,-2.694033681036216987e-01
5.700000000000000205e-02,7.119196060729114650e-02,2.846796263844795782e-01,-1.162637679923243239e-01
5.800000000000000294e-02,3.686027123471078415e-01,3.021241100612002684e-01,6.128392629593349544e-02
5.899999999999999689e-02,3.606895534576106677e-01,5.876681293925148375e-02,2.097922133749348661e-01
5.999999999999999778e-02,5.573651377572816368e-02,-1.939219428827266833e-01,1.516696563055815183e-01
6.099999999999999867e-02,-2.195945980280067655e-01,-2.901788552619466999e-01,-1.526422700892732416e-02
6.199999999999999956e-02,-2.650830367816851552e-01,-1.275055708991578718e-01,-1.216373185421138620e-01
6.300000000000000044e-02,-9.671221550515231302e-02,9.249800110535268127e-02,-1.153149479639320463e-01
6.400000000000000133e-02,8.123993701122006472e-02,1.686727165719118238e-01,-3.572170123041298884e-02
6.500000000000000222e-02,1.058846128475177673e-01,5.480321426410418584e-02,3.019100713005990963e-02
6.600000000000000311e-02,2.886009740566030865e-02,-1.446161996997479167e-02,2.483129536850709612e-02
6.700000000000000400e-02,-3.464832887215363311e-02,-1.783731822909377651e-02,-8.176946957688823250e-03
6.800000000000000488e-02,3.517713488194779831e-02,4.640307048968497772e-02,-2.321364913582282460e-02
6.900000000000000577e-02,1.498809071224976586e-01,2.890417889237657800e-02,9.136439329204350257e-02
7.000000000000000666e-02,3.487896926256725538e-02,-9.277739241356085242e-02,1.229610463194260594e-01
7.099999999999999367e-02,-1.699704624832177879e-01,-1.576247586691912894e-01,3.553473212396213859e-02
7.199999999999999456e-02,-2.870981911800884467e-01,-8.910807443444918041e-02,-1.229960600751747041e-01
7.299999999999999545e-02,-1.642701661694167259e-01,1.281586595856451238e-01,-2.020065467645998647e-01
7.399999999999999634e-02,1.460570059292936040e-01,2.587127757323393618e-01,-1.446596827103013294e-01
7.499999999999999722e-02,3.825281825357541576e-01,1.953121664962524096e-01,6.486005108107634198e-02
7.599999999999999811e-02,2.878072662144258165e-01,-8.956256038438556444e-02,2.455302279156380552e-01
7.699999999999999900e-02,-5.667469327865400086e-02,-2.804639568551661188e-01,1.946571315074957231e-01
7.799999999999999989e-02,-4.021190801662495318e-01,-2.978388189549578957e-01,-1.289773656180745291e-03
7.900000000000000078e-02,-3.744809942859362861e-01,-2.665045943551792168e-02,-2.093466594095275413e-01
8.000000000000000167e-02,-8.386511525968970426e-02,2.323197152473684135e-01,-2.117995779377966625e-01
8.100000000000000255e-02,2.736220901352839352e-01,3.159583876483169074e-01,-7.053386607324067803e-02
8.200000000000000344e-02,3.119091982704513266e-01,9.609364524717795009e-02,1.089880567539628503e-01
8.300000000000000433e-02,1.495712827065135142e-01,-1.524895246954213190e-01,1.988628236362731116e-01
8.400000000000000522e-02,-1.391245741156340032e-01,-2.326424619079447698e-01,1.036837318154022747e-01
8.500000000000000611e-02,-2.090329027931667472e-01,-1.205328517464450272e-01,-1.587588570863559395e-02
8.599999999999999312e-02,-1.041195789653926451e-01,7.317037446978930104e-02,-8.596170138813341577e-02
8.699999999999999400e-02,2.701941620019782109e-02,1.090036078125515007e-01,-4.588202643968620348e-02
8.799999999999999489e-02,4.789832607827465560e-02,3.332055626615754856e-02,1.715613612807170146e-02
8.899999999999999578e-02,1.679175045099046137e-02,-1.981536024969934168e-02,-1.188103751838722258e-02
8.999999999999999667e-02,-4.221002529530259312e-02,2.340995958196253821e-02,-7.138213829603215488e-02
9.099999999999999756e-02,9.076910296152516933e-02,1.148732976534445754e-01,-6.915372867088891151e-02
9.199999999999999845e-02,1.651294542985847491e-01,2.982737810252893487e-02,5.515027558282942222e-02
9.299999999999999933e-02,1.128091379578996939e-01,-1.063659387953177632e-01,1.339412374837680719e-01
9.400000000000000022e-02,-1.285671956809917027e-01,-2.057194898947006245e-01,1.480973784266527704e-01
9.500000000000000111e-02,-3.209883605769528470e-01,-1.443629664547174118e-01,-2.972257099011476819e-02
9.600000000000000200e-02,-2.591779281659530865e-01,1.180992669533922901e-01,-2.143409186076024597e-01
9.700000000000000289e-02,2.337735511754230125e-02,3.245463642894524936e-01,-2.444093912652351985e-01
9.800000000000000377e-02,3.626432271516052408e-01,2.450149443296606722e-01,-3.311510486146912458e-02
9.900000000000000466e-02,4.038461392332938771e-01,-1.898615940176350339e-02,1.463629592816599323e-01
1.000000000000000056e-01,8.224704267338225905e-02,-2.850289341996398718e-01,2.735421805099605419e-01
1.010000000000000064e-01,-2.777652636570281941e-01,-3.211858075985283834e-01,1.002767727130119413e-01
1.019999999999999934e-01,-4.114090312956379947e-01,-5.414662177085401845e-02,-9.024986847986778138e-02
1.029999999999999943e-01,-1.828691289295703848e-01,2.178981927879845848e-01,-2.091919222775948384e-01
1.039999999999999952e-01,1.402655980113905743e-01,2.643555097098808648e-01,-1.741782397299286023e-01
1.049999999999999961e-01,3.115907854051318537e-01,1.205934499290737955e-01,2.468224552661038226e-03
1.059999999999999970e-01,1.966239459379294230e-01,-8.482625253987252645e-02,1.510371709303248711e-01
1.069999999999999979e-01,-2.916778623714787883e-02,-1.826286847219433795e-01,1.248775007146774307e-01
1.079999999999999988e-01,-1.460987935196920717e-01,-9.231053270194730653e-02,2.932026205772591057e-02
1.089999999999999997e-01,-9.823308890346488242e-02,1.820794712024991283e-02,-6.178614213988430776e-02
1.100000000000000006e-01,1.063400162432550505e-02,5.548185482552236980e-02,-2.700708756987416775e-02
1.110000000000000014e-01,-1.770610734133480288e-02,1.323634523079928772e-02,1.143517777241939183e-02
1.120000000000000023e-01,-4.616627234167200444e-02,-1.117333220434828765e-02,-1.695310753370224757e-02
1.130000000000000032e-01,-6.095360315816545499e-02,4.964590823110576895e-02,-7.263945367386913377e-02
1.140000000000000041e-01,7.520980544902988729e-02,1.297740324558497860e-01,-7.520847912431906368e-02
1.150000000000000050e-01,2.143144264401207477e-01,5.072460123261873788e-02,-1.749185389842781990e-02
1.160000000000000059e-01,2.131965528363946594e-01,-1.284334371279104992e-01,1.490678397014666978e-01
1.170000000000000068e-01,-3.478912498976030609e-02,-2.675365737799396681e-01,1.750349045226388955e-01
1.179999999999999938e-01,-3.155619127579856742e-01,-1.873107542601801512e-01,9.823563839038586265e-02
1.189999999999999947e-01,-3.519854390722060300e-01,7.014956396072875855e-02,-9.836081171877640583e-02
1.199999999999999956e-01,-1.083014459446817457e-01,3.183914339857596421e-01,-2.440362667101765581e-01
1.209999999999999964e-01,2.659003934882919751e-01,2.922368267607422521e-01,-1.502943439830183581e-01
1.219999999999999973e-01,4.144789434915405191e-01,1.754738311956269628e-02,5.366338801288687843e-02
1.229999999999999982e-01,2.299682248161828702e-01,-2.599889274643336079e-01,2.437700784152747324e-01
1.239999999999999991e-01,-1.644843421790343763e-01,-3.136972650923456341e-01,2.123225695790005862e-01
1.250000000000000000e-01,-3.562013341251545895e-01,-1.094271924603317375e-01,4.251750188682653503e-02
1.260000000000000009e-01,-2.823121102839633578e-01,1.588968301147988260e-01,-1.403602058889223125e-01
1.270000000000000018e-01,4.098737609925642844e-02,2.625133126244674209e-01,-1.789015869445080842e-01
1.280000000000000027e-01,2.198453668339686029e-01,1.140250861891980022e-01,-7.895205154499833344e-02
1.290000000000000036e-01,2.106396565412048949e-01,-5.268020182295524156e-02,8.202920687624774831e-02
1.300000000000000044e-01,3.812690932450715775e-02,-1.355914387698653745e-01,9.300389418744810233e-02
1.310000000000000053e-01,-8.208102063220867883e-02,-7.032282671960185527e-02,6.534113688850237689e-02
1.320000000000000062e-01,-5.011519580711559091e-02,8.279983466962277314e-03,1.084891824753067731e-02
1.330000000000000071e-01,7.835066362092982239e-03,-8.207801769361006139e-03,-1.141562495046633506e-02
1.340000000000000080e-01,-2.051962097823041911e-02,-3.774442016346171019e-02,2.160530045532830373e-02
1.350000000000000089e-01,-1.030392666504144211e-01,-3.907589175662740805e-02,3.587012534751121001e-02
1.360000000000000098e-01,-1.440227127393301776e-01,8.416419066456189146e-02,-6.470816034098694769e-02
1.370000000000000107e-01,3.245766713031266598e-03,1.893129681046047397e-01,-1.253116506275248343e-01
1.380000000000000115e-01,2.057182041034496256e-01,1.306798549776529983e-01,-1.039653484850997234e-01
1.390000000000000124e-01,3.179750000039008317e-01,-9.901192096635222373e-02,4.947832957957351563e-02
1.400000000000000133e-01,1.192089900030647992e-01,-2.931801126996325668e-01,1.872807671339915825e-01
1.409999999999999865e-01,-2.265378357710286505e-01,-2.366419802426333874e-01,1.916723561568637879e-01
1.419999999999999873e-01,-4.063882092587873252e-01,3.998259421914611422e-02,2.648951093912680840e-02
1.429999999999999882e-01,-2.529042569340723690e-01,2.697430483929009193e-01,-1.966193957727304931e-01
1.439999999999999891e-01,1.343949916021392466e-01,3.009386741075792404e-01,-2.855514728549801706e-01
1.449999999999999900e-01,3.526483553862443387e-01,5.375346623635131327e-02,-1.241829823684595518e-01
1.459999999999999909e-01,3.035625880354516082e-01,-2.244026808659201899e-01,1.318508642693681787e-01
1.469999999999999918e-01,-2.596372844947099703e-02,-3.054266094150031030e-01,2.398998504187534464e-01
1.479999999999999927e-01,-2.867087192251802641e-01,-1.263182140828079114e-01,1.488738828913700185e-01
1.489999999999999936e-01,-2.853601982975496609e-01,1.255086453691259263e-01,-5.798472176119776750e-02
1.499999999999999944e-01,-6.265638925783753588e-02,2.011378734131890611e-01,-1.565876226399909588e-01
1.509999999999999953e-01,1.542668202946831102e-01,1.201601016333589123e-01,-1.062952789099071427e-01
1.519999999999999962e-01,1.570903600420726909e-01,-2.335777839209648987e-02,6.701353316667822343e-03
1.529999999999999971e-01,5.283638629445584767e-02,-9.662873168981994665e-02,7.479781443838402766e-02
1.539999999999999980e-01,-3.580056457169495266e-03,-4.714928999342854476e-02,6.029432398195670034e-02
1.549999999999999989e-01,1.120689814462234217e-03,1.794550112722338026e-02,1.476908962785229880e-02
1.559999999999999998e-01,5.487788956218164760e-02,-4.970013108170456828e-02,6.996554262253373846e-03
1.570000000000000007e-01,2.142225698479376800e-02,-1.354670992563671850e-01,6.143308899789931554e-02
1.580000000000000016e-01,-1.188217243206674684e-01,-7.493453204445409133e-02,7.728477391512772465e-02
1.590000000000000024e-01,-2.278861921204121399e-01,7.077817865303041855e-02,-2.760676188477745666e-02
1.600000000000000033e-01,-1.045789296365328830e-01,2.345728359296099796e-01,-9.979155864115853147e-02
1.610000000000000042e-01,2.042324378746435964e-01,1.680693790473646032e-01,-1.654290233322578407e-01
1.620000000000000051e-01,3.299232693221720303e-01,-5.868208714776570328e-02,-3.024674554834701212e-02
1.630000000000000060e-01,2.355646771081463531e-01,-2.781499986086599652e-01,1.366962621869856620e-01
1.640000000000000069e-01,-1.341083964391035499e-01,-2.817118422051545501e-01,2.166595693385988952e-01
1.650000000000000078e-01,-3.870431190758223949e-01,-2.643297157794103486e-02,1.411179383741493765e-01
1.660000000000000087e-01,-3.571928151180870925e-01,2.808796323079782997e-01,-7.969693884024717234e-02
1.670000000000000095e-01,-1.284245728733593049e-03,3.291580694934982954e-01,-2.046941528292612611e-01
1.680000000000000104e-01,3.107692628284895453e-01,9.671354413680413598e-02,-2.000787607075655283e-01
1.690000000000000113e-01,3.854912075470091626e-01,-1.580812964950348842e-01,8.490197779279586065e-04
1.700000000000000122e-01,1.311802896917815264e-01,-2.692526691180005538e-01,1.916600892757643615e-01
1.710000000000000131e-01,-1.675114718623949561e-01,-1.153949620027691220e-01,1.958233966502953005e-01
1.719999999999999862e-01,-2.896727505442591166e-01,6.870269318085868437e-02,4.305520691150600127e-02
1.729999999999999871e-01,-1.572712133518683886e-01,1.534206680149533819e-01,-1.118717721599935683e-01
1.739999999999999880e-01,6.364955141412283190e-02,8.944113517264598578e-02,-9.940147523205636326e-02
1.749999999999999889e-01,1.159384416770279369e-01,-2.280808679649995452e-02,-4.694792410865763349e-02
1.759999999999999898e-01,3.966150554486477103e-02,-2.169853056447429429e-02,2.325096087677214901e-02
1.769999999999999907e-01,-6.223468756877511415e-03,1.403879548700023502e-02,3.777919493175265625e-02
1.779999999999999916e-01,4.319490296580951599e-02,1.947400877987539441e-02,-1.899569782314905475e-02
1.789999999999999925e-01,1.406802450080055222e-01,-7.354073612433655038e-02,3.208476774746426338e-03
1.799999999999999933e-01,6.612655937705658182e-02,-1.593573990884388225e-01,3.799201363218892430e-02
1.809999999999999942e-01,-1.046417971068031999e-01,-8.557555624228900537e-02,1.221030464769051471e-01
1.819999999999999951e-01,-2.660649031675777487e-01,9.684803851932548280e-02,8.420781948459951649e-02
1.829999999999999960e-01,-2.014125368192001830e-01,2.509552109390913999e-01,-6.522354348175829486e-02
1.839999999999999969e-01,9.555677822819996781e-02,2.233243270432961891e-01,-2.083816371093540620e-01
1.849999999999999978e-01,3.408980703496453657e-01,-5.123451636658091224e-02,-1.589058269991080741e-01
1.859999999999999987e-01,3.419735124814010097e-01,-2.827336603137615145e-01,5.667396464427503638e-02
1.869999999999999996e-01,2.577265938844336413e-02,-2.936534618191709578e-01,2.160465176361028028e-01
1.880000000000000004e-01,-3.276300538768587289e-01,-6.546022089790395904e-02,2.329723808063897672e-01
1.890000000000000013e-01,-4.204422579369563318e-01,2.272391260336048546e-01,5.155774017011589133e-02
1.900000000000000022e-01,-1.567713629391596919e-01,3.206128568764464726e-01,-1.565661288277865326e-01
1.910000000000000031e-01,2.409866718975359479e-01,1.369550736129084845e-01,-2.279857279693075223e-01
1.920000000000000040e-01,3.685389638250163857e-01,-1.588419727993791442e-01,-1.416014266188852511e-01
1.930000000000000049e-01,2.266487069447003788e-01,-2.306559363188269984e-01,5.544560490934270086e-02
1.940000000000000058e-01,-8.238750791657667438e-02,-1.379904055764624715e-01,1.614347021888823674e-01
1.950000000000000067e-01,-2.182823726369919337e-01,4.948997877712836557e-02,1.520968249065243749e-01
1.960000000000000075e-01,-1.627256571596925605e-01,1.189645050462429937e-01,6.380405751818634709e-03
1.970000000000000084e-01,9.880832033261708475e-03,6.072995474724471321e-02,-8.550621395981837514e-02
1.980000000000000093e-01,7.007452792157169152e-02,1.050664510207443116e-03,-5.503136964138885534e-02
1.990000000000000102e-01,1.480002698471195345e-02,1.437684020988580329e-02,-1.641034881524485942e-02
2.000000000000000111e-01,-4.323884539548042416e-02,7.297082987067639304e-02,1.767219471488105584e-02
2.010000000000000120e-01,4.974555771529735881e-02,5.918418193997188048e-02,-3.348072368134862725e-02
2.020000000000000129e-01,1.743879181752018837e-01,-7.708760553688000228e-02,-2.538182822300338176e-02
2.030000000000000138e-01,1.594397152543869101e-01,-1.971899446747370499e-01,1.595644323445616006e-02
2.039999999999999869e-01,-5.589114986289931558e-02,-1.761297869712167286e-01,1.349878394289190653e-01
2.049999999999999878e-01,-2.943211731757287564e-01,9.090732913826597705e-02,1.483701948266383241e-01
2.059999999999999887e-01,-2.957787815695646638e-01,2.865458760879202593e-01,4.500451634537708939e-02
2.069999999999999896e-01,-3.443177505120919440e-02,2.646941992897725027e-01,-1.617847037800397014e-01
2.079999999999999905e-01,3.061670650258741522e-01,1.319634783868317909e-02,-2.313679882268905308e-01
2.089999999999999913e-01,3.832115798364016390e-01,-2.800204951319538726e-01,-1.038762684210555176e-01
2.099999999999999922e-01,1.632694447026335760e-01,-3.309484035115808354e-01,1.158895487781412409e-01
2.109999999999999931e-01,-2.456240361921022408e-01,-1.056190909440478803e-01,2.646983287169392685e-01
2.119999999999999940e-01,-4.003709383810719058e-01,1.961564344282892558e-01,1.654864718465223206e-01
2.129999999999999949e-01,-2.537019421713780920e-01,2.885876226668228073e-01,-2.639823151156105857e-02
2.139999999999999958e-01,9.979366585919309529e-02,1.346081293491115660e-01,-2.171583475951301412e-01
2.149999999999999967e-01,3.175897499679287139e-01,-8.605536321736666217e-02,-1.841116220409760029e-01
2.159999999999999976e-01,2.404301349826147849e-01,-1.732351230383253615e-01,-2.665037580566859826e-02
2.169999999999999984e-01,2.657032114637476045e-02,-1.007807908333751556e-01,1.206818956252243419e-01
2.179999999999999993e-01,-1.264403859079896442e-01,1.309430382943300997e-02,1.270704260257185525e-01
2.190000000000000002e-01,-1.285757104495699743e-01,5.297249150874518836e-02,4.974995739628958885e-02
2.200000000000000011e-01,-2.774114853764977386e-03,1.135939465790003662e-03,-1.303095090643888697e-02
2.210000000000000020e-01,8.709606512438721609e-03,-7.677716023867116844e-03,-6.970799630618912390e-02
2.220000000000000029e-01,-4.315825116381713511e-02,4.413749230822416880e-02,1.053321352866523793e-02
2.230000000000000038e-01,-6.415108244781195235e-02,1.137673604692388124e-01,3.420373533404580911e-03
2.240000000000000047e-01,2.433536646030146772e-02,1.149063156670024899e-01,-3.156922853313062771e-02
2.250000000000000056e-01,1.902734327038780315e-01,-8.894217458045679259e-02,-1.027277652459899493e-01
2.260000000000000064e-01,2.183788832422997039e-01,-2.381634363462492299e-01,-7.179421845960602677e-02
2.270000000000000073e-01,4.723325439735749642e-02,-2.166424460788781425e-01,8.729775515753485093e-02
2.280000000000000082e-01,-2.388680102225535784e-01,2.064174644197454625e-02,1.960922372055100560e-01
2.290000000000000091e-01,-3.595464767538914530e-01,2.854570338286747111e-01,1.213978197690595284e-01
2.300000000000000100e-01,-1.835154484425864374e-01,2.786095330436327844e-01,-5.363583743772808859e-02
2.310000000000000109e-01,1.832975444877567861e-01,6.108192265290693368e-02,-2.048210473921708574e-01
2.320000000000000118e-01,4.231983938875623630e-01,-2.619258819686198780e-01,-2.270888317177007787e-01
2.330000000000000127e-01,3.028568494515883058e-01,-3.257568070608541921e-01,-2.856351919455117280e-02
2.340000000000000135e-01,-8.020454741778902663e-02,-1.304633434745389453e-01,1.879999663540144750e-01
2.349999999999999867e-01,-3.717537223866641538e-01,1.490951070736341588e-01,2.381115412568280965e-01
2.359999999999999876e-01,-3.041949506856657659e-01,2.611134862144879887e-01,9.047314988848412232e-02
2.369999999999999885e-01,-4.913070503426075764e-02,1.448388231242786761e-01,-8.391600976886870455e-02
2.379999999999999893e-01,2.195141475667312381e-01,-6.010521273215357202e-02,-2.172817515644084319e-01
2.389999999999999902e-01,2.300918324553896110e-01,-1.219814370525808822e-01,-1.330324101074251975e-01
2.399999999999999911e-01,5.674431907864740943e-02,-8.919243255398225101e-02,2.798616472964552196e-02
2.409999999999999920e-01,-7.361850930293936668e-02,2.595958452942277381e-02,1.093885448417759171e-01
2.419999999999999929e-01,-5.994772356497980043e-02,-3.520038608232310077e-03,9.841016108677476393e-02
2.429999999999999938e-01,-2.619989932640494346e-02,-6.936676118674565961e-02,1.371590585960417823e-02
2.439999999999999947e-01,4.763742790912528675e-03,-2.580802875336605379e-02,-2.050651325384032081e-02
2.449999999999999956e-01,-9.262111962033052481e-02,7.541368176193102846e-02,4.204617615400128156e-02
2.459999999999999964e-01,-1.507334213890998975e-01,1.500784104747004410e-01,1.715923485734913156e-02
2.469999999999999973e-01,-5.982359687926981640e-02,1.571115919555386986e-01,-1.859577489042937848e-02
2.479999999999999982e-01,1.836140622090408903e-01,-4.615588105660162199e-02,-1.308256614815134222e-01
2.489999999999999991e-01,2.922277272613915122e-01,-2.818773044392034466e-01,-1.362228465107428454e-01
2.500000000000000000e-01,1.535311115779399715e-01,-2.435253876193795020e-01,4.067693395749449187e-02
2.510000000000000009e-01,-1.489941432884880623e-01,-1.790334167767308401e-02,1.533502273357708057e-01
2.520000000000000018e-01,-3.898944672573685932e-01,2.543682190873793880e-01,2.145709325920467370e-01
2.530000000000000027e-01,-3.080397749792370132e-01,3.255103561544989144e-01,9.845885317218315558e-02
2.540000000000000036e-01,6.126704571030017893e-02,9.016871169470341840e-02,-1.338891920779794187e-01
2.550000000000000044e-01,3.825413731318309529e-01,-1.889856197772045721e-01,-2.665266499213971851e-01
2.560000000000000053e-01,3.812782990353663637e-01,-3.221596804178344930e-01,-1.723384757225182862e-01
2.570000000000000062e-01,4.078417060295775470e-02,-1.403867002294381938e-01,6.442207601827032448e-02
2.580000000000000071e-01,-2.457052521285289781e-01,1.096087879593010822e-01,2.165536321108713358e-01
2.590000000000000080e-01,-3.161138703573675435e-01,1.905896438541472837e-01,2.082902864660413633e-01
2.600000000000000089e-01,-1.340858314158036579e-01,1.010157218613281643e-01,1.456754245012297552e-03
2.610000000000000098e-01,1.309660522726572573e-01,-4.689550351591552368e-02,-1.436772493572923970e-01
2.620000000000000107e-01,2.013012587583089263e-01,-1.047759903925220282e-01,-1.420363315198535370e-01
2.630000000000000115e-01,1.090063013778141132e-01,-5.571442133209340841e-02,-7.079931563147122409e-02
2.640000000000000124e-01,-1.597312720218598339e-02,9.671008951777370494e-03,4.210904892351713391e-02
2.650000000000000133e-01,-2.480881392996257123e-02,-3.095008832993421943e-02,5.838715510815897791e-02
2.660000000000000142e-01,4.770470949296447272e-02,-1.107454477181705199e-01,4.247475480759430218e-03
2.670000000000000151e-01,2.515829102480374516e-02,-6.259118318844629492e-02,-1.828426137131073520e-02
2.680000000000000160e-01,-8.860657388382658928e-02,8.313849853753928210e-02,1.694643634127213430e-02
2.690000000000000169e-01,-2.142184876817227746e-01,1.983180646413756909e-01,7.239102189196140735e-02
2.700000000000000178e-01,-1.565781098535057869e-01,2.053864454798029759e-01,1.843307048120908578e-02
2.710000000000000187e-01,1.386000256492765093e-01,-2.377358000435264573e-02,-1.056383823379384856e-01
2.720000000000000195e-01,3.431570892874051815e-01,-2.738527928915580612e-01,-1.614410227978913537e-01
2.730000000000000204e-01,3.015140517581087476e-01,-3.029885503486486331e-01,-8.540256636507069510e-02
2.740000000000000213e-01,-4.262221519322967334e-02,-5.464036906550903683e-02,7.381333977864484863e-02
2.750000000000000222e-01,-3.634724966690308645e-01,2.434503219768194282e-01,1.941187154884502497e-01
2.760000000000000231e-01,-3.782244649093006728e-01,3.137848447758703752e-01,1.902911209162038986e-01
2.770000000000000240e-01,-7.332315141890084764e-02,1.200999691135566927e-01,6.245091056997999560e-03
2.780000000000000249e-01,2.758901805235297044e-01,-1.456960140074153864e-01,-1.922451956746000779e-01
2.790000000000000258e-01,4.239300900801280525e-01,-2.654502088831010576e-01,-2.459561221010914400e-01
2.800000000000000266e-01,1.812960542025060240e-01,-1.571022973910073672e-01,-7.574223267288485162e-02
2.810000000000000275e-01,-1.356754893935008810e-01,6.619344145872052554e-02,1.076686271689894225e-01
2.819999999999999729e-01,-2.836351861035329436e-01,1.595012907839880867e-01,2.067673956155321180e-01
2.829999999999999738e-01,-1.800748344244566534e-01,1.128003672672467789e-01,1.361097825298069885e-01
2.839999999999999747e-01,1.283634689493908659e-03,1.794867415582520470e-02,-4.967064782853514160e-02
2.849999999999999756e-01,1.070516587396769109e-01,-3.889886429839276016e-02,-1.269048187887383550e-01
2.859999999999999765e-01,9.097145895755748279e-02,1.217892583531874837e-02,-8.644966249233168587e-02
2.869999999999999774e-01,-3.371937245494670797e-03,3.060541641557273929e-02,-1.385982223093937260e-02
2.879999999999999782e-01,2.458335229836791300e-02,-5.148047551571717506e-02,3.597733144278168066e-02
2.889999999999999791e-01,9.158779134943872968e-02,-1.785856881612974123e-01,1.010283476716415836e-02
2.899999999999999800e-01,7.415964508780893694e-02,-1.149519698400640055e-01,-2.522789655069233861e-02
2.909999999999999809e-01,-5.490189391469321029e-02,9.273424324011936282e-02,7.402344637405905772e-03
2.919999999999999818e-01,-2.329007308093201944e-01,2.593439388053301875e-01,9.027520298742909566e-02
2.929999999999999827e-01,-2.362965055572534279e-01,2.308259640906586418e-01,1.021535927235279889e-01
2.939999999999999836e-01,4.486718447201695076e-02,-1.204015144642729858e-02,-4.230024056577495750e-02
2.949999999999999845e-01,3.092993376255840365e-01,-2.887250198601465367e-01,-1.671258303783908772e-01
2.959999999999999853e-01,3.498114571234657855e-01,-3.180637623176368334e-01,-1.628969662742815461e-01
2.969999999999999862e-01,1.204605107413594112e-01,-1.002644962686559393e-01,-4.128162597416837332e-02
2.979999999999999871e-01,-2.630756678073246646e-01,1.980847953563773800e-01,1.473623663829867203e-01
2.989999999999999880e-01,-4.150468307311063754e-01,3.049711748085588980e-01,2.578728532539174556e-01
2.999999999999999889e-01,-2.268418196261136333e-01,1.497116421574357925e-01,1.224029424280913964e-01
3.009999999999999898e-01,1.159472301273182238e-01,-1.115347509887321953e-01,-9.091282811568580924e-02
3.019999999999999907e-01,3.715426778741053315e-01,-2.392614649610068089e-01,-2.599293130638167804e-01
3.029999999999999916e-01,2.309483189354290811e-01,-1.386521083842495450e-01,-1.985004733619563089e-01
3.039999999999999925e-01,-4.559152737935315974e-02,1.238887833692993261e-02,1.721123291184332646e-02
3.049999999999999933e-01,-2.014920822990939886e-01,1.037437013497477523e-01,1.758968425858056239e-01
3.059999999999999942e-01,-1.800849421833362052e-01,6.516501264259547122e-02,1.811471589032649931e-01
3.069999999999999951e-01,-4.191322404058720613e-02,-1.780223868643854637e-02,5.134308716181774923e-02
3.079999999999999960e-01,3.860208720579288294e-02,1.070525745609965558e-02,-8.321337463873933193e-02
3.089999999999999969e-01,3.588456052379259548e-02,7.077057520061943996e-02,-1.061454666746476649e-01
3.099999999999999978e-01,-4.837044540665245973e-02,6.383800362082119040e-02,-3.450803900867716045e-02
3.109999999999999987e-01,1.097803077727940377e-02,-8.777002405216459413e-02,1.326879643308576801e-02
3.119999999999999996e-01,1.791283784312285021e-01,-2.059352790464264449e-01,-3.024249570689364550e-02
3.130000000000000004e-01,1.749554030767172808e-01,-1.656623702180630153e-01,-6.170480488073096237e-02
3.140000000000000013e-01,1.106824459658149219e-02,3.991929066081456590e-02,-4.685876359109365785e-03
3.150000000000000022e-01,-2.339416678551437256e-01,2.690301819951150808e-01,1.015757515460774252e-01
3.160000000000000031e-01,-3.300594158784708743e-01,2.769417279364283502e-01,1.338624259829230001e-01
3.170000000000000040e-01,-9.498511958232339070e-02,4.842159763426753111e-02,9.309914301752028609e-02
3.180000000000000049e-01,2.393492870767573444e-01,-2.258690730888652243e-01,-1.097735127383292347e-01
3.190000000000000058e-01,3.883843762603143013e-01,-3.068488650059176259e-01,-2.078292352175614421e-01
3.200000000000000067e-01,2.299032762205671099e-01,-1.258836724974465582e-01,-1.585530268361272921e-01
3.210000000000000075e-01,-1.317967527724164256e-01,1.459613006433873039e-01,2.356796955954010633e-02
3.220000000000000084e-01,-4.099262915211672742e-01,3.081016441089530211e-01,2.338704956250717282e-01
3.230000000000000093e-01,-2.935469673552975611e-01,1.515858178965704961e-01,2.301368132369897290e-01
3.240000000000000102e-01,1.927573147910889226e-02,-7.464954919562800939e-02,4.060435927093814651e-02
3.250000000000000111e-01,2.667078622094665175e-01,-2.065717311358546138e-01,-1.552477010258299095e-01
3.260000000000000120e-01,2.857627136916869315e-01,-1.251990156996646564e-01,-2.143863840288323941e-01
3.270000000000000129e-01,8.013920444516942077e-02,-6.445525068350700659e-03,-8.952386367428370739e-02
3.280000000000000138e-01,-1.185880435392295540e-01,4.651700495753542663e-02,5.012886716004067572e-02
3.290000000000000147e-01,-1.482110708346838224e-01,3.526891454891375750e-03,1.638421193076964044e-01
3.300000000000000155e-01,-3.116080965293842667e-02,9.067654643982139178e-04,1.207887087159303791e-01
3.310000000000000164e-01,3.216343713551105682e-02,4.780852030039087208e-02,-4.387984157918818802e-03
3.320000000000000173e-01,-3.173920850069656546e-02,1.244896638035315473e-01,-4.677023092437852109e-02
3.330000000000000182e-01,-9.630457455656135646e-02,9.921448755380246620e-02,-2.566213114555622454e-02
3.340000000000000191e-01,-2.739808691725679601e-04,-8.371248180501975056e-02,-8.242853916281826093e-03
3.350000000000000200e-01,1.626587401575373959e-01,-2.182145451412584591e-01,-4.047566744521875065e-02
3.360000000000000209e-01,2.367597033341782009e-01,-2.175546665329500529e-01,-8.505727567649333520e-02
3.370000000000000218e-01,1.271112772092977128e-01,6.098502516729235358e-03,-7.814357102073080097e-02
3.380000000000000226e-01,-2.020329787399472166e-01,2.906725255684092790e-01,3.060556871675225790e-02
3.390000000000000235e-01,-3.564434142698080232e-01,2.964392828698504401e-01,1.224016786253929318e-01
3.400000000000000244e-01,-2.260661635562132843e-01,7.803367506524624964e-02,1.719155043227618973e-01
3.410000000000000253e-01,1.138712131812542883e-01,-1.925840471721829150e-01,3.194984582634723125e-02
3.420000000000000262e-01,4.006771349817552785e-01,-3.219773012311928362e-01,-1.747522383104895549e-01
3.430000000000000271e-01,3.247903261786335705e-01,-1.556659099207811370e-01,-2.351445943874688749e-01
3.439999999999999725e-01,1.883103513556382350e-02,1.316924988495256910e-01,-1.105354700492617442e-01
3.449999999999999734e-01,-3.052106639037629465e-01,2.511822658202974012e-01,1.285782019351807137e-01
3.459999999999999742e-01,-3.527538111657343989e-01,1.676408010417529404e-01,2.583196474789504760e-01
3.469999999999999751e-01,-1.008784130863770723e-01,-4.800025499825271574e-02,1.572494248660150917e-01
3.479999999999999760e-01,1.557993476248615838e-01,-1.372493182182852323e-01,-4.296155127619519232e-02
3.489999999999999769e-01,2.432189339214052004e-01,-7.141550591916982771e-02,-1.992841663683118936e-01
3.499999999999999778e-01,1.135564952722928761e-01,-1.566083790533318032e-02,-1.553090186248655413e-01
3.509999999999999787e-01,-5.294098136952839206e-02,1.561905347517677893e-02,-4.646615902650308438e-02
3.519999999999999796e-01,-9.131543482960122193e-02,-4.653879506481160833e-02,1.090174242741127758e-01
3.529999999999999805e-01,-1.974004896381500312e-02,-3.632520487412418952e-02,1.054874017010823395e-01
3.539999999999999813e-01,1.625340313891318611e-02,2.438922195789183789e-02,1.412168176413502833e-02
3.549999999999999822e-01,-6.250732534083741632e-02,1.998544940302578177e-01,-1.795256554711601241e-02
3.559999999999999831e-01,-1.566336678934041604e-01,1.554378920054178548e-01,1.059416877098893345e-02
3.569999999999999840e-01,-8.237783001915446879e-02,-3.626145178129930313e-02,4.817759030924957664e-02
3.579999999999999849e-01,1.363621303932450457e-01,-2.738955303569639010e-01,4.883174226848648915e-03
3.589999999999999858e-01,2.818585950945179386e-01,-2.711119516416837794e-01,-8.340197662524384548e-02
3.599999999999999867e-01,1.967633198701903841e-01,-3.286309202696408721e-02,-1.504795274476559142e-01
3.609999999999999876e-01,-8.036293346116225866e-02,2.261928327712077469e-01,-6.690021227136458415e-02
3.619999999999999885e-01,-3.751625827865889828e-01,3.095954269245506651e-01,1.264204914508968991e-01
3.629999999999999893e-01,-3.305202901462436227e-01,1.389465984798639309e-01,2.376012355133998166e-01
3.639999999999999902e-01,-2.374440510424333586e-02,-1.708269794002655606e-01,1.514434566758789957e-01
3.649999999999999911e-01,3.396500264214926679e-01,-3.052124648113088701e-01,-5.433724877841552420e-02
3.659999999999999920e-01,4.033305805342131123e-01,-1.790504328473373208e-01,-2.224316068512059152e-01
3.669999999999999929e-01,1.337556539497887220e-01,5.382246847438246218e-02,-2.169959996448571071e-01
3.679999999999999938e-01,-1.825723106013656394e-01,2.106227787798861106e-01,-1.668084179769325701e-02
3.689999999999999947e-01,-3.455647028945457722e-01,1.390591734438930971e-01,1.817912928998803579e-01
3.699999999999999956e-01,-1.795076527953357315e-01,-2.342556693820290609e-02,2.319360480751805620e-01
3.709999999999999964e-01,6.759254773843266506e-02,-9.598974275072577611e-02,7.946537877736847832e-02
3.719999999999999973e-01,2.106529233664328760e-01,-7.769925285359857714e-02,-9.299706406970317807e-02
3.729999999999999982e-01,1.316360127335765851e-01,3.416378968098075959e-03,-1.619733102705635530e-01
3.739999999999999991e-01,9.609033598341922347e-03,-1.143097282984798652e-02,-8.043366873148220797e-02
3.750000000000000000e-01,-2.761485649584813698e-02,-1.185208855802940414e-01,2.476185391837820368e-02
3.760000000000000009e-01,2.042436908167755832e-02,-1.037772624153556755e-01,7.598812003246276092e-02
3.770000000000000018e-01,4.178633213342383690e-02,5.507705315518763439e-02,1.014773736163354124e-02
3.780000000000000027e-01,-8.267760789532938026e-02,2.299908123811806593e-01,-1.429328835498630546e-02
3.790000000000000036e-01,-1.939294277182855852e-01,1.977492829555903275e-01,3.503439442580941199e-02
3.800000000000000044e-01,-1.678662751150206967e-01,1.786490671977304656e-02,5.609170436392478531e-02
3.810000000000000053e-01,6.748669767935464026e-02,-2.551786886098140750e-01,5.104823867814813759e-02
3.820000000000000062e-01,3.048409841375860907e-01,-3.124553048192122984e-01,-5.062876840838801545e-02
3.830000000000000071e-01,3.288267736877686365e-01,-6.573211009704034435e-02,-1.638620514464650957e-01
3.840000000000000080e-01,5.114880103190333482e-02,2.255820629672282418e-01,-1.193350865306276876e-01
3.850000000000000089e-01,-2.933941606263819057e-01,3.290852633802612837e-01,1.656487550914378937e-02
3.860000000000000098e-01,-3.891267891105803511e-01,1.748989485024943225e-01,1.582167015314739078e-01
3.870000000000000107e-01,-1.568639194446852791e-01,-1.069154854141053657e-01,2.242082511647307819e-01
3.880000000000000115e-01,2.165999790511881351e-01,-3.013053032197425263e-01,8.912995294303882599e-02
3.890000000000000124e-01,3.866799708640478728e-01,-1.748132099408741535e-01,-1.379650412260351455e-01
3.900000000000000133e-01,2.490325692670239954e-01,3.970267879158038971e-02,-2.345674888255751545e-01
3.910000000000000142e-01,-8.070749830106681288e-02,1.693777756425521586e-01,-1.318202961511328875e-01
3.920000000000000151e-01,-2.644658797956380702e-01,1.274844491818475367e-01,8.607643893363213505e-02
3.930000000000000160e-01,-2.218265403539861347e-01,7.307263977847002628e-03,2.198807961126516830e-01
3.940000000000000169e-01,-3.546453101477642367e-02,-1.251011229695228773e-02,1.400857252974663791e-01
3.950000000000000178e-01,1.130748893301123936e-01,2.584329263200772601e-03,5.848540789625829295e-03
3.960000000000000187e-01,8.001689353260367510e-02,1.982997628583431718e-02,-1.059517796767579373e-01
3.970000000000000195e-01,1.349522626049640475e-02,-5.033330539628500661e-02,-1.200108129617407648e-01
3.980000000000000204e-01,1.987491574553099799e-02,-1.258147687569169948e-01,-4.554829453462384825e-02
3.990000000000000213e-01,6.839440065303435679e-02,-1.216072349264753771e-01,3.067745825157600081e-02
4.000000000000000222e-01,9.188922425069834254e-02,5.137108166182799418e-02,2.814335243239112980e-02
4.010000000000000231e-01,-3.462459387345337425e-03,2.292877498101361933e-01,-1.684161997399800589e-02
4.020000000000000240e-01,-2.020055577359304022e-01,2.637815911978702021e-01,8.473778815195646616e-03
4.030000000000000249e-01,-2.729931767818803978e-01,4.195527807134987602e-02,6.019273583553028106e-02
4.040000000000000258e-01,-4.999062882122815021e-02,-2.396411974141207102e-01,8.945753722132294972e-02
4.050000000000000266e-01,2.649576959407619614e-01,-3.402987211962705261e-01,2.154554887018702777e-02
4.060000000000000275e-01,3.824078131364387900e-01,-1.072025220228025738e-01,-1.411715460914207687e-01
4.069999999999999729e-01,1.776440836183426908e-01,1.443493703516950111e-01,-2.111915017760869762e-01
4.079999999999999738e-01,-1.939336759676782707e-01,3.345551293480344968e-01,-1.156560956589596512e-01
4.089999999999999747e-01,-4.198788367280825717e-01,1.777532580420253250e-01,6.192070468070177969e-02
4.099999999999999756e-01,-2.888637608592187767e-01,-5.282914154953426839e-02,2.377001216448375587e-01
4.109999999999999765e-01,6.857214374451967021e-02,-2.232294413991035564e-01,1.880161646907994866e-01
4.119999999999999774e-01,3.366665816449139759e-01,-1.784858639198442509e-01,-1.093274417576759958e-02
4.129999999999999782e-01,3.119309795022826015e-01,9.671862289297309886e-03,-2.362058596914522468e-01
4.139999999999999791e-01,4.182047899291511939e-02,1.030338033099137407e-01,-2.232582319573974128e-01
4.149999999999999800e-01,-1.967542883067662784e-01,5.923294996415851693e-02,-9.395731308344008881e-02
4.159999999999999809e-01,-2.108681771014751238e-01,-1.032657261632828269e-02,1.340543692486236005e-01
4.169999999999999818e-01,-5.405250014831514821e-02,2.628370591733671276e-03,1.804117779700864788e-01
4.179999999999999827e-01,4.786713063850082245e-02,5.944775793564371913e-02,8.581139574529125791e-02
4.189999999999999836e-01,3.695527213560635682e-02,5.134428586863987176e-02,-5.682036821364951085e-02
4.199999999999999845e-01,-2.573632991392934416e-02,-6.423389988295610808e-02,-7.734010618519637781e-02
4.209999999999999853e-01,4.252447981806354443e-03,-1.500046266223210301e-01,-6.278113773077870219e-02
4.219999999999999862e-01,1.051790840340881272e-01,-1.872034098108681932e-01,-1.136172920609602836e-02
4.229999999999999871e-01,1.889090928597062513e-01,3.215784231966614670e-02,5.588175871511322657e-04
4.239999999999999880e-01,5.473195900565794303e-02,2.372319720488181571e-01,-4.712153277720448202e-02
4.249999999999999889e-01,-2.061079057247552082e-01,3.012898267439063082e-01,-5.879899891541783691e-02
4.259999999999999898e-01,-3.447345990738698296e-01,5.811002978463178370e-02,3.836814121737848471e-02
4.269999999999999907e-01,-1.734484141143384783e-01,-2.280346234557292795e-01,1.173041926813243319e-01
4.279999999999999916e-01,2.015487127473036266e-01,-3.311116140315543688e-01,1.170438517421614616e-01
4.289999999999999925e-01,4.043176184920573291e-01,-1.883767580634827243e-01,-3.481393435363065031e-02
4.299999999999999933e-01,3.029825671637141338e-01,1.312130560865875928e-01,-2.002994294551869170e-01
4.309999999999999942e-01,-6.092804967461016435e-02,2.790461540500397408e-01,-2.096010391857034416e-01
4.319999999999999951e-01,-3.688876666243616209e-01,1.886014773748018736e-01,-5.200673408265138464e-02
4.329999999999999960e-01,-3.510055342062701755e-01,-4.645740800871306364e-02,1.778428300867854472e-01
4.339999999999999969e-01,-5.449386012603667229e-02,-2.018649414018279242e-01,2.415757908858690572e-01
4.349999999999999978e-01,2.279837141362209552e-01,-1.616448522493412199e-01,1.134057801418340006e-01
4.359999999999999987e-01,2.696419288856504171e-01,-5.839307086109518999e-03,-9.765974957389671196e-02
4.369999999999999996e-01,1.008099684265409551e-01,7.731986893965653307e-02,-2.296724199255814614e-01
4.380000000000000004e-01,-1.171692616640385154e-01,3.041342364364753303e-02,-1.501036282736624150e-01
4.390000000000000013e-01,-1.689881686776126268e-01,-1.684125998059322199e-02,1.202486668488385833e-02
4.400000000000000022e-01,-7.430559976678785539e-02,3.234862768373106268e-02,1.298116562262227602e-01
4.410000000000000031e-01,2.252580961301232573e-02,1.278672837593822775e-01,1.203392699452285330e-01
4.420000000000000040e-01,-7.554133414502472478e-03,1.246107826813981634e-01,1.798931305894356861e-02
4.430000000000000049e-01,-5.531284554847441109e-02,-3.505591688514265308e-02,-5.228555395911017173e-02
4.440000000000000058e-01,-3.349832113289708674e-02,-2.181931759693177819e-01,-3.715886137287083280e-02
4.450000000000000067e-01,1.257859161117668989e-01,-2.533414307435806756e-01,6.171831518383281631e-03
4.460000000000000075e-01,2.295664421978560188e-01,-4.743483033740899385e-02,1.078563883376122690e-02
4.470000000000000084e-01,1.397350517604181996e-01,2.476634378287256300e-01,-7.129898632256628788e-02
4.480000000000000093e-01,-1.427523852235662860e-01,3.277667536434845097e-01,-9.584811762882783359e-02
4.490000000000000102e-01,-3.677312471919055303e-01,1.385013486780276026e-01,-1.818964520383009251e-02
4.500000000000000111e-01,-2.935479217761851056e-01,-1.898363867487455892e-01,1.385504478669134232e-01
4.510000000000000120e-01,4.405920481797982041e-02,-3.049033893548595553e-01,1.969317858967988277e-01
4.520000000000000129e-01,3.419065582828335059e-01,-1.767611213268630854e-01,9.581104232485561367e-02
4.530000000000000138e-01,3.794989387388808533e-01,1.023765099293106329e-01,-1.312543403483930060e-01
4.540000000000000147e-01,8.564445254550977216e-02,2.714633628040776236e-01,-2.519274324633547502e-01
4.550000000000000155e-01,-2.857187442795470766e-01,1.909731528589061200e-01,-1.705304915486122452e-01
4.560000000000000164e-01,-3.860966297815916493e-01,-6.757960891081336678e-03,6.439527889146036410e-02
4.570000000000000173e-01,-1.731823543871520432e-01,-1.271914537705195469e-01,2.322922573706491522e-01
4.580000000000000182e-01,1.295791730377062467e-01,-9.818730725551716443e-02,2.035553558428351562e-01
4.590000000000000191e-01,2.628720887615305646e-01,-3.361975077110515575e-02,6.353550347569607293e-02
4.600000000000000200e-01,1.654299738934345010e-01,-8.714018540226336346e-03,-1.674519297288985242e-01
4.610000000000000209e-01,-1.143323172636360324e-02,-6.103539020123563419e-02,-1.727006370572404803e-01
4.620000000000000218e-01,-1.026811125537321762e-01,-4.618366681799986051e-02,-7.975797806507775589e-02
4.630000000000000226e-01,-2.861356101782936909e-02,3.550621589920393423e-02,8.088219054439711730e-02
4.640000000000000235e-01,8.252246075146884782e-03,1.507558161403138586e-01,1.041614828653078806e-01
4.650000000000000244e-01,-3.241081875872972584e-02,1.702863716511972547e-01,5.547109700839392837e-02
4.660000000000000253e-01,-1.398053118343889900e-01,7.431898982383508892e-04,-7.283025459433795090e-03
4.670000000000000262e-01,-1.022089631096204793e-01,-2.618902569987680007e-01,-9.173202878269252555e-03
4.680000000000000271e-01,1.132021612293434981e-01,-3.012336351073252594e-01,2.992484438304267996e-02
4.689999999999999725e-01,2.722817190323313374e-01,-6.505149480197466860e-02,-2.414051794666176570e-03
4.699999999999999734e-01,2.572111304577470725e-01,2.059246619246058452e-01,-5.637153962790709266e-02
4.709999999999999742e-01,-1.584539780094236169e-02,3.310958513077777443e-01,-1.237365885811953226e-01
4.719999999999999751e-01,-3.347294232996103069e-01,1.656982024967982858e-01,-8.526910337366895576e-02
4.729999999999999760e-01,-3.708405310739970595e-01,-1.316396188458114069e-01,6.718401083879251001e-02
4.739999999999999769e-01,-1.018077660048727906e-01,-2.990594271584873232e-01,1.864983292456300068e-01
4.749999999999999778e-01,2.830206377166992193e-01,-2.083446270572375525e-01,1.745265026319353374e-01
4.759999999999999787e-01,4.376917286709312016e-01,4.153443263059299062e-02,3.074420345434953836e-02
4.769999999999999796e-01,2.197736053556171576e-01,1.910989580976368840e-01,-2.164341188550352457e-01
4.779999999999999805e-01,-1.384406210187305308e-01,1.594547639403088024e-01,-2.373786545767783696e-01
4.789999999999999813e-01,-3.437002738496985343e-01,1.313214144737922910e-02,-7.762806285156509389e-02
4.799999999999999822e-01,-2.339158566149578955e-01,-6.121779554840958704e-02,1.187064667510835253e-01
4.809999999999999831e-01,2.342830115961921575e-02,-3.660214820237922551e-02,2.324401993514199072e-01
4.819999999999999840e-01,1.711106148739669763e-01,8.416983245191076921e-03,1.399724177025353511e-01
4.829999999999999849e-01,1.449207613611591394e-01,-3.941163422584943732e-03,-3.206256858627007378e-02
4.839999999999999858e-01,1.742577001043913235e-02,-8.871873311366328119e-02,-1.616371233638947691e-01
4.849999999999999867e-01,-4.592662274619303819e-02,-1.039919686941304100e-01,-1.426294284087410158e-01
4.859999999999999876e-01,1.036237614687092121e-02,4.396592787183230960e-02,-3.480844078276426612e-02
4.869999999999999885e-01,4.025111730130359611e-02,2.140204898935459399e-01,6.358885617396325962e-02
4.879999999999999893e-01,-4.262012637611332921e-02,1.971773079284743213e-01,4.420652928145090560e-02
4.889999999999999902e-01,-1.959948566895633737e-01,2.192563585707154802e-02,5.198919003452657193e-03
4.899999999999999911e-01,-1.717227790074725702e-01,-2.457904204198780862e-01,2.265557417332110524e-02
4.909999999999999920e-01,-7.886692069014808459e-03,-3.232525224737174963e-01,4.925529946013828403e-02
4.919999999999999929e-01,2.746658218008436458e-01,-1.019288252638961279e-01,5.824801224127704180e-02
4.929999999999999938e-01,3.378753612484420854e-01,2.072711532665437451e-01,-2.173675188000734684e-03
4.939999999999999947e-01,9.289794199421813614e-02,3.327884021561583472e-01,-1.057761767981285905e-01
4.949999999999999956e-01,-2.351837302153161058e-01,1.943446470849783392e-01,-1.611983053988131076e-01
4.959999999999999964e-01,-4.176238280510103373e-01,-8.193025604214461410e-02,-3.063735200144049320e-02
4.969999999999999973e-01,-2.218695916333720541e-01,-2.785315153899504681e-01,1.334062151925725082e-01
4.979999999999999982e-01,1.241528315924505937e-01,-2.186460857611911002e-01,2.163345872191239638e-01
4.989999999999999991e-01,4.016744130514889877e-01,2.146124166170750372e-02,1.341494916768080636e-01
5.000000000000000000e-01,2.754773596876914921e-01,1.542231201066298074e-01,-7.914829115291327488e-02
5.010000000000000009e-01,-6.039534060691133591e-03,1.346547305493712154e-01,-2.258353816684863236e-01
5.020000000000000018e-01,-2.689451743891089763e-01,1.183478127931847368e-02,-2.248091356869979796e-01
5.030000000000000027e-01,-2.434625357482742281e-01,-3.586239349270393256e-02,1.754130046928291387e-02
5.040000000000000036e-01,-4.679516130518689143e-02,-2.325106865109881262e-03,1.798343754843512721e-01
5.050000000000000044e-01,1.086364277661456823e-01,4.853938095015222082e-02,2.276283597160428940e-01
5.060000000000000053e-01,1.205661841577499727e-01,-3.767393561182295209e-02,6.496518252340754973e-02
5.070000000000000062e-01,1.440917592816428651e-02,-1.237945138704963921e-01,-1.066623262811566969e-01
5.080000000000000071e-01,-6.635313679886852868e-03,-1.333530823418725142e-01,-1.377463057547611280e-01
5.090000000000000080e-01,4.486298840737924787e-02,-1.791855171212168585e-02,-8.319959725160290531e-02
5.100000000000000089e-01,1.271162535437798946e-01,2.281833528843512371e-01,6.356151211269343848e-02
5.110000000000000098e-01,1.427735791100897753e-02,2.712787570245424607e-01,2.508910141285789278e-02
5.120000000000000107e-01,-1.861380162171110408e-01,4.582132348152147955e-02,-2.114919521998391908e-02
5.130000000000000115e-01,-2.741047632793201516e-01,-1.978603265564038427e-01,1.264798620248576075e-02
5.140000000000000124e-01,-1.054155683636592011e-01,-3.312587476833491196e-01,4.627896248320760575e-02
5.150000000000000133e-01,1.984314955688837590e-01,-1.452403441091192349e-01,1.152309024457183750e-01
5.160000000000000142e-01,3.873129780237907216e-01,1.305846977131057685e-01,6.979631375233075197e-02
5.170000000000000151e-01,2.366394860377764586e-01,2.939871699687670592e-01,-6.149683023070193905e-02
5.180000000000000160e-01,-1.216711461609598921e-01,2.153568438004607455e-01,-1.852104215854590008e-01
5.190000000000000169e-01,-3.876794741679530643e-01,-4.501127642416950098e-02,-1.618462658393683695e-01
5.200000000000000178e-01,-3.502936278304602524e-01,-2.420651750131336266e-01,2.821330408085805444e-02
5.210000000000000187e-01,3.978982938206866195e-03,-1.794537663506875769e-01,1.932111710240909386e-01
5.220000000000000195e-01,3.030473632414198426e-01,-1.983416308430299008e-02,2.148881530115890892e-01
5.230000000000000204e-01,3.212170749755275945e-01,1.209975642947367230e-01,4.506782209392576344e-02
5.240000000000000213e-01,9.941494841973959329e-02,9.285132078091094809e-02,-1.451585180149948529e-01
5.250000000000000222e-01,-1.749306745335057756e-01,-8.819094236517284469e-03,-2.438233169907725872e-01
5.260000000000000231e-01,-2.460424869407144555e-01,-2.242981589542977772e-02,-1.110589615616746351e-01
5.270000000000000240e-01,-9.222367473224217516e-02,5.966550920413686565e-02,1.106373127685732760e-01
5.280000000000000249e-01,4.242042370863099293e-02,8.799642105018261329e-02,1.825651377242627216e-01
5.290000000000000258e-01,5.028826613153108971e-02,-1.487105264691717006e-02,1.238702573348206826e-01
5.300000000000000266e-01,-1.935403768971075827e-02,-1.662083999903283538e-01,1.003190320427134290e-02
5.310000000000000275e-01,1.080143354713957241e-02,-1.837710296967907664e-01,-1.010981769173914663e-01
5.320000000000000284e-01,1.209704339286611641e-01,-2.780104545267173682e-02,-6.708831100872456044e-02
5.330000000000000293e-01,1.688968352612063850e-01,2.520414306479661914e-01,-3.019487958147266948e-02
5.340000000000000302e-01,4.741310798964534778e-02,3.219667402390843369e-01,8.985455356028803492e-03
5.350000000000000311e-01,-1.579585355939764901e-01,1.392625251076774762e-01,-4.334939809187023096e-02
5.360000000000000320e-01,-3.203001380484798433e-01,-1.923358160686867990e-01,-4.936180413783203963e-02
5.370000000000000329e-01,-2.271092700310136936e-01,-3.316759646208257695e-01,3.373478758527346383e-02
5.380000000000000338e-01,1.179767247547889170e-01,-2.058397994097536099e-01,1.267816510069421643e-01
5.390000000000000346e-01,3.764767784073801971e-01,7.530093930597549223e-02,1.420293246465282322e-01
5.400000000000000355e-01,3.479225711669854393e-01,2.981684945665804554e-01,2.991577351541356913e-02
5.410000000000000364e-01,3.389347232331838249e-03,2.150931314374603665e-01,-1.623333670407141049e-01
5.420000000000000373e-01,-3.174406981213576118e-01,-7.946650409531698031e-03,-2.142102979437554566e-01
5.430000000000000382e-01,-4.190311138600850693e-01,-1.593304780954063193e-01,-1.111938873186286009e-01
5.440000000000000391e-01,-1.399363409910169276e-01,-1.484078523082132672e-01,1.145375744612446428e-01
5.450000000000000400e-01,1.904254757369067963e-01,-2.387886988834399867e-03,2.513086228435759129e-01
5.460000000000000409e-01,3.174338824014572014e-01,4.896577332126352683e-02,1.824613841680476078e-01
5.470000000000000417e-01,1.543860703971889625e-01,4.091702367682337887e-02,-5.658070630686756752e-02
5.480000000000000426e-01,-6.047776830097589817e-02,-1.266425505704695496e-02,-2.092033986367341780e-01
5.490000000000000435e-01,-1.506099310721449591e-01,6.230134236419625215e-03,-2.111420734975483215e-01
5.500000000000000444e-01,-1.265713211011257611e-01,1.102066383524842735e-01,-4.892806949606982175e-02
5.510000000000000453e-01,2.061068436516064195e-02,1.119809195590510675e-01,1.244534937572487759e-01
5.520000000000000462e-01,-1.214485051273624799e-02,-2.064985360337729878e-02,1.602029655687036702e-01
5.530000000000000471e-01,-3.339556077033038056e-02,-1.759145997205792122e-01,5.350742965101364795e-02
5.540000000000000480e-01,-5.966777731268949753e-02,-2.472921279555073404e-01,-4.602683074737295293e-02
5.550000000000000488e-01,5.051003482517777560e-02,-6.269893190528595672e-02,-4.275273966654035557e-02
5.560000000000000497e-01,2.378889269446456678e-01,2.339433126098155180e-01,-5.510934332415222403e-03
5.570000000000000506e-01,1.892821130258075524e-01,3.437569101089021917e-01,-2.034015171944159733e-02
5.580000000000000515e-01,-8.025997507291603161e-02,1.592377970808016019e-01,-3.176409979151552376e-02
5.590000000000000524e-01,-3.071565718131253342e-01,-1.782281748711746217e-01,-9.628640229594061239e-02
5.600000000000000533e-01,-3.356145807732430764e-01,-3.305337152264238298e-01,-4.828383411856297658e-02
5.610000000000000542e-01,-5.149855156863883399e-02,-2.237062184836874357e-01,7.400912818468091681e-02
5.620000000000000551e-01,2.967101110769453931e-01,2.996322987282893160e-02,1.773615934273770622e-01
5.629999999999999449e-01,4.217802796989486014e-01,2.643389476393767645e-01,1.500193379769957092e-01
5.639999999999999458e-01,1.763446758458301067e-01,2.220698547899588871e-01,-3.859837475815390551e-02
5.649999999999999467e-01,-1.984743534477433624e-01,6.523227682741314370e-03,-2.048236568294929394e-01
5.659999999999999476e-01,-4.013533070259652225e-01,-1.194382960297146190e-01,-2.083385484850995562e-01
5.669999999999999485e-01,-2.185435722256947877e-01,-1.254011345657909671e-01,-6.806246712965671047e-03
5.679999999999999494e-01,8.980937150527455726e-02,-2.374880120748485215e-02,1.787248223064099584e-01
5.689999999999999503e-01,2.573726015281687651e-01,-6.634650675701626345e-03,2.376720276673441323e-01
5.699999999999999512e-01,1.943740430155105614e-01,-2.163878173850174169e-02,9.885281996943991178e-02
5.709999999999999520e-01,7.158677080810871458e-03,-5.672940491715915828e-02,-1.092541911805658822e-01
5.719999999999999529e-01,-8.285946041284003583e-02,2.725392874994624071e-02,-2.193182288709179806e-01
5.729999999999999538e-01,-6.187115060037894076e-02,1.649129049089868571e-01,-1.265838213485155073e-01
5.739999999999999547e-01,3.984654789039763449e-04,1.779388283493177347e-01,2.157096381241927971e-02
5.749999999999999556e-01,-3.245099972174298603e-02,1.607048196230853251e-02,1.199053927889680432e-01
5.759999999999999565e-01,-1.085992330319235782e-01,-2.352652740803195530e-01,5.550347354145269974e-02
5.769999999999999574e-01,-1.360292633995650868e-01,-2.704183418390009863e-01,1.826761892092049200e-02
5.779999999999999583e-01,9.266273440128213607e-03,-1.051115855410885980e-01,1.268237637499524707e-03
5.789999999999999591e-01,2.541860169080915610e-01,2.069681530543938386e-01,6.734823187110505066e-03
5.799999999999999600e-01,2.797959285604929569e-01,3.488576257272636982e-01,1.110214995122640186e-02
5.809999999999999609e-01,6.073646435671389843e-02,1.931884386168631063e-01,-1.789443433866305319e-02
5.819999999999999618e-01,-2.769178653793405998e-01,-1.286576182956444825e-01,-1.203246647298267108e-01
5.829999999999999627e-01,-4.024955322494320198e-01,-3.033075130694303234e-01,-1.144078067878983584e-01
5.839999999999999636e-01,-2.072033532249192567e-01,-2.397261181395219098e-01,5.411404726299890756e-03
5.849999999999999645e-01,2.002893980771809634e-01,9.933999728372260724e-03,1.564636282228445696e-01
5.859999999999999654e-01,4.156835231343856130e-01,2.020495679338044359e-01,2.185334128441218937e-01
5.869999999999999662e-01,2.829065746286255068e-01,1.843983733591208485e-01,8.158004567347412750e-02
5.879999999999999671e-01,-9.047978492643736492e-02,1.645017490953298855e-02,-1.368368103186009266e-01
5.889999999999999680e-01,-3.248049262436817353e-01,-1.129539650155390595e-01,-2.590510885199824864e-01
5.899999999999999689e-01,-2.465589270429663915e-01,-6.892122077624138199e-02,-1.405961575511189832e-01
5.909999999999999698e-01,-2.136855968209094153e-02,-1.376181767621928280e-02,6.986860037676767554e-02
5.919999999999999707e-01,1.600663033885717512e-01,1.462341598286524824e-02,2.221655691210017436e-01
5.929999999999999716e-01,2.041934167428950120e-01,-6.071945115663415077e-02,1.728951384292440052e-01
5.939999999999999725e-01,4.763100327595723438e-02,-9.658914766727808021e-02,5.757836078924378001e-03
5.949999999999999734e-01,-2.943709188461278436e-02,1.496487701804520565e-02,-1.436947456800296008e-01
5.959999999999999742e-01,-9.530502030254517365e-03,1.789046867177262745e-01,-1.572682635813887897e-01
5.969999999999999751e-01,3.480572282732901507e-02,2.389606262347160337e-01,-4.975327900253808527e-02
5.979999999999999760e-01,-4.499975159699323886e-03,4.236252993484328905e-02,5.031948263387384102e-02
5.989999999999999769e-01,-1.473577277168921229e-01,-2.248092295685760189e-01,6.602233686444489158e-02
5.999999999999999778e-01,-1.939686445342639620e-01,-3.023290975595280816e-01,1.498158936636891396e-03
6.009999999999999787e-01,-3.139890844795394098e-02,-1.493300724597492468e-01,-2.139632859966748239e-03
6.019999999999999796e-01,2.100498073235086693e-01,1.476242143570846987e-01,4.004624990343859381e-02
6.029999999999999805e-01,3.456946045761344899e-01,3.487876145555830476e-01,7.191417213662684715e-02
6.039999999999999813e-01,1.737022002788302932e-01,2.450520762298210586e-01,3.536447411004527835e-02
6.049999999999999822e-01,-1.415107981316905406e-01,-4.856341901559805413e-02,-7.446676587031550443e-02
6.059999999999999831e-01,-3.969105564922564278e-01,-2.765442420012454994e-01,-1.586962734348483506e-01
6.069999999999999840e-01,-2.945496957275089978e-01,-2.106457369983051053e-01,-9.026564866494783679e-02
6.079999999999999849e-01,6.705137783642280136e-02,-1.030102537823262415e-02,6.055685968314523937e-02
6.089999999999999858e-01,3.594482011729802085e-01,1.661880681898985357e-01,2.464401467211283225e-01
6.099999999999999867e-01,3.128952261131747181e-01,1.572266805906556431e-01,1.786898447788927702e-01
6.109999999999999876e-01,6.146525282972649384e-02,5.473972912720216633e-02,-6.090427635187735562e-04
6.119999999999999885e-01,-2.371601578187970405e-01,-6.876503270779606158e-03,-1.999556806001064335e-01
6.129999999999999893e-01,-2.796058759925602044e-01,-5.594907745497181874e-03,-2.540850697454759555e-01
6.139999999999999902e-01,-1.073732179876687592e-01,4.317830488380280940e-02,-6.316521364597517396e-02
6.149999999999999911e-01,7.906981381301597667e-02,-1.109739190618253164e-02,1.342932639579576259e-01
6.159999999999999920e-01,1.509787922391326864e-01,-1.327020320561359268e-01,2.135811728805904752e-01
6.169999999999999929e-01,4.044654345943179269e-02,-1.551941817772409526e-01,1.191738708797429741e-01
6.179999999999999938e-01,-1.847886642855542730e-02,-2.003732266402606654e-02,-4.304078631452236403e-02
6.189999999999999947e-01,2.468838882885168728e-02,2.086568516630174230e-01,-1.252269769809195021e-01
6.199999999999999956e-01,1.057074881378477216e-01,2.723268629026516785e-01,-1.041044910404717999e-01
6.209999999999999964e-01,2.729814344776795854e-02,1.203325676271903427e-01,7.947940059191232337e-03
6.219999999999999973e-01,-1.106198323748163459e-01,-2.083075874077087719e-01,3.506024122201854831e-02
6.229999999999999982e-01,-2.763202724949635480e-01,-3.429472577935156474e-01,7.685150630589708889e-03
6.239999999999999991e-01,-1.558733798400380455e-01,-1.929794304122586790e-01,-8.413381497701881819e-04
6.250000000000000000e-01,1.341879106438340907e-01,1.354021092944493188e-01,1.645650636635247882e-02
6.260000000000000009e-01,3.297383265545084097e-01,3.159664408075701370e-01,1.159372695113352059e-01
6.270000000000000018e-01,3.215655454839017602e-01,2.342914148350905834e-01,8.572927043670634795e-02
6.280000000000000027e-01,-5.287687208040454945e-02,-2.580434355264884724e-02,-2.828822796901106496e-02
6.290000000000000036e-01,-3.741696048013751219e-01,-2.314340512978667053e-01,-1.930733185252402340e-01
6.300000000000000044e-01,-3.841417275768068129e-01,-1.922541940805784222e-01,-2.014879670878070295e-01
6.310000000000000053e-01,-9.007427056509842433e-02,-3.015293091299098630e-02,-4.225953886448926416e-02
6.320000000000000062e-01,2.780710912976049887e-01,9.133351033035866373e-02,1.679777084342692350e-01
6.330000000000000071e-01,3.279811735379632998e-01,9.614551904215787315e-02,2.523533930552865900e-01
6.340000000000000080e-01,1.727882805044076708e-01,1.760335804110908092e-02,1.248118273206008794e-01
6.350000000000000089e-01,-1.201731224403239234e-01,-1.880010506527859601e-02,-8.953392521556395589e-02
6.360000000000000098e-01,-2.225135861053694764e-01,5.903477131231710945e-02,-2.362972474880986884e-01
6.370000000000000107e-01,-1.242299812629015787e-01,8.408357215898641657e-02,-1.865137142966566686e-01
6.380000000000000115e-01,2.115577744323745776e-02,-1.446681538042876060e-02,1.267511900693711786e-02
6.390000000000000124e-01,7.131362877267896638e-02,-1.717994435709362666e-01,1.639543951475657679e-01
6.400000000000000133e-01,4.308909326433268960e-02,-2.038858726211075223e-01,1.708488410077699249e-01
6.410000000000000142e-01,-5.027337319766541149e-03,-7.462060481426248393e-02,2.813124503063076445e-02
6.420000000000000151e-01,5.379195763423853111e-02,1.889183143767485251e-01,-8.993868863510191825e-02
6.430000000000000160e-01,1.552370585755973587e-01,2.980936663308384471e-01,-7.726070014649985551e-02
6.440000000000000169e-01,1.286472718607531152e-01,1.717980531046420234e-01,-1.387959857424187274e-02
6.450000000000000178e-01,-7.897970488201760952e-02,-1.620735224030709909e-01,-3.723273224936921120e-03
6.460000000000000187e-01,-2.780281571187446787e-01,-3.185953795926914633e-01,-1.239325220554885788e-02
6.470000000000000195e-01,-2.981845258995499126e-01,-2.512559620511613523e-01,-4.104950463573277947e-02
6.480000000000000204e-01,1.590110556078292228e-02,5.009514394870876602e-02,-1.779028490766342702e-02
6.490000000000000213e-01,3.537686306434852934e-01,2.683306329006858171e-01,8.017158304384140732e-02
6.500000000000000222e-01,3.770692413621081207e-01,2.560099499242371457e-01,1.392408472478127990e-01
6.510000000000000231e-01,9.846744385175047742e-02,3.427148499550944361e-02,6.801335242114991964e-02
6.520000000000000240e-01,-2.668185779732737406e-01,-1.393350937588810345e-01,-8.870591218143998591e-02
6.530000000000000249e-01,-4.003559133372377454e-01,-1.849408592644106453e-01,-2.372091049786267392e-01
6.540000000000000258e-01,-2.105950003820120098e-01,-4.395915733858166835e-02,-1.814529905806674670e-01
6.550000000000000266e-01,1.194151854018480202e-01,4.300026493256509791e-02,2.918326047485273952e-02
6.560000000000000275e-01,3.304848930952495878e-01,2.874735828180226271e-02,2.480688570580246721e-01
6.570000000000000284e-01,2.087704772886957993e-01,-2.316435941158076148e-02,2.221611534276850819e-01
6.580000000000000293e-01,-2.958007172817023189e-02,-7.603106054816995661e-03,3.567690765325867708e-02
6.590000000000000302e-01,-1.520802405619780806e-01,9.991752504431804238e-02,-1.733023593514378402e-01
6.600000000000000311e-01,-1.238435479973093029e-01,1.109406660305754938e-01,-2.089423322484199042e-01
6.610000000000000320e-01,-1.271668474502030827e-02,1.294369680566148650e-02,-7.305353779634340960e-02
6.620000000000000329e-01,-1.020406086553711858e-02,-1.651039543886819172e-01,9.440751770279823263e-02
6.630000000000000338e-01,-1.961834072168054666e-02,-2.456487568769292196e-01,1.277146662349138984e-01
6.640000000000000346e-01,-5.806171869775132721e-02,-6.916968591052548299e-02,1.073197789980520483e-01
6.650000000000000355e-01,4.162306897391273436e-02,1.940101952528733853e-01,-3.312490344880174992e-02
6.660000000000000364e-01,2.039199743714143198e-01,3.177069462471548422e-01,-5.465456290839722231e-02
6.670000000000000373e-01,2.089125108563348043e-01,1.867368437219638910e-01,-1.709213495376945766e-02
6.680000000000000382e-01,4.166193653603695798e-03,-1.086437150478958835e-01,2.357487339178424360e-02
6.690000000000000391e-01,-2.849577216130750323e-01,-3.318282427342368890e-01,-4.535841608116663454e-02
6.700000000000000400e-01,-3.612908768497080647e-01,-2.374148577577764596e-01,-5.921534010033459999e-02
6.710000000000000409e-01,-1.336195006359282289e-01,4.036065648496892783e-02,-5.739354977665815649e-02
6.720000000000000417e-01,2.594526258721492340e-01,2.247112967134492489e-01,2.417197954482853267e-02
6.730000000000000426e-01,4.240451856830015909e-01,2.322996202072843963e-01,1.581058503865908071e-01
6.740000000000000435e-01,2.333184696725033591e-01,5.177633745238135327e-02,1.708974648175575206e-01
6.750000000000000444e-01,-1.210385345201908242e-01,-1.376985140518843520e-01,1.883128713891554090e-02
6.760000000000000453e-01,-4.131932839325682116e-01,-1.326865500823689592e-01,-1.917516630613642636e-01
6.770000000000000462e-01,-2.932576549026319479e-01,-2.472438613973643520e-02,-2.433130009066710175e-01
6.780000000000000471e-01,1.721066450599151353e-03,2.666764160839559666e-02,-7.553232500311654607e-02
6.790000000000000480e-01,2.464573606646598691e-01,7.045287829086772230e-03,1.233890348649419183e-01
6.800000000000000488e-01,2.221008584394651153e-01,-5.163214330850806472e-02,2.507031271448634246e-01
6.810000000000000497e-01,4.788035449783257375e-02,1.541541449404586900e-02,1.635687101292206402e-01
6.820000000000000506e-01,-1.198352914539878716e-01,1.242823174620495963e-01,-5.470633659035104707e-02
6.830000000000000515e-01,-5.834496586510732469e-02,1.836040495544966067e-01,-1.818116433935425824e-01
6.840000000000000524e-01,-7.877849507512376878e-03,4.117407092704186700e-02,-1.534031903980916101e-01
6.850000000000000533e-01,-9.062384038359560037e-03,-1.656316712196351237e-01,-3.312180462963617428e-02
6.860000000000000542e-01,-9.306994241194962991e-02,-2.828815444861451089e-01,1.110067760931759961e-01
6.870000000000000551e-01,-1.162090466031123620e-01,-1.475452057965255526e-01,1.025003833833314504e-01
6.879999999999999449e-01,-3.050584472880614462e-02,1.509367876941869469e-01,1.631102801424682072e-02
6.889999999999999458e-01,1.622103535207658209e-01,3.269908238727663452e-01,2.626422835093366638e-03
6.899999999999999467e-01,3.156734803856926508e-01,2.139382780966085640e-01,3.056781490532146754e-03
6.909999999999999476e-01,1.308604041896860859e-01,-1.002358246265070141e-01,4.337376062250582892e-02
6.919999999999999485e-01,-2.128858835297674779e-01,-2.875412917483931019e-01,-6.113670963062169811e-03
6.929999999999999494e-01,-3.807668180246628897e-01,-2.455867241439704807e-01,-9.511883550792954445e-02
6.939999999999999503e-01,-2.219636215166181648e-01,-1.409473863632610367e-02,-1.376084021108897881e-01
6.949999999999999512e-01,1.490520991377672910e-01,1.738359950329832759e-01,-4.224619408865569470e-02
6.959999999999999520e-01,3.786471865181743057e-01,1.859687576398881825e-01,1.152505007836869544e-01
6.969999999999999529e-01,3.266960851089098505e-01,4.064778287352457248e-02,2.052293642027290255e-01
6.979999999999999538e-01,-2.026314444401027676e-02,-6.221078209282435850e-02,1.421885495666971588e-01
6.989999999999999547e-01,-2.921992662723520984e-01,-7.488796501312916520e-02,-8.597889572230284216e-02
6.999999999999999556e-01,-3.172127873471324855e-01,-1.859557370850183078e-02,-2.296310210740705460e-01
7.009999999999999565e-01,-8.365398076102971425e-02,-1.254510469904163671e-03,-1.812039850752673320e-01
7.019999999999999574e-01,1.365264505255400773e-01,-6.558866973682163370e-02,6.132609457927110964e-03
7.029999999999999583e-01,1.829408812894116054e-01,-1.085898758347238063e-01,2.008924978914289616e-01
7.039999999999999591e-01,1.047440136260580357e-01,-6.306427897535347125e-03,2.264453518862895864e-01
7.049999999999999600e-01,-4.989045611800493191e-02,1.440877572604899737e-01,9.752160214907859559e-02
7.059999999999999609e-01,-1.393523254970805390e-02,2.198469303534658637e-01,-1.104631948092438531e-01
7.069999999999999618e-01,6.236473386577996714e-02,9.421031258824026644e-02,-1.612545994715464948e-01
7.079999999999999627e-01,1.879021210897032293e-02,-1.496402600893408652e-01,-7.685336883120803819e-02
7.089999999999999636e-01,-1.051592978817147556e-01,-3.319367343884027655e-01,5.070253912867192514e-02
7.099999999999999645e-01,-1.800407783146496798e-01,-1.860141973500996915e-01,9.769389853142364244e-02
7.109999999999999654e-01,-1.007638862309120781e-01,1.229505665966046518e-01,4.858620915351701680e-02
7.119999999999999662e-01,1.471463993964230998e-01,3.356226706432492435e-01,-5.809927932455200613e-04
7.129999999999999671e-01,3.536872110580244755e-01,2.523772189367151642e-01,2.956950872327497593e-02
7.139999999999999680e-01,2.262260712050623568e-01,-2.090247018693285747e-02,5.889487476396722959e-02
7.149999999999999689e-01,-1.067351297585003161e-01,-2.656063514365245570e-01,6.504753882802964682e-02
7.159999999999999698e-01,-3.743329802197801759e-01,-2.619958727162705614e-01,-5.206798368300784297e-02
7.169999999999999707e-01,-3.480322532524749990e-01,-6.662711225544518112e-02,-1.411481402593303958e-01
7.179999999999999716e-01,-4.419758271617882893e-03,1.099711937971954018e-01,-1.248884213894075751e-01
7.189999999999999725e-01,2.979619778929863960e-01,1.533786978238211030e-01,3.385084443200632454e-02
7.199999999999999734e-01,3.941006805086378906e-01,5.483225354479631664e-02,1.725890521645658537e-01
7.209999999999999742e-01,1.315827458052410415e-01,-1.213763798236022762e-02,2.338816847809564725e-01
7.219999999999999751e-01,-1.626244098335642430e-01,-4.461537362426968439e-02,5.269869525062900045e-02
7.229999999999999760e-01,-2.977643442185301526e-01,5.389612205899250996e-02,-1.471188071273293319e-01
7.239999999999999769e-01,-1.433556096474351005e-01,-2.215603991050233909e-02,-2.598496060261618612e-01
7.249999999999999778e-01,6.405131677279590763e-02,-1.050704127732947357e-01,-1.477825160737264720e-01
7.259999999999999787e-01,1.116952407816634157e-01,-1.575216524364261572e-01,6.408289311742161598e-02
7.269999999999999796e-01,9.529339375611120544e-02,-3.750653098546120195e-02,2.320338358768315457e-01
7.279999999999999805e-01,1.154018897479934178e-02,1.853872221934551867e-01,1.635380435592662107e-01
7.289999999999999813e-01,2.677214403712573423e-02,2.909605120920297772e-01,-3.261878274636766518e-04
7.299999999999999822e-01,9.656541309783962801e-02,1.209316140086543617e-01,-1.207359199626803353e-01
7.309999999999999831e-01,6.951780749995374598e-02,-1.922515062203061786e-01,-1.129671110407074047e-01
7.319999999999999840e-01,-1.060482089169998005e-01,-3.440577070450840380e-01,-2.849035996977639790e-02
7.329999999999999849e-01,-2.384951979494180085e-01,-2.357020550271515802e-01,3.248560820534024396e-02
7.339999999999999858e-01,-1.967286310056295673e-01,8.830916720166090417e-02,6.105069957023458171e-03
7.349999999999999867e-01,8.761506051959155883e-02,2.832141320738525425e-01,-4.087377269064677160e-02
7.359999999999999876e-01,3.537380174824449330e-01,2.402105061620059823e-01,6.331526257256891652e-03
7.369999999999999885e-01,3.584707392322690200e-01,5.245936667720083046e-02,7.915770403366687025e-02
7.379999999999999893e-01,-9.988433907769522432e-03,-2.381994844343291451e-01,1.095071576051726975e-01
7.389999999999999902e-01,-3.164764334332127449e-01,-2.054657740437680902e-01,1.538614584086412523e-02
7.399999999999999911e-01,-4.229155470489751045e-01,-5.351686612053052627e-02,-1.040434225923369677e-01
7.409999999999999920e-01,-1.464017967101310658e-01,1.145452029394048027e-01,-2.009880008473996227e-01
7.419999999999999929e-01,1.864636259914906613e-01,8.981760900140473014e-02,-1.068461020781187737e-01
7.429999999999999938e-01,3.742508869828007345e-01,3.281372151916207847e-02,9.614091393247377326e-02
7.439999999999999947e-01,2.101375406940463042e-01,-1.103185698045813963e-02,2.252629074574664936e-01
7.449999999999999956e-01,-6.455967900878589738e-02,4.124948602556820221e-02,1.763675556758061147e-01
7.459999999999999964e-01,-2.327065463251197230e-01,7.341217157207244326e-02,-3.773831656667613055e-02
7.469999999999999973e-01,-1.591891437755356964e-01,-8.544044293456908717e-03,-2.106161702602487307e-01
7.479999999999999982e-01,-6.867030075717069429e-03,-1.486186047639128927e-01,-2.286644387876480555e-01
7.489999999999999991e-01,8.133923701841715148e-02,-2.092523588542522517e-01,-5.597706805565502708e-02
7.500000000000000000e-01,4.353573075100920786e-02,-6.258851451709623870e-02,1.320003089630610305e-01
7.510000000000000009e-01,-5.262495677404670918e-02,1.637451455324107630e-01,1.693800359999616256e-01
7.520000000000000018e-01,3.357636353183728051e-02,2.857292249423076802e-01,7.043551047566232182e-02
7.530000000000000027e-01,1.556482833380535558e-01,1.658005592939640338e-01,-7.014067656960894237e-02
7.540000000000000036e-01,1.412440270063184122e-01,-1.198720032393916918e-01,-1.022384450983770121e-01
7.550000000000000044e-01,-5.930543596638754300e-02,-3.292993596612624474e-01,-4.976557034682708297e-02
7.560000000000000053e-01,-2.549927475156280599e-01,-2.370030766415013590e-01,6.085492107408262477e-03
7.570000000000000062e-01,-2.944998077819714344e-01,-7.748391293813827740e-03,-5.843480224824848697e-03
7.580000000000000071e-01,-4.483070564505118455e-02,2.589735200732181664e-01,-6.078675824184439497e-02
7.590000000000000080e-01,2.965578139645041467e-01,2.721128900980566701e-01,-5.799007817553232698e-03
7.600000000000000089e-01,4.077713438270826884e-01,6.328581953425392592e-02,4.932571331443221657e-02
7.610000000000000098e-01,1.944099768042928111e-01,-1.476239594378278841e-01,1.381402718698459542e-01
7.620000000000000107e-01,-1.977664160959933803e-01,-1.809329705470702487e-01,1.079977155705268976e-01
7.630000000000000115e-01,-4.241514666015703261e-01,-6.925641008398042420e-02,-5.406311166166003629e-02
7.640000000000000124e-01,-2.750140651717748463e-01,7.987737480704709681e-02,-2.073850303653818339e-01
7.650000000000000133e-01,8.815024637738709534e-02,6.478833443995817010e-02,-1.853571447343646539e-01
7.660000000000000142e-01,3.036352921800844484e-01,-3.338925830452393190e-02,-1.404953458181682456e-02
7.670000000000000151e-01,2.469059625060578411e-01,-5.691340786743047039e-03,1.869676802448328734e-01
7.680000000000000160e-01,1.655688456967839214e-02,8.141124313426904846e-02,2.494772534838263500e-01
7.690000000000000169e-01,-1.604446487581338843e-01,1.103593318777123106e-01,9.309657184693881371e-02
7.700000000000000178e-01,-1.317279851869639085e-01,2.420536359384307598e-02,-1.155507177540605473e-01
7.710000000000000187e-01,-2.896044253006923100e-02,-1.596856436618459552e-01,-2.184660791076707409e-01
7.720000000000000195e-01,1.959799374119711168e-02,-2.279130411438068937e-01,-1.786721728054262992e-01
7.730000000000000204e-01,-1.421529652671688938e-02,-1.120490096514619033e-01,4.367230451808727654e-02
7.740000000000000213e-01,-6.746270011475079265e-02,1.586528402355134870e-01,1.397073455283266707e-01
7.750000000000000222e-01,2.015354593221065169e-03,3.094431015111447913e-01,1.220021336385884864e-01
7.760000000000000231e-01,1.767933762278705856e-01,2.125272908381744819e-01,1.610406542384652806e-02
7.770000000000000240e-01,2.293455629600432422e-01,-8.887568462366336741e-02,-4.958449544925802588e-02
7.780000000000000249e-01,5.934182791171975502e-02,-2.853606122412551405e-01,-2.030118135490965869e-02
7.790000000000000258e-01,-2.134555435886417718e-01,-2.784530600013364054e-01,-2.508462391242674908e-03
7.800000000000000266e-01,-3.588187625307293627e-01,-1.478415662542225534e-02,3.700435996977158239e-04
7.810000000000000275e-01,-1.942995976073586817e-01,2.252652998416240504e-01,-4.628564017297729510e-02
7.820000000000000284e-01,1.820883911079493878e-01,2.182713958012909294e-01,-5.916292679576477115e-02
7.830000000000000293e-01,4.163308617245664034e-01,5.827243215866641929e-02,-1.529831553595217136e-02
7.840000000000000302e-01,3.130613236227503537e-01,-8.507361964344568872e-02,1.425151429798198199e-01
7.850000000000000311e-01,-4.628785599189025324e-02,-1.225929383522183225e-01,1.908904721238645352e-01
7.860000000000000320e-01,-3.579841080825347244e-01,-3.561063900249542002e-02,9.458845672576227104e-02
7.870000000000000329e-01,-3.486214973681053819e-01,2.469963349197872027e-02,-1.320147772063506586e-01
7.880000000000000338e-01,-4.225515223633202061e-02,-4.878265141748287272e-03,-2.502655271055576058e-01
7.890000000000000346e-01,2.215149246530471738e-01,-7.156142135022895701e-02,-1.499263352728682774e-01
7.900000000000000355e-01,2.555462306760331592e-01,-8.154396043746346343e-03,6.074486028246087188e-02
7.910000000000000364e-01,9.625336721059120360e-02,9.331945979258836343e-02,2.384097700048100343e-01
7.920000000000000373e-01,-7.242260569875987042e-02,1.776255901281143801e-01,2.126383545048065871e-01
7.930000000000000382e-01,-9.047119129801531323e-02,6.575229334010745941e-02,4.870389673210388792e-02
7.940000000000000391e-01,-2.331745022202184187e-03,-1.561102866755885166e-01,-1.678518799231838166e-01
7.950000000000000400e-01,4.116135021895459684e-02,-2.913508858892235320e-01,-1.949612364334789016e-01
7.960000000000000409e-01,-6.311450379183203285e-02,-1.615710838818603390e-01,-7.840036344392269096e-02
7.970000000000000417e-01,-1.248566238513721671e-01,1.265670841249918188e-01,8.565207895738052857e-02
7.980000000000000426e-01,-2.824819363319917842e-02,3.234774029740132284e-01,1.207604007941029262e-01
7.990000000000000435e-01,1.416915747713938245e-01,2.588274516461797070e-01,4.603871784867044625e-02
8.000000000000000444e-01,3.058455420935206059e-01,-1.581102374363525798e-02,-1.883268545534873522e-04
8.010000000000000453e-01,1.539491513498063568e-01,-2.931035471393667602e-01,-2.034147795445589990e-02
8.020000000000000462e-01,-1.404362415640319772e-01,-2.757358243503865713e-01,4.258945848620069446e-02
8.030000000000000471e-01,-3.860653583697268298e-01,-2.753542354203450740e-02,3.440513783245748025e-02
8.040000000000000480e-01,-3.172045603067396580e-01,1.786090072069165258e-01,-5.786546191530970301e-02
8.050000000000000488e-01,4.616671260379021091e-02,2.134629049328366501e-01,-1.094545046726513871e-01
8.060000000000000497e-01,3.666858035787170511e-01,6.817631007046552616e-02,-8.487716124775264437e-02
8.070000000000000506e-01,3.877644732288415552e-01,-6.419643403746311261e-02,6.492381230253088664e-02
8.080000000000000515e-01,6.327810461552979548e-02,-8.033389760135863089e-02,2.079467546090588426e-01
8.090000000000000524e-01,-2.667237644764657856e-01,1.265424342593205603e-02,1.744039119797983206e-01
8.100000000000000533e-01,-3.748121520417943553e-01,6.970887871704752048e-03,-3.523554315125008302e-02
8.110000000000000542e-01,-1.400373642520701400e-01,-4.528956841505542286e-02,-2.081353748610026977e-01
8.120000000000000551e-01,8.242640247899608863e-02,-1.316900813537435211e-01,-2.412411549279016576e-01
8.129999999999999449e-01,2.133303785153858045e-01,-3.237629086950395696e-02,-9.521325844980783881e-02
8.139999999999999458e-01,1.263639361597518052e-01,1.190867251825378642e-01,1.396242554653759627e-01
8.149999999999999467e-01,-3.390687818850174340e-02,2.519394101524288776e-01,2.699900239018255266e-01
8.159999999999999476e-01,-3.034123094203973817e-02,1.090760234499531661e-01,1.366717373616614384e-01
8.169999999999999485e-01,3.385812496718698661e-02,-1.415991038039557670e-01,-4.980123733130295549e-02
8.179999999999999494e-01,3.127294273836631056e-02,-3.143681173906245907e-01,-1.642477244571430295e-01
8.189999999999999503e-01,-6.735465061904608031e-02,-2.148088089399054768e-01,-1.508215136011910040e-01
8.199999999999999512e-01,-2.003016387779283924e-01,9.570584320369898701e-02,-1.495893051925984568e-02
8.209999999999999520e-01,-1.026961035922587667e-01,3.152355016487974337e-01,8.160958865503052662e-02
8.219999999999999529e-01,1.062774674963145594e-01,2.622848913995421971e-01,5.990359707996387867e-02
8.229999999999999538e-01,3.103551820348531831e-01,-3.956923825115797079e-04,2.251452195308137425e-03
8.239999999999999547e-01,2.907439943914011393e-01,-2.364948461393998336e-01,-1.522747673740133204e-03
8.249999999999999556e-01,-2.375680404434789283e-02,-2.592364153694520779e-01,5.720837483578028460e-02
8.259999999999999565e-01,-3.532719794400645541e-01,-7.272813562998285686e-02,8.138421857840517915e-02
8.269999999999999574e-01,-3.809882612154057435e-01,1.391216503146289751e-01,-1.328501895650128703e-02
8.279999999999999583e-01,-1.074418538291533748e-01,1.735950747463352595e-01,-1.200621588134657830e-01
8.289999999999999591e-01,2.869131176858194521e-01,4.256542173325836981e-02,-1.612830474478071652e-01
8.299999999999999600e-01,4.063773054530093742e-01,-3.798129763176762153e-02,-3.751004748054902194e-02
8.309999999999999609e-01,1.867908959811708791e-01,-2.089301056491404268e-02,1.223421800638694740e-01
8.319999999999999618e-01,-1.511715834173996131e-01,3.706432601824057038e-02,2.387522826332481307e-01
8.329999999999999627e-01,-2.988045812147067659e-01,-9.075452685869397212e-03,1.222086612852333193e-01
8.339999999999999636e-01,-2.192139945661643330e-01,-9.453865471280120669e-02,-8.261020007373411078e-02
8.349999999999999645e-01,4.573707994739750760e-02,-1.284359282698939730e-01,-2.388596235439731930e-01
8.359999999999999654e-01,1.521416388798536579e-01,-5.241362640243010101e-02,-2.048850781039895375e-01
8.369999999999999662e-01,9.681928683243543055e-02,1.380738611200290344e-01,1.755158585621328221e-04
8.379999999999999671e-01,-5.181884338634413362e-03,2.659081779708303839e-01,1.739014528976763618e-01
8.389999999999999680e-01,7.877968649030425707e-03,1.734509164749128141e-01,1.976927960943301033e-01
8.399999999999999689e-01,6.491943671018877982e-02,-1.319932292367676785e-01,6.687240991730018791e-02
8.409999999999999698e-01,6.730481795084843066e-02,-3.228364943393650655e-01,-8.481910162650349583e-02
8.419999999999999707e-01,-3.844316979716088517e-02,-2.438694715009616931e-01,-1.400190661883805032e-01
8.429999999999999716e-01,-2.158187533711531103e-01,2.930674817126442330e-02,-5.821506860898142260e-02
8.439999999999999725e-01,-2.324765673102334729e-01,2.846366278378089643e-01,8.875792964469175067e-03
8.449999999999999734e-01,-1.315744885856940868e-02,2.713014779490183215e-01,5.870043019323962358e-02
8.459999999999999742e-01,3.100524246171287301e-01,3.838733198756087706e-02,-2.432175587268773070e-03
8.469999999999999751e-01,3.525183293255444994e-01,-2.008899141054989179e-01,-1.123178000099309647e-02
8.479999999999999760e-01,1.132919908102759804e-01,-2.374374189865759988e-01,4.434806043819197741e-02
8.489999999999999769e-01,-2.718489875271680178e-01,-9.321359360055243848e-02,8.551052735861883192e-02
8.499999999999999778e-01,-4.220035815949506608e-01,8.124376114389916803e-02,6.118066581090721157e-02
8.509999999999999787e-01,-2.346174630383183191e-01,9.379631454233026966e-02,-8.449977792548402089e-02
8.519999999999999796e-01,1.290140257507485788e-01,2.842991000639720489e-02,-2.057799615748748256e-01
8.529999999999999805e-01,3.584833673681120381e-01,-1.003857325132448582e-02,-1.546915242098681198e-01
8.539999999999999813e-01,2.733140014187882549e-01,3.453361397789185550e-02,4.214819873788656218e-02
8.549999999999999822e-01,-1.003138740867966401e-02,5.448614669916952008e-02,2.156248388259420223e-01
8.559999999999999831e-01,-2.453833477532511576e-01,1.492206601310067798e-02,2.218213801792477680e-01
8.569999999999999840e-01,-1.946343388575769717e-01,-1.067631968675080006e-01,5.870499766391933799e-02
8.579999999999999849e-01,-4.861807661458641266e-02,-2.064944437806615629e-01,-1.566994790885178068e-01
8.589999999999999858e-01,4.997701121920927053e-02,-7.633449066638815783e-02,-2.519464534782737686e-01
8.599999999999999867e-01,2.768144432199925661e-02,1.434234140036118044e-01,-1.281548164053619987e-01
8.609999999999999876e-01,-3.087261521666608000e-02,3.138756223628294539e-01,9.302378272418078409e-02
8.619999999999999885e-01,3.594276416805989444e-02,2.062574681614513239e-01,1.653306286752925236e-01
8.629999999999999893e-01,1.340747394588685526e-01,-1.036617704290089814e-01,1.212640954149217382e-01
8.639999999999999902e-01,1.784385227417441822e-01,-3.269121380703773339e-01,-3.630372612110664872e-03
8.649999999999999911e-01,1.863860129898413029e-02,-2.600536898358335458e-01,-1.015551176672348788e-01
8.659999999999999920e-01,-2.466800570694726857e-01,7.293721234184064039e-03,-5.163055371852152964e-02
8.669999999999999929e-01,-3.312962347760137760e-01,2.324921600100915975e-01,-4.460184513563114628e-03
8.679999999999999938e-01,-1.244087968393365468e-01,2.825289932366332746e-01,3.034510091664009354e-02
8.689999999999999947e-01,2.039522572964301561e-01,8.036136012419649310e-02,-2.214462508707869606e-02
8.699999999999999956e-01,4.104404505828333494e-01,-1.693719285934681962e-01,-6.074882317486501870e-02
8.709999999999999964e-01,2.338080968249990066e-01,-1.682851819141434058e-01,3.150916507306814746e-02
8.719999999999999973e-01,-1.286028019619765428e-01,-9.610887883756817629e-02,1.179563290517897656e-01
8.729999999999999982e-01,-4.082147453298047846e-01,4.112023257188418546e-02,1.399141757246427920e-01
8.739999999999999991e-01,-3.422193270802270648e-01,6.415347611222023405e-02,2.717785986594679210e-02
8.750000000000000000e-01,8.024940955863014980e-03,6.148645507488777889e-03,-1.270170282010646690e-01
8.760000000000000009e-01,2.620716335051891388e-01,-7.716621108519677516e-03,-2.263599650599187330e-01
8.770000000000000018e-01,2.856477509273391280e-01,6.541392453233772775e-02,-9.094403151150130815e-02
8.780000000000000027e-01,8.858385205811473984e-02,1.490527800134545666e-01,1.251980283446031683e-01
8.790000000000000036e-01,-1.404042848873916227e-01,6.560659874594595986e-02,2.673797115041816053e-01
8.800000000000000044e-01,-1.917862737047594246e-01,-1.132153992249589347e-01,1.881466226721651702e-01
8.810000000000000053e-01,-5.237120503049000342e-02,-2.339316221950014374e-01,-3.360325729865441813e-02
8.820000000000000062e-01,1.997921593708923763e-02,-1.559033605580352200e-01,-2.535224653372258885e-01
8.830000000000000071e-01,-8.007347902052409927e-03,1.310190669149824683e-01,-1.867020474711398592e-01
8.840000000000000080e-01,-3.515515651048305851e-02,3.202241115219628953e-01,-3.780624319528935739e-02
8.850000000000000089e-01,-1.685497679314726382e-02,2.387198627834871967e-01,1.261704374688628616e-01
8.860000000000000098e-01,1.590796413793460484e-01,-4.895974428840842857e-02,1.564554491422494586e-01
8.870000000000000107e-01,2.270359208936028883e-01,-2.916614644318268890e-01,5.414683959774226757e-02
8.880000000000000115e-01,1.121353287208055188e-01,-2.899249383934585644e-01,-5.846944473236054263e-02
8.890000000000000124e-01,-1.853439761886605253e-01,-5.418779509101817604e-02,-4.714500249579797742e-02
8.900000000000000133e-01,-3.578188028915226249e-01,1.878138445429214654e-01,-1.972414835152778295e-02
8.910000000000000142e-01,-2.590725089353085320e-01,2.417012601582133047e-01,-1.268431639757747025e-02
8.920000000000000151e-01,1.039954649282870403e-01,9.534805918864087959e-02,-1.345153416600384198e-02
8.930000000000000160e-01,3.864781934638449878e-01,-8.725933826489244705e-02,-7.637641102919404124e-02
8.940000000000000169e-01,3.647922332939750323e-01,-1.516996347096885300e-01,-2.960650438223889208e-02
8.950000000000000178e-01,2.071953034050049228e-02,-6.642515453012032278e-02,9.958434897108377204e-02
8.960000000000000187e-01,-3.247617382383574669e-01,1.049949789121051337e-02,1.837372398349366998e-01
8.970000000000000195e-01,-3.742585920139810951e-01,3.351529436577350019e-03,1.324910325675159872e-01
8.980000000000000204e-01,-1.242936340322615546e-01,-6.106884011380184218e-02,-7.669457493137979420e-02
8.990000000000000213e-01,1.649763740230214548e-01,-5.566807193093149114e-03,-2.183369169307549096e-01
9.000000000000000222e-01,2.433643867995312626e-01,9.122918767632165471e-02,-2.150900220304864108e-01
9.010000000000000231e-01,1.295813115620991218e-01,1.597885102429911774e-01,-2.764757472373184644e-02
9.020000000000000240e-01,-6.948690528773063257e-02,7.596061228036182778e-02,2.110411584290023679e-01
9.030000000000000249e-01,-1.002308619182227245e-01,-1.478036736747925517e-01,2.561469320772534752e-01
9.040000000000000258e-01,-3.200346881720211867e-02,-2.891939507788564012e-01,9.354926075168072674e-02
9.050000000000000266e-01,9.246092187678755375e-03,-1.847891875601438971e-01,-1.161999841727832522e-01
9.060000000000000275e-01,-6.428345813357572158e-02,9.253715052460137480e-02,-1.922535481308751959e-01
9.070000000000000284e-01,-1.269217021358942099e-01,3.218891128364789744e-01,-1.025850155925106810e-01
9.080000000000000293e-01,-9.001569745552254198e-02,2.881364352402472351e-01,5.333063129327447055e-02
9.090000000000000302e-01,1.164488198670045466e-01,1.416721942926715567e-03,1.209306616291228181e-01
9.100000000000000311e-01,2.971881516607547957e-01,-2.542446381539159028e-01,9.638845124665725017e-02
9.110000000000000320e-01,2.085653706372525562e-01,-2.862664700944044238e-01,1.888888498317874490e-02
9.120000000000000329e-01,-7.815777075358866510e-02,-6.997457017326236262e-02,-3.026823613409806296e-02
9.130000000000000338e-01,-3.232706023334597778e-01,1.582522158861509876e-01,2.442840184672847789e-02
9.140000000000000346e-01,-3.496102451864129268e-01,2.211685286145603224e-01,2.351138778500593343e-02
9.150000000000000355e-01,-6.058471590461636525e-02,7.973416538179840807e-02,-1.373299726477344301e-02
9.160000000000000364e-01,3.347065569011308250e-01,-5.405949042658136916e-02,-1.103803058679248550e-01
9.170000000000000373e-01,4.007231174222536940e-01,-1.106410122790104922e-01,-1.222881820478103759e-01
9.180000000000000382e-01,1.631908505813749743e-01,-2.625340427320370720e-02,4.082755614474262856e-02
9.190000000000000391e-01,-2.096782027412111837e-01,9.984533948987990917e-03,1.346624074348840849e-01
9.200000000000000400e-01,-3.581319992012773068e-01,-1.687789286177911879e-02,1.854320992348548747e-01
9.210000000000000409e-01,-1.907173339476063434e-01,-1.054743782712961736e-01,8.213586753777440963e-02
9.220000000000000417e-01,6.921620680678595983e-02,-3.674922127084626761e-02,-1.349839905790714834e-01
9.230000000000000426e-01,2.178116587130101423e-01,1.285107940158614070e-01,-2.487960790003587719e-01
9.240000000000000435e-01,1.451343257546313381e-01,2.317027992078770082e-01,-1.571269577930087258e-01
9.250000000000000444e-01,4.572218356074774989e-03,1.294238649687992904e-01,8.377507912368183096e-02
9.260000000000000453e-01,-4.818604125433438579e-02,-1.198061788638319497e-01,2.341634989788110577e-01
9.270000000000000462e-01,8.679724881899766528e-03,-3.253885324101684073e-01,1.964039137240326804e-01
9.280000000000000471e-01,3.264152453285908140e-02,-2.512394567008389701e-01,5.464768651455983832e-03
9.290000000000000480e-01,-3.867657104227845144e-02,4.890628021034069961e-02,-1.566449891661792215e-01
9.300000000000000488e-01,-1.816490389506999481e-01,2.942052438288149108e-01,-1.763718664678895209e-01
9.310000000000000497e-01,-1.648506611689121160e-01,3.066048677247641407e-01,-5.248519902323116326e-02
9.320000000000000506e-01,4.422500329712591993e-02,5.222140609856518872e-02,8.559000655086973497e-02
9.330000000000000515e-01,2.845181809352271274e-01,-2.397323333799096234e-01,9.206593441573533709e-02
9.340000000000000524e-01,2.833657164143605356e-01,-2.788562012236469045e-01,5.272400669030952169e-03
9.350000000000000533e-01,6.718019053763053805e-02,-1.144029873401772590e-01,-1.540581039837613658e-02
9.360000000000000542e-01,-3.022313304770237741e-01,1.203755836738567009e-01,3.953977495571008027e-02
9.370000000000000551e-01,-4.072636897734639438e-01,1.711648708459045376e-01,6.587132245176609280e-02
9.379999999999999449e-01,-1.672315738409203556e-01,9.587754420369971886e-02,2.445892951571806279e-02
9.389999999999999458e-01,1.905392241312094392e-01,-1.324719570087120810e-02,-1.175523600678300140e-01
9.399999999999999467e-01,4.002593171724509458e-01,-1.370371568637857897e-02,-1.350798897146085753e-01
9.409999999999999476e-01,2.586803475685306997e-01,8.257383739122324193e-03,-8.635128430462546412e-02
9.419999999999999485e-01,-8.069874489877286450e-02,3.850918495143740988e-02,5.102178328429500531e-02
9.429999999999999494e-01,-2.929513839676555209e-01,-1.037926054702258127e-01,2.438134580398545748e-01
9.439999999999999503e-01,-2.146362753790345135e-01,-1.518044163473744046e-01,1.997363116619574053e-01
9.449999999999999512e-01,-1.531758179017873520e-02,-5.987900624722660575e-02,-2.951425406785245301e-02
9.459999999999999520e-01,1.420437612071732691e-01,1.296679947581526882e-01,-1.987975460499569746e-01
9.469999999999999529e-01,8.576373536293900590e-02,2.742987464533526709e-01,-2.034919444770367791e-01
9.479999999999999538e-01,-1.113843145931593464e-04,1.907830477178531214e-01,-3.088125985076471333e-02
9.489999999999999547e-01,-4.229975805362772966e-04,-1.005379983229685165e-01,1.319157783350128066e-01
9.499999999999999556e-01,7.310772271160022318e-02,-3.187194023732480286e-01,2.189527641498656974e-01
9.509999999999999565e-01,1.000922535430715521e-01,-2.861068670846834694e-01,1.372112274588354053e-01
9.519999999999999574e-01,-9.564146362838778920e-03,-5.190205753924060153e-03,-5.957733543251904351e-02
9.529999999999999583e-01,-2.114114497850076435e-01,2.990983693039284685e-01,-1.257283703144896347e-01
9.539999999999999591e-01,-2.172533661098411950e-01,2.937541935328108478e-01,-7.923285477597520610e-02
9.549999999999999600e-01,-5.333072561674921663e-02,9.778420996281080024e-02,2.019553752490690218e-02
9.559999999999999609e-01,2.461472253365260265e-01,-1.802942934004387876e-01,2.902822931493815803e-02
9.569999999999999618e-01,3.812639241000183032e-01,-2.610379961994990228e-01,8.679884913079746050e-03
9.579999999999999627e-01,1.764898243530287347e-01,-1.034740533855126599e-01,-4.340204632041207156e-02
9.589999999999999636e-01,-1.764001646661240708e-01,6.605796686622772418e-02,9.015714519880837358e-03
9.599999999999999645e-01,-4.218921797934887530e-01,1.213953068291679926e-01,9.484703560143262213e-02
9.609999999999999654e-01,-2.964932022856868743e-01,2.682708488968560401e-02,6.880323358041651183e-02
9.619999999999999662e-01,7.331596928633457577e-02,-2.109967575901585540e-02,-4.631913146534977384e-03
9.629999999999999671e-01,3.486831674763807287e-01,2.180367534305599486e-02,-1.760437709809469231e-01
9.639999999999999680e-01,3.020534708630635556e-01,5.322010767928914143e-02,-1.529162682258706218e-01
9.649999999999999689e-01,5.718169098935105971e-02,2.694279331449032228e-02,-5.788356662833259170e-02
9.659999999999999698e-01,-2.018286383566052777e-01,-9.296757225227549049e-02,1.560171800788533181e-01
9.669999999999999707e-01,-2.262434489211728184e-01,-2.084729231434492569e-01,2.832880930357222771e-01
9.679999999999999716e-01,-7.292165823778086475e-02,-9.955635000729909367e-02,1.386685039483574466e-01
9.689999999999999725e-01,5.363046272525782282e-02,9.962917133371980427e-02,-1.036229312053783269e-01
9.699999999999999734e-01,6.456450572205306437e-02,2.951737387572141991e-01,-2.468847966422712814e-01
9.709999999999999742e-01,-9.872774393879853172e-03,2.398590124420645620e-01,-1.709567945317578552e-01
9.719999999999999751e-01,-9.682614437285923595e-03,-6.042200098329311708e-02,-9.296368755577382945e-03
9.729999999999999760e-01,1.060639654308411783e-01,-2.946335322614951902e-01,1.869773958488924748e-01
9.739999999999999769e-01,1.672347782226760726e-01,-2.837193323479948459e-01,1.765744800663736624e-01
9.749999999999999778e-01,6.287492675291790623e-02,-4.583497483055811589e-02,1.411826828018244301e-02
9.759999999999999787e-01,-1.814070653738393268e-01,2.111886659044769632e-01,-6.906120840323880239e-02
9.769999999999999796e-01,-3.156449059131741230e-01,2.911903114560376316e-01,-7.810844459543055118e-02
9.779999999999999805e-01,-2.051298859403878072e-01,1.091177638223591179e-01,-3.703115264902465814e-02
9.789999999999999813e-01,1.571270917348670249e-01,-1.218110087901207172e-01,1.481568131900222116e-02
9.799999999999999822e-01,3.865189802618182457e-01,-1.979853904179033341e-01,-1.859949758439118778e-02
9.809999999999999831e-01,3.046484335241536057e-01,-1.145515888902072232e-01,-4.835169699010655880e-02
9.819999999999999840e-01,-7.144512652668902342e-02,4.357949694181530165e-02,-4.978269378889969322e-03
9.829999999999999849e-01,-3.788140915272082410e-01,4.598945954245808182e-02,8.776021589731704264e-02
9.839999999999999858e-01,-3.497060529914771676e-01,-1.026632971571874364e-03,1.449878119398786136e-01
9.849999999999999867e-01,-8.475987989397895661e-02,-2.315814112128770919e-02,7.763170467175842249e-02
9.859999999999999876e-01,2.380783624865507042e-01,4.670449838499800971e-02,-1.030103120219793139e-01
9.869999999999999885e-01,3.171840083714018155e-01,1.160462209133183570e-01,-2.195515267608809384e-01
9.879999999999999893e-01,1.186731450201292948e-01,6.019401465108055460e-02,-1.485252017539409608e-01
9.889999999999999902e-01,-1.367615019002322296e-01,-1.287567929789984189e-01,4.777103129155818584e-02
9.899999999999999911e-01,-1.512113503574263607e-01,-2.711107223684124934e-01,2.230886359659037810e-01
9.909999999999999920e-01,-7.187634063085954206e-02,-1.822053555607416053e-01,2.169622468755537659e-01
9.919999999999999929e-01,-8.490415268927721526e-03,1.060275510126524462e-01,4.227284148308847744e-02
9.929999999999999938e-01,3.573494246264105612e-02,3.146088538506217613e-01,-1.593038388770472158e-01
9.939999999999999947e-01,-4.528058927031183845e-02,2.712962905648356182e-01,-2.313192276133823611e-01
9.949999999999999956e-01,-3.463633413820901841e-02,-1.006156989621119144e-02,-1.012700867030609381e-01
9.959999999999999964e-01,1.271184130052086803e-01,-2.795522833194014622e-01,8.107171398512741378e-02
9.969999999999999973e-01,2.266135827015816340e-01,-3.027277908526657679e-01,1.473639170081011140e-01
9.979999999999999982e-01,1.368411229667691187e-01,-6.042620004715169857e-02,1.019878836061035993e-01
9.989999999999999991e-01,-1.159349429060978487e-01,1.888465439650273137e-01,-3.560232334858793452e-02
1.000000000000000000e+00,-3.395475439491665859e-01,2.741713724036779487e-01,-3.770133691496042189e-02
1.000999999999999890e+00,-3.064485457570038651e-01,1.333294082573319994e-01,-3.961025207080183519e-02
1.002000000000000002e+00,9.542404453529726785e-03,-8.822294526493067168e-02,7.623661126881739816e-03
1.002999999999999892e+00,3.629397893874907743e-01,-1.255472887479723854e-01,-1.430139753389103249e-02
1.004000000000000004e+00,3.941619830062549346e-01,-8.447555797908186392e-02,-7.784596415465787345e-02
1.004999999999999893e+00,1.233241861959266106e-01,1.383766702194959806e-02,-6.205398930700385673e-02
1.006000000000000005e+00,-2.611929240854919954e-01,1.439878347013476452e-03,3.405229788395083140e-02
1.006999999999999895e+00,-3.849102147770385174e-01,-5.450019642691814742e-02,1.564691170006382859e-01
1.008000000000000007e+00,-1.874196494570980198e-01,1.041898097653906965e-02,1.611632439240601178e-01
1.008999999999999897e+00,1.249010763563256077e-01,9.046160363839569896e-02,8.940136829870026433e-03
1.010000000000000009e+00,2.706673981091201053e-01,1.634244912901915148e-01,-1.463672151265300037e-01
1.010999999999999899e+00,1.745586376194109279e-01,1.153874497430254081e-01,-2.391390486053192044e-01
1.012000000000000011e+00,-2.307649457084753192e-02,-7.822176171038729142e-02,-7.886577198431678204e-02
1.012999999999999901e+00,-1.252964232639954545e-01,-2.599408799965399752e-01,1.253075391703294683e-01
1.014000000000000012e+00,-4.888218266632939069e-02,-2.071836565985355760e-01,2.601106594608876277e-01
1.014999999999999902e+00,4.553576618940648885e-03,6.232950521910087666e-02,1.564484030709827056e-01
1.016000000000000014e+00,-4.456865385049398054e-02,2.875246536425267174e-01,-4.463106474016129144e-02
1.016999999999999904e+00,-1.201199055437403435e-01,3.146902540087452294e-01,-1.812684967151584337e-01
1.018000000000000016e+00,-1.127766610164761402e-01,4.400446057782242404e-02,-1.661151866573806202e-01
1.018999999999999906e+00,6.399605548595564686e-02,-2.399290556821868925e-01,-2.056881818793892744e-02
1.020000000000000018e+00,2.536916238011780456e-01,-3.269065849692345260e-01,9.300446983553994906e-02
1.020999999999999908e+00,2.653200109757730685e-01,-1.048310776003642669e-01,1.060940856433823798e-01
1.022000000000000020e+00,5.925660464337550309e-03,1.503725642851895250e-01,2.527639475448818437e-02
1.022999999999999909e+00,-3.087647810459941411e-01,2.180187061949084848e-01,-4.707238295065795802e-02
1.024000000000000021e+00,-3.730657528971959569e-01,1.145805721640483499e-01,-1.878080613497654094e-02
1.024999999999999911e+00,-1.318693134022482227e-01,-4.042090774357911392e-02,3.754765986315708459e-02
1.026000000000000023e+00,2.577189189301924421e-01,-1.015846483984074178e-01,5.862418521099329802e-03
1.026999999999999913e+00,4.076033540838046587e-01,-4.109576424694216107e-02,-9.108659601334467837e-02
1.028000000000000025e+00,2.502384291436580699e-01,1.992104689510883035e-03,-1.155220286605799646e-01
1.028999999999999915e+00,-1.362858751058910467e-01,-2.168018727010486216e-02,-3.844480749815345350e-02
1.030000000000000027e+00,-3.565345084209486926e-01,-8.546232883030842331e-02,1.253160668102148156e-01
1.030999999999999917e+00,-2.599469415662872818e-01,-7.158284981765708488e-02,2.077274214105303551e-01
1.032000000000000028e+00,5.931048944020254725e-03,9.174652066782745807e-02,1.204854578677438393e-01
1.032999999999999918e+00,1.839750225948899032e-01,2.336377084370079293e-01,-7.919143053232571838e-02
1.034000000000000030e+00,1.733379108868936813e-01,1.597063941748725624e-01,-2.179294016715430660e-01
1.034999999999999920e+00,1.999872784978160012e-02,-7.628398501592464909e-02,-1.766240303031021974e-01
1.036000000000000032e+00,-3.428075048328919905e-02,-2.984681918581626459e-01,7.533233097334415124e-03
1.036999999999999922e+00,2.544100692353882653e-03,-2.729146209256912980e-01,1.703176875887138231e-01
1.038000000000000034e+00,2.625325691735986081e-02,-1.057147448153820078e-02,2.234335296270825166e-01
1.038999999999999924e+00,-3.368312887717984233e-03,2.832834939499394022e-01,6.113105960405563338e-02
1.040000000000000036e+00,-1.472402737005833739e-01,3.108590753512544547e-01,-9.900004951104571238e-02
1.040999999999999925e+00,-1.720061072148705572e-01,1.013584520509313719e-01,-1.796064090850273132e-01
1.042000000000000037e+00,1.379695613908843953e-02,-1.938719995824069176e-01,-9.494580151723422401e-02
1.042999999999999927e+00,2.443173621648162819e-01,-2.707263616707555887e-01,4.111985504726785312e-02
1.044000000000000039e+00,3.315839148024695149e-01,-1.285248845737674561e-01,6.001055081827871146e-02
1.044999999999999929e+00,1.374926576018224156e-01,1.068339313131731194e-01,5.934714974220576394e-02
1.046000000000000041e+00,-2.307918521205135076e-01,1.819623109176337628e-01,-2.830278432879552997e-02
1.046999999999999931e+00,-4.218775634118314133e-01,1.156085853940423264e-01,6.568397486666627261e-03
1.048000000000000043e+00,-2.389147016266535695e-01,-3.201448109358167454e-02,4.907133151910467173e-02
1.048999999999999932e+00,1.133750361479833046e-01,-7.176080317888416937e-02,2.895430959840700202e-02
1.050000000000000044e+00,3.946096909914996731e-01,-3.953812442848828913e-03,-3.576136902606946028e-02
1.050999999999999934e+00,3.279295634832245510e-01,4.258181094599350694e-03,-1.510575796156886919e-01
1.052000000000000046e+00,-1.163907836175411860e-02,-7.260724285845947257e-02,-1.340642038024073279e-01
1.052999999999999936e+00,-2.661471750331205754e-01,-1.421949871395206677e-01,9.839795860575126923e-03
1.054000000000000048e+00,-2.418853979702823565e-01,-1.264969886694151391e-01,1.894701192330391082e-01
1.054999999999999938e+00,-7.615283178410145459e-02,9.422108779040898330e-02,2.145678488234290804e-01
1.056000000000000050e+00,1.091750677395269820e-01,2.804888302400669331e-01,4.914249916429821313e-02
1.056999999999999940e+00,1.185828727883380812e-01,1.965450437676850293e-01,-1.705824593550375190e-01
1.058000000000000052e+00,2.203818112990296382e-02,-4.583845292448010533e-02,-2.482492705349806650e-01
1.058999999999999941e+00,-6.081054366116081479e-04,-3.299164284376328027e-01,-1.598702473297911597e-01
1.060000000000000053e+00,5.461738825964886079e-02,-3.151951405067114353e-01,7.636450671011146829e-02
1.060999999999999943e+00,1.136198225928666122e-01,-3.480542977158476714e-02,2.418653232744301940e-01
1.062000000000000055e+00,1.238066087087873191e-02,2.613212691259481080e-01,1.630049429468334032e-01
1.062999999999999945e+00,-1.736901341201990967e-01,3.047966977159269342e-01,-4.055539550196477286e-03
1.064000000000000057e+00,-2.748468092081230996e-01,1.123688804964459859e-01,-1.170128401480899361e-01
1.064999999999999947e+00,-1.253104693713084639e-01,-1.632443268627163657e-01,-1.238285303531114351e-01
1.066000000000000059e+00,2.008699288579015030e-01,-2.533439553954816570e-01,-2.771830839612004008e-02
1.066999999999999948e+00,3.729603553565236096e-01,-1.357903906425909357e-01,3.966965946290004763e-02
1.068000000000000060e+00,2.540814561732164245e-01,5.455919883011543792e-02,1.031943551378488796e-02
1.068999999999999950e+00,-8.650459992673308063e-02,1.334173078485416108e-01,-8.036962460919682555e-03
1.070000000000000062e+00,-3.776598733676068131e-01,5.280751937249346384e-02,-5.108240457520183200e-03
1.070999999999999952e+00,-3.252394149582255589e-01,-2.239552332013604232e-03,8.890181851090629694e-02
1.072000000000000064e+00,-2.268426587856018674e-03,1.928953820813944509e-02,8.658469431211378298e-02
1.072999999999999954e+00,2.677075324413160651e-01,4.263254936441712023e-02,1.691946235691917447e-02
1.074000000000000066e+00,3.353195802216357713e-01,4.302367052624148092e-02,-7.916139724327307670e-02
1.074999999999999956e+00,1.058499079140284294e-01,-9.206869423038314959e-02,-1.921343878815057471e-01
1.076000000000000068e+00,-1.497166092855667097e-01,-1.876038545414435710e-01,-1.066465645282355101e-01
1.076999999999999957e+00,-2.289260561617665057e-01,-1.231972870336971587e-01,1.085577430294290824e-01
1.078000000000000069e+00,-9.200335467862234828e-02,9.784611660662477506e-02,2.443857482375580426e-01
1.078999999999999959e+00,4.376868047231991660e-02,2.945301223866435558e-01,1.898589663289702856e-01
1.080000000000000071e+00,6.029364949860008954e-02,2.380425638442896230e-01,-2.655156713620213799e-02
1.080999999999999961e+00,1.453408723918321599e-02,-9.138566006196377489e-03,-2.290861756848883990e-01
1.082000000000000073e+00,-6.079127936697909483e-03,-2.822043140962494645e-01,-2.148623634255846515e-01
1.082999999999999963e+00,8.285478921466585267e-02,-3.234207302321912003e-01,-3.445801053496291150e-02
1.084000000000000075e+00,1.591718458328594543e-01,-6.576850407115147901e-02,1.512070161881135244e-01
1.084999999999999964e+00,8.037345367665896245e-02,2.011565018934862170e-01,1.771555293941400877e-01
1.086000000000000076e+00,-1.185958608532057534e-01,2.980011511012141678e-01,6.914360235509102448e-02
1.086999999999999966e+00,-3.054563610646896521e-01,1.351492235351801630e-01,-5.682298088073628461e-02
1.088000000000000078e+00,-2.440328325933082965e-01,-1.226679716124635944e-01,-8.210852944766720840e-02
1.088999999999999968e+00,7.068338752963296279e-02,-1.768833478498636202e-01,-6.248139596702175641e-02
1.090000000000000080e+00,3.465825960244364734e-01,-1.065172598367072343e-01,8.781624752198615921e-03
1.090999999999999970e+00,3.543056208323246969e-01,5.115573669320518796e-02,2.049992274025945645e-03
1.092000000000000082e+00,2.596933856476311281e-02,7.189054065186525899e-02,-2.095860076743270850e-02
1.092999999999999972e+00,-3.191000689685499214e-01,3.165930665674512173e-02,-3.793040692806014941e-02
1.094000000000000083e+00,-3.930111348217759648e-01,1.397473665744017844e-02,4.690893533077299810e-02
1.094999999999999973e+00,-1.373031028301228973e-01,3.517579852581675937e-02,1.228066581839009908e-01
1.096000000000000085e+00,1.927454041661777751e-01,1.237423963999011445e-01,1.095934807509536812e-01
1.096999999999999975e+00,3.419698035783568790e-01,7.115952780152182133e-02,-4.878952551306271757e-02
1.098000000000000087e+00,1.734303162263437226e-01,-5.861122753279278397e-02,-1.982219421264229953e-01
1.098999999999999977e+00,-5.396967625169167559e-02,-2.505166408816094092e-01,-1.940356758180941665e-01
1.100000000000000089e+00,-1.731545138194684474e-01,-2.029405401953860433e-01,-2.941903604486083984e-02
1.100999999999999979e+00,-1.100098066966935934e-01,3.541158435148593353e-02,1.833726798052534579e-01
1.102000000000000091e+00,2.599394199140103810e-03,2.960684243885286504e-01,2.663089406931560821e-01
1.102999999999999980e+00,1.858143745416976009e-02,3.060022492695963492e-01,8.949755166107963011e-02
1.104000000000000092e+00,-4.647531254156838515e-02,5.003901227059455448e-02,-1.201974757046584408e-01
1.104999999999999982e+00,-4.945840148964970179e-02,-2.602720555932403479e-01,-2.450770623342540533e-01
1.106000000000000094e+00,5.134142392999314908e-02,-3.487332982039911822e-01,-1.589424201694228656e-01
1.106999999999999984e+00,2.213109884785651182e-01,-1.081983638327265046e-01,5.121588622782023703e-02
1.108000000000000096e+00,1.737673860960176064e-01,1.705661325007105655e-01,1.566069562985577812e-01
1.108999999999999986e+00,-5.153287518693340508e-02,2.712874288590130800e-01,1.004432399881761279e-01
1.110000000000000098e+00,-2.971865158747108993e-01,1.364905016995242582e-01,2.381927818970353602e-03
1.110999999999999988e+00,-3.078302549808497601e-01,-4.817852563983283931e-02,-1.938178631291913312e-02
1.112000000000000099e+00,-6.045888685702260207e-02,-1.535851578169815934e-01,-4.077495115356731537e-02
1.112999999999999989e+00,3.115616979251288332e-01,-8.424797063793931784e-02,1.693695095563440070e-02
1.114000000000000101e+00,4.172859098253279275e-01,4.701010399229025097e-03,1.038801103217006127e-03
1.114999999999999991e+00,1.500681046316612310e-01,3.426269514679577185e-03,-5.568331914957187073e-02
1.116000000000000103e+00,-1.945283701350996874e-01,-4.552422742921987536e-02,-7.710901246865015102e-02
1.116999999999999993e+00,-3.943924897724663814e-01,-3.864359051013580709e-02,-2.643474442623504339e-02
1.118000000000000105e+00,-2.669848412367094026e-01,7.527917206452484911e-02,1.421228130935032752e-01
1.118999999999999995e+00,5.330673026972163053e-02,1.667909298719415789e-01,1.476437018052908778e-01
1.120000000000000107e+00,2.672271819947750759e-01,1.277014315921897458e-01,4.280708781058435719e-02
1.120999999999999996e+00,2.069858455564605182e-01,-7.126854221999895378e-02,-1.041042256610499178e-01
1.122000000000000108e+00,-6.203249912717470269e-03,-2.391471235541867413e-01,-2.314390412891400017e-01
1.122999999999999998e+00,-9.884744211488684373e-02,-2.270045988061033526e-01,-1.230185233795347000e-01
1.124000000000000110e+00,-7.748311124413212458e-02,1.670367411020659554e-02,9.284759312734672254e-02
1.125000000000000000e+00,1.611211038524484147e-03,2.666541858319422809e-01,2.227394310011217848e-01
1.125999999999999890e+00,-1.255906982899782434e-02,2.996011883688488586e-01,2.086760432796028186e-01
1.127000000000000002e+00,-6.735440463133951505e-02,3.470851185904458291e-02,-3.031758391533949208e-03
1.127999999999999892e+00,-1.351605750212689361e-01,-2.189317216972807845e-01,-1.789027507659461114e-01
1.129000000000000004e+00,1.914810056583830800e-02,-2.988520913177037941e-01,-2.130296862833611915e-01
1.129999999999999893e+00,2.292317900775075190e-01,-1.178932506647813599e-01,-7.398630280348698907e-02
1.131000000000000005e+00,2.707290457618576895e-01,1.280559947003760690e-01,6.333382360895534191e-02
1.131999999999999895e+00,6.598684435337531795e-02,2.275188383370289891e-01,9.604261149165305156e-02
1.133000000000000007e+00,-2.479152476293682295e-01,1.074433267044415941e-01,6.174073879526930514e-02
1.133999999999999897e+00,-3.754059814306165976e-01,-3.617563000108595106e-02,-1.008053983063071472e-02
1.135000000000000009e+00,-2.022591660526379398e-01,-1.356152452988221568e-01,-1.694221497603590545e-02
1.135999999999999899e+00,1.764293359514157999e-01,-2.631646556046422433e-02,2.987871471071419996e-02
1.137000000000000011e+00,4.169579866200764928e-01,4.049748684173759550e-02,2.010314992433009929e-02
1.137999999999999901e+00,3.089137702010962827e-01,1.083665970242083179e-02,-8.042880424135095963e-02
1.139000000000000012e+00,-5.128071515832409444e-02,-5.037687834138589865e-02,-1.169855228751949389e-01
1.139999999999999902e+00,-3.314210128771656327e-01,-6.676706141790639260e-02,-9.966090984312429846e-02
1.141000000000000014e+00,-2.825033219198249124e-01,5.783953314969496329e-02,4.737819076198517693e-02
1.141999999999999904e+00,-2.455197725629967506e-02,2.280673768547242519e-01,2.115511177296571510e-01
1.143000000000000016e+00,1.641640179655467213e-01,1.622938329153470749e-01,2.036723669147396942e-01
1.143999999999999906e+00,2.094632543203001906e-01,-6.815315394121627957e-02,-3.074992928540651663e-02
1.145000000000000018e+00,5.708487646977983276e-02,-2.722245509137226072e-01,-2.014886037495850213e-01
1.145999999999999908e+00,-4.887821008496652520e-02,-2.691291417555898846e-01,-2.327628538036949357e-01
1.147000000000000020e+00,-3.824980926031953943e-02,-9.990975725869533780e-03,-8.757907212820639775e-02
1.147999999999999909e+00,4.318632963906646888e-02,2.816345199161318091e-01,1.627942443370352654e-01
1.149000000000000021e+00,-9.168283809457136030e-03,3.372576288050694315e-01,2.261559647330362577e-01
1.149999999999999911e+00,-1.252134108607787510e-01,1.034940205175468447e-01,1.314103629181654354e-01
1.151000000000000023e+00,-1.722631225040331115e-01,-1.464308903933130013e-01,-5.346681583182638642e-02
1.151999999999999913e+00,-7.815996722715733147e-02,-2.925390650780021473e-01,-1.673652477904846447e-01
1.153000000000000025e+00,1.880911386306174382e-01,-1.587816205333970332e-01,-1.331328979274645219e-01
1.153999999999999915e+00,3.226299913229090377e-01,5.933905742091529628e-02,1.430738657834814374e-02
1.155000000000000027e+00,2.073534968189074124e-01,1.937613959823910881e-01,8.923273410134265060e-02
1.155999999999999917e+00,-1.742534911894384475e-01,1.213508172850537165e-01,4.499235708682391283e-02
1.157000000000000028e+00,-4.031687363655863665e-01,-2.785728124303073205e-02,-1.772327699115022748e-02
1.157999999999999918e+00,-3.149866344411605401e-01,-3.315869104945033674e-02,3.184993650848254310e-02
1.159000000000000030e+00,4.241946348777263232e-02,-7.768983649677659899e-03,3.721024030719880665e-02
1.159999999999999920e+00,3.710275339973246322e-01,3.281860066697279282e-02,5.748144575176501042e-02
1.161000000000000032e+00,3.388929623383003520e-01,-5.547080009728042743e-02,-2.335170509808110265e-02
1.161999999999999922e+00,4.499451273495497922e-02,-1.414341589876342009e-01,-1.046265209255072687e-01
1.163000000000000034e+00,-2.095776237638123374e-01,-1.076553109108984441e-01,-1.250413487021839465e-01
1.163999999999999924e+00,-2.895367833753828002e-01,4.826843896122503391e-02,-4.712995532569320967e-02
1.165000000000000036e+00,-1.095995156105737250e-01,2.316971637212956459e-01,1.364568089803711581e-01
1.165999999999999925e+00,1.034084853988423702e-01,2.044353490610828217e-01,2.365006466845923638e-01
1.167000000000000037e+00,1.393242005792079130e-01,2.486162135762642650e-04,1.242809263535357561e-01
1.167999999999999927e+00,5.686172986455057671e-02,-2.798575168202622754e-01,-9.716677209253886394e-02
1.169000000000000039e+00,-1.720344772946138037e-02,-3.232403777806013845e-01,-2.304561003411543518e-01
1.169999999999999929e+00,1.468284600494411916e-02,-6.501327438605186693e-02,-1.968595004239309387e-01
1.171000000000000041e+00,8.974870093534105531e-02,2.220147704498394436e-01,4.002699917303504523e-02
1.171999999999999931e+00,4.816183675972862677e-02,3.016078674963416084e-01,2.088451800211373333e-01
1.173000000000000043e+00,-1.297202715644433513e-01,1.387257318138082895e-01,1.987663388080787297e-01
1.173999999999999932e+00,-2.546026215809775173e-01,-1.251829565013223566e-01,7.166325672876715236e-02
1.175000000000000044e+00,-1.511163076417095241e-01,-2.397434747905501928e-01,-1.005901116086804631e-01
1.175999999999999934e+00,1.316478189934325582e-01,-1.326840405995392269e-01,-1.110175080166223432e-01
1.177000000000000046e+00,3.417593469687885133e-01,2.664602199554690770e-02,-7.662755307016878847e-02
1.177999999999999936e+00,2.951751229449934844e-01,1.232351146020932570e-01,4.830277524923468069e-02
1.179000000000000048e+00,-2.539361403212286178e-02,8.112345290286744615e-02,2.963793403837374288e-02
1.179999999999999938e+00,-3.644386233230541561e-01,5.716526479018668901e-03,-3.496393281988164573e-03
1.181000000000000050e+00,-3.821441072564008001e-01,2.295853869940149908e-02,1.031169588017837035e-02
