time,acc_x,acc_y,acc_z
0.000000000000000000e+00,1.851655550043140031e-01,1.530588936331377659e-01,7.716808802166238990e-02
1.000000000000000021e-03,1.390993468914207276e-01,1.150995308543074774e-01,5.401114987110876980e-02
2.000000000000000042e-03,-1.292972925987514619e-03,-1.916661875251266314e-02,7.501686408011633625e-03
3.000000000000000062e-03,-1.568094125443105225e-01,-1.368724843871278740e-01,-9.964077336225596326e-02
4.000000000000000083e-03,-1.816089769373890050e-01,-1.450781898793913616e-01,-1.345360609445312161e-01
5.000000000000000104e-03,-2.174028244394742362e-02,-6.083228923201197333e-03,-3.445825270711078830e-02
6.000000000000000125e-03,1.036484149344633343e-01,1.322060116423402765e-01,5.476538109461794729e-02
7.000000000000000146e-03,1.727030647568351396e-01,1.296751737276002903e-01,9.247993214834576703e-02
8.000000000000000167e-03,9.165371415469063254e-02,1.380223287576913191e-02,5.975668601919963130e-02
8.999999999999999320e-03,-1.234928849081221580e-01,-9.697928114542689326e-02,-7.469196083449300416e-02
1.000000000000000021e-02,-1.791647767569452543e-01,-1.646086536032523306e-01,-1.251627258833157563e-01
1.099999999999999936e-02,-1.338633291262518177e-01,-7.249170553011993756e-02,-8.939145629508883639e-02
1.200000000000000025e-02,6.908788052601505525e-02,7.298816935444307763e-02,3.431413951071331930e-02
1.299999999999999940e-02,1.803430719112381619e-01,1.554237171027384179e-01,9.715545006226643243e-02
1.400000000000000029e-02,1.327348143893991306e-01,6.231484863754783998e-02,8.394511660903901384e-02
1.499999999999999944e-02,-1.855325922478333681e-02,-4.422473368398795873e-02,-1.751974388872444338e-03
1.600000000000000033e-02,-1.597543264311953037e-01,-1.432755579097743370e-01,-8.144537944746971236e-02
1.700000000000000122e-02,-1.999281620513551905e-01,-7.187821570368284341e-02,-1.058266339329471672e-01
1.799999999999999864e-02,2.815540730208491646e-02,1.329533894784855515e-02,-6.784772507507047523e-02
1.899999999999999953e-02,1.558653856336082721e-01,1.639022946934837466e-01,6.562021738642939694e-02
2.000000000000000042e-02,1.899778379930615602e-01,1.022220879389995202e-01,1.213164087826426873e-01
2.100000000000000130e-02,3.969596532237738146e-02,-3.301335358011357052e-02,5.179967345163906389e-02
2.199999999999999872e-02,-1.175021754683623215e-01,-1.566938464815309517e-01,-1.861779851919594803e-02
2.299999999999999961e-02,-1.713578587815387799e-01,-1.591888210891875544e-01,-1.032403787364285785e-01
2.400000000000000050e-02,-6.852949610034698991e-02,1.151367300262329946e-02,-4.992378751687352040e-02
2.500000000000000139e-02,1.170020508823813588e-01,9.435360402141830527e-02,1.412490803408640062e-02
2.599999999999999881e-02,1.985967292548370677e-01,1.207428387874624615e-01,9.852961542165372677e-02
2.699999999999999969e-02,9.355596545720970547e-02,4.221559272065923685e-02,9.642221905100391288e-02
2.800000000000000058e-02,-8.232329209261747549e-02,-9.760914984624877166e-02,-3.243698917308241586e-02
2.900000000000000147e-02,-1.579363168418949082e-01,-1.358611499553338264e-01,-9.842954817517093891e-02
2.999999999999999889e-02,-1.523272287746253451e-01,-5.276166704165689836e-02,-9.488598721634143585e-02
3.099999999999999978e-02,3.865120068812045312e-02,8.886919835647290322e-02,-1.112132271855129778e-02
3.200000000000000067e-02,1.713996969354339706e-01,1.597892441904035787e-01,5.901376574909578121e-02
3.300000000000000155e-02,1.591001074601424425e-01,7.324705609860372724e-02,1.221072819343476945e-01
3.400000000000000244e-02,-2.459208041862272209e-02,-9.207841688955109571e-02,4.599815511738507973e-02
3.500000000000000333e-02,-1.505460026182477429e-01,-1.356078091767665694e-01,-6.046532820051091217e-02
3.599999999999999728e-02,-1.794819501749633783e-01,-1.080741891780370723e-01,-1.005283741926383256e-01
3.699999999999999817e-02,-2.413213131951517584e-02,5.695980524384519628e-02,-6.226856320796390898e-02
3.799999999999999906e-02,1.356594283351970631e-01,1.293000435735977838e-01,2.364080804047931014e-02
3.899999999999999994e-02,1.624447940417138025e-01,9.851218017057943033e-02,9.539204622578495441e-02
4.000000000000000083e-02,4.896282568493689341e-02,-3.729333257199009526e-03,7.482498912478414976e-02
4.100000000000000172e-02,-8.107286408379636711e-02,-1.430196897433404501e-01,-2.669036894708543342e-02
4.200000000000000261e-02,-1.739236264228652129e-01,-1.129802469967071538e-01,-8.421074487015960119e-02
4.299999999999999656e-02,-9.297302985534547370e-02,-9.093106863814539101e-03,-1.163992674864280791e-01
4.399999999999999745e-02,8.514301985080191537e-02,1.208314825054089409e-01,-3.359781585000658644e-03
4.499999999999999833e-02,1.753024371107447521e-01,1.448616738130160675e-01,6.748472312938651185e-02
4.599999999999999922e-02,1.226860378289326564e-01,2.532273924390463643e-02,1.157097080113797249e-01
4.700000000000000011e-02,-3.902396602871032599e-02,-1.005996684400156382e-01,3.947879656015435695e-02
4.800000000000000100e-02,-1.846233041721275780e-01,-1.415272105693014815e-01,-6.975179115948866582e-02
4.900000000000000189e-02,-1.513544021288228680e-01,-5.835706953107563238e-02,-1.115818825347857923e-01
5.000000000000000278e-02,2.610088722584876647e-02,7.928968996479310305e-02,-5.548905210153225187e-02
5.099999999999999672e-02,1.350650557137123009e-01,1.676446041851181457e-01,3.542993017701821096e-02
5.199999999999999761e-02,1.600403182070889996e-01,5.558934715972135149e-02,1.105447613151804287e-01
5.299999999999999850e-02,1.239680800262479843e-02,-9.227072901147297113e-02,6.833256911097440600e-02
5.399999999999999939e-02,-1.259138537325351082e-01,-1.668291671223494366e-01,-8.751263892775487663e-03
5.500000000000000028e-02,-1.783370438620329179e-01,-1.059798127900407894e-01,-8.440405282378932172e-02
5.600000000000000117e-02,-7.059014240745078994e-02,1.674687519751345138e-02,-1.048246021637688208e-01
5.700000000000000205e-02,1.085819928777894405e-01,1.453734445106583950e-01,1.106983065545372701e-02
5.800000000000000294e-02,1.552846536433255820e-01,1.121953417899381605e-01,9.742718002387810994e-02
5.899999999999999689e-02,1.301638175686974375e-01,-5.141364884947351860e-02,9.563798283545493772e-02
5.999999999999999778e-02,-6.471067953051221067e-02,-1.415144172972113978e-01,2.634085681411153790e-02
6.099999999999999867e-02,-1.742644195426793774e-01,-1.520783998445055518e-01,-7.706024039227986344e-02
6.199999999999999956e-02,-1.132452169876814047e-01,3.035837880958378379e-02,-9.764167575671230115e-02
6.300000000000000044e-02,2.720251752245183771e-02,8.512243128523976077e-02,-3.304444146708068741e-02
6.400000000000000133e-02,1.563515842432605107e-01,1.610847130810016958e-01,1.336369971538093997e-02
6.500000000000000222e-02,1.594390811400951125e-01,6.478356338913221490e-02,1.138921385448739554e-01
6.600000000000000311e-02,-3.114503438726305522e-03,-1.317030702878282389e-01,6.735229062677636214e-02
6.700000000000000400e-02,-1.529348204761857843e-01,-1.630708653755266468e-01,-1.637507571110012952e-02
6.800000000000000488e-02,-1.439731117201292765e-01,-3.576066099555893357e-02,-1.160653790771496580e-01
6.900000000000000577e-02,-2.008647717460740681e-02,1.006073668906316138e-01,-8.844260832532353789e-02
7.000000000000000666e-02,1.419587828649413741e-01,1.566025230048128380e-01,6.051199000478037042e-03
7.099999999999999367e-02,2.046627945292595896e-01,4.376069427687410279e-02,9.138322556275244035e-02
7.199999999999999456e-02,6.589624188311106467e-02,-3.985443092915953722e-02,1.010268573021182170e-01
7.299999999999999545e-02,-1.112392204684283653e-01,-1.671120545474854557e-01,-7.091513361655378198e-03
7.399999999999999634e-02,-1.689395722631139296e-01,-1.061325279551691980e-01,-8.562252173439179048e-02
7.499999999999999722e-02,-7.671674414114997009e-02,3.492337815021151481e-02,-1.174757386664041364e-01
7.599999999999999811e-02,1.016152439186702311e-01,1.329001894571600617e-01,-4.134689013251557389e-03
7.699999999999999900e-02,2.180962743109486346e-01,1.303190906036704733e-01,6.570765099601323656e-02
7.799999999999999989e-02,1.128245479605748114e-01,-4.550888195481745530e-02,1.112924771007491181e-01
7.900000000000000078e-02,-5.840021600524417794e-02,-1.117333142841928084e-01,7.135893165516581094e-02
8.000000000000000167e-02,-1.828931765244685148e-01,-1.096127340822025259e-01,-4.435711782610054360e-02
8.100000000000000255e-02,-1.223596888672588284e-01,-2.016108754700537617e-02,-1.028088783754706886e-01
8.200000000000000344e-02,-9.293570809945488412e-03,1.007875005099489046e-01,-8.310898411629974447e-02
8.300000000000000433e-02,1.539267821480668486e-01,1.422652647517218538e-01,1.225192182885436777e-02
8.400000000000000522e-02,1.648250542213506309e-01,4.788898200969627511e-02,1.242418430960332970e-01
8.500000000000000611e-02,-5.779882528616632313e-03,-1.241800813162327460e-01,1.049513401887641750e-01
8.599999999999999312e-02,-1.293901217732293663e-01,-1.639793269761307126e-01,5.581447244196870855e-03
8.699999999999999400e-02,-1.774652731369758818e-01,-2.346658905679628593e-02,-6.069824585144794477e-02
8.799999999999999489e-02,-6.755992195368261399e-02,8.557346406701020480e-02,-1.127559522044735973e-01
8.899999999999999578e-02,1.180789018295935050e-01,1.431967249022202959e-01,-3.294152429005473004e-02
8.999999999999999667e-02,1.986333061627712782e-01,5.097937638863038468e-02,8.351603427536243018e-02
9.099999999999999756e-02,8.860009165059239133e-02,-7.176806084498488225e-02,1.066911589619277401e-01
9.199999999999999845e-02,-8.344706793642450715e-02,-1.961287492063466531e-01,4.068674008010731563e-02
9.299999999999999933e-02,-1.837893339120531822e-01,-1.194822476531763739e-01,-3.804968587246523176e-02
9.400000000000000022e-02,-1.229465408621628481e-01,6.264115861270799779e-02,-1.234508549448287279e-01
9.500000000000000111e-02,5.953624101595814122e-02,1.638694362918182434e-01,-7.806622736097250381e-02
9.600000000000000200e-02,1.957326207094559900e-01,1.286437088641547988e-01,3.460105850386899912e-02
9.700000000000000289e-02,1.478741693359735543e-01,-4.034335539951312832e-02,1.086694948331893978e-01
9.800000000000000377e-02,2.357979887648479090e-03,-1.540185149919683361e-01,1.234911095470792863e-01
9.900000000000000466e-02,-1.581703890834450510e-01,-1.201595125638060951e-01,1.287470304477147595e-02
1.000000000000000056e-01,-1.434251014036534710e-01,3.370539844191979863e-03,-9.314025045265703073e-02
1.010000000000000064e-01,-3.082698828937196350e-02,1.336095298048969593e-01,-1.081353139460249219e-01
1.019999999999999934e-01,1.421193986625524097e-01,1.239724048715264426e-01,-3.247642924826217581e-02
1.029999999999999943e-01,1.617693469465445177e-01,2.467493576266462790e-02,7.850947722859251410e-02
1.039999999999999952e-01,6.485724432683581675e-02,-1.060415971507004118e-01,9.789100501737318938e-02
1.049999999999999961e-01,-1.154576105117461199e-01,-1.513681203463058400e-01,4.754231186068584580e-02
1.059999999999999970e-01,-2.019102995669547207e-01,-6.619742552076957054e-02,-4.903561297510272698e-02
1.069999999999999979e-01,-1.072978687889716842e-01,7.586001618480521513e-02,-1.466217717381449737e-01
1.079999999999999988e-01,1.154770193971837305e-01,1.577430028489786307e-01,-7.855147125563018140e-02
1.089999999999999997e-01,1.698748753752746532e-01,7.834445519319527262e-02,2.022792038996993821e-03
1.100000000000000006e-01,1.278762266525366731e-01,-8.085365213738741896e-02,1.200856124485391307e-01
1.110000000000000014e-01,-5.825951799730776787e-02,-1.356654841646444953e-01,9.386770422592291552e-02
1.120000000000000023e-01,-1.825116422621927970e-01,-8.156247328392325635e-02,-1.221890824768980151e-02
1.130000000000000032e-01,-1.638360874075108220e-01,2.863338639619823073e-02,-6.961688306459551390e-02
1.140000000000000041e-01,4.153378890466207646e-02,1.304840213156649720e-01,-1.255884843305493936e-01
1.150000000000000050e-01,1.748427225037731958e-01,1.085793110035976478e-01,-9.078644630357440154e-03
1.160000000000000059e-01,1.577402319150062737e-01,2.089881043391895142e-03,8.592630879684035050e-02
1.170000000000000068e-01,-4.750239177241689058e-03,-1.394966633249876131e-01,9.759235637921245821e-02
1.179999999999999938e-01,-1.150048807544882118e-01,-1.269536540655329115e-01,1.508950678176013312e-02
1.189999999999999947e-01,-1.377629442741231947e-01,1.026794363408491464e-02,-8.118517879765682621e-02
1.199999999999999956e-01,-4.427696135422622831e-02,1.066802217572399430e-01,-1.268681632022609362e-01
1.209999999999999964e-01,1.063862799567192596e-01,1.498193439593493437e-01,-5.415499309860481031e-02
1.219999999999999973e-01,1.880407624572317526e-01,1.290779183357464339e-02,5.850569965684289386e-02
1.229999999999999982e-01,6.416927759686802402e-02,-1.374680883701487888e-01,1.144636691911801868e-01
1.239999999999999991e-01,-8.956646790919493839e-02,-1.388745115580840850e-01,6.791725169445896049e-02
1.250000000000000000e-01,-1.835541866148459877e-01,-2.432692165313722621e-02,-3.486324334457120699e-02
1.260000000000000009e-01,-9.157129601282765208e-02,7.320878268462892302e-02,-1.034718582202552167e-01
1.270000000000000018e-01,4.891921746651139297e-02,1.632294004570893908e-01,-9.962555203412576388e-02
1.280000000000000027e-01,1.535781854924865020e-01,5.354605283706626723e-02,-3.674043766294569219e-02
1.290000000000000036e-01,1.295676704891072784e-01,-8.079245332030662863e-02,5.892845371472815730e-02
1.300000000000000044e-01,-2.912133248840170427e-02,-1.547539200263126080e-01,1.027548864359138781e-01
1.310000000000000053e-01,-1.863598294704297276e-01,-9.659488291426715501e-02,4.718487208885217832e-02
1.320000000000000062e-01,-1.801466203692733137e-01,2.565150935764839990e-02,-6.225833631423211695e-02
1.330000000000000071e-01,-2.135935340303449573e-02,1.284969923035876038e-01,-1.147767550826131744e-01
1.340000000000000080e-01,1.454705209496885143e-01,9.435848857233571085e-02,-4.843819669802077593e-02
1.350000000000000089e-01,1.837964882074832884e-01,-4.662234507485072538e-02,8.147754798644292473e-02
1.360000000000000098e-01,3.243776045906456018e-02,-1.196648259840749906e-01,1.029115616761829971e-01
1.370000000000000107e-01,-1.378518856346827304e-01,-1.155457163940283444e-01,7.665205370243152738e-02
1.380000000000000115e-01,-1.599282853123209225e-01,-1.158701759137815588e-03,-1.533319943215107929e-02
1.390000000000000124e-01,-8.052653562014334965e-02,1.355571110670805435e-01,-7.906711198390414808e-02
1.400000000000000133e-01,1.220944662819687804e-01,1.458871652212877235e-01,-7.655747777529436915e-02
1.409999999999999865e-01,1.620939098742661677e-01,2.846810952192964372e-02,-5.229170444604994833e-02
1.419999999999999873e-01,1.343288663952683093e-01,-1.340442532677092458e-01,8.664217742804584954e-02
1.429999999999999882e-01,-4.563584378656330293e-02,-1.527672379169026096e-01,1.379559242055965196e-01
1.439999999999999891e-01,-1.495358865019484895e-01,-7.864964912163126265e-02,3.198235532935420761e-02
1.449999999999999900e-01,-1.451998548833904612e-01,9.196142732674889020e-02,-3.508206775242476982e-02
1.459999999999999909e-01,1.544653341758964529e-02,1.533067454854868950e-01,-1.245701321073319490e-01
1.469999999999999918e-01,1.620744281964092426e-01,3.571285530322966528e-02,-4.611988595119369261e-02
1.479999999999999927e-01,1.701111644644631438e-01,-7.911832725261776222e-02,8.615466253894370208e-02
1.489999999999999936e-01,-1.252092510357118334e-02,-1.738481892341326995e-01,1.041983989275684225e-01
1.499999999999999944e-01,-1.306641199932146169e-01,-9.713583355262152275e-02,3.656803911704602228e-02
1.509999999999999953e-01,-1.508037942866115588e-01,5.203821348781453859e-02,-4.383607181736452751e-02
1.519999999999999962e-01,-2.069657384560006849e-02,1.417188579000515924e-01,-1.332890557489781469e-01
1.529999999999999971e-01,1.264223890897656910e-01,1.258667111381060744e-01,-8.754294831546047262e-02
1.539999999999999980e-01,2.383933510024956459e-01,-2.713797146923099812e-02,7.999048414135472365e-03
1.549999999999999989e-01,1.200222977374089117e-01,-1.473975946364193823e-01,1.079717001828382483e-01
1.559999999999999998e-01,-1.008146210919167174e-01,-1.332504279527199076e-01,1.025843369828999957e-01
1.570000000000000007e-01,-1.861771227870726020e-01,-1.581931041559840254e-02,1.399533405326112284e-02
1.580000000000000016e-01,-1.155861782194432946e-01,1.408425837803367053e-01,-9.163979118080602115e-02
1.590000000000000024e-01,8.254390056978268275e-02,1.348668839477442649e-01,-9.784150650598318066e-02
1.600000000000000033e-01,1.954804069066892747e-01,2.776841456755486243e-02,-4.042674675082570668e-02
1.610000000000000042e-01,1.435028050870350846e-01,-1.093394205018766163e-01,7.476265735358843256e-02
1.620000000000000051e-01,-3.306291682947713750e-02,-1.233799216549534006e-01,9.441859426694378110e-02
1.630000000000000060e-01,-1.766916743368452114e-01,-5.424441510496710167e-02,6.017173622769474844e-02
1.640000000000000069e-01,-1.850710524024887504e-01,6.905026653027451777e-02,-2.016056267176964678e-02
1.650000000000000078e-01,-1.987036201653460260e-02,1.458002232951272903e-01,-8.761349751673207231e-02
1.660000000000000087e-01,1.525457868443235165e-01,7.424612428711654943e-02,-8.911404708133602304e-02
1.670000000000000095e-01,1.636210252784756347e-01,-6.870708438769788928e-02,1.145427832000649356e-02
1.680000000000000104e-01,5.383720440193570655e-02,-1.737855722959135707e-01,1.168879905472827718e-01
1.690000000000000113e-01,-1.547021238611575311e-01,-7.565526523926013880e-02,1.001188646683098121e-01
1.700000000000000122e-01,-1.829807418255866847e-01,5.665071758676143432e-02,3.057923207729069254e-02
1.710000000000000131e-01,-8.114628897432170362e-02,1.214989757940258958e-01,-9.805833737690315688e-02
1.719999999999999862e-01,1.118696345191035751e-01,1.093265030529201043e-01,-1.395887848527592179e-01
1.729999999999999871e-01,1.868710712319907041e-01,1.087204705410238330e-02,-4.322906262882262457e-02
1.739999999999999880e-01,1.204416877792257728e-01,-1.110074413804025828e-01,7.615641880684512199e-02
1.749999999999999889e-01,-5.414306075693187809e-02,-1.316149169461477419e-01,1.232746857060580820e-01
1.759999999999999898e-01,-1.987053544601547483e-01,8.091457026017243731e-03,5.722711389589048292e-02
1.769999999999999907e-01,-1.466737621866892605e-01,1.189198864511627068e-01,-5.573829578979173222e-02
1.779999999999999916e-01,2.445128496408006252e-02,1.237627297029150891e-01,-1.253051533672713269e-01
1.789999999999999925e-01,1.710646790065507294e-01,2.601569541135317909e-02,-5.293932680527472373e-02
1.799999999999999933e-01,1.333415810913634314e-01,-1.024098650954044648e-01,7.745150854363492404e-03
1.809999999999999942e-01,2.394652763657366054e-02,-1.552113575018951586e-01,9.924755092324998029e-02
1.819999999999999951e-01,-1.459651233516511548e-01,-7.645024650261521282e-02,1.072826503133604142e-01
1.829999999999999960e-01,-1.624137813907620409e-01,8.218513673587343749e-02,-4.373443308320581167e-03
1.839999999999999969e-01,-3.973266920784550987e-02,1.685236729327594385e-01,-9.207926323412209124e-02
1.849999999999999978e-01,1.232356533515791414e-01,7.301933772029035874e-02,-9.279508239578757034e-02
1.859999999999999987e-01,1.561443425069002910e-01,-1.016542036604327487e-01,-2.266026410188916318e-02
1.869999999999999996e-01,7.939458045345433590e-02,-1.483111977827562267e-01,8.668453439565253216e-02
1.880000000000000004e-01,-7.511158067496370716e-02,-1.122217796370984094e-01,1.298408415115931691e-01
1.890000000000000013e-01,-2.001353747228552249e-01,5.933012395742151557e-02,7.154838274679833736e-03
1.900000000000000022e-01,-1.094392995955310310e-01,1.350796376689889222e-01,-4.460853532504446134e-02
1.910000000000000031e-01,6.784336417423603161e-02,9.361387072069751736e-02,-1.167373849334626956e-01
1.920000000000000040e-01,1.856485424587084876e-01,-2.051449076455798270e-02,-1.132199217573871125e-01
1.930000000000000049e-01,1.218428634407645594e-01,-1.286481771658902484e-01,5.331861252256540201e-02
1.940000000000000058e-01,-3.003472476530041901e-02,-1.290288980343277103e-01,9.820153603121320462e-02
1.950000000000000067e-01,-1.593485306873490270e-01,2.314193275757068201e-03,8.065712548065628873e-02
1.960000000000000075e-01,-1.497890354945067837e-01,9.776119030972565960e-02,-1.487781008595986769e-02
1.970000000000000084e-01,-1.341599232266694683e-02,1.213352850600189076e-01,-1.033387873624831699e-01
1.980000000000000093e-01,1.615734104202510568e-01,1.792677677738073461e-02,-9.909367536497222517e-02
1.990000000000000102e-01,1.595183480859952430e-01,-9.895725231071776651e-02,-4.165138005211042882e-02
2.000000000000000111e-01,5.210726324906905793e-02,-1.136056751705838835e-01,9.561091766552826110e-02
2.010000000000000120e-01,-1.190041331906648986e-01,-4.779748114281568566e-02,1.040609593536124255e-01
2.020000000000000129e-01,-1.751192917261006621e-01,1.131268326830788401e-01,3.307044831785741629e-02
2.030000000000000138e-01,-8.090279569196015541e-02,1.444948398189875027e-01,-7.468687674646656838e-02
2.039999999999999869e-01,9.828184681875633266e-02,3.559573469556166075e-02,-1.180357250543546399e-01
2.049999999999999878e-01,2.236509525386094210e-01,-8.137502550624851894e-02,-2.498816436683885811e-02
2.059999999999999887e-01,1.295596271723409021e-01,-1.738922712081874822e-01,5.749036156288304250e-02
2.069999999999999896e-01,-8.654408376224649591e-02,-6.844926531105946510e-02,9.600590644322033740e-02
2.079999999999999905e-01,-1.574390544968299055e-01,4.032873512002845690e-02,6.424106889261964326e-02
2.089999999999999913e-01,-1.157987521502783085e-01,1.308813619325350230e-01,1.337735570107549676e-02
2.099999999999999922e-01,3.495758575961471076e-02,1.049099906518575764e-01,-9.166468827009789655e-02
2.109999999999999931e-01,1.638842444155589051e-01,-2.561300251800235905e-02,-1.288251315641470163e-01
2.119999999999999940e-01,1.503476158210008129e-01,-1.361161622555673856e-01,-2.679648448048907103e-02
2.129999999999999949e-01,4.477954084518562423e-03,-1.076803038396854234e-01,5.602464681868625507e-02
2.139999999999999958e-01,-1.620447303994717592e-01,-2.198628531463330676e-02,6.432761589902755150e-02
2.149999999999999967e-01,-1.589363569028370282e-01,1.110260129607894830e-01,9.147187730888932042e-03
2.159999999999999976e-01,-3.232406552521444043e-02,9.956349989991918059e-02,-6.460923642648597198e-02
2.169999999999999984e-01,1.301507069187439192e-01,3.260458821737465679e-02,-1.372160873982336549e-01
2.179999999999999993e-01,1.747476676204826329e-01,-1.114487996491487498e-01,-7.301397783779903228e-02
2.190000000000000002e-01,2.691986731958918508e-02,-1.336168558898963854e-01,5.413284689744073813e-02
2.200000000000000011e-01,-1.086758241816370707e-01,-5.853187779547446706e-02,1.027302349624375222e-01
2.210000000000000020e-01,-1.951404913393065543e-01,8.827698798576305572e-02,6.936213895440548893e-02
2.220000000000000029e-01,-1.135050294990916225e-01,1.269998795534017788e-01,-3.862502834038047256e-02
2.230000000000000038e-01,3.589607092020125761e-02,9.215057173446218608e-02,-9.549653582500464144e-02
2.240000000000000047e-01,2.036267621979861164e-01,-7.077708558168749331e-02,-7.986987997710930098e-02
2.250000000000000056e-01,1.265927268060415278e-01,-1.486139710731375352e-01,1.012029360926792153e-03
2.260000000000000064e-01,-4.258114937267246103e-02,-7.914493692490441601e-02,6.181395508773360192e-02
2.270000000000000073e-01,-1.731519059955606288e-01,3.449448274896027566e-02,1.258246214123335538e-01
2.280000000000000082e-01,-1.499860697237742901e-01,1.092770943599688099e-01,1.510777100529890789e-02
2.290000000000000091e-01,-3.212876477209579418e-02,8.834769598616951103e-02,-1.166764805594291826e-01
2.300000000000000100e-01,1.617037622665357388e-01,-2.293006543323127672e-02,-8.029866393191820162e-02
2.310000000000000109e-01,1.732675488350238491e-01,-1.264478864441199724e-01,-5.136948988828041185e-02
2.320000000000000118e-01,5.478736399762210163e-02,-9.679622929604170256e-02,5.448118767048224648e-02
2.330000000000000127e-01,-1.338285578084042471e-01,1.226667937653447976e-02,1.617797256407759177e-01
2.340000000000000135e-01,-1.777188726574579214e-01,9.100658545264671273e-02,4.688634890849775055e-02
2.349999999999999867e-01,-7.771136264127857796e-02,1.445219196463516653e-01,-1.507074644908574200e-02
2.359999999999999876e-01,8.645054752465289316e-02,3.118455685311358888e-02,-1.061527062700488994e-01
2.369999999999999885e-01,2.134464425431698009e-01,-1.306441954735906852e-01,-8.973685958869716262e-02
2.379999999999999893e-01,9.656641039721651498e-02,-1.306849316574551778e-01,-7.720416428863598191e-03
2.389999999999999902e-01,-4.098040325098206010e-02,-5.655396331739147991e-02,9.951297987200702355e-02
2.399999999999999911e-01,-2.170884951080422343e-01,7.280217112737838447e-02,9.209064866733089605e-02
2.409999999999999920e-01,-1.376534953859671617e-01,1.304811748571867158e-01,1.037327093294353360e-02
2.419999999999999929e-01,5.367418068651937102e-02,5.973388174678236073e-02,-6.279639766466153794e-02
2.429999999999999938e-01,1.837966187868894097e-01,-8.167505300254432332e-02,-1.253259830895708249e-01
2.439999999999999947e-01,1.318595603329379418e-01,-1.577255730977190074e-01,-3.761554291198121458e-02
2.449999999999999956e-01,2.034092908957340837e-02,-7.285221511624363766e-02,5.393579582889225510e-02
2.459999999999999964e-01,-1.438148835664017078e-01,7.324347253796494039e-02,9.542292814471078910e-02
2.469999999999999973e-01,-1.963574839265411487e-01,1.363154076319122998e-01,3.574547980560303928e-02
2.479999999999999982e-01,-2.609584019198489882e-02,1.166192190058796541e-01,-5.564085570611424642e-02
2.489999999999999991e-01,1.437825669849144838e-01,-2.784641251677185195e-02,-8.632704618304541666e-02
2.500000000000000000e-01,1.861593699986268391e-01,-1.475153430498204188e-01,-9.942019914543437364e-02
2.510000000000000009e-01,3.728178703028954544e-02,-1.119833131097769108e-01,9.178311495592403682e-03
2.520000000000000018e-01,-1.053483313235557967e-01,6.760122317631357333e-04,7.910762373535037972e-02
2.530000000000000027e-01,-1.716988409676661609e-01,1.312516246733184955e-01,9.496445131308969834e-02
2.540000000000000036e-01,-9.563772314495815052e-02,1.202023472218478189e-01,3.972391921962010325e-02
2.550000000000000044e-01,5.247369431098311554e-02,1.601406775834752008e-02,-7.021967691164655856e-02
2.560000000000000053e-01,1.804003016772671442e-01,-1.176648453186670551e-01,-1.101166029890163767e-01
2.570000000000000062e-01,1.170305604791398169e-01,-1.306707713802337523e-01,-5.639880276598596004e-02
2.580000000000000071e-01,-2.268880850088637879e-02,-1.886532796886115915e-02,7.451196049844450997e-02
2.590000000000000080e-01,-1.708974774139727926e-01,1.142930199410998465e-01,9.925822530408727473e-02
2.600000000000000089e-01,-1.554038372121492040e-01,1.782288803117910159e-01,6.118509127876318315e-02
2.610000000000000098e-01,1.836222157384706857e-02,4.575430959275172266e-02,-7.598255587812238754e-02
2.620000000000000107e-01,1.473026602499422633e-01,-8.775336635762059911e-02,-1.193225586920119569e-01
2.630000000000000115e-01,1.599032142269014301e-01,-1.458077527557837538e-01,-4.504794590100188317e-02
2.640000000000000124e-01,4.387792019758356837e-02,-1.053832768292765482e-01,2.319563645240538263e-02
2.650000000000000133e-01,-1.493095677785273301e-01,4.936693796001651036e-02,1.046464211304951319e-01
2.660000000000000142e-01,-1.956969015837674575e-01,1.269244992933150906e-01,8.571692340357918438e-02
2.670000000000000151e-01,-9.712739851940870028e-02,9.303750355772072433e-02,1.065112797344642355e-03
2.680000000000000160e-01,7.306638609883508995e-02,-2.575722044678977266e-02,-7.829978933321322943e-02
2.690000000000000169e-01,1.816940399071804713e-01,-1.446525639275067221e-01,-1.071962640150236207e-01
2.700000000000000178e-01,8.546566111948858402e-02,-1.184158705727588329e-01,-3.506277701519708995e-02
2.710000000000000187e-01,-1.001100496168597920e-01,1.465233359223471442e-02,7.183482931135325156e-02
2.720000000000000195e-01,-1.789901394193086359e-01,1.084712473176106806e-01,1.142624833533205098e-01
2.730000000000000204e-01,-1.364514320774389833e-01,1.114643506655200178e-01,5.580368942446667369e-02
2.740000000000000213e-01,3.823155831266828591e-02,-1.670614225542818229e-02,-4.776715250941926394e-02
2.750000000000000222e-01,1.670614819908602111e-01,-1.114216267610518007e-01,-7.453936759818370617e-02
2.760000000000000231e-01,1.714782713391715674e-01,-1.445170726965129826e-01,-3.890871165976549084e-02
2.770000000000000240e-01,2.563440157492290206e-02,-3.722743061569263462e-02,1.843733342089828864e-02
2.780000000000000249e-01,-1.630637945324011351e-01,9.308843181307818737e-02,7.751212145712874091e-02
2.790000000000000258e-01,-1.722289143428848146e-01,1.558065496362296132e-01,6.530347052155296983e-02
2.800000000000000266e-01,-2.560457249862501186e-02,7.284886026411555027e-02,-3.980197234236255294e-02
2.810000000000000275e-01,1.487391311203821453e-01,-1.187036337656362656e-01,-1.111971617435722481e-01
2.819999999999999729e-01,1.826685195288030028e-01,-1.413711661922619489e-01,-1.001384301072275052e-01
2.829999999999999738e-01,4.156488766428259596e-02,-8.758770285020925361e-02,-4.806850318959624002e-02
2.839999999999999747e-01,-1.289572329631184788e-01,5.244057589570995381e-02,7.849749122978952331e-02
2.849999999999999756e-01,-1.665330256796536956e-01,1.362866392750650690e-01,1.208791180469365595e-01
2.859999999999999765e-01,-1.150862629574176954e-01,9.461361973314096063e-02,3.865997049728291113e-02
2.869999999999999774e-01,6.847663064654897769e-02,-4.057201446623434626e-02,-8.441450309764229887e-02
2.879999999999999782e-01,1.733719319356168687e-01,-1.317726831159389267e-01,-1.041326134937016756e-01
2.889999999999999791e-01,9.154279428012236652e-02,-1.342291879841270852e-01,-5.648178668934866059e-02
2.899999999999999800e-01,-6.431582983684300259e-02,1.429256251882928853e-02,2.197678930267580114e-02
2.909999999999999809e-01,-1.905348368440578088e-01,1.330719453085240367e-01,8.097601223206472854e-02
2.919999999999999818e-01,-1.353169261146110747e-01,1.362692639626217062e-01,8.557907973358457043e-02
2.929999999999999827e-01,1.301723687517373357e-02,3.348647043639234322e-02,-4.927273282600679732e-02
2.939999999999999836e-01,1.595904424571608915e-01,-1.306097014506003573e-01,-1.004131578349114901e-01
2.949999999999999845e-01,1.790445505053580022e-01,-1.660189718587359309e-01,-9.314560295013127322e-02
2.959999999999999853e-01,-1.150431325186392073e-03,-4.701851139772540017e-02,5.698390155429241752e-03
2.969999999999999862e-01,-1.549208174581132857e-01,9.884671580120441003e-02,8.636032307628084548e-02
2.979999999999999871e-01,-1.724160673086737039e-01,1.389268683814202099e-01,1.181830811621570609e-01
2.989999999999999880e-01,-2.213630631927481635e-02,2.396034931516469527e-02,5.184065962344251016e-02
2.999999999999999889e-01,1.135697811669367646e-01,-6.864222152638517482e-02,-6.779040386371419646e-02
3.009999999999999898e-01,1.754866611305387070e-01,-1.544694715182237388e-01,-1.076508007892806318e-01
3.019999999999999907e-01,8.958556804248295202e-02,-5.785405977820157197e-02,-5.250927220078747265e-02
3.029999999999999916e-01,-5.742439805211740911e-02,5.990708924801910196e-02,6.193114610605165993e-02
3.039999999999999925e-01,-1.863668687394778312e-01,1.492788171143497322e-01,1.095716374989292446e-01
3.049999999999999933e-01,-1.431565317177356245e-01,9.559385510502350913e-02,9.011445891136141140e-02
3.059999999999999942e-01,5.119481255252167351e-02,-1.314341607864959009e-03,-9.544232138487372327e-03
3.069999999999999951e-01,1.825095453198734841e-01,-1.174802749675009084e-01,-1.075273332691225187e-01
3.079999999999999960e-01,1.507990797133359762e-01,-1.243720211137676196e-01,-8.876091333005153849e-02
3.089999999999999969e-01,1.393736821588959993e-02,2.103010248066267823e-02,9.509093306410698609e-03
3.099999999999999978e-01,-1.751346585621487983e-01,1.454724238881146270e-01,9.604925742557972324e-02
3.109999999999999987e-01,-1.593031415045863819e-01,1.375581418965514946e-01,1.227726258591466252e-01
3.119999999999999996e-01,-4.682768517615868570e-02,-2.266090180063074638e-02,1.601098456392533939e-02
3.130000000000000004e-01,1.531152605769452169e-01,-1.058721975578831853e-01,-8.779028828904385240e-02
3.140000000000000013e-01,1.904264359993858291e-01,-1.314736838520300377e-01,-1.003998911707674052e-01
3.150000000000000022e-01,7.068287953294402626e-02,-4.611872995844997630e-02,-1.206809921254770220e-02
3.160000000000000031e-01,-1.177722312937584115e-01,8.924597913568879659e-02,8.033772811751939413e-02
3.170000000000000040e-01,-1.738724918437279110e-01,1.293745183330323179e-01,9.190022481267437482e-02
3.180000000000000049e-01,-8.629947923535591370e-02,4.062952268209071849e-02,8.400138346593677419e-02
3.190000000000000058e-01,9.835491081503876243e-02,-6.564119763464117130e-02,-5.382206150703483516e-02
3.200000000000000067e-01,1.777408185584838096e-01,-1.381309110215279135e-01,-1.116877238354409552e-01
3.210000000000000075e-01,9.466835005840683326e-02,-7.685367452485428186e-02,-1.166763602906318170e-01
3.220000000000000084e-01,-6.870248866005372601e-02,6.717592697860368112e-02,1.228687531938267574e-02
3.230000000000000093e-01,-1.797905516296985362e-01,1.325891172028444698e-01,6.986167706164896074e-02
3.240000000000000102e-01,-1.562964952286193809e-01,1.048502847151750461e-01,9.678067996598317679e-02
3.250000000000000111e-01,-1.001457198978460833e-02,-5.226415436398325343e-02,3.613386141587904277e-02
3.260000000000000120e-01,1.554359738652742462e-01,-1.310260913902162871e-01,-7.037150182337791049e-02
3.270000000000000129e-01,1.872161718665378560e-01,-1.277144460449293473e-01,-7.339298785557955840e-02
3.280000000000000138e-01,-5.602921568884179637e-03,1.744039255011266276e-02,-6.353813768847592358e-02
3.290000000000000147e-01,-1.268558300903525893e-01,1.224894658992192187e-01,6.701344950199726591e-02
3.300000000000000155e-01,-1.714643789456258838e-01,1.440471047365431412e-01,9.442596716294131276e-02
3.310000000000000164e-01,-2.927168143558507227e-02,9.377451790535099377e-03,4.557511419370188777e-02
3.320000000000000173e-01,1.232638717060499517e-01,-1.132758015005450730e-01,-2.900418588733348277e-02
3.330000000000000182e-01,2.072213213126130327e-01,-1.449017095637705754e-01,-1.285388395009740836e-01
3.340000000000000191e-01,9.081734341792738197e-02,-3.017273604785159977e-02,-7.925794254169149511e-02
3.350000000000000200e-01,-9.514805587545492604e-02,9.940650357043295804e-02,3.186082289933826750e-02
3.360000000000000209e-01,-1.779676316724730645e-01,1.199929001136642998e-01,6.905697353974481201e-02
3.370000000000000218e-01,-8.727787334091585691e-02,7.365191796321826634e-02,8.248919684726922774e-02
3.380000000000000226e-01,5.268764522880245438e-02,-7.658387154532098062e-02,3.169173357015191150e-02
3.390000000000000235e-01,1.858150286242700178e-01,-1.436532841233426061e-01,-1.044620903611071377e-01
3.400000000000000244e-01,1.438651455588517425e-01,-7.781297030593249675e-02,-8.600608889899595544e-02
3.410000000000000253e-01,-1.518767388758472843e-02,4.256267114255418704e-02,-4.965971046695599744e-02
3.420000000000000262e-01,-1.865484689314798605e-01,1.505060177972057656e-01,7.180849570412133065e-02
3.430000000000000271e-01,-1.527538206741685389e-01,1.254356424250392399e-01,1.023685649633321454e-01
3.439999999999999725e-01,-1.615435357244803666e-02,-2.564162116844674599e-02,5.985824217104371986e-02
3.449999999999999734e-01,1.259487674412165248e-01,-1.368273809498833093e-01,-5.774075559731721430e-02
3.459999999999999742e-01,2.126055535109101224e-01,-1.320139994375947590e-01,-1.298413276453127818e-01
3.469999999999999751e-01,8.243797030761006173e-02,-1.360631858032443527e-02,-7.777952531329086761e-02
3.479999999999999760e-01,-1.010761704697852453e-01,1.282582584362427502e-01,5.418382324627045443e-02
3.489999999999999769e-01,-1.937113700638668223e-01,1.284670762969619962e-01,7.090481968988418537e-02
3.499999999999999778e-01,-1.056664174539330286e-01,1.430557518317341834e-02,9.376428583106337367e-02
3.509999999999999787e-01,8.182634672018004873e-02,-1.067363601970198195e-01,-9.302178226224923699e-03
3.519999999999999796e-01,1.528927536246338370e-01,-1.123320602981367211e-01,-1.131459170627314714e-01
3.529999999999999805e-01,1.186577672059517669e-01,6.400431251475781000e-03,-4.774683113850466953e-02
3.539999999999999813e-01,-5.175640685755048681e-02,9.238601644139191049e-02,-2.776209751141334170e-02
3.549999999999999822e-01,-1.800019001950757813e-01,1.575982409226892589e-01,6.327249112613826665e-02
3.559999999999999831e-01,-1.466925834962491126e-01,6.393404975316041572e-02,9.370848613418381046e-02
3.569999999999999840e-01,1.875986062301291876e-02,-7.743575311600410516e-02,2.808954190342486876e-02
3.579999999999999849e-01,1.756754039548222013e-01,-1.624621012587391944e-01,-5.219606009271533092e-02
3.589999999999999858e-01,1.838448737009904521e-01,-4.253154438019856459e-02,-1.255481896793037844e-01
3.599999999999999867e-01,1.786479306428478964e-02,7.449213385666610121e-02,-7.404398699993557098e-02
3.609999999999999876e-01,-1.419174329693379533e-01,1.343818314063912334e-01,3.666602386280625597e-02
3.619999999999999885e-01,-2.028848091292009270e-01,8.066945964327219831e-02,9.798465060835666318e-02
3.629999999999999893e-01,-6.725324605116238252e-02,-5.599831353832726566e-02,8.029337411770726129e-02
3.639999999999999902e-01,1.155718060381777657e-01,-1.380575952639518100e-01,-3.775777566464984941e-02
3.649999999999999911e-01,1.775361439828422316e-01,-1.074287293597641080e-01,-8.634082475680769642e-02
3.659999999999999920e-01,8.705915212407475123e-02,1.329762691287081876e-02,-1.023580279314921099e-01
3.669999999999999929e-01,-7.187889976864920982e-02,1.561399036397771722e-01,-1.221388597136744553e-02
3.679999999999999938e-01,-1.423515945479292555e-01,1.100380692284228246e-01,7.741895278836967431e-02
3.689999999999999947e-01,-1.030441017602652248e-01,1.878753280033802070e-02,1.071232735431735944e-01
3.699999999999999956e-01,4.577732879700321250e-02,-1.201300679713139113e-01,2.414261581657512271e-02
3.709999999999999964e-01,1.837601799829344240e-01,-1.120434359803763325e-01,-5.408268971699536909e-02
3.719999999999999973e-01,1.267820562877379764e-01,-2.621361030168285061e-02,-1.268176021481916826e-01
3.729999999999999982e-01,2.382375985378957627e-03,1.149657359096779990e-01,-8.089182853257478878e-02
3.739999999999999991e-01,-1.689926449252624752e-01,1.413521087328586945e-01,2.700751472625317895e-02
3.750000000000000000e-01,-1.396269689021395477e-01,7.300789437089125200e-02,1.133475615198767522e-01
3.760000000000000009e-01,-7.287074842705818477e-03,-1.029976087562773368e-01,7.317357057830407852e-02
3.770000000000000018e-01,1.523403150117760840e-01,-1.478636662422043724e-01,-1.317668777101806653e-02
3.780000000000000027e-01,1.817723035776399321e-01,-9.382678280872774890e-02,-9.560620160149267688e-02
3.790000000000000036e-01,4.189700249628602186e-02,9.399843397445571680e-02,-1.007840322287486823e-01
3.800000000000000044e-01,-1.484025153857340407e-01,1.493311204991122354e-01,5.021646791157076753e-03
3.810000000000000053e-01,-1.823804660789730969e-01,9.526896115849774194e-02,8.797754945107950919e-02
3.820000000000000062e-01,-7.644527364187995999e-02,-1.938798464279607725e-02,1.160503722025421208e-01
3.830000000000000071e-01,7.437806311198598419e-02,-1.423088947244892655e-01,2.374168770909661913e-02
3.840000000000000080e-01,1.891489679152812409e-01,-1.061512139936588162e-01,-4.628106714330090798e-02
3.850000000000000089e-01,1.201448686315297054e-01,9.415817917808795914e-03,-1.418838656084983052e-01
3.860000000000000098e-01,-5.148251358919532505e-02,1.571163827190254214e-01,-3.666770012684122254e-02
3.870000000000000107e-01,-1.941355857973867949e-01,1.242348952865939132e-01,4.457715861180061578e-02
3.880000000000000115e-01,-1.411147738396087981e-01,-8.085896924484584775e-03,8.116096933482883080e-02
3.890000000000000124e-01,-1.338703500918104854e-02,-1.002074277750768100e-01,7.786636404498648023e-02
3.900000000000000133e-01,1.406734118113205645e-01,-1.361889782209916577e-01,-5.479588425864189566e-02
3.910000000000000142e-01,1.823834836476126708e-01,-4.522715945578711927e-02,-1.052668429560019020e-01
3.920000000000000151e-01,1.544295140106272460e-02,1.062127678186962215e-01,-8.622962531371253236e-02
3.930000000000000160e-01,-1.555798195749272528e-01,1.378759529339829426e-01,-1.761231351309016204e-03
3.940000000000000169e-01,-1.819116086850356973e-01,8.535377176596975479e-02,8.348150875373518132e-02
3.950000000000000178e-01,-4.666064688989128573e-02,-6.413542230032709401e-02,1.042160010778709067e-01
3.960000000000000187e-01,1.289215716135418688e-01,-1.464974633566476225e-01,2.960172695441333837e-02
3.970000000000000195e-01,2.029845263319230708e-01,-8.955791634925971967e-02,-8.359825666891421148e-02
3.980000000000000204e-01,1.135063688290616490e-01,4.056127865638747138e-02,-8.979851081994749684e-02
3.990000000000000213e-01,-6.577821905028570504e-02,1.459876517915139615e-01,-6.402729141275322056e-02
4.000000000000000222e-01,-1.499237627714383458e-01,7.764812387275898953e-02,4.644879870900081587e-02
4.010000000000000231e-01,-9.205601627284550059e-02,-2.361704835904301567e-02,1.316668688627603834e-01
4.020000000000000240e-01,7.905735730189189514e-02,-1.461478524837107329e-01,1.054480618536370456e-01
4.030000000000000249e-01,2.063227484624162167e-01,-1.146719924928252810e-01,-4.861231942738242912e-02
4.040000000000000258e-01,1.616977302050160992e-01,-1.105370926220707734e-02,-1.285221814781953020e-01
4.050000000000000266e-01,-4.035940992414301792e-02,1.226208564941525109e-01,-8.385729574565022049e-02
4.060000000000000275e-01,-1.428386453458721783e-01,1.182280525173379226e-01,-1.990736694241347984e-02
4.069999999999999729e-01,-1.627290281834423979e-01,1.677768613177229098e-02,1.085829746351736208e-01
4.079999999999999738e-01,-4.288003182842595878e-02,-1.449224570217924613e-01,4.740931548004164581e-02
4.089999999999999747e-01,1.484184969378134211e-01,-1.321990763251000289e-01,1.979213054293929921e-02
4.099999999999999756e-01,1.974439174396170338e-01,-2.297314981996705779e-02,-1.085759571803071449e-01
4.109999999999999765e-01,4.412498446119725304e-02,1.072133609732481702e-01,-1.012781274881736082e-01
4.119999999999999774e-01,-1.095261269045900848e-01,1.523396094570806381e-01,-7.168234259732467195e-03
4.129999999999999782e-01,-2.042634996499669009e-01,3.625260338649039654e-02,7.721830354004484420e-02
4.139999999999999791e-01,-8.860509339721069078e-02,-8.203702682073249486e-02,1.076664556493046321e-01
4.149999999999999800e-01,8.906512753944355321e-02,-1.637875045121187922e-01,6.665133601590553236e-02
4.159999999999999809e-01,1.712432729416192012e-01,-7.202929631113551279e-02,-3.809459106737082129e-02
4.169999999999999818e-01,9.348911085588183789e-02,4.771381752566868778e-02,-1.196607540482354376e-01
4.179999999999999827e-01,-6.054111100615015839e-02,1.477604629771785971e-01,-8.858169648213916336e-02
4.189999999999999836e-01,-1.749715413639480743e-01,1.025327871995988099e-01,2.074984350360545293e-02
4.199999999999999845e-01,-1.213473786994145875e-01,-2.703551409710914719e-02,1.347896431055967126e-01
4.209999999999999853e-01,5.319423106415816643e-02,-1.652203784468011527e-01,9.177810795900512297e-02
4.219999999999999862e-01,1.645605379534241242e-01,-7.988962067847606152e-02,-2.464990997186516236e-02
4.229999999999999871e-01,1.500577908369374880e-01,2.608179938261545594e-02,-6.490419734227337312e-02
4.239999999999999880e-01,1.742997603219533995e-02,1.351349135795834044e-01,-1.167232415225171183e-01
4.249999999999999889e-01,-1.394660041003988604e-01,8.580473890389028746e-02,-4.449938017589626441e-03
4.259999999999999898e-01,-2.040005421545714182e-01,1.743952876152658066e-02,1.221399429114755353e-01
4.269999999999999907e-01,-4.861167350212054761e-02,-1.556304790532227755e-01,1.118991663635175854e-01
4.279999999999999916e-01,1.279097161367889479e-01,-1.529312718832627205e-01,4.194270728488697086e-02
4.289999999999999925e-01,1.826008281615480178e-01,-3.691265534181015912e-02,-3.259753295544456919e-02
4.299999999999999933e-01,6.701806807171691027e-02,1.007740337812630810e-01,-1.187942659927254396e-01
4.309999999999999942e-01,-9.040372482457474657e-02,1.531282634786428065e-01,-7.018751276359297409e-02
4.319999999999999951e-01,-1.755876464676445481e-01,4.662543727423463374e-02,2.700348946257456403e-02
4.329999999999999960e-01,-7.094359254026359751e-02,-6.192217823717853509e-02,1.292968346752514652e-01
4.339999999999999969e-01,5.073277159982473444e-02,-1.227389683273056448e-01,8.375762849868706450e-02
4.349999999999999978e-01,1.446827509954862756e-01,-9.663613450366015378e-02,-1.224181922073612309e-02
4.359999999999999987e-01,1.352233465021307479e-01,6.895416576163258815e-02,-8.718918135354997156e-02
4.369999999999999996e-01,-5.440105032379920907e-02,1.545846401220944966e-01,-8.046262174239904308e-02
4.380000000000000004e-01,-1.696238072995700785e-01,8.716788741048338285e-02,-1.876343786600726329e-02
4.390000000000000013e-01,-1.547046887244423741e-01,-5.001195507760680670e-02,6.387188549087254030e-02
4.400000000000000022e-01,-4.249492947589772820e-03,-1.134324948003946204e-01,1.227185315089373702e-01
4.410000000000000031e-01,1.492202041398958678e-01,-1.218609045847299371e-01,3.094376290254759534e-02
4.420000000000000040e-01,1.892294665161213807e-01,1.026253518882341148e-02,-4.368051314381613676e-02
4.430000000000000049e-01,3.950145909355331358e-02,1.429330422140277779e-01,-1.065984602458796421e-01
4.440000000000000058e-01,-1.400375027003345763e-01,1.176501565244025826e-01,-3.668144301869416535e-02
4.450000000000000067e-01,-1.875816900768586815e-01,1.843717084635226877e-02,2.765917372590848133e-02
4.460000000000000075e-01,-6.735598546827943622e-02,-1.136320238665872173e-01,7.840688751573894610e-02
4.470000000000000084e-01,9.724883783685742134e-02,-1.516492359859004935e-01,7.850335548179197820e-02
4.480000000000000093e-01,1.596138077364175067e-01,-2.392619907607409016e-02,1.857843655593603141e-03
4.490000000000000102e-01,9.581126853510603392e-02,1.150807713181549730e-01,-8.830142779151070598e-02
4.500000000000000111e-01,-6.940066367610478459e-02,1.713448634931567793e-01,-5.906439348759777441e-02
4.510000000000000120e-01,-2.010455059232372499e-01,2.271804267180647235e-02,-1.870499891526763514e-03
4.520000000000000129e-01,-1.470797071068948025e-01,-7.661898346975266894e-02,8.312230196908258761e-02
4.530000000000000138e-01,1.385220850047987062e-02,-1.409320594295334628e-01,1.130154153321666494e-01
4.540000000000000147e-01,1.918685612251893324e-01,-7.042154231298723699e-02,6.962109486401987443e-03
4.550000000000000155e-01,1.525784429518786678e-01,7.931220286531492913e-02,-5.604024184481194021e-02
4.560000000000000164e-01,2.253852399882082941e-03,1.596977427157694751e-01,-9.902145201442762168e-02
4.570000000000000173e-01,-1.595443091124164881e-01,1.236345738485512130e-01,-4.798673719896111994e-02
4.580000000000000182e-01,-1.483582155290446569e-01,-4.903020971629734603e-02,4.330516010980511171e-02
4.590000000000000191e-01,-3.589727429078570786e-02,-1.747239615106838950e-01,1.156902447867441674e-01
4.600000000000000200e-01,1.146239931370547221e-01,-1.036984935234942368e-01,4.294644143845005591e-02
4.610000000000000209e-01,1.872644663462807446e-01,8.262330890781528422e-03,3.349811003638378942e-03
4.620000000000000218e-01,7.955857043308900423e-02,1.648346718880740469e-01,-1.267651092148925351e-01
4.630000000000000226e-01,-8.566481396468141052e-02,1.340682747795689522e-01,-9.139289611768006139e-02
4.640000000000000235e-01,-1.933716865146503094e-01,-1.054620101656063638e-02,-1.211957170969230752e-02
4.650000000000000244e-01,-9.963902715108738373e-02,-1.406261894619633968e-01,1.123380375378688484e-01
4.660000000000000253e-01,7.969197646017241177e-02,-1.458419516612499689e-01,1.195485625263832813e-01
4.670000000000000262e-01,1.884786253037716020e-01,-4.460489434125571723e-02,4.314683252634590738e-02
4.680000000000000271e-01,1.412182567327731342e-01,1.030122565942678398e-01,-7.027979179233682927e-02
4.689999999999999725e-01,-4.109539733926784177e-02,1.756381360498880939e-01,-9.977574980758575907e-02
4.699999999999999734e-01,-1.593298811298673179e-01,4.099947231323411434e-02,-3.395472975884736289e-02
4.709999999999999742e-01,-1.893548880686442004e-01,-8.028962855902978257e-02,6.239308836669592989e-02
4.719999999999999751e-01,2.275718652767297692e-02,-1.487135304461820462e-01,1.109362205551703978e-01
4.729999999999999760e-01,1.395844341594776883e-01,-8.825613760637972260e-02,7.170796340735630103e-02
4.739999999999999769e-01,1.731330005616188716e-01,6.444943687898338491e-02,-2.518111777951553831e-02
4.749999999999999778e-01,3.393657211582420952e-02,1.660509363640084446e-01,-9.928233885749108978e-02
4.759999999999999787e-01,-1.354525542964697127e-01,9.974799502690077924e-02,-1.076670125693062474e-01
4.769999999999999796e-01,-1.783607247801527462e-01,-5.147017899143892933e-02,3.498891089324394910e-02
4.779999999999999805e-01,-8.409320919654951487e-02,-1.156764590336371440e-01,8.688675825203598380e-02
4.789999999999999813e-01,7.577251991711145274e-02,-1.011686248102671298e-01,1.192988717020381784e-01
4.799999999999999822e-01,1.859841812626408242e-01,-6.336474793402926617e-03,8.546674617367865795e-03
4.809999999999999831e-01,9.711410238615615642e-02,9.351896946136828426e-02,-9.925067847975238555e-02
4.819999999999999840e-01,-5.577376882595001806e-02,1.364241174129738332e-01,-1.165900507331005254e-01
4.829999999999999849e-01,-2.181276764769696785e-01,8.287215549092482106e-03,-3.612802045658737582e-02
4.839999999999999858e-01,-1.559535769686971607e-01,-1.176667073598837432e-01,6.613551463102930461e-02
4.849999999999999867e-01,1.595879493920168354e-02,-1.409156769896391936e-01,1.330464859428683311e-01
4.859999999999999876e-01,1.812325232554283794e-01,-1.681845567811581302e-02,3.281993001896298806e-02
4.869999999999999885e-01,1.575302919233459997e-01,8.615086877583244540e-02,-3.052990936070163266e-02
4.879999999999999893e-01,8.557893147671250672e-03,1.527124202244965756e-01,-6.847699624090888837e-02
4.889999999999999902e-01,-1.604695857063480890e-01,5.858393315233346998e-02,-6.056769794571072868e-02
4.899999999999999911e-01,-1.708875620459965328e-01,-1.045878988331172960e-01,2.601264500871872457e-02
4.909999999999999920e-01,-2.238869915723332507e-02,-1.251078283067294517e-01,7.034010633123546907e-02
4.919999999999999929e-01,9.461691891545492838e-02,-8.528529389626368640e-02,1.016493501201478217e-01
4.929999999999999938e-01,1.736465608980861386e-01,7.196007031760226491e-02,1.489808312902271038e-02
4.939999999999999947e-01,8.119570446139097453e-02,1.467271751893529652e-01,-1.146279951356855287e-01
4.949999999999999956e-01,-9.759055058735449650e-02,1.293954601676108596e-01,-9.469370181183232871e-02
4.959999999999999964e-01,-1.903996893238735222e-01,-2.115945007475288422e-02,-1.296955914798688346e-02
4.969999999999999973e-01,-7.560864728999232287e-02,-1.557967217587548636e-01,9.332824665908039108e-02
4.979999999999999982e-01,5.821143951686825330e-02,-8.855563170795491268e-02,1.276239971858492694e-01
4.989999999999999991e-01,1.459891645327995313e-01,3.376947787529078343e-02,5.516421664363591049e-02
5.000000000000000000e-01,1.369594124567704574e-01,1.399221936362319563e-01,-3.460818796300044187e-02
5.010000000000000009e-01,-4.004775540201007539e-02,1.343734041209877217e-01,-1.020770177418214991e-01
5.020000000000000018e-01,-1.740209857738151955e-01,1.410507746924777317e-02,-7.105623221826994074e-02
5.030000000000000027e-01,-1.379967099741753189e-01,-1.303201796126342848e-01,2.240385598145944526e-02
5.040000000000000036e-01,4.582095664878691604e-03,-1.328194493086158889e-01,1.224745170551902740e-01
5.050000000000000044e-01,1.399383866620106109e-01,-3.253239942744928781e-02,1.149244019805275435e-01
5.060000000000000053e-01,1.569286296712572859e-01,1.018781567956642542e-01,-1.609253861521823051e-02
5.070000000000000062e-01,3.374023168423895269e-02,1.636654346442824870e-01,-1.148260337750846571e-01
5.080000000000000071e-01,-1.369354991489018514e-01,5.741402073368540027e-02,-7.086684397589992912e-02
5.090000000000000080e-01,-2.126721010141199852e-01,-8.168925674548864480e-02,-4.379061518491491473e-02
5.100000000000000089e-01,-7.115329264837691459e-02,-1.672268804399369979e-01,5.291566784711970728e-02
5.110000000000000098e-01,9.223803945277633809e-02,-9.078035353792883455e-02,1.157789188360506816e-01
5.120000000000000107e-01,2.100957830939566562e-01,5.488529056631097358e-02,6.017764475921974499e-02
5.130000000000000115e-01,1.115273537525379999e-01,1.283078944791801734e-01,-4.670901672255012294e-02
5.140000000000000124e-01,-5.740216133404881654e-02,9.926932645358227392e-02,-1.303262794266243640e-01
5.150000000000000133e-01,-1.865144678966699776e-01,-2.136996949227731521e-02,-8.315808638375468687e-02
5.160000000000000142e-01,-1.327648646163222534e-01,-1.363773515944268766e-01,3.893071793014337562e-02
5.170000000000000151e-01,5.532709662208380036e-02,-1.281718521544090161e-01,1.285713777661647850e-01
5.180000000000000160e-01,1.546878106570974687e-01,1.725650228570451902e-02,8.768858649062648281e-02
5.190000000000000169e-01,1.475475904048940967e-01,1.374757660066225906e-01,-3.936808160705347615e-02
5.200000000000000178e-01,-1.200332901293392832e-02,1.510396936170729232e-01,-1.136312088284838762e-01
5.210000000000000187e-01,-1.461357387061461288e-01,2.416764678441484307e-02,-1.412517996236614115e-01
5.220000000000000195e-01,-1.812040895460304557e-01,-1.406349690706052147e-01,-5.495074020547664230e-03
5.230000000000000204e-01,-5.782634431295036875e-02,-1.120640860425706209e-01,1.074123688998010334e-01
5.240000000000000213e-01,1.257181955690714337e-01,-1.684968572904710707e-02,1.174470992416758452e-01
5.250000000000000222e-01,1.828746878873624970e-01,1.252699682602290421e-01,3.632630401989046104e-02
5.260000000000000231e-01,5.918413742522313226e-02,1.601857715249724312e-01,-7.348962016213665682e-02
5.270000000000000240e-01,-1.060161380024280120e-01,5.512220174942961126e-02,-1.225101323811677023e-01
5.280000000000000249e-01,-1.927735204658362622e-01,-9.239836053789894643e-02,-2.654355355674151498e-02
5.290000000000000258e-01,-6.992003046192486748e-02,-1.613000599270685009e-01,3.989082466515953690e-02
5.300000000000000266e-01,7.432145950338957252e-02,-9.817720087333700607e-02,1.182155558780726978e-01
5.310000000000000275e-01,2.134779652918087078e-01,5.826437779646037596e-02,7.290109278867500098e-02
5.320000000000000284e-01,1.285265679694492236e-01,1.570590761767193533e-01,-9.734418464085401942e-03
5.330000000000000293e-01,-3.986219770682685598e-02,9.528802208840976562e-02,-9.251723756605950699e-02
5.340000000000000302e-01,-1.571931493783885747e-01,-5.464962373507137317e-02,-1.052945506573414042e-01
5.350000000000000311e-01,-1.800669851679467803e-01,-1.563952232345336424e-01,-6.378267041547130284e-03
5.360000000000000320e-01,8.672666784511222360e-03,-1.254702766316170004e-01,7.781667601910352561e-02
5.370000000000000329e-01,1.434383430456857567e-01,1.455689557252876076e-02,9.611344247263280127e-02
5.380000000000000338e-01,1.554051874772210684e-01,1.173869798134754006e-01,1.468103188076155460e-02
5.390000000000000346e-01,1.710574188505202195e-02,1.509820004444012154e-01,-8.347785398337445595e-02
5.400000000000000355e-01,-1.544416444100554786e-01,1.633652876378369895e-02,-1.126671077381804498e-01
5.410000000000000364e-01,-1.651778173043489117e-01,-1.068134875847326637e-01,-4.891239216010657281e-02
5.420000000000000373e-01,-5.227079469643645948e-02,-1.089901872897729163e-01,4.587498141130348650e-02
5.430000000000000382e-01,1.095306155149385063e-01,-5.170936773418705057e-02,1.310737672007366572e-01
5.440000000000000391e-01,2.061509291212909600e-01,6.615892847993318227e-02,9.941185378327671573e-02
5.450000000000000400e-01,8.566291843443182841e-02,1.359996770383143094e-01,-2.801795143159013790e-02
5.460000000000000409e-01,-1.098490373121079888e-01,4.000269716085995408e-02,-1.045529220558321370e-01
5.470000000000000417e-01,-1.693266146898123603e-01,-7.214368784435096216e-02,-7.782042079051162964e-02
5.480000000000000426e-01,-1.211002338040381848e-01,-1.248193833858069618e-01,5.406231329108662255e-03
5.490000000000000435e-01,3.522662477744618187e-02,-9.479555778285994605e-02,8.250906845116515176e-02
5.500000000000000444e-01,1.682602955949657753e-01,8.540843628347143113e-02,1.236516882293207248e-01
5.510000000000000453e-01,1.759745188229034363e-01,1.392910711912478117e-01,1.391083629930905084e-02
5.520000000000000462e-01,-2.677737224007524248e-03,7.711668864854984151e-02,-1.334065640834130317e-01
5.530000000000000471e-01,-1.551073654228556364e-01,-5.461841844255443945e-02,-1.058133655703929199e-01
5.540000000000000480e-01,-1.673719699318825804e-01,-1.439074604500013288e-01,-2.974566806590480880e-02
5.550000000000000488e-01,-1.187543540914813393e-02,-1.308414868186486002e-01,5.259785774928937840e-02
5.560000000000000497e-01,1.509415310943331145e-01,4.871717320392981478e-03,1.260143589513209039e-01
5.570000000000000506e-01,1.974772263149148221e-01,1.417322485248919961e-01,5.673022327068752424e-02
5.580000000000000515e-01,7.208984548213170918e-02,1.323867075509341795e-01,-3.103374376950686006e-02
5.590000000000000524e-01,-7.639548999621501024e-02,8.017813221086706604e-03,-8.906463283128787656e-02
5.600000000000000533e-01,-1.752154035756403883e-01,-1.181487804391811725e-01,-1.037989955218100585e-01
5.610000000000000542e-01,-9.301035269072847889e-02,-1.359301995586306988e-01,-2.769291136681496096e-03
5.620000000000000551e-01,7.304584106708462976e-02,-2.605856042037378584e-02,1.197530095226342489e-01
5.629999999999999449e-01,1.778738926966384193e-01,9.698477595028087705e-02,9.280308572168914638e-02
5.639999999999999458e-01,9.524677733922423672e-02,1.667680281056996006e-01,6.546263121258493779e-03
5.649999999999999467e-01,-4.996007975871895324e-02,5.575942875042002450e-02,-9.609427465309020033e-02
5.659999999999999476e-01,-1.936372820018801011e-01,-8.811688610634649255e-02,-1.064362486328702256e-01
5.669999999999999485e-01,-1.548861019424780938e-01,-1.275149224563450756e-01,-1.044451722575743657e-03
5.679999999999999494e-01,-9.470980484404780330e-04,-7.229912273611777129e-02,8.148967029569934017e-02
5.689999999999999503e-01,1.684381331482789346e-01,7.327518884878785055e-02,1.283934810918009595e-01
5.699999999999999512e-01,1.405564193934611128e-01,1.179597243518562266e-01,6.713051551841568709e-02
5.709999999999999520e-01,2.489119384581059066e-02,8.953304211160405257e-02,-4.586493209768132545e-02
5.719999999999999529e-01,-1.462348610559365825e-01,-3.574782948703036228e-02,-1.212679910849230880e-01
5.729999999999999538e-01,-1.871036247615847359e-01,-1.311165407664589555e-01,-4.946300303225584227e-02
5.739999999999999547e-01,-5.182102920967422699e-02,-1.240687777671364289e-01,3.381019944745961448e-04
5.749999999999999556e-01,9.964226747249874117e-02,-5.109040295345551423e-03,1.103618248363373994e-01
5.759999999999999565e-01,1.801229658152649349e-01,1.374506989820563074e-01,1.082709670031090088e-01
5.769999999999999574e-01,1.032356994757377550e-01,1.171091593940374320e-01,1.427671008364914638e-02
5.779999999999999583e-01,-8.670808494785896270e-02,-1.150820318107806210e-02,-9.698824705371895949e-02
5.789999999999999591e-01,-1.690510612403903767e-01,-1.263888759315337784e-01,-9.934744714487736550e-02
5.799999999999999600e-01,-1.161978892465456159e-01,-1.017145890814106779e-01,-4.493350934572367533e-02
5.809999999999999609e-01,4.033887468915554192e-02,-3.752801170217679588e-02,9.340749562074525392e-02
5.819999999999999618e-01,1.924094190472556420e-01,8.686680273020778997e-02,9.581054484239806546e-02
5.829999999999999627e-01,1.546954814244265453e-01,1.533380735892384827e-01,4.670158142314602412e-02
5.839999999999999636e-01,-3.032855358446002320e-02,4.862215827041636851e-02,-4.830175413859951611e-02
5.849999999999999645e-01,-1.557614879064967983e-01,-1.291670758223232296e-01,-1.188342352423679832e-01
5.859999999999999654e-01,-1.984908451751562497e-01,-1.377502249746500318e-01,-6.408048927241638548e-02
5.869999999999999662e-01,-2.736825795816882206e-02,-6.580554540403808772e-02,2.434951825721527394e-02
5.879999999999999671e-01,1.277135069650332522e-01,4.367098561690793690e-02,8.996778091652199438e-02
5.889999999999999680e-01,1.721272094125932128e-01,1.747660268855133758e-01,1.104982676396652624e-01
5.899999999999999689e-01,7.495127804167303620e-02,6.953782347575120093e-02,-8.075524944596224747e-03
5.909999999999999698e-01,-1.026038452348671526e-01,-4.239942312019166770e-02,-1.014462775661770233e-01
5.919999999999999707e-01,-1.929622974705371419e-01,-1.366499661534890109e-01,-1.066597230671158941e-01
5.929999999999999716e-01,-9.136015205670924844e-02,-1.413256197061192321e-01,-4.574686188048807545e-04
5.939999999999999725e-01,8.118958826782750327e-02,2.190252335037924658e-02,8.076193496818999396e-02
5.949999999999999734e-01,2.162387421442191759e-01,1.340365937746717528e-01,1.227825405998420188e-01
5.959999999999999742e-01,1.192350877394548758e-01,8.909142547776380261e-02,6.651842545549317698e-02
5.969999999999999751e-01,-4.544870190077960476e-02,-5.061818780863915459e-04,-8.681264246657460770e-02
5.979999999999999760e-01,-1.766074954531500207e-01,-1.406176639042741872e-01,-1.262829027918740965e-01
5.989999999999999769e-01,-1.504239127430648526e-01,-1.079175039479250836e-01,-9.140264122047095374e-02
5.999999999999999778e-01,1.573842680143092837e-02,-4.097571058163423235e-02,4.044266536501534524e-03
6.009999999999999787e-01,1.504833465322440444e-01,9.572045303066202548e-02,8.969715295942770616e-02
6.019999999999999796e-01,1.807069852066491567e-01,1.714059709522582076e-01,8.510410300612382406e-02
6.029999999999999805e-01,4.550691895283166116e-02,3.024145115239762135e-02,-2.189123393832092602e-04
6.039999999999999813e-01,-1.526849111248584079e-01,-1.077701774879661067e-01,-1.023632958129367942e-01
6.049999999999999822e-01,-1.440563190100438151e-01,-1.066293897807878283e-01,-9.718500512361882837e-02
6.059999999999999831e-01,-8.731581507842102463e-02,-7.143409267703203225e-02,-2.320679462229603349e-02
6.069999999999999840e-01,1.303016683736337167e-01,6.644701510745146256e-02,8.840784595642539601e-02
6.079999999999999849e-01,1.246549439725694458e-01,1.601170430764983776e-01,1.165125648190300511e-01
6.089999999999999858e-01,6.957058979300741186e-02,1.083638628430834833e-01,5.159780156793111749e-02
6.099999999999999867e-01,-9.697717287483424708e-02,-5.571210549830023923e-02,-7.451025137819562716e-02
6.109999999999999876e-01,-1.715830779056604083e-01,-1.501794147037919802e-01,-1.410633766181071391e-01
6.119999999999999885e-01,-9.343904279274041491e-02,-1.227020275554201040e-01,-5.287880053782297723e-02
6.129999999999999893e-01,7.590425809700238058e-02,4.224073097601529353e-02,4.022843338988199569e-02
6.139999999999999902e-01,2.061147022398256423e-01,1.393349026958745907e-01,1.061152106531584177e-01
6.149999999999999911e-01,1.363499146784473703e-01,1.427969025345938725e-01,8.009575639721726315e-02
6.159999999999999920e-01,8.074712222364409386e-03,-1.274268174385944502e-02,-3.136852061733406971e-02
6.169999999999999929e-01,-1.653647676176088765e-01,-1.354742516684423193e-01,-8.596545670555973129e-02
6.179999999999999938e-01,-1.622234622142067761e-01,-1.517913080592190600e-01,-7.031160543600031843e-02
6.189999999999999947e-01,1.725026707010763813e-02,-3.027999960669271531e-02,-1.447126206189419499e-02
6.199999999999999956e-01,1.644601300794166776e-01,1.044742048344694252e-01,1.036640756673299218e-01
6.209999999999999964e-01,2.017773134151944758e-01,1.696724071196706873e-01,1.137421751946252058e-01
6.219999999999999973e-01,6.800398470536289652e-02,3.409384526304908708e-02,2.868116838535473417e-02
6.229999999999999982e-01,-7.975660398286171793e-02,-7.509355441226206462e-02,-8.582037148678148264e-02
6.239999999999999991e-01,-2.005791772585124311e-01,-1.349908648839077407e-01,-1.025872298507150698e-01
6.250000000000000000e-01,-9.815398656517571041e-02,-6.670111165773398576e-02,-1.886343682256217194e-02
6.260000000000000009e-01,8.199069111109939800e-02,8.237967311926835956e-02,5.762844219555817576e-02
6.270000000000000018e-01,1.824421351083381770e-01,1.488487883511192544e-01,1.013740665016450992e-01
6.280000000000000027e-01,8.851217922621872070e-02,8.033747373269899128e-02,5.548702938550658520e-02
6.290000000000000036e-01,-5.795644659430954082e-02,-3.415865363001745897e-02,-1.659333215135277290e-02
6.300000000000000044e-01,-1.915640501911975158e-01,-1.280420802014458348e-01,-1.168386291666181354e-01
6.310000000000000053e-01,-1.540610887209852564e-01,-1.072504536352657106e-01,-1.014657432230150480e-01
6.320000000000000062e-01,2.450885776127354615e-02,2.291987554752385539e-02,-8.747171973890539159e-03
6.330000000000000071e-01,1.686701678020718631e-01,1.553528011206221637e-01,1.136371566889174123e-01
6.340000000000000080e-01,1.617697966997292403e-01,1.398326807603553212e-01,1.166286516877488855e-01
6.350000000000000089e-01,-1.801676308810438304e-02,-9.434272738417261855e-03,1.438950715254694486e-02
6.360000000000000098e-01,-1.412455880448642842e-01,-1.237987190629014078e-01,-5.309760451390710401e-02
6.370000000000000107e-01,-1.800207098857519450e-01,-1.080779755866519004e-01,-8.747172127704551381e-02
6.380000000000000115e-01,-3.906094510703433942e-02,-1.336509995558497060e-02,-2.963423504521916357e-02
6.390000000000000124e-01,1.201203600702625690e-01,1.218127934334314044e-01,4.659877317971844457e-02
6.400000000000000133e-01,1.772363155494475206e-01,1.305770956116024117e-01,1.092486007858781416e-01
6.410000000000000142e-01,8.842340854417907181e-02,5.255492158832173605e-02,5.088411078030916079e-02
6.420000000000000151e-01,-1.007543376704418819e-01,-8.811958718764936749e-02,-3.037513135407135176e-02
6.430000000000000160e-01,-1.873363138372337311e-01,-1.549968916666086549e-01,-9.533709578896462644e-02
6.440000000000000169e-01,-9.291902179636414572e-02,-5.127724895908425395e-02,-1.034202884220010304e-01
6.450000000000000178e-01,6.846664541038093021e-02,7.356273787951479737e-02,8.193217216815118845e-03
6.460000000000000187e-01,1.529697069708865764e-01,1.616118926216325857e-01,9.678689744008048268e-02
6.470000000000000195e-01,1.466738430212647382e-01,8.498730810494835308e-02,1.005497055673163220e-01
6.480000000000000204e-01,-3.854237093220757443e-02,-5.982615046420890897e-02,-6.511194965074953642e-03
6.490000000000000213e-01,-1.490921772970751069e-01,-1.445907953584776306e-01,-9.928340994572831812e-02
6.500000000000000222e-01,-1.514634434851590827e-01,-1.164276542974830853e-01,-1.194074132569193369e-01
6.510000000000000231e-01,-1.537726844717496495e-02,2.935747340885268980e-02,-3.081670545101644274e-02
6.520000000000000240e-01,1.793968203313868748e-01,1.489608116199015453e-01,6.777917381244223660e-02
6.530000000000000249e-01,1.654887081877468580e-01,1.263747705617815908e-01,1.098428827916608230e-01
6.540000000000000258e-01,-4.187916258564376368e-03,-7.533235564281575347e-04,4.600850630523371093e-02
6.550000000000000266e-01,-1.220309562578586748e-01,-1.379812338111196246e-01,-4.243204648319093275e-02
6.560000000000000275e-01,-2.080961879678122628e-01,-1.074839806161284744e-01,-1.205334507219071594e-01
6.570000000000000284e-01,-1.069886092562086083e-01,-5.209872105483002308e-02,-8.963502201308030937e-02
6.580000000000000293e-01,9.571773238918947213e-02,1.139568795910467225e-01,2.520634651200372861e-02
6.590000000000000302e-01,1.828461388039084312e-01,1.431233313687770015e-01,8.648655704651453391e-02
6.600000000000000311e-01,1.045117438063037224e-01,2.455711024306426668e-02,7.102498512324126323e-02
6.610000000000000320e-01,-4.021323081167835906e-02,-6.319945151069525369e-02,-3.026772948126442084e-02
6.620000000000000329e-01,-1.718191964270050776e-01,-1.553575820237762528e-01,-6.512733930981007280e-02
6.630000000000000338e-01,-1.216361424532911156e-01,-8.299479321202708759e-02,-1.096806392937210717e-01
6.640000000000000346e-01,5.428203988187241605e-03,5.432125776782011778e-02,-7.383975334818996400e-03
6.650000000000000355e-01,1.928167408519130821e-01,1.412662903934113201e-01,7.431404979286694579e-02
6.660000000000000364e-01,1.478060577578433343e-01,1.033289691258592324e-01,1.015257940626703992e-01
6.670000000000000373e-01,-1.094102512681929817e-02,-4.977268289817828040e-02,4.954758753325851778e-02
6.680000000000000382e-01,-1.493290314203021829e-01,-1.325205017574357658e-01,-9.448153596382224961e-02
6.690000000000000391e-01,-1.654215182396601702e-01,-1.268395352938036791e-01,-1.159725637842224932e-01
6.700000000000000400e-01,-6.111503056462371658e-02,6.169925235722715368e-02,-7.800239367459443907e-02
6.710000000000000409e-01,1.615675682548393111e-01,1.154362591773617774e-01,3.634679246257316310e-02
6.720000000000000417e-01,1.789197537556829198e-01,1.122344191150630166e-01,1.150398212316952606e-01
6.730000000000000426e-01,8.004923939484866191e-02,2.250984429087043992e-02,9.903119471582227940e-02
6.740000000000000435e-01,-1.167941294152317067e-01,-1.257898982477616279e-01,-8.696550786259218263e-03
6.750000000000000444e-01,-1.576432853137040846e-01,-9.285803140247901599e-02,-1.106315712498737031e-01
6.760000000000000453e-01,-1.237073955391052860e-01,-2.321218842794514625e-02,-1.078532057358833618e-01
6.770000000000000462e-01,3.134409450328116270e-02,1.012276324907018660e-01,1.476145357852369153e-03
6.780000000000000471e-01,1.943546373013755879e-01,1.676325048895080660e-01,6.945167877016932001e-02
6.790000000000000480e-01,1.467451511813741560e-01,6.746723856211467307e-02,1.086754330779904076e-01
6.800000000000000488e-01,3.583517343698281029e-04,-9.469640774925851268e-02,4.207628910042274933e-02
6.810000000000000497e-01,-1.770048794167482786e-01,-1.539145080514095765e-01,-4.302489031822293725e-02
6.820000000000000506e-01,-1.374827406661878193e-01,-6.435385072637357651e-02,-1.408378231889131083e-01
6.830000000000000515e-01,-1.879270953416397813e-02,6.736826371688879600e-02,-5.320605007928159991e-02
6.840000000000000524e-01,1.325775989234036500e-01,1.481941671807323613e-01,5.602145341952066704e-02
6.850000000000000533e-01,1.817214845374636456e-01,5.673062276387726838e-02,1.071340669191312295e-01
6.860000000000000542e-01,3.247984741482787957e-02,-3.792941637422123091e-02,7.335756138163491979e-02
6.870000000000000551e-01,-1.330704099641590588e-01,-1.455913970580850481e-01,-1.410132635738951291e-02
6.879999999999999449e-01,-1.827862437693636710e-01,-1.116744797331189754e-01,-1.096989284814776228e-01
6.889999999999999458e-01,-9.645552969911078134e-02,1.234813305686686784e-02,-1.074716914791663258e-01
6.899999999999999467e-01,9.165136707777485348e-02,1.161125522886210931e-01,-1.989543474867064982e-02
6.909999999999999476e-01,1.931540869081445344e-01,1.465527907737080027e-01,8.877535520722185103e-02
6.919999999999999485e-01,1.332433072722600809e-01,-3.978781302371123957e-02,7.217129448355368015e-02
6.929999999999999494e-01,-5.997980092351712367e-02,-1.034061462166013801e-01,2.894366777938025756e-02
6.939999999999999503e-01,-2.006979641956734006e-01,-1.376131865625814521e-01,-8.099976665486675886e-02
6.949999999999999512e-01,-1.590928423731614028e-01,-2.066148291817246005e-02,-1.311704817454369398e-01
6.959999999999999520e-01,4.173112545818871005e-02,1.229963414630472068e-01,-4.020214027952621894e-02
6.969999999999999529e-01,1.609347755272831360e-01,1.361260387115867110e-01,4.344292089853316052e-02
6.979999999999999538e-01,1.671592138404167649e-01,4.515252988179089405e-02,1.143560366199209144e-01
6.989999999999999547e-01,-4.712733741208046745e-04,-1.034444580438578370e-01,7.115702206705826205e-02
6.999999999999999556e-01,-1.486195880856449603e-01,-1.422710561568288623e-01,-1.521312261845340214e-02
7.009999999999999565e-01,-1.894001773106615549e-01,-7.420500000329022239e-02,-1.078611355274991523e-01
7.019999999999999574e-01,-5.259139840707561381e-02,6.583226642647797833e-02,-1.108953428505590755e-01
7.029999999999999583e-01,1.403700616732619089e-01,1.428154386418639954e-01,1.444706971437560716e-02
7.039999999999999591e-01,1.826951706016717580e-01,9.492047602660083627e-02,1.045814835268857462e-01
7.049999999999999600e-01,6.714919379173651948e-02,-4.271046164337758549e-02,8.811817611519201510e-02
7.059999999999999609e-01,-1.125219814748864705e-01,-1.737834363543194205e-01,2.940352294594618734e-02
7.069999999999999618e-01,-2.170243932295256029e-01,-8.417894592938661436e-02,-8.160034037749190616e-02
7.079999999999999627e-01,-1.228248746051252976e-01,2.749182744350502777e-02,-1.285635247782439539e-01
7.089999999999999636e-01,6.509360962125500250e-02,1.346163651627431124e-01,-4.267126734901195706e-02
7.099999999999999645e-01,1.853335276530942988e-01,1.161352037732362175e-01,6.452161301756903500e-02
7.109999999999999654e-01,1.076138908078217715e-01,4.252210199728606241e-03,1.527791434612573995e-01
7.119999999999999662e-01,-2.739820861171479369e-02,-1.389331796809361586e-01,8.191608856218546286e-02
7.129999999999999671e-01,-1.769358312395526156e-01,-1.331019120471464978e-01,-4.712351861704035944e-02
7.139999999999999680e-01,-1.559119348229550950e-01,-1.346700409193900619e-02,-1.231011858495545397e-01
7.149999999999999689e-01,-1.307651205669312956e-02,1.055361554748782266e-01,-1.109294436361825537e-01
7.159999999999999698e-01,1.487395212340709150e-01,1.285764919527082051e-01,2.029607494243929403e-02
7.169999999999999707e-01,1.751148335283141677e-01,9.394077179746643594e-03,6.803430430787468786e-02
7.179999999999999716e-01,4.433017263505525940e-02,-6.542288599389395332e-02,1.036914620514484409e-01
7.189999999999999725e-01,-1.151423719301827714e-01,-1.458992586625728893e-01,3.238593430160663280e-03
7.199999999999999734e-01,-1.952376007465436158e-01,-7.319981929191739234e-02,-5.911998988832306567e-02
7.209999999999999742e-01,-8.451446587149334666e-02,8.434362343685676555e-02,-1.206961578307515215e-01
7.219999999999999751e-01,9.046328006081533202e-02,1.226707762862611351e-01,-4.250169291306980096e-02
7.229999999999999760e-01,1.923216227791602895e-01,1.020881834335233967e-01,4.084692003228376084e-02
7.239999999999999769e-01,1.085100440589765458e-01,-6.307435307943547176e-02,1.199944394899822020e-01
7.249999999999999778e-01,-8.537644267432584200e-02,-1.143260697014839705e-01,6.565298623783197285e-02
7.259999999999999787e-01,-1.626666625644108966e-01,-1.063389124320746060e-01,-5.616389393646640388e-02
7.269999999999999796e-01,-1.332288837378760027e-01,2.237926205002032168e-02,-1.006607786867624865e-01
7.279999999999999805e-01,3.634880622770828018e-02,1.573573873969087433e-01,-8.366581785315402309e-02
7.289999999999999813e-01,1.533303468850687190e-01,1.461995580642764803e-01,-8.107139029905688354e-03
7.299999999999999822e-01,1.395862531999760847e-01,-3.375055284419145596e-02,1.197588658413400176e-01
7.309999999999999831e-01,-5.705212810734510212e-03,-1.015067695468597070e-01,9.911185883841261424e-02
7.319999999999999840e-01,-1.614519252438333663e-01,-1.126665647213131866e-01,4.512282556198674195e-03
7.329999999999999849e-01,-1.689454770043150589e-01,-3.918023810936877016e-02,-8.413924220409341181e-02
7.339999999999999858e-01,-4.635531665540078977e-02,1.212164007389976150e-01,-1.270654312322951895e-01
7.349999999999999867e-01,1.570948204712678820e-01,1.443852861527701315e-01,-3.896593633449244726e-02
7.359999999999999876e-01,1.936262103320118833e-01,4.703738472814097266e-02,7.183282820085566678e-02
7.369999999999999885e-01,5.375222364719749873e-02,-8.522451003832900995e-02,1.508985141436054445e-01
7.379999999999999893e-01,-9.091212372918772155e-02,-1.586079047617313942e-01,4.296578488232430382e-02
7.389999999999999902e-01,-2.001380969030870371e-01,-3.856711760571441411e-02,-5.373983966164460474e-02
7.399999999999999911e-01,-9.657153423885352084e-02,6.393572152398002695e-02,-1.262191549112495204e-01
7.409999999999999920e-01,8.276810921154161005e-02,1.685664098839543545e-01,-4.820383783297801927e-02
7.419999999999999929e-01,1.754301275822259532e-01,1.042292218027859318e-01,2.547279142375424854e-02
7.429999999999999938e-01,1.176916613817392265e-01,-4.822497302763893018e-02,1.223578454250757175e-01
7.439999999999999947e-01,-6.822407369571113767e-02,-1.223021228380516967e-01,1.045383743067553467e-01
7.449999999999999956e-01,-1.630880660007899829e-01,-1.134614754871322295e-01,3.582586147590409963e-03
7.459999999999999964e-01,-2.036959782553797449e-01,3.318368528642084980e-02,-7.318952225408173473e-02
7.469999999999999973e-01,9.446161665176797118e-03,1.498298907180137529e-01,-1.103990417782455269e-01
7.479999999999999982e-01,1.427229330488985481e-01,1.372384919542258552e-01,-4.468434588567334054e-02
7.489999999999999991e-01,1.564222274539433799e-01,-4.631473388924560626e-03,8.280644142905303762e-02
7.500000000000000000e-01,3.910040389777744152e-02,-1.246441904454557575e-01,1.127439208008197968e-01
7.510000000000000009e-01,-1.208087265539679461e-01,-1.335419460624169274e-01,4.086650768081546287e-02
7.520000000000000018e-01,-1.960275590377086041e-01,-4.093425203135191430e-04,-8.502977760677607466e-02
7.530000000000000027e-01,-6.164831684316290222e-02,1.361722440306934734e-01,-1.296464445744995586e-01
7.540000000000000036e-01,7.175950757083982001e-02,1.445545903733713999e-01,-4.793588769107211267e-02
7.550000000000000044e-01,2.045515608393018159e-01,3.679531425430090236e-02,5.142383213361613470e-02
7.560000000000000053e-01,8.578541237848590073e-02,-8.098964614259565598e-02,1.076426931289280187e-01
7.570000000000000062e-01,-6.270984006868998706e-02,-1.633671163789998382e-01,8.514441466067818043e-02
7.580000000000000071e-01,-1.721380265691493106e-01,-2.110768945440743075e-02,-5.974911898436088831e-03
7.590000000000000080e-01,-1.592089718565043721e-01,6.528735857239557905e-02,-1.127205998224963257e-01
7.600000000000000089e-01,5.583987770183281713e-02,1.248915246969808934e-01,-1.017993535535240551e-01
7.610000000000000098e-01,1.805773181024742657e-01,5.897925553074965382e-02,-3.255950571484337447e-02
7.620000000000000107e-01,1.740897600838694215e-01,-3.860192878899545293e-02,1.053405551017229380e-01
7.630000000000000115e-01,-9.071709075103007863e-03,-1.214265581508960357e-01,1.084375361193197634e-01
7.640000000000000124e-01,-1.568455372819571869e-01,-7.934002522777909572e-02,5.216158820061247980e-02
7.650000000000000133e-01,-1.975720902864585571e-01,5.176852707247190516e-02,-6.828476838277119931e-02
7.660000000000000142e-01,-4.251498181180401320e-02,1.410301278258142277e-01,-1.133485853258454079e-01
7.670000000000000151e-01,1.311927383012462811e-01,1.111657484302005366e-01,-7.348277838317122945e-02
7.680000000000000160e-01,2.154448119680977269e-01,-5.879396206214352293e-03,5.468772544536033148e-02
7.690000000000000169e-01,6.702076815394282516e-02,-1.143930129647731248e-01,1.208732409749571218e-01
7.700000000000000178e-01,-9.367593779823675526e-02,-1.262375140560010878e-01,9.680420058493791058e-02
7.710000000000000187e-01,-1.689917228641788227e-01,-2.525130617195847638e-02,-3.538759920349573290e-02
7.720000000000000195e-01,-9.444423206032148688e-02,8.155493236209258867e-02,-7.987875383016108943e-02
7.730000000000000204e-01,7.123494736940021166e-02,1.660793545813911698e-01,-8.272169250129153550e-02
7.740000000000000213e-01,1.784702135807466894e-01,4.113060462717429977e-02,-8.948482601856693613e-03
7.750000000000000222e-01,8.662227603404111520e-02,-7.980321400774810503e-02,9.555098259431504815e-02
7.760000000000000231e-01,-3.056679868102104083e-02,-1.525940063047352413e-01,9.533682331533235854e-02
7.770000000000000240e-01,-1.856323015507593266e-01,-7.364892421098548358e-02,2.297606923493537151e-02
7.780000000000000249e-01,-1.474448712664835348e-01,4.833864681534538743e-02,-7.570219552525096762e-02
7.790000000000000258e-01,7.431787876007588979e-03,1.265021645178254495e-01,-8.986784503954377279e-02
7.800000000000000266e-01,1.460427745615047734e-01,1.085198560100708864e-01,-6.222429438338866053e-02
7.810000000000000275e-01,1.638458779416361588e-01,-2.442873064615998929e-02,6.780580622209082808e-02
7.820000000000000284e-01,4.653981158227605240e-03,-1.040580586289228116e-01,1.155840761632972030e-01
7.830000000000000293e-01,-1.590932261119051283e-01,-1.097149545585282965e-01,8.946198100591840063e-02
7.840000000000000302e-01,-1.828299350817063351e-01,3.696090804742662578e-02,-1.605479151462926857e-02
7.850000000000000311e-01,-5.866126412352264119e-02,1.213960721854586144e-01,-1.015612553777175131e-01
7.860000000000000320e-01,1.257945443651111439e-01,1.251427376544967385e-01,-1.379692579545163666e-01
7.870000000000000329e-01,1.710016434401896435e-01,4.040602175308269546e-03,1.546198790304997676e-02
7.880000000000000338e-01,1.046363983012876669e-01,-1.281482395918658590e-01,1.186388736311596165e-01
7.890000000000000346e-01,-7.703870187385530865e-02,-1.012084507300727160e-01,1.301630319889426068e-01
7.900000000000000355e-01,-1.926886604720634555e-01,-1.084463552775588417e-02,4.807810472933946380e-03
7.910000000000000364e-01,-1.320480622927000802e-01,9.360741942903538781e-02,-7.841939976192226214e-02
7.920000000000000373e-01,9.404822067755669313e-03,1.377365457830999618e-01,-1.203461849062548161e-01
7.930000000000000382e-01,1.628053943184269436e-01,3.074351191801484584e-02,-5.994650640908154304e-02
7.940000000000000391e-01,1.507958679331608542e-01,-9.782865371265349330e-02,6.621752431549891849e-02
7.950000000000000400e-01,-4.763433811444985067e-03,-1.369084064357928565e-01,1.175475814403873914e-01
7.960000000000000409e-01,-1.682125063047277824e-01,-8.848735369035438947e-02,5.986885305003501051e-02
7.970000000000000417e-01,-1.660495168597158067e-01,7.110091800107128102e-02,-1.247050036663961692e-02
7.980000000000000426e-01,-1.257653842577507661e-02,1.509758209519372618e-01,-1.179300868601746710e-01
7.990000000000000435e-01,1.199132706707880802e-01,9.424694242717412962e-02,-9.264908613060884868e-02
8.000000000000000444e-01,1.720340243442781691e-01,-6.094955661881285014e-02,1.209863349755770957e-02
8.010000000000000453e-01,6.714397884832423724e-02,-1.588560232296110653e-01,9.989904782071597211e-02
8.020000000000000462e-01,-1.207433760861900962e-01,-9.859174311232715704e-02,8.194921752948609861e-02
8.030000000000000471e-01,-1.889273774906325420e-01,2.421400002421383174e-02,2.771739778586255337e-02
8.040000000000000480e-01,-8.176430981686304278e-02,1.272024740777804031e-01,-8.816617974072810116e-02
8.050000000000000488e-01,1.029856201143248134e-01,1.401248156833727054e-01,-9.583917168262370834e-02
8.060000000000000497e-01,1.981467785032242634e-01,-2.497585056313534127e-02,-5.020405324799924462e-02
8.070000000000000506e-01,1.197011408052645193e-01,-1.171505634544907637e-01,6.083026680004011838e-02
8.080000000000000515e-01,-8.797634250135474843e-02,-1.440134880745665424e-01,1.006809465926387093e-01
8.090000000000000524e-01,-1.579488071999416432e-01,-5.663741332372075957e-03,4.709602555233004251e-02
8.100000000000000533e-01,-1.458384299823093644e-01,1.103305434435741667e-01,-3.943106241578138438e-02
8.110000000000000542e-01,2.440086865172956532e-02,1.466893357754283089e-01,-8.756926261770278663e-02
8.120000000000000551e-01,1.659305422425189913e-01,7.235405089319336090e-03,-5.566037152660267134e-02
8.129999999999999449e-01,1.727994826076172108e-01,-8.716130780968613101e-02,2.642307035306792895e-02
8.139999999999999458e-01,3.013765350552036464e-03,-1.381242020127679548e-01,6.764569680948946673e-02
8.149999999999999467e-01,-1.386654742127276518e-01,-7.500725586049282467e-02,9.944981888495081634e-02
8.159999999999999476e-01,-1.997934022666727205e-01,7.742909138824390081e-02,-9.929067038475082249e-03
8.169999999999999485e-01,-6.353529289354926946e-02,1.377152774226279019e-01,-9.489104441145966573e-02
8.179999999999999494e-01,1.169772514961906623e-01,8.181393057688995940e-02,-1.021857897448479324e-01
8.189999999999999503e-01,1.793067556205220348e-01,-4.673174693877803904e-02,-1.384425735579860803e-02
8.199999999999999512e-01,1.076740979938420745e-01,-1.554665451027643919e-01,7.675063079748534189e-02
8.209999999999999520e-01,-7.492667327274520062e-02,-1.223016126439199769e-01,1.209983764528279465e-01
8.219999999999999529e-01,-1.819636335200997546e-01,2.282763043623494900e-02,5.675557471976454271e-02
8.229999999999999538e-01,-9.968073547007572088e-02,1.407961088873430910e-01,-5.908012203717916133e-02
8.239999999999999547e-01,2.386627481472522114e-02,1.214024041757407885e-01,-1.001089140180522197e-01
8.249999999999999556e-01,1.773724677408409500e-01,-8.394220416953993014e-03,-4.455270064920439227e-02
8.259999999999999565e-01,1.722859114160104621e-01,-1.338867855055810019e-01,7.599288659995605093e-03
8.269999999999999574e-01,-1.724265939754730456e-02,-1.420342444618604150e-01,1.345956147826532778e-01
8.279999999999999583e-01,-1.522571212252247230e-01,-3.408512881747854245e-02,9.139877378896112126e-02
8.289999999999999591e-01,-1.685948604752398605e-01,1.185501884793098426e-01,8.848075942474574462e-03
8.299999999999999600e-01,-2.731653405759175424e-02,1.574624121238540342e-01,-1.011637235258008582e-01
8.309999999999999609e-01,1.156958137737889997e-01,1.985644708478212853e-02,-1.112562909045064358e-01
8.319999999999999618e-01,1.815591570079289618e-01,-8.813794909906923214e-02,-1.758019821290017102e-03
8.329999999999999627e-01,7.926391634529018904e-02,-1.508173989669202297e-01,1.036246989369767890e-01
8.339999999999999636e-01,-1.037255233060044440e-01,-4.080025254415155928e-02,9.819665926726586780e-02
8.349999999999999645e-01,-2.009249955622589567e-01,7.024363678977618708e-02,3.455564163733036709e-02
8.359999999999999654e-01,-8.285290080885526764e-02,1.297784445206368042e-01,-4.991110818972507857e-02
8.369999999999999662e-01,1.170706816137743328e-01,8.304428105661537662e-02,-1.058408490149720937e-01
8.379999999999999671e-01,1.793818524256375890e-01,-4.327680926031934189e-02,-5.923877307536708214e-02
8.389999999999999680e-01,1.458064332801423113e-01,-1.293593837009049952e-01,3.645092455584136165e-02
8.399999999999999689e-01,-7.035840279817030807e-02,-9.744569671603350858e-02,1.239596547075968308e-01
8.409999999999999698e-01,-1.975648198521657017e-01,4.535869294710031391e-02,5.218270848952491492e-02
8.419999999999999707e-01,-1.625703486749104920e-01,1.210042304666870405e-01,-3.181829438066941657e-02
8.429999999999999716e-01,2.038178105958112635e-02,1.059521334002389986e-01,-9.901904882503287375e-02
8.439999999999999725e-01,1.663218142794896937e-01,-5.367944275691677314e-03,-7.392572755865763068e-02
8.449999999999999734e-01,1.636726886761069033e-01,-1.347547507337650552e-01,-1.111686373394135891e-03
8.459999999999999742e-01,-8.802909486145548551e-03,-1.353802332048643087e-01,6.817409461207739330e-02
8.469999999999999751e-01,-1.402455684816243386e-01,-7.006657046117810428e-03,1.147917437450195338e-01
8.479999999999999760e-01,-1.721423052929975106e-01,1.137596284210901643e-01,7.007236929165568118e-02
8.489999999999999769e-01,-4.460059151296734414e-02,1.376925126853009995e-01,-1.163304534787551886e-01
8.499999999999999778e-01,1.032508211766878653e-01,4.045373154442831465e-02,-9.282891742465960994e-02
8.509999999999999787e-01,1.488492359916757102e-01,-1.005146188955142045e-01,-4.659742831508086047e-02
8.519999999999999796e-01,8.396774914313830107e-02,-1.149237825931045537e-01,3.015211977639994587e-02
8.529999999999999805e-01,-7.351809470597309160e-02,-7.436559298860524747e-02,1.117119611477858376e-01
8.539999999999999813e-01,-1.867298481889015094e-01,6.249485642198533003e-02,4.071980357435577708e-02
8.549999999999999822e-01,-1.394625375605221262e-01,1.334278940618810472e-01,-3.867003497450293564e-02
8.559999999999999831e-01,6.384625480636751949e-02,6.700575761717245116e-02,-7.348785005254401814e-02
8.569999999999999840e-01,1.630464866542994107e-01,-8.651714733926856027e-02,-1.046287440430886534e-01
8.579999999999999849e-01,1.494220884164427776e-01,-1.381041664762083232e-01,4.491212554450067090e-03
8.589999999999999858e-01,-1.614332259320189547e-02,-1.179621717981150231e-01,1.091459355583417473e-01
8.599999999999999867e-01,-1.650468618553674049e-01,1.304947449112931444e-02,1.096969566230538151e-01
8.609999999999999876e-01,-1.834782724160851086e-01,1.232936013207716341e-01,1.673807449046786633e-02
8.619999999999999885e-01,-2.515908452305116311e-02,1.005486735851141983e-01,-6.267591635117440718e-02
8.629999999999999893e-01,1.423631666479632796e-01,-1.313022987524451075e-02,-1.020489747284388099e-01
8.639999999999999902e-01,1.864770701106716055e-01,-1.422109699566296848e-01,-4.829035184025379235e-02
8.649999999999999911e-01,8.389731696210437489e-03,-1.198029533131182572e-01,5.749885239405155141e-02
8.659999999999999920e-01,-1.145316762413681189e-01,-5.836371173822754721e-03,9.425998174838536026e-02
8.669999999999999929e-01,-1.871947520814548627e-01,1.293002535905356520e-01,7.209095948139043752e-02
8.679999999999999938e-01,-8.726375723382678862e-02,1.597380576448801381e-01,-1.547971494030771049e-02
8.689999999999999947e-01,6.113067315109230182e-02,3.129903017569625467e-02,-1.076211561717608511e-01
8.699999999999999956e-01,2.068269604872218226e-01,-9.980245436145784854e-02,-1.133753163733662722e-01
8.709999999999999964e-01,1.150941974906462828e-01,-1.394326028353483904e-01,-2.224980670033097573e-05
8.719999999999999973e-01,-8.252643705050241585e-02,-5.138294528167201836e-02,6.604891990926978207e-02
8.729999999999999982e-01,-1.753277791615888981e-01,9.105483471085684677e-02,6.898977004547267311e-02
8.739999999999999991e-01,-1.272953761010368612e-01,1.616601805650647317e-01,2.222561053818198143e-02
8.750000000000000000e-01,2.021334177190561160e-02,7.419006090724501734e-02,-9.782304915611031437e-02
8.760000000000000009e-01,1.822233639872696820e-01,-3.123033525901286120e-02,-1.001280491306807685e-01
8.770000000000000018e-01,1.763569974264378171e-01,-1.372034023554346283e-01,-4.718901458032546958e-02
8.780000000000000027e-01,1.071659903081571960e-03,-1.365348959359805048e-01,4.499103177905655615e-02
8.790000000000000036e-01,-1.549601388237683008e-01,2.351684222144262079e-02,1.002533561903207193e-01
8.800000000000000044e-01,-1.952433913694238132e-01,1.337190487657107518e-01,8.123738372856946499e-02
8.810000000000000053e-01,-6.938119153169620967e-02,1.103220005307302687e-01,-3.960539064796727432e-02
8.820000000000000062e-01,1.242854914136000133e-01,-6.812807129111600468e-03,-1.089702458350339798e-01
8.830000000000000071e-01,1.682585170146973508e-01,-1.121161610323153784e-01,-5.886649638578966837e-02
8.840000000000000080e-01,6.845226121002902231e-02,-1.235024323389322387e-01,6.891617104811511955e-03
8.850000000000000089e-01,-7.274551151813224426e-02,-3.321796370081726846e-02,1.099090630995706724e-01
8.860000000000000098e-01,-1.847661136276168292e-01,1.199421545874952005e-01,9.226875389351385515e-02
8.870000000000000107e-01,-1.421240557088883638e-01,1.357690258252350901e-01,-2.810860579932420323e-03
8.880000000000000115e-01,5.080765334748506973e-02,4.020612341079050217e-02,-9.430341037935674464e-02
8.890000000000000124e-01,1.639247757084377477e-01,-7.040108204135854530e-02,-1.006331822548346272e-01
8.900000000000000133e-01,1.599883766161619980e-01,-1.515722115400151282e-01,-3.487050305369081282e-02
8.910000000000000142e-01,-2.248725458804692184e-02,-4.588080858604937085e-02,7.137643304827903656e-02
8.920000000000000151e-01,-1.631646963103771386e-01,3.745700434785080579e-02,1.183306282550988103e-01
8.930000000000000160e-01,-1.369113755179622582e-01,1.535859312289552525e-01,4.951652478789315276e-02
8.940000000000000169e-01,-1.235836414730805133e-02,7.070222276452912957e-02,-9.416379165079864777e-02
8.950000000000000178e-01,1.558703739831934776e-01,-6.419118989327526892e-02,-1.221816477089546216e-01
8.960000000000000187e-01,1.837430966747385097e-01,-1.554993171201244362e-01,-6.768190051110022087e-02
8.970000000000000195e-01,3.097702126129593669e-02,-8.571282056398422944e-02,3.030691753140196676e-02
8.980000000000000204e-01,-1.183671533644725382e-01,4.898165531342315443e-02,7.034386246580096036e-02
8.990000000000000213e-01,-1.821280150804061582e-01,1.260225504169746602e-01,9.736825618284432327e-02
9.000000000000000222e-01,-7.728875610484571557e-02,9.368234962055077553e-02,9.337444100958366966e-03
9.010000000000000231e-01,7.592381635019898600e-02,1.407214910563547470e-03,-7.907906444490335474e-02
9.020000000000000240e-01,1.856491115010335535e-01,-1.554708558699789966e-01,-1.044315839880735064e-01
9.030000000000000249e-01,1.157173633958937381e-01,-1.545569266284128884e-01,-3.308887532589198377e-02
9.040000000000000258e-01,-7.822815392988979877e-02,-4.148958280115765812e-02,6.545242926317441923e-02
9.050000000000000266e-01,-1.630338805303042371e-01,1.344019649265843219e-01,9.308673430714663188e-02
9.060000000000000275e-01,-1.314411035338940437e-01,1.096177259416555028e-01,2.120371179439789824e-02
9.070000000000000284e-01,1.461253548909331387e-02,1.082034358248598095e-02,-6.509481593061383631e-02
9.080000000000000293e-01,2.070388253955506574e-01,-8.951890911407940632e-02,-1.253695716691465289e-01
9.090000000000000302e-01,1.340706637751145625e-01,-1.536898604262472157e-01,-8.528230226717252449e-02
9.100000000000000311e-01,1.319081089833743989e-02,-2.157532898852554740e-02,1.528682994361191087e-02
9.110000000000000320e-01,-9.932983189732304263e-02,7.232144547734062345e-02,1.438335436819813129e-01
9.120000000000000329e-01,-1.506721625706225753e-01,1.737650535036420751e-01,9.177144614252828736e-02
9.130000000000000338e-01,-2.052260395612904437e-02,7.772955125600938819e-02,-2.445604985197396414e-02
9.140000000000000346e-01,1.304251732738316849e-01,-7.721323458012986640e-02,-1.030744166739046147e-01
9.150000000000000355e-01,1.597459885355182740e-01,-1.663339086688266633e-01,-8.772785711596295388e-02
9.160000000000000364e-01,8.577665303828692356e-02,-9.375882423834240587e-02,-3.373565774733980338e-02
9.170000000000000373e-01,-7.471695252551154021e-02,6.807225583491918752e-02,7.928028548464625958e-02
9.180000000000000382e-01,-1.920077570269553280e-01,1.456051797234515499e-01,7.240116828640069668e-02
9.190000000000000391e-01,-1.247585048103074662e-01,1.196278415111037413e-01,6.744743207873790669e-02
9.200000000000000400e-01,8.191191282604438906e-02,-1.336111433664905444e-02,-4.961308084278771152e-02
9.210000000000000409e-01,1.749005386277763252e-01,-1.125826805112029178e-01,-1.260034960459703590e-01
9.220000000000000417e-01,1.189949259672911513e-01,-1.700925739144144577e-01,-7.318410373295128335e-02
9.230000000000000426e-01,-1.308518564526475053e-02,-3.796106601433616584e-02,1.987429210958638684e-02
9.240000000000000435e-01,-1.268111225560662192e-01,1.037314941428663789e-01,1.334471440130375886e-01
9.250000000000000444e-01,-1.396195635601492901e-01,1.564403905050367194e-01,7.680345492105955518e-02
9.260000000000000453e-01,-1.107827574811488455e-02,4.259992627404283333e-02,-1.910302521285918431e-02
9.270000000000000462e-01,1.440921641745733506e-01,-1.137126473176598290e-01,-1.128512929010464239e-01
9.280000000000000471e-01,1.817825618769377816e-01,-1.395926425992341235e-01,-1.082101478848742360e-01
9.290000000000000480e-01,7.276657756612217587e-02,-3.169847559545630605e-02,-4.284332542442996841e-03
9.300000000000000488e-01,-1.379239740087718491e-01,9.326978814140814145e-02,8.727264537613249606e-02
9.310000000000000497e-01,-1.690644955207696587e-01,1.250994812201556283e-01,8.191992985335491695e-02
9.320000000000000506e-01,-9.134935060655401118e-02,8.559433182225090198e-02,1.996059277703071677e-02
9.330000000000000515e-01,1.175921097106822355e-01,-7.847886315128708989e-02,-6.863395033453646710e-02
9.340000000000000524e-01,1.669983134731347629e-01,-1.446883764219016322e-01,-1.101015267028476324e-01
9.350000000000000533e-01,1.421593691987154129e-01,-1.012133496587200865e-01,-6.213053743228255654e-02
9.360000000000000542e-01,-7.943016285096667073e-02,3.040218353616529201e-02,4.134321691665070880e-02
9.370000000000000551e-01,-1.596282015321511261e-01,1.430811366088808878e-01,1.009778540687552711e-01
9.379999999999999449e-01,-1.218153705087500760e-01,1.395459701423496235e-01,6.818128370604899235e-02
9.389999999999999458e-01,3.087090066907590899e-02,1.341424191491468257e-02,-4.585309569410774694e-02
9.399999999999999467e-01,1.927174578780793957e-01,-1.288687918060199833e-01,-1.132327161588311398e-01
9.409999999999999476e-01,1.776865540534658949e-01,-1.502183148503278554e-01,-1.229897097852344079e-01
9.419999999999999485e-01,-4.977061161719941763e-03,-2.167332292005147432e-02,2.405792851229065707e-02
9.429999999999999494e-01,-1.288203658502004856e-01,8.741082353677159800e-02,1.022363529379936992e-01
9.439999999999999503e-01,-1.598920813618256720e-01,1.245072291240300194e-01,8.024691011663076523e-02
9.449999999999999512e-01,-8.164328375657977158e-03,8.341719249712303830e-03,-5.440525190091897393e-04
9.459999999999999520e-01,1.247858983358400842e-01,-8.702762404540212438e-02,-1.149988673843924530e-01
9.469999999999999529e-01,1.776108818372771625e-01,-1.303619751899458834e-01,-9.860794218985051429e-02
9.479999999999999538e-01,8.348562540509606167e-02,-8.742698041909502393e-02,-5.732702211604241704e-02
9.489999999999999547e-01,-1.209474730780092100e-01,8.086295931098641532e-02,6.074023402398693455e-02
9.499999999999999556e-01,-1.751522944826588712e-01,1.503225403202217147e-01,1.037096163722486669e-01
9.509999999999999565e-01,-8.696812271931554650e-02,8.578665281177501323e-02,7.414526341267047016e-02
9.519999999999999574e-01,4.380867756134138730e-02,-3.596741692906406385e-02,-5.295407451264848991e-02
9.529999999999999583e-01,1.711219216820350775e-01,-1.172155658804052009e-01,-1.061283991975261326e-01
9.539999999999999591e-01,1.279044620525172371e-01,-1.249407030611166813e-01,-8.001184480236886443e-02
9.549999999999999600e-01,-3.453683765775449749e-02,2.033738371411081269e-02,-3.810100005761247674e-03
9.559999999999999609e-01,-1.824959469439554893e-01,1.487367844291619667e-01,9.384557390137694688e-02
9.569999999999999618e-01,-1.857965244419927386e-01,1.175366393147354582e-01,1.109556219318146297e-01
9.579999999999999627e-01,3.965994040469537907e-03,-2.163882296400144664e-02,-2.676749764049219174e-02
9.589999999999999636e-01,1.509834191670560710e-01,-1.427669202569102069e-01,-8.245170935354664832e-02
9.599999999999999645e-01,1.681666329535389248e-01,-1.616023694533683386e-01,-1.194706047739980681e-01
9.609999999999999654e-01,3.620101199602705766e-02,1.796728186356666077e-02,-2.454617567443975051e-02
9.619999999999999662e-01,-1.392961044740942400e-01,1.165930177818300384e-01,6.433518235026200460e-02
9.629999999999999671e-01,-1.845010341862009795e-01,1.169366483612443441e-01,1.066375353427986422e-01
9.639999999999999680e-01,-6.696672588788543656e-02,4.783981753242668410e-03,6.524685184161517493e-02
9.649999999999999689e-01,1.036448065693116732e-01,-1.051918886022952387e-01,-4.558387458136823472e-02
9.659999999999999698e-01,2.016663555928778495e-01,-1.783692250834736370e-01,-6.806515080313732535e-02
9.669999999999999707e-01,1.050176893629930358e-01,-5.356529367152118581e-02,-8.024649116786260195e-02
9.679999999999999716e-01,-6.152436506361042001e-02,4.904424632485446245e-02,4.293998268459181360e-03
9.689999999999999725e-01,-1.768116388135497485e-01,1.365452514584406529e-01,1.013834689103905451e-01
9.699999999999999734e-01,-1.326356270527361825e-01,1.040185039117817734e-01,8.163223452095694221e-02
9.709999999999999742e-01,3.212762653993514461e-02,-5.577871188052198337e-02,8.447454695787883980e-03
9.719999999999999751e-01,1.854688757589833259e-01,-1.484726934030525525e-01,-8.540503802029413005e-02
9.729999999999999760e-01,1.701794478361906282e-01,-1.081934670327369535e-01,-1.118074177615737408e-01
9.739999999999999769e-01,1.400411202838893615e-02,3.270154535365908666e-02,-3.383344237433623392e-02
9.749999999999999778e-01,-1.359827865040730832e-01,1.293303599658528202e-01,4.472314956622731180e-02
9.759999999999999787e-01,-1.921773519531685959e-01,1.034824708430294310e-01,1.143857583995794014e-01
9.769999999999999796e-01,-8.193210533076185006e-03,-2.262329785089669740e-02,6.682326492242732230e-02
9.779999999999999805e-01,1.273483628012975211e-01,-1.253229848527017964e-01,-6.107710925696677173e-02
9.789999999999999813e-01,1.950608395294796127e-01,-1.175486825251550183e-01,-1.107352717786139334e-01
9.799999999999999822e-01,6.045749503821296056e-02,-3.953934806987449008e-02,-6.469954488907601886e-02
9.809999999999999831e-01,-1.118326970381676583e-01,9.056579942351133949e-02,1.644047149996703122e-02
9.819999999999999840e-01,-1.738488991450244381e-01,1.142615441234741125e-01,1.021998113297209465e-01
9.829999999999999849e-01,-1.111363398532721480e-01,2.396531761541570438e-02,9.374002482589145757e-02
9.839999999999999858e-01,8.697608730223332918e-02,-1.087118658491503936e-01,-2.142196198608738167e-02
9.849999999999999867e-01,2.026016251900620568e-01,-1.727712927904803963e-01,-1.156001234555665419e-01
9.859999999999999876e-01,1.257977279795655379e-01,-5.015921252912362849e-02,-1.148574558898517034e-01
9.869999999999999885e-01,-1.680940238883813290e-02,8.974247706021706850e-02,-2.911525208586536462e-02
9.879999999999999893e-01,-1.476514430635247066e-01,1.446426350458398791e-01,8.946507546279953982e-02
9.889999999999999902e-01,-1.539244369096327836e-01,6.308067381168520893e-02,1.365208828763837534e-01
9.899999999999999911e-01,5.394499943334818762e-03,-4.804764971235591514e-02,4.640605565346273692e-02
9.909999999999999920e-01,1.653569873274551572e-01,-1.300292963502697741e-01,-6.832853631069310540e-02
9.919999999999999929e-01,1.689221410348535068e-01,-9.445568568572924872e-02,-1.050927857738436916e-01
9.929999999999999938e-01,1.727254815640625121e-02,2.910143180562669782e-02,-7.857179105946481001e-02
9.939999999999999947e-01,-1.322857500401470321e-01,1.165293693835449118e-01,1.846288594814697939e-02
9.949999999999999956e-01,-2.015491500711941997e-01,9.282622618789133917e-02,1.247578470707164516e-01
9.959999999999999964e-01,-8.455578943420166693e-02,-3.663638489639631929e-02,8.883485986891734298e-02
9.969999999999999973e-01,1.023216921080196407e-01,-1.531247330262815731e-01,-3.244794036239895263e-02
9.979999999999999982e-01,1.937935539168104682e-01,-1.416028075035644651e-01,-8.804837283110353297e-02
9.989999999999999991e-01,1.110177823617063270e-01,-3.747608955170435990e-02,-9.046817550417297904e-02
1.000000000000000000e+00,-5.863326975983255279e-02,1.212087794820554260e-01,-8.286749635581024814e-03
1.000999999999999890e+00,-1.698730390798685042e-01,1.251794058518203023e-01,7.265201678453910017e-02
1.002000000000000002e+00,-1.147566689346261048e-01,2.590437867812689712e-02,1.366794742218357395e-01
1.002999999999999892e+00,6.504095879969701288e-02,-7.747809518621077973e-02,4.095930926097193087e-02
1.004000000000000004e+00,1.762943636398366376e-01,-1.416886010107619442e-01,-6.240619332356964200e-02
1.004999999999999893e+00,1.672953191631359748e-01,-4.906133870500889449e-02,-1.020920919852310871e-01
1.006000000000000005e+00,1.950657554472137734e-02,9.446118269742298512e-02,-5.283221712752831506e-02
1.006999999999999895e+00,-1.450482715966662506e-01,1.110715994212489871e-01,4.936062283719839378e-02
1.008000000000000007e+00,-1.415222227333363392e-01,7.038987269060836827e-02,1.089222268162085006e-01
1.008999999999999897e+00,-2.582431423850231958e-02,-4.702718760296076966e-02,9.345933654237205401e-02
1.010000000000000009e+00,1.406045927184590427e-01,-1.455818657421614759e-01,-2.372853560207359436e-02
1.010999999999999899e+00,1.535505285563352196e-01,-1.074015764059683131e-01,-1.049906725669829677e-01
1.012000000000000011e+00,5.540234772059633023e-02,3.855372104254522689e-03,-7.502430640720528232e-02
1.012999999999999901e+00,-1.217489012507045887e-01,1.659102402491441919e-01,1.596927285857765652e-02
1.014000000000000012e+00,-1.846540499865508000e-01,1.337333667850326702e-01,9.206257346043172918e-02
1.014999999999999902e+00,-8.771761808287958928e-02,-3.243023772183167841e-02,9.296585420163448743e-02
1.016000000000000014e+00,7.832432497368455038e-02,-1.561563476949585638e-01,4.468310055861959840e-02
1.016999999999999904e+00,1.654807849008499421e-01,-1.299482391388520619e-01,-9.292334880175566469e-02
1.018000000000000016e+00,1.046003883297028925e-01,1.654502413777185835e-02,-1.193998419610659278e-01
1.018999999999999906e+00,-2.086989936304493518e-02,1.067845264989330245e-01,-8.073655515283321982e-02
1.020000000000000018e+00,-1.755523066224649043e-01,1.242159467102164766e-01,6.262256797831602939e-02
1.020999999999999908e+00,-1.636316805440201638e-01,3.430636987319497094e-02,1.134598036273850724e-01
1.022000000000000020e+00,1.051323118189648013e-02,-9.471196945708827697e-02,9.557413876187553781e-02
1.022999999999999909e+00,1.678910367364380429e-01,-1.169927607538550351e-01,-2.443902303887815486e-02
1.024000000000000021e+00,2.017938839222356007e-01,-8.231692243071822568e-02,-1.115153540049969444e-01
1.024999999999999911e+00,4.516421210057960239e-02,7.582358897276199328e-02,-1.202634373919153760e-01
1.026000000000000023e+00,-1.619737103829838598e-01,1.449853846963001791e-01,3.857431963797132088e-03
1.026999999999999913e+00,-1.908151962957802816e-01,1.273767856241537211e-01,1.065317649817772716e-01
1.028000000000000025e+00,-9.606859629635716713e-02,-6.375024283437882855e-02,1.182039822984624206e-01
1.028999999999999915e+00,1.223944754155935899e-01,-1.221127953248799664e-01,8.432257813270100863e-03
1.030000000000000027e+00,1.911897611016295240e-01,-9.701960911816384647e-02,-7.079712840184464173e-02
1.030999999999999917e+00,1.279986003396481609e-01,1.434163180821172723e-02,-1.120353320300409711e-01
1.032000000000000028e+00,-6.793140648547828231e-02,1.364614926944545392e-01,-4.544901310414685425e-02
1.032999999999999918e+00,-1.751013783710558824e-01,1.309229820693370294e-01,4.196774146760931523e-02
1.034000000000000030e+00,-1.348567529134128418e-01,-2.356006576591899646e-02,1.055313892832142331e-01
1.034999999999999920e+00,4.216356875346997934e-02,-1.299889537375214510e-01,8.937020612863692814e-02
1.036000000000000032e+00,1.487734531665461379e-01,-1.489334866047656580e-01,-5.024194840193716566e-02
1.036999999999999922e+00,1.317976673755416883e-01,-6.965504590530696358e-03,-1.202359315406180545e-01
1.038000000000000034e+00,1.830984901379340696e-02,9.515696429605539908e-02,-8.179781271990570202e-02
1.038999999999999924e+00,-1.510680043476546330e-01,1.627352339591689456e-01,2.314574714719656867e-02
1.040000000000000036e+00,-1.607773345133793885e-01,3.681991597407537758e-02,8.638971244126118776e-02
1.040999999999999925e+00,-3.223327812581476548e-02,-1.102087587074870451e-01,7.363300259626698319e-02
1.042000000000000037e+00,1.330302331523389447e-01,-1.410650902872968293e-01,-1.041299364877265599e-02
1.042999999999999927e+00,1.700840857613726276e-01,-5.483837689624303929e-02,-8.274870812046258850e-02
1.044000000000000039e+00,6.290817115535328463e-02,7.138832197937962365e-02,-1.127975773402875859e-01
1.044999999999999929e+00,-1.105939499949033372e-01,1.644659587567520176e-01,-5.667067218639009613e-02
1.046000000000000041e+00,-2.001774937934895360e-01,7.786336322042697322e-02,6.958828124547175586e-02
1.046999999999999931e+00,-6.311374519263039662e-02,-8.448472501309906013e-02,1.107813926329396653e-01
1.048000000000000043e+00,5.759510551109339738e-02,-1.386879414790880283e-01,5.179929040491339926e-02
1.048999999999999932e+00,1.770353759822536344e-01,-7.524129473167291693e-02,-3.407507012804987523e-02
1.050000000000000044e+00,1.291398659628073542e-01,2.722935564815043979e-02,-1.352578114019150346e-01
1.050999999999999934e+00,-6.911979224964918955e-02,1.305247783133665906e-01,-9.587789999059065371e-02
1.052000000000000046e+00,-1.561851424443996550e-01,1.569629543017339590e-01,-1.187146412170103638e-03
1.052999999999999936e+00,-1.411019522026594197e-01,6.448623118230853608e-03,1.121293618938846576e-01
1.054000000000000048e+00,1.990512782667118799e-02,-1.208503623600093030e-01,9.206531432923688307e-02
1.054999999999999938e+00,1.576120017932648720e-01,-1.136723951105281238e-01,9.131933452823537412e-03
1.056000000000000050e+00,1.770837680061959352e-01,-1.203516420552109764e-02,-1.266358164585099366e-01
1.056999999999999940e+00,2.025680760015358128e-02,1.199790362403650723e-01,-1.295896425937496099e-01
1.058000000000000052e+00,-1.300687762655619029e-01,1.664481500560650862e-01,-3.253044037496762714e-02
1.058999999999999941e+00,-1.938959965738740465e-01,5.667970027088126139e-02,6.828696996831178090e-02
1.060000000000000053e+00,-4.745488987617196841e-02,-9.265947839974876532e-02,1.188345362410217904e-01
1.060999999999999943e+00,1.065787562192351268e-01,-1.520935708722312429e-01,4.644796956992278819e-02
1.062000000000000055e+00,1.554628374488923881e-01,-4.907221817873749087e-02,-6.445468254535627328e-02
1.062999999999999945e+00,1.044534595439452485e-01,9.022376901217608880e-02,-1.201155805874439819e-01
1.064000000000000057e+00,-7.774004915003006333e-02,1.409095892288558804e-01,-7.004696971556319263e-02
1.064999999999999947e+00,-1.702830668516448209e-01,1.049978560216681817e-01,-2.712205354479773744e-03
1.066000000000000059e+00,-1.080837260417158441e-01,-5.282088893265187574e-02,9.461953184864395350e-02
1.066999999999999948e+00,5.313857855272507286e-02,-1.686605610716485071e-01,1.190284952425679776e-01
1.068000000000000060e+00,1.937865303085017921e-01,-1.060321803026461895e-01,-3.473847828629523377e-02
1.068999999999999950e+00,1.638084142486113393e-01,4.381241479634773173e-02,-8.538439886141539759e-02
1.070000000000000062e+00,-1.763777896656585492e-02,1.405639098383938690e-01,-9.201341139633517630e-02
1.070999999999999952e+00,-1.838450417235715229e-01,1.279438738922843433e-01,-2.718148370242509659e-02
1.072000000000000064e+00,-1.714769392442374307e-01,-2.944463701712080744e-02,6.898643540010696018e-02
1.072999999999999954e+00,-2.740684033017223853e-02,-1.402113797642576820e-01,1.025452567668889564e-01
1.074000000000000066e+00,1.405930399947804554e-01,-1.026229321829799229e-01,4.824790792960828578e-02
1.074999999999999956e+00,1.740996673269867567e-01,-1.586566494199251331e-02,-5.103147894149177161e-02
1.076000000000000068e+00,7.078922759443065371e-02,1.263263706179764689e-01,-1.339421600179454830e-01
1.076999999999999957e+00,-9.298324631373429405e-02,1.426162410694419846e-01,-7.214639336249170642e-02
1.078000000000000069e+00,-1.963649143881080750e-01,3.213338821196488893e-02,2.983970521204681522e-02
1.078999999999999959e+00,-1.019062552557632589e-01,-1.219099490459800428e-01,1.172186633616610768e-01
1.080000000000000071e+00,8.817938967658295324e-02,-1.257531803198299880e-01,8.940654229287796351e-02
1.080999999999999961e+00,2.094803717641036955e-01,-4.284326222456403405e-02,-2.191165763784962139e-02
1.082000000000000073e+00,1.355963998797911907e-01,8.624276403051120421e-02,-8.714825194814131148e-02
1.082999999999999963e+00,-6.166826670322580334e-02,1.512022056268153558e-01,-1.096592011853054632e-01
1.084000000000000075e+00,-1.512977334764235848e-01,7.658833937968816119e-02,-8.515866373023477098e-03
1.084999999999999964e+00,-1.576990802931127755e-01,-8.996143093000581736e-02,8.537949375861245138e-02
1.086000000000000076e+00,-2.664382207165840333e-04,-1.493938730954618710e-01,9.087240018421896548e-02
1.086999999999999966e+00,1.667268569356344377e-01,-8.959292962978619712e-02,5.123214056487079143e-02
1.088000000000000078e+00,1.785572789614135181e-01,5.102714303549880231e-02,-8.119566860376432882e-02
1.088999999999999968e+00,4.119340310925623944e-02,1.163527810025453690e-01,-1.011638563661668710e-01
1.090000000000000080e+00,-1.409820142306703050e-01,1.234522765417787882e-01,-6.471463894252826865e-02
1.090999999999999970e+00,-1.996656075135816999e-01,-3.970169650208243278e-02,3.073327742254595638e-02
1.092000000000000082e+00,-5.596778975125293876e-02,-1.385315667606311918e-01,9.807620873352650148e-02
1.092999999999999972e+00,1.297649454163329608e-01,-1.371753110505829765e-01,6.628874803373344116e-02
1.094000000000000083e+00,2.163956669663084920e-01,-4.131341063599779789e-02,-4.347963560277670614e-02
1.094999999999999973e+00,9.384390712274284785e-02,1.415900682265523181e-01,-7.596225048469427976e-02
1.096000000000000085e+00,-8.895562554852998183e-02,1.273883417211182367e-01,-9.392420714446796104e-02
1.096999999999999975e+00,-1.874918871269553589e-01,5.542236792631498321e-02,-1.380346879476299603e-02
1.098000000000000087e+00,-8.934486877487265999e-02,-1.127831155892558002e-01,1.002424193307328293e-01
1.098999999999999977e+00,4.316178626554136033e-02,-1.358797722215669135e-01,1.303333812283819781e-01
1.100000000000000089e+00,1.614220170735391202e-01,-5.135122240129238319e-02,2.343461261764932455e-02
1.100999999999999979e+00,1.188038382015067645e-01,1.048498412924722678e-01,-6.208260660032243611e-02
1.102000000000000091e+00,-2.733214981688410553e-03,1.236869784454740218e-01,-9.443610910821773063e-02
1.102999999999999980e+00,-1.642686441547858422e-01,7.146395290742080242e-02,-6.703979600001323813e-02
1.104000000000000092e+00,-1.627398129913588398e-01,-7.220515663146753749e-02,3.224210718425055133e-02
1.104999999999999982e+00,8.865909385998719042e-03,-1.585915607092873436e-01,1.016595065280309074e-01
1.106000000000000094e+00,1.470592799738069389e-01,-8.978771881168415292e-02,8.805044746043219628e-02
1.106999999999999984e+00,1.615721245330955236e-01,3.203178542700511888e-02,-3.228916884904704104e-02
1.108000000000000096e+00,4.432836676021820188e-02,1.321653312621960952e-01,-1.274523716733788892e-01
1.108999999999999986e+00,-1.194815849248168499e-01,1.245119142741414886e-01,-9.339120308003570625e-02
1.110000000000000098e+00,-1.828755351557690978e-01,-4.927434983854223419e-03,7.719528165216226791e-03
1.110999999999999988e+00,-8.356262207323220115e-02,-1.030641951500040759e-01,9.167548023650083644e-02
1.112000000000000099e+00,9.249233043422618039e-02,-1.265761494167413903e-01,1.016484263849408154e-01
1.112999999999999989e+00,2.060847612160238151e-01,-2.894475699151201342e-02,2.175704872170469706e-02
1.114000000000000101e+00,1.072562685807767202e-01,1.409771118201963436e-01,-5.714796360445625889e-02
1.114999999999999991e+00,-6.619182706129303484e-02,1.442032075840749550e-01,-1.323674573525210341e-01
1.116000000000000103e+00,-1.512586850093747548e-01,3.076026591985740050e-02,-3.868741271669003112e-02
1.116999999999999993e+00,-1.578839409931707405e-01,-1.086752282496235289e-01,1.088313727068214859e-01
1.118000000000000105e+00,3.585719978382426957e-03,-1.419631329102077899e-01,1.108574630835644365e-01
1.118999999999999995e+00,1.347803405972612667e-01,-4.602514985819723681e-02,5.457936190972065976e-02
1.120000000000000107e+00,1.679788216055894678e-01,7.665764071859493267e-02,-3.977742110867835135e-02
1.120999999999999996e+00,5.695249460829449571e-03,1.384849267286046848e-01,-8.650565836605257630e-02
1.122000000000000108e+00,-1.438614785577699562e-01,5.608632618046317797e-02,-9.039520642749304669e-02
1.122999999999999998e+00,-1.951297612294959072e-01,-6.655767700510122065e-02,3.501021822900298591e-02
1.124000000000000110e+00,-6.634741507946913253e-02,-1.345070731392269403e-01,1.089092354505004495e-01
1.125000000000000000e+00,8.429006567272917527e-02,-8.214078547556527554e-02,1.180392551620048081e-01
1.125999999999999890e+00,1.854425872605988124e-01,4.589152615439961308e-02,2.137776609111290832e-02
1.127000000000000002e+00,1.175686881489754337e-01,1.548985448972965695e-01,-6.201338140242402402e-02
1.127999999999999892e+00,-1.004365948889546500e-01,1.158292565982165373e-01,-1.083720255661917431e-01
1.129000000000000004e+00,-1.899104178326987136e-01,-2.645137832105332737e-02,-4.129412322031195126e-02
1.129999999999999893e+00,-1.164649199834224547e-01,-1.477338751023873908e-01,6.950972159338100753e-02
1.131000000000000005e+00,6.013959073173178599e-02,-1.137322371511452351e-01,1.309065844847966398e-01
1.131999999999999895e+00,1.884861528749204873e-01,-1.173738109235739936e-02,6.804055100130929068e-02
1.133000000000000007e+00,1.490149253312072486e-01,1.206150743532053843e-01,-4.358932597217319432e-02
1.133999999999999897e+00,-1.539914213738348414e-02,1.460453244151137253e-01,-1.119518202996048623e-01
1.135000000000000009e+00,-1.913954064394111088e-01,5.757452360702542196e-03,-8.474845296297807418e-02
1.135999999999999899e+00,-1.569550668416112849e-01,-9.557112137201341506e-02,6.873414709571387324e-03
1.137000000000000011e+00,-2.784262834386787636e-02,-1.384455781231033189e-01,1.023423256506040963e-01
1.137999999999999901e+00,1.298286405801854226e-01,-7.049306517191825106e-02,9.161160792655334562e-02
1.139000000000000012e+00,1.752301263147616472e-01,8.261776447975671678e-02,5.353457996729367278e-03
1.139999999999999902e+00,7.878893797932789989e-02,1.418323619316012585e-01,-1.039722478888702589e-01
1.141000000000000014e+00,-1.289829654884480648e-01,6.776583997479372623e-02,-9.558499903841967404e-02
1.141999999999999904e+00,-1.804563540721705328e-01,-7.376905870079770999e-02,-2.546125284729847463e-02
1.143000000000000016e+00,-1.220921570051370086e-01,-1.431895326604457341e-01,7.180107678558619866e-02
1.143999999999999906e+00,1.109700600763013217e-01,-7.582699280780001716e-02,1.047320293868616442e-01
1.145000000000000018e+00,1.876782247303607487e-01,2.934620093267724036e-02,4.696783188560023359e-02
1.145999999999999908e+00,9.793455792545228966e-02,1.135637812914179756e-01,-5.874379623613272539e-02
1.147000000000000020e+00,-8.046585637726164086e-02,1.227368817560045150e-01,-1.094401229771915923e-01
1.147999999999999909e+00,-1.767989243760927087e-01,-1.050819272065574121e-02,-6.787681997421847468e-02
1.149000000000000021e+00,-1.415414574059091213e-01,-1.205288648511220195e-01,-1.025199984644236360e-02
1.149999999999999911e+00,2.149835788368519365e-02,-1.390067706099706590e-01,1.316120734209397514e-01
1.151000000000000023e+00,1.984949382005087026e-01,-4.358204546076108990e-04,8.374939211344098466e-02
1.151999999999999913e+00,1.551415445143414784e-01,1.047456023223056892e-01,-5.629006508910242013e-02
1.153000000000000025e+00,1.455829828784732660e-02,1.238956904812622689e-01,-1.134984622106603031e-01
1.153999999999999915e+00,-1.550112462566922422e-01,2.498106189467254670e-02,-9.808638508046370330e-02
1.155000000000000027e+00,-1.498910191270289571e-01,-1.085677890305017240e-01,-3.198506947364997827e-02
1.155999999999999917e+00,-3.130001021809924316e-02,-1.295815611622517516e-01,6.742693940598269708e-02
1.157000000000000028e+00,1.086440461030843962e-01,-4.513680335446137309e-02,9.860511628596403677e-02
1.157999999999999918e+00,1.777984726081685563e-01,7.406545254217242191e-02,1.549306955016045532e-02
1.159000000000000030e+00,7.550478859180406732e-02,1.347258060398514312e-01,-6.324521731117779821e-02
1.159999999999999920e+00,-7.943664959019472449e-02,8.240062635927823675e-02,-1.056421372014130777e-01
1.161000000000000032e+00,-1.776325909044575158e-01,-5.628175787328811019e-02,-7.051702381272574593e-02
1.161999999999999922e+00,-1.183648451599909474e-01,-1.532624753277083141e-01,3.396623647020200615e-02
1.163000000000000034e+00,3.602174467409208214e-02,-9.277479269385345562e-02,1.174893855515774521e-01
1.163999999999999924e+00,1.652083429191504582e-01,5.478505658756257363e-02,9.911600240530031580e-02
1.165000000000000036e+00,1.382122067912581465e-01,1.598249845893756349e-01,2.143765176983483591e-03
1.165999999999999925e+00,-3.645252833103856255e-02,1.064463972195644065e-01,-9.676462084974674083e-02
1.167000000000000037e+00,-1.769306395242914165e-01,-3.242197157239422312e-02,-9.293586206297310692e-02
1.167999999999999927e+00,-1.612332687626925887e-01,-1.406956947001735680e-01,-5.264209374847786220e-03
1.169000000000000039e+00,1.198925294264502166e-02,-1.167342089476827161e-01,1.193117072417627517e-01
1.169999999999999929e+00,1.317129786879656372e-01,2.558119403702865599e-02,1.078775028645181933e-01
1.171000000000000041e+00,1.731471189099184627e-01,1.153351551399688785e-01,3.768807431993292240e-02
1.171999999999999931e+00,3.616009041434281590e-02,1.486084541088407429e-01,-4.738964418762013631e-02
1.173000000000000043e+00,-1.101732119491088818e-01,3.863377072473327123e-02,-1.206900676900874436e-01
1.173999999999999932e+00,-1.918564850931716581e-01,-1.341001168386158071e-01,-1.616550705619124867e-02
1.175000000000000044e+00,-9.303598718431246861e-02,-1.349888446114866636e-01,2.732815323796894749e-02
1.175999999999999934e+00,1.087515883907032160e-01,-5.598447085274169815e-02,1.062524295209093111e-01
1.177000000000000046e+00,2.166082352061475536e-01,8.944588090902631794e-02,6.706225366185482317e-02
1.177999999999999936e+00,1.124029140264879850e-01,1.541395049124716365e-01,-5.328754179119311180e-03
1.179000000000000048e+00,-7.857454907680710976e-02,8.724682235737742098e-02,-1.200241159404854124e-01
1.179999999999999938e+00,-1.700227389896495078e-01,-5.800969837180931787e-02,-7.322704723786535586e-02
