time,acc_x,acc_y,acc_z
0.000000000000000000e+00,-1.513249628004043057e-01,-9.494537338729237830e-02,-7.219066486727777898e-02
1.000000000000000021e-03,-1.207528211780699995e-01,-1.003551716922090054e-01,-7.707017165212842746e-02
2.000000000000000042e-03,-8.522919745633721067e-02,3.764918367136143012e-03,-5.345901261625157774e-02
3.000000000000000062e-03,1.783650339813560096e-02,6.365780006067822683e-02,-3.463780047249929300e-02
4.000000000000000083e-03,9.789936188907566450e-02,1.031406441871671742e-01,3.253550574108091120e-02
5.000000000000000104e-03,1.525371209050309373e-01,1.190611323244882003e-01,8.453604920920317067e-02
6.000000000000000125e-03,1.315548173372091956e-01,7.679126779875804221e-02,9.335361636652297901e-02
7.000000000000000146e-03,7.509425835562566487e-02,2.041322095432704722e-02,8.669415993867445047e-02
8.000000000000000167e-03,-3.646083249678804677e-02,-6.378616884665168352e-02,3.203224408497062914e-02
8.999999999999999320e-03,-1.045255432365654324e-01,-1.225240409437499955e-01,-1.791709629419722949e-02
1.000000000000000021e-02,-1.389750690180142911e-01,-1.147764366314410478e-01,-8.532973873973169476e-02
1.099999999999999936e-02,-1.251466817727351077e-01,-7.868496085950463237e-02,-9.564351442121865610e-02
1.200000000000000025e-02,-6.587249287978380607e-02,1.866991413698790639e-02,-8.812843741649786788e-02
1.299999999999999940e-02,2.644639180320552257e-02,5.943414588288005451e-02,-2.690495635819858608e-02
1.400000000000000029e-02,1.288617920102430592e-01,1.339854353488536820e-01,4.162711772326091464e-02
1.499999999999999944e-02,1.456175277975411131e-01,1.001230455678312065e-01,4.771221976580935359e-02
1.600000000000000033e-02,1.051770681758371906e-01,3.997660694516696339e-02,1.133049877550107859e-01
1.700000000000000122e-02,6.976782268833181533e-02,-1.913073653808487068e-02,6.012053105895415195e-02
1.799999999999999864e-02,-3.297497253553541285e-02,-8.409905286772008381e-02,3.857909774530846048e-02
1.899999999999999953e-02,-1.217698297991834100e-01,-1.126969154263703921e-01,-3.493604110277637870e-02
2.000000000000000042e-02,-1.646079104307277829e-01,-1.089438642015847919e-01,-6.668006172958688971e-02
2.100000000000000130e-02,-1.127001068493979075e-01,-3.545553484181979825e-02,-9.524033729753234034e-02
2.199999999999999872e-02,-3.573109032531939649e-02,3.041200076104889904e-02,-3.955370052459777214e-02
2.299999999999999961e-02,5.535805558218317296e-02,9.466716637088869180e-02,-3.083850723727995374e-02
2.400000000000000050e-02,1.254087797317094688e-01,1.182243177904560572e-01,3.866548191753000491e-02
2.500000000000000139e-02,1.281430192702527893e-01,8.747890709903743955e-02,6.752753920295599677e-02
2.599999999999999881e-02,1.355115802381312295e-01,-8.549751618517325430e-03,9.499859456394771362e-02
2.699999999999999969e-02,2.482464821982363623e-02,-5.588077518312992847e-02,6.821146301381821042e-02
2.800000000000000058e-02,-7.849007133732747998e-02,-1.331201290814034988e-01,2.271819297869243082e-02
2.900000000000000147e-02,-1.332411257510744962e-01,-1.128916070509649039e-01,-3.166255788098462642e-02
2.999999999999999889e-02,-1.287758808291987189e-01,-7.320964793606414556e-02,-9.057818745043991204e-02
3.099999999999999978e-02,-9.306495929108245246e-02,-2.850015749756340186e-02,-1.057154702489606773e-01
3.200000000000000067e-02,-1.342125357899264827e-02,8.123067356193798549e-02,-7.603970752603822492e-02
3.300000000000000155e-02,9.016351072419659385e-02,9.887447291986946329e-02,-2.004108612581693635e-02
3.400000000000000244e-02,1.439054210354992203e-01,9.671818946232764447e-02,4.972237225799039373e-02
3.500000000000000333e-02,1.496010561239741465e-01,5.194449594558742112e-02,9.008634399617616861e-02
3.599999999999999728e-02,7.808296351568544402e-02,9.869532261865142722e-03,7.044251330515959031e-02
3.699999999999999817e-02,2.359811653912898682e-02,-5.980390127979622744e-02,4.916893501842215658e-02
3.799999999999999906e-02,-7.478357781856892483e-02,-1.289276152851949742e-01,1.561483822688501319e-02
3.899999999999999994e-02,-1.257914538829184026e-01,-1.065523156585512499e-01,-3.574478069524600343e-02
4.000000000000000083e-02,-1.481725228527793203e-01,-6.658136161154290522e-02,-7.584537646938697975e-02
4.100000000000000172e-02,-6.869844774194264203e-02,2.124446065639959934e-03,-7.561437396978046288e-02
4.200000000000000261e-02,1.362261342901780435e-02,5.735647410184204625e-02,-4.443057169414412616e-02
4.299999999999999656e-02,8.090729907451349456e-02,1.277178826026594549e-01,-3.394142944143184373e-03
4.399999999999999745e-02,1.534841082805235568e-01,1.204263779733041606e-01,8.715903884868241025e-02
4.499999999999999833e-02,1.290865342005909633e-01,4.898548831488783173e-02,7.732156060278615184e-02
4.599999999999999922e-02,7.386958482853843433e-02,-1.269046591711409794e-02,6.667219679645015884e-02
4.700000000000000011e-02,-1.391540934723917503e-02,-7.628765056082142948e-02,3.574382624856076857e-02
4.800000000000000100e-02,-8.278570320259809323e-02,-1.168936565815195533e-01,9.055294537792798332e-03
4.900000000000000189e-02,-1.614518769684886168e-01,-1.070697938988731945e-01,-5.583278414162100300e-02
5.000000000000000278e-02,-1.297503509600635152e-01,-4.285754581584771961e-02,-8.470456380960873777e-02
5.099999999999999672e-02,-7.611172820192101118e-02,5.365458544031334598e-02,-9.964684907618116816e-02
5.199999999999999761e-02,2.250983351878706185e-02,1.001410484132509854e-01,-3.959233579395687874e-02
5.299999999999999850e-02,1.038129545489682309e-01,1.094892481742855139e-01,6.192768497585518332e-03
5.399999999999999939e-02,1.459927483644689328e-01,1.066608720855366371e-01,7.405147794304824116e-02
5.500000000000000028e-02,1.282766632393534667e-01,3.681866931529353265e-02,1.046775806919570673e-01
5.600000000000000117e-02,4.789282971586246440e-02,-5.658409630483463709e-02,6.493969308810200458e-02
5.700000000000000205e-02,-2.207053543793019088e-02,-9.050200586245853163e-02,3.765533456201516915e-02
5.800000000000000294e-02,-9.627226827181351032e-02,-1.250917074172158416e-01,-1.556791568942592768e-03
5.899999999999999689e-02,-1.336262074947487111e-01,-6.614389584768984309e-02,-5.754788739798531033e-02
5.999999999999999778e-02,-1.178275359123424904e-01,-8.591883338570513668e-04,-7.610781527063402441e-02
6.099999999999999867e-02,-5.053271951389566585e-02,3.969373446667739946e-02,-6.717637966391135085e-02
6.199999999999999956e-02,4.852808486581172004e-02,1.004296514526654277e-01,-2.063265708915298924e-02
6.300000000000000044e-02,1.014409992045057218e-01,1.123036831431400429e-01,7.953360316624202148e-03
6.400000000000000133e-02,1.703185268977587263e-01,7.036041930411783552e-02,6.945301596704740732e-02
6.500000000000000222e-02,1.240608137169924019e-01,1.641294712678652984e-02,7.459672907210337933e-02
6.600000000000000311e-02,6.063401488550985291e-02,-7.281305010441642411e-02,6.551184617566031820e-02
6.700000000000000400e-02,-6.311597941945128187e-02,-1.143787345504733710e-01,4.069879296635150329e-02
6.800000000000000488e-02,-1.230724461643783463e-01,-1.027730143403282059e-01,-3.169891927641612511e-02
6.900000000000000577e-02,-1.359186177375568405e-01,-5.242786448044782499e-02,-4.602780914672301160e-02
7.000000000000000666e-02,-1.136438766155102031e-01,1.371002852852683598e-02,-6.346637531833952683e-02
7.099999999999999367e-02,-3.461149458822064540e-02,9.376073032174717103e-02,-6.831356476065976457e-02
7.199999999999999456e-02,6.766641743399277875e-02,1.050203897306465906e-01,-4.144848032409953476e-02
7.299999999999999545e-02,1.261700230237119136e-01,1.175949585495432437e-01,1.842847166007107948e-02
7.399999999999999634e-02,1.419943645501369200e-01,4.569416484403233253e-02,9.162991033367720584e-02
7.499999999999999722e-02,9.456471069813693342e-02,-3.455548694093504153e-02,8.105985182708415338e-02
7.599999999999999811e-02,7.501651811588903093e-04,-8.938946334895006562e-02,6.126410121657709790e-02
7.699999999999999900e-02,-7.335547617168447498e-02,-1.217129877592098286e-01,4.924525343682589762e-02
7.799999999999999989e-02,-1.313839468252322729e-01,-1.085680772806075223e-01,-2.997417715706605229e-02
7.900000000000000078e-02,-1.533012107022708459e-01,-3.107125916309450009e-02,-6.545157848677728152e-02
8.000000000000000167e-02,-8.985550038153129748e-02,4.847710863080907651e-02,-7.487461802456463200e-02
8.100000000000000255e-02,2.868768646721528426e-02,9.290082574821297012e-02,-5.029557587538318469e-02
8.200000000000000344e-02,9.886310081558001561e-02,1.182485708480451869e-01,-5.342965990458423825e-02
8.300000000000000433e-02,1.414540703450175019e-01,1.072426587209537596e-01,1.082265706243132515e-02
8.400000000000000522e-02,1.545064482359670699e-01,1.806248565805356615e-02,7.592377247480212865e-02
8.500000000000000611e-02,5.888188802043877595e-02,-4.241175123911395534e-02,6.498011620451239756e-02
8.599999999999999312e-02,8.102598975705668088e-03,-1.151342607193452244e-01,7.143192775429431374e-02
8.699999999999999400e-02,-8.637341920160486464e-02,-1.093481469675440798e-01,9.628260973737024636e-03
8.799999999999999489e-02,-1.534084024731050822e-01,-8.284982255329062517e-02,-3.652195280611308242e-02
8.899999999999999578e-02,-1.400493803051642561e-01,-1.220824274029861344e-02,-6.018543033446847879e-02
8.999999999999999667e-02,-6.116078088858058898e-02,5.132451203837262027e-02,-7.718870927024296114e-02
9.099999999999999756e-02,2.035474690533520606e-02,1.070307564701271918e-01,-5.127251157665134451e-02
9.199999999999999845e-02,1.030743102336089956e-01,1.236633297570385454e-01,-1.565372219348066390e-02
9.299999999999999933e-02,1.397867439096348308e-01,1.000799671065614044e-01,4.740814841405160268e-02
9.400000000000000022e-02,1.371876244472018946e-01,-5.517399855477359612e-04,6.959379560191428227e-02
9.500000000000000111e-02,4.737627280255106432e-02,-6.136292628778684810e-02,8.066974962393137771e-02
9.600000000000000200e-02,-2.858691648926926093e-02,-1.150814715054680193e-01,8.417299524980302594e-02
9.700000000000000289e-02,-1.107931763816932397e-01,-9.096291551979021617e-02,2.591369518450648002e-02
9.800000000000000377e-02,-1.364313183594522139e-01,-5.766111726460818737e-02,-4.526859079532500468e-02
9.900000000000000466e-02,-1.074008964618617668e-01,4.870640472649097677e-03,-1.034429470192522044e-01
1.000000000000000056e-01,-4.428177760984324668e-02,8.097313502401928820e-02,-8.404723283751242002e-02
1.010000000000000064e-01,4.226764963029883831e-02,1.142021161935563300e-01,-6.175075080341983075e-02
1.019999999999999934e-01,1.270130179191191755e-01,8.584559181072638767e-02,-2.522832310333357128e-02
1.029999999999999943e-01,1.335112172286407883e-01,4.339367392528552247e-02,4.709285792129668663e-02
1.039999999999999952e-01,1.063182539215641181e-01,-2.127883709106233659e-02,7.820830779359004559e-02
1.049999999999999961e-01,4.808035766716099030e-02,-8.737045042502002146e-02,7.993329347065158963e-02
1.059999999999999970e-01,-7.634363711310199196e-02,-1.151988612560372605e-01,6.138351524314185348e-02
1.069999999999999979e-01,-1.207875199474723049e-01,-1.271035622205300974e-01,-2.586937016623384726e-04
1.079999999999999988e-01,-1.435999587312840609e-01,-2.537460341740970654e-02,-4.050297751593684437e-02
1.089999999999999997e-01,-1.170892952429129358e-01,3.782802533369070130e-02,-9.363469617216053920e-02
1.100000000000000006e-01,-3.869796689300779996e-02,9.075202524905086332e-02,-8.804351306826568857e-02
1.110000000000000014e-01,6.930522841832527370e-02,1.309714379336775203e-01,-4.365759077257210657e-02
1.120000000000000023e-01,1.435255181382413259e-01,9.736018584441169521e-02,-9.444713192233342505e-03
1.130000000000000032e-01,1.561013735871932540e-01,3.379337114406051612e-02,4.439491967868523792e-02
1.140000000000000041e-01,1.063494107880323808e-01,-3.556256059153767302e-02,8.436563256534493349e-02
1.150000000000000050e-01,1.254118868337382280e-03,-9.467246601704494557e-02,8.518635906160831883e-02
1.160000000000000059e-01,-7.135828834797842968e-02,-1.086038826236219307e-01,7.039895408388137377e-02
1.170000000000000068e-01,-1.407810524118861262e-01,-8.693350343374071920e-02,1.943323479461856601e-02
1.179999999999999938e-01,-1.294561514385658696e-01,-5.602172746297075234e-03,-3.088549740822497947e-02
1.189999999999999947e-01,-9.235327546503910301e-02,5.750714627670776985e-02,-7.271416272946183701e-02
1.199999999999999956e-01,5.575831483692934723e-04,9.340206046808102736e-02,-8.427736514902699205e-02
1.209999999999999964e-01,9.785747727042244659e-02,9.168689091324022655e-02,-4.237761437525774944e-02
1.219999999999999973e-01,1.326688234621997420e-01,5.879478852002563427e-02,-4.327078674571225095e-03
1.229999999999999982e-01,1.330275292474170090e-01,1.161154863603796120e-02,5.385718412525292154e-02
1.239999999999999991e-01,9.860109533912987667e-02,-6.877846614874899567e-02,5.925739577171811739e-02
1.250000000000000000e-01,4.708160472169712479e-03,-1.060511738180898861e-01,8.096566345317020297e-02
1.260000000000000009e-01,-8.560496442304865727e-02,-1.098779963675297899e-01,4.635552088301200108e-02
1.270000000000000018e-01,-1.233193450606476227e-01,-4.460639838667939533e-02,-9.829273000890710599e-03
1.280000000000000027e-01,-1.218973706558963699e-01,2.246936168756539370e-02,-5.330970996061972639e-02
1.290000000000000036e-01,-7.883844988178119462e-02,5.836838847753474113e-02,-1.029081893983362361e-01
1.300000000000000044e-01,2.627022400877818131e-02,1.119024287800953338e-01,-7.808908635162728484e-02
1.310000000000000053e-01,1.017931992744740277e-01,8.671766746749082211e-02,-2.144365649990176079e-02
1.320000000000000062e-01,1.598701409648761174e-01,5.388332664561809593e-02,1.228112179688049550e-03
1.330000000000000071e-01,1.441548442943108854e-01,-3.748643984692470732e-02,6.647837702276294947e-02
1.340000000000000080e-01,4.655047023317634980e-02,-8.817833567281660456e-02,1.047311045795458612e-01
1.350000000000000089e-01,-2.584803371819582168e-02,-1.107818388616594873e-01,6.065040838027784681e-02
1.360000000000000098e-01,-9.696972449197120703e-02,-1.092916643144565408e-01,2.049040410835119633e-02
1.370000000000000107e-01,-1.352324918564445921e-01,-3.549948443194467229e-02,-1.015940228760802908e-02
1.380000000000000115e-01,-1.200798473165261004e-01,3.227218784201837248e-02,-8.073530665858294486e-02
1.390000000000000124e-01,-3.280378232408822509e-02,6.840155350262057399e-02,-9.299132445385922818e-02
1.400000000000000133e-01,5.546598638763096389e-02,1.113184083105589472e-01,-6.322145285951666360e-02
1.409999999999999865e-01,1.167967876394403887e-01,8.789740470104397130e-02,-1.536321060323726610e-02
1.419999999999999873e-01,1.387739345029866123e-01,1.415150629063412907e-02,2.671795820811999692e-02
1.429999999999999882e-01,1.171827994116673849e-01,-5.865165329426976631e-02,7.630801085628241553e-02
1.439999999999999891e-01,6.954578435751868071e-02,-1.182969822244775010e-01,8.558626827095200396e-02
1.449999999999999900e-01,-4.249673742643337443e-02,-1.441975414823866708e-01,8.679472886745584481e-02
1.459999999999999909e-01,-1.047344712122404847e-01,-8.968916882639882404e-02,1.820451516774330633e-02
1.469999999999999918e-01,-1.356215386794414890e-01,-7.948620998435190418e-03,-1.121781361997848010e-02
1.479999999999999927e-01,-1.151238198415245328e-01,5.985372322761203789e-02,-6.246249041316243727e-02
1.489999999999999936e-01,-2.500493984739715972e-02,1.083906332216875573e-01,-9.969814605674440222e-02
1.499999999999999944e-01,6.636081932850114440e-02,1.107747336341008415e-01,-7.383904017831112443e-02
1.509999999999999953e-01,1.264892683826536746e-01,7.460179065847291624e-02,-3.936732222560473948e-02
1.519999999999999962e-01,1.383172547734142777e-01,7.187957788616678063e-03,4.060014776264637276e-02
1.529999999999999971e-01,8.808527237221047690e-02,-9.657113548847397200e-02,7.336282622382571394e-02
1.539999999999999980e-01,1.052909492268622703e-02,-1.319710358715808496e-01,8.968188877608038179e-02
1.549999999999999989e-01,-7.194747738268986170e-02,-8.216173109031173205e-02,7.849460734420975194e-02
1.559999999999999998e-01,-1.161495791691406487e-01,-4.040879549831220829e-02,-8.565982578213668765e-04
1.570000000000000007e-01,-1.211105047802637641e-01,8.756394064258085641e-03,-4.055584248439030037e-02
1.580000000000000016e-01,-9.778315024168277025e-02,7.273605947640061908e-02,-6.023990966343674425e-02
1.590000000000000024e-01,7.054620220064533598e-03,1.115507835668379105e-01,-6.351147756250054288e-02
1.600000000000000033e-01,7.769079320189829774e-02,9.282022287610147693e-02,-6.960430924062029068e-02
1.610000000000000042e-01,1.352231944499365235e-01,6.984205578121788216e-02,-2.611945268865328504e-02
1.620000000000000051e-01,1.594813019456261804e-01,-1.460942959993529432e-02,5.150428447485791428e-02
1.630000000000000060e-01,1.000144055047204328e-01,-1.119467903839682921e-01,7.763120935792126864e-02
1.640000000000000069e-01,3.833252759378268700e-03,-1.233988011649847366e-01,7.911627587887386237e-02
1.650000000000000078e-01,-8.947500612790032504e-02,-1.152289763963885161e-01,7.964738383335252803e-02
1.660000000000000087e-01,-1.665111843450654272e-01,-3.413722400594481482e-02,3.152647305410245879e-03
1.670000000000000095e-01,-1.299634976798406671e-01,2.424148984817649927e-02,-4.433992457335530352e-02
1.680000000000000104e-01,-8.894801760737940099e-02,9.917813099311466318e-02,-4.816351658312413575e-02
1.690000000000000113e-01,1.056214551247369564e-02,1.191356292560278307e-01,-8.856064042614429643e-02
1.700000000000000122e-01,9.443730002252498368e-02,9.436653353717218418e-02,-6.884491163188538598e-02
1.710000000000000131e-01,1.536012515081075780e-01,2.716307510349912080e-02,-2.810648640444868979e-02
1.719999999999999862e-01,1.471531415466006132e-01,-7.779538305946212540e-02,3.915463864503474639e-02
1.729999999999999871e-01,4.674640457593214060e-02,-1.192637210389437680e-01,6.933900425036539084e-02
1.739999999999999880e-01,-3.500020612912915774e-02,-1.154965699126581646e-01,8.220578337332021257e-02
1.749999999999999889e-01,-1.173218385893941423e-01,-6.288286959298197698e-02,5.360247100526801395e-02
1.759999999999999898e-01,-1.393134513386116435e-01,-8.292805188304249245e-03,1.534142800344277802e-02
1.769999999999999907e-01,-1.172779375518724077e-01,5.927930578018541369e-02,-6.328903777867557479e-02
1.779999999999999916e-01,-5.368348008513865177e-02,1.051367638556522516e-01,-9.320027231913811938e-02
1.789999999999999925e-01,4.342615212520833934e-02,1.031819142500627756e-01,-8.818370408214651346e-02
1.799999999999999933e-01,1.329238447422437241e-01,5.464650856736984197e-02,-4.779706111401355734e-02
1.809999999999999942e-01,1.426849896233721715e-01,-1.723230826894230766e-02,-1.702478693156327452e-02
1.819999999999999951e-01,1.192237416643451148e-01,-8.050924849381552173e-02,5.978924429309980665e-02
1.829999999999999960e-01,4.436951987161589367e-02,-1.016821150521903250e-01,8.711109854570402156e-02
1.839999999999999969e-01,-5.655412253047342047e-02,-1.094014457225479520e-01,1.032253751765686983e-01
1.849999999999999978e-01,-1.151490398709525964e-01,-5.500860083252449156e-02,4.425784662029076666e-02
1.859999999999999987e-01,-1.520025309692221438e-01,2.623476805057986527e-02,-7.764100464986112456e-03
1.869999999999999996e-01,-1.095437258080763365e-01,7.616212471901825931e-02,-4.949079181715341363e-02
1.880000000000000004e-01,-3.103554879743094033e-02,1.177315730257039450e-01,-9.438549563678132193e-02
1.890000000000000013e-01,7.846469707692310669e-02,1.116993882873161537e-01,-8.246317071300457435e-02
1.900000000000000022e-01,1.353550981405224618e-01,5.550619386878829359e-02,-6.465773986904463366e-02
1.910000000000000031e-01,1.546517328579196104e-01,-2.935297575638703971e-02,1.794512650387039901e-02
1.920000000000000040e-01,1.114953425496070655e-01,-8.343725635895000992e-02,6.603496683989897031e-02
1.930000000000000049e-01,2.465654992378718893e-02,-1.231292560329974167e-01,7.507257689620316921e-02
1.940000000000000058e-01,-7.141112949583726388e-02,-9.879989432359362334e-02,6.171569896731767674e-02
1.950000000000000067e-01,-1.409711827495375436e-01,-2.316808026180858238e-02,4.770095810937070163e-02
1.960000000000000075e-01,-1.378690867603001025e-01,3.560466864989653146e-02,-1.462128481090960511e-02
1.970000000000000084e-01,-8.429114113412443376e-02,9.270752189470275739e-02,-6.420078376151037991e-02
1.980000000000000093e-01,-5.318456047975329490e-03,1.259732852871126296e-01,-8.976080129097004090e-02
1.990000000000000102e-01,7.852489702765813595e-02,8.185646029907600596e-02,-7.655898005161222708e-02
2.000000000000000111e-01,1.535591207304254635e-01,2.284369619346790503e-02,-5.249809991922124025e-02
2.010000000000000120e-01,1.338063085172994104e-01,-4.105620354970156149e-02,1.412446898971490145e-02
2.020000000000000129e-01,9.504967306042516606e-02,-9.888314420846411323e-02,6.471616961788534406e-02
2.030000000000000138e-01,-2.700744335564467420e-03,-1.122206430149990664e-01,8.374070543743894479e-02
2.039999999999999869e-01,-9.875109270945151008e-02,-8.547727441267742587e-02,7.616943265561382237e-02
2.049999999999999878e-01,-1.325257574082490120e-01,7.637704589253017408e-03,1.576967119095739819e-02
2.059999999999999887e-01,-1.220945622930544872e-01,5.922473934365322240e-02,-4.982076629704153617e-03
2.069999999999999896e-01,-5.586927945125104433e-02,1.137614253461493030e-01,-7.473084328871766602e-02
2.079999999999999905e-01,2.426014786609074700e-02,9.186072457952937365e-02,-7.985651329340154314e-02
2.089999999999999913e-01,9.449175379584379142e-02,6.966625028800663144e-02,-7.821003108162635775e-02
2.099999999999999922e-01,1.500487043736694615e-01,6.104862503474777456e-03,-4.120680295340781868e-02
2.109999999999999931e-01,1.398333812063550230e-01,-6.672332112717668795e-02,2.871208417498157667e-03
2.119999999999999940e-01,6.793694547872482226e-02,-9.101931405252744467e-02,7.981286055716503569e-02
2.129999999999999949e-01,-3.377243672293735177e-02,-1.057011997786326957e-01,8.557245191023346575e-02
2.139999999999999958e-01,-1.081303262939111165e-01,-5.952190585838879056e-02,8.922982099685125568e-02
2.149999999999999967e-01,-1.217731888331148177e-01,2.555459851428997300e-02,2.542290822664283745e-02
2.159999999999999976e-01,-1.252445299487309482e-01,8.413587051126784899e-02,-1.962703831975057614e-02
2.169999999999999984e-01,-5.296503517991398707e-02,1.138978297045865340e-01,-7.037791295379572376e-02
2.179999999999999993e-01,3.409993443186182249e-02,8.494341183010532814e-02,-8.144737129647153240e-02
2.190000000000000002e-01,1.179741967849234213e-01,5.236127478647553679e-02,-5.930168295074157020e-02
2.200000000000000011e-01,1.352266981368669130e-01,-3.130697924712332741e-02,-1.749248004711303345e-02
2.210000000000000020e-01,1.166243951428529990e-01,-9.882023693753691496e-02,3.940571090809991128e-02
2.220000000000000029e-01,4.500789753308983426e-02,-1.280206735029191523e-01,8.929879719656240444e-02
2.230000000000000038e-01,-6.234222490255704463e-02,-1.150881770354431899e-01,8.804050238230556880e-02
2.240000000000000047e-01,-1.139711428972553092e-01,-2.047725132329689807e-02,5.899363782578137538e-02
2.250000000000000056e-01,-1.530610360051859742e-01,2.784177542212210033e-02,2.319291800976199316e-02
2.260000000000000064e-01,-1.191533271385469411e-01,7.865481778439437077e-02,-3.318959671970897474e-02
2.270000000000000073e-01,-4.005536752117641597e-02,1.210017127931520692e-01,-8.083283115151823628e-02
2.280000000000000082e-01,6.335381768561387794e-02,9.252067686915789457e-02,-7.578675126596126632e-02
2.290000000000000091e-01,1.244125623191000007e-01,-1.191653662623081604e-03,-7.064613169552019789e-02
2.300000000000000100e-01,1.545577015456794934e-01,-4.251778548219302400e-02,-3.374311822243946518e-02
2.310000000000000109e-01,1.046651207947382478e-01,-9.543495379773013487e-02,4.035075682807397895e-02
2.320000000000000118e-01,2.790807037594018186e-02,-1.032250009306027172e-01,6.283807684013871520e-02
2.330000000000000127e-01,-6.847565139592194650e-02,-8.071633798677496641e-02,1.002236514134744877e-01
2.340000000000000135e-01,-1.253830230165246251e-01,-3.819195781301424220e-03,8.093519914696600814e-02
2.349999999999999867e-01,-1.336965511122930050e-01,7.426289616343501043e-02,1.218568192855608474e-02
2.359999999999999876e-01,-1.085197828972742085e-01,1.093141325232281080e-01,-3.816646166497893872e-02
2.369999999999999885e-01,-1.846840917967599097e-02,1.048780532017506151e-01,-8.823317786086187775e-02
2.379999999999999893e-01,7.607763755579552423e-02,7.246896609144694301e-02,-9.733661209985543239e-02
2.389999999999999902e-01,1.366083780051702001e-01,-5.528978765325227168e-03,-6.129025673110372052e-02
2.399999999999999911e-01,1.296002705707484659e-01,-7.038844155664766844e-02,-1.378475498445076719e-02
2.409999999999999920e-01,8.603682676541922481e-02,-1.088149173724226315e-01,2.719481485208109089e-02
2.419999999999999929e-01,1.305231441078540285e-02,-9.364780799011189483e-02,7.779693716981248008e-02
2.429999999999999938e-01,-6.723009112510501539e-02,-6.524390436266479243e-02,5.887726292363734681e-02
2.439999999999999947e-01,-1.345873623140577402e-01,2.118131217587891635e-02,6.732431486986024949e-02
2.449999999999999956e-01,-1.296794797633786245e-01,9.879451624737899118e-02,2.948571964999856590e-02
2.459999999999999964e-01,-5.540853580931979355e-02,1.032278697208243445e-01,-4.470496429887394624e-02
2.469999999999999973e-01,4.349682515647833141e-03,9.875009715722629644e-02,-5.546249664063050699e-02
2.479999999999999982e-01,8.223130584859611458e-02,3.260825726133518426e-02,-6.285075015017627109e-02
2.489999999999999991e-01,1.657437205755455112e-01,-3.643969497414237951e-02,-5.114655424466483385e-02
2.500000000000000000e-01,1.550793961904380069e-01,-9.957516137489139108e-02,-1.013409680875290882e-02
2.510000000000000009e-01,6.685176587962567141e-02,-1.059268984607787401e-01,3.167604472328641035e-02
2.520000000000000018e-01,-2.117717267912988879e-02,-7.780134188626661174e-02,6.759022072677937920e-02
2.530000000000000027e-01,-9.420699261211819275e-02,-4.155643359420132382e-02,8.065432017750424898e-02
2.540000000000000036e-01,-1.331674322514428133e-01,4.967191189385032624e-02,7.057976503190981077e-02
2.550000000000000044e-01,-1.176719852544080708e-01,8.610233565429230296e-02,-5.237763389065727866e-03
2.560000000000000053e-01,-5.931562262314752504e-02,1.184056279955265634e-01,-4.674248605965562048e-02
2.570000000000000062e-01,3.189903750582900877e-02,7.956746854517232626e-02,-7.715566151697250685e-02
2.580000000000000071e-01,1.229347570004982459e-01,1.981842329589642016e-02,-8.477816846343370905e-02
2.590000000000000080e-01,1.373892696990209050e-01,-5.902036363488531723e-02,-4.433398332938712216e-02
2.600000000000000089e-01,1.206497930213888681e-01,-1.086488196011216323e-01,1.741703035663955471e-02
2.610000000000000098e-01,3.598249436358214731e-02,-1.224221495609767729e-01,5.458075338123713482e-02
2.620000000000000107e-01,-4.129286558162857668e-02,-8.420750998567705370e-02,1.050171832757775259e-01
2.630000000000000115e-01,-1.102422066170935661e-01,7.375078023346114293e-03,7.272766109391162748e-02
2.640000000000000124e-01,-1.533525945940774904e-01,6.289694868392550764e-02,3.982364995683136677e-02
2.650000000000000133e-01,-1.179505661045997106e-01,1.042192240159934419e-01,-1.268368944897623092e-02
2.660000000000000142e-01,-4.755958554458254023e-02,1.083885658814345010e-01,-4.230628961909525115e-02
2.670000000000000151e-01,4.514668419222022527e-02,6.827578535325209974e-02,-5.751615349758549406e-02
2.680000000000000160e-01,1.060957085439916958e-01,-3.047332093009088444e-02,-9.927710432221727166e-02
2.690000000000000169e-01,1.683693466769604352e-01,-7.425447528654334495e-02,-5.255366677422188687e-02
2.700000000000000178e-01,9.147994937933219550e-02,-1.459928317905117845e-01,1.232059897398601889e-02
2.710000000000000187e-01,4.391046569959774267e-04,-9.300086983658606421e-02,5.305687592730665147e-02
2.720000000000000195e-01,-8.084844403601396112e-02,-4.800074221529695290e-02,6.793573109404613120e-02
2.730000000000000204e-01,-9.928630247225979366e-02,2.476339891739206753e-02,7.870989246607391909e-02
2.740000000000000213e-01,-1.557867744011152134e-01,7.787711611423331348e-02,4.284021985585785564e-02
2.750000000000000222e-01,-7.433720328282583667e-02,9.913504407004705699e-02,-2.844061110993575600e-02
2.760000000000000231e-01,2.526945758159809732e-03,1.168372238039649957e-01,-6.685274127929495547e-02
2.770000000000000240e-01,7.936851567613770198e-02,2.467779134809167801e-02,-7.687899023812652666e-02
2.780000000000000249e-01,1.370610561776770542e-01,-4.088273980092656246e-02,-7.212743851472352974e-02
2.790000000000000258e-01,1.277626548952804919e-01,-7.427111464936692053e-02,-4.344016574433346572e-02
2.800000000000000266e-01,1.065875099683017135e-01,-1.086161770632792511e-01,3.215749734299728352e-02
2.810000000000000275e-01,1.728695583121608176e-02,-8.589137297650199787e-02,5.963942436212885112e-02
2.819999999999999729e-01,-9.129667345948501433e-02,-5.075428529197516248e-02,8.109989035734649354e-02
2.829999999999999738e-01,-1.225883067561393258e-01,4.951051510395996363e-02,7.269355059994436763e-02
2.839999999999999747e-01,-1.412556482389664969e-01,9.535584370435727652e-02,7.565045478112671258e-03
2.849999999999999756e-01,-8.338720405447788697e-02,1.107212138994996681e-01,-2.854053070235876288e-02
2.859999999999999765e-01,3.125505770345968215e-02,7.270574845002868158e-02,-4.496493890320776149e-02
2.869999999999999774e-01,9.583334589415454241e-02,1.010789527874859754e-02,-6.999115437825507990e-02
2.879999999999999782e-01,1.537884677866058203e-01,-7.033210358060357215e-02,-7.487316752997244529e-02
2.889999999999999791e-01,1.424568680487292571e-01,-9.655607035544155892e-02,-3.388852446115265399e-02
2.899999999999999800e-01,5.838620237109205802e-02,-1.327317479276981516e-01,2.775716595372337142e-02
2.909999999999999809e-01,-3.532745948359521798e-02,-7.996562203022554438e-02,9.088560669391509972e-02
2.919999999999999818e-01,-9.126088743720868479e-02,-2.121618141728690444e-03,8.762668811172016903e-02
2.929999999999999827e-01,-1.322268476846816254e-01,7.431583825559963385e-02,6.439089665524749817e-02
2.939999999999999836e-01,-1.309082871412894922e-01,1.022835092381408351e-01,3.760719587517891149e-02
2.949999999999999845e-01,-8.590037312000740888e-02,1.214721526456712247e-01,-3.889297397958495217e-02
2.959999999999999853e-01,3.069078200526496880e-02,8.162107955987199515e-02,-8.715381555804038727e-02
2.969999999999999862e-01,1.289397229961675995e-01,-1.790886629236317432e-02,-7.963165363338460534e-02
2.979999999999999871e-01,1.335841827826651229e-01,-7.897934838689113501e-02,-5.595469853844710351e-02
2.989999999999999880e-01,1.102748522224434868e-01,-1.062089848207435350e-01,-3.959216991705679376e-05
2.999999999999999889e-01,4.501107888265334922e-02,-1.161127649424030378e-01,3.546680002018642863e-02
3.009999999999999898e-01,-4.761867407854530887e-02,-7.481005590967450269e-02,8.921969498403017895e-02
3.019999999999999907e-01,-1.233407164733789502e-01,3.790976988489019178e-02,8.299886167789705116e-02
3.029999999999999916e-01,-1.452628557732765779e-01,9.224677169933956367e-02,5.231126366438483555e-02
3.039999999999999925e-01,-9.476646737394271713e-02,1.116199839069192262e-01,5.568276067034885063e-03
3.049999999999999933e-01,-4.602364422836470459e-02,9.144655384667635389e-02,-4.157905386014681959e-02
3.059999999999999942e-01,5.712226531384304723e-02,3.852429486525336955e-02,-8.330084582987878905e-02
3.069999999999999951e-01,1.259376967720756690e-01,-1.347514515573335590e-02,-8.014869320823317378e-02
3.079999999999999960e-01,1.474320318263215857e-01,-9.443476865178263013e-02,-4.989867388201851828e-02
3.089999999999999969e-01,9.106543972582244184e-02,-1.223064227014123706e-01,-4.629842202944044714e-03
3.099999999999999978e-01,2.316720223216051089e-02,-9.356204229985970455e-02,4.186945943980012463e-02
3.109999999999999987e-01,-5.440944610294376482e-02,-1.293777415845655775e-02,6.954339663449533859e-02
3.119999999999999996e-01,-1.421960673841723977e-01,5.134785635447498137e-02,1.057824408988313619e-01
3.130000000000000004e-01,-1.296886116332935379e-01,9.460234731082724224e-02,5.353949738883670428e-02
3.140000000000000013e-01,-1.047724975152332927e-01,1.334570786094090022e-01,2.626964063782779094e-02
3.150000000000000022e-01,-1.801203570468380352e-02,8.099481045836269544e-02,-4.745293072513295796e-02
3.160000000000000031e-01,7.429596425547291272e-02,1.723074769507954365e-02,-9.865765620401581448e-02
3.170000000000000040e-01,1.252359533735897257e-01,-5.365505029822816019e-02,-8.231517956832148930e-02
3.180000000000000049e-01,1.328690419862246230e-01,-1.050080281221922734e-01,-3.909144664110478229e-02
3.190000000000000058e-01,7.976346119474816976e-02,-1.067509735894856399e-01,-4.962286533301813948e-03
3.200000000000000067e-01,-5.540699533843293847e-03,-7.329213542994152120e-02,5.829015961057561201e-02
3.210000000000000075e-01,-9.228824149617564920e-02,-1.159607171171975204e-02,7.210318862454760669e-02
3.220000000000000084e-01,-1.482311469480690203e-01,6.743474544839073159e-02,8.765957415878623815e-02
3.230000000000000093e-01,-1.123675188646149070e-01,1.137551753071079363e-01,5.610452336138025548e-02
3.240000000000000102e-01,-7.120348441865906319e-02,1.215739866315007911e-01,-1.775147302837258231e-02
3.250000000000000111e-01,-1.891914949454094261e-02,7.513200412423322316e-02,-6.911280549386669692e-02
3.260000000000000120e-01,7.290756298410278058e-02,-2.278382901143126069e-02,-7.883069680266344137e-02
3.270000000000000129e-01,1.391892457442470143e-01,-8.551498503114018934e-02,-1.049968478766038910e-01
3.280000000000000138e-01,1.354331614634903536e-01,-1.282295562494377983e-01,-5.170313259043008564e-02
3.290000000000000147e-01,7.346247801685122647e-02,-8.586484459300300354e-02,1.864369408215815413e-02
3.300000000000000155e-01,-2.113025181313107209e-02,-3.888414830386274085e-02,4.987220655302488509e-02
3.310000000000000164e-01,-1.036005077825186277e-01,5.293967416198411269e-02,8.239009510156450333e-02
3.320000000000000173e-01,-1.369324248591238247e-01,7.608896014084028103e-02,7.478125156867790335e-02
3.330000000000000182e-01,-1.236374638981993929e-01,1.203028570510288192e-01,4.565360989866127511e-02
3.340000000000000191e-01,-5.933707632290163153e-02,8.968362369276547397e-02,-1.213706845193193891e-02
3.350000000000000200e-01,3.163147121309989318e-02,5.135976013703999477e-02,-7.322296480518213080e-02
3.360000000000000209e-01,1.039222177742048087e-01,-5.550313531285371721e-02,-7.877513969734085963e-02
3.370000000000000218e-01,1.266612055937539061e-01,-9.714047135328043869e-02,-8.305357520487652301e-02
3.380000000000000226e-01,1.253386994517246278e-01,-1.227265019914689781e-01,-4.967582354238370135e-02
3.390000000000000235e-01,2.583513511715137753e-02,-8.663850690766120022e-02,-8.310368075351325708e-04
3.400000000000000244e-01,-4.255634032658408422e-02,-3.870475917987318409e-02,6.392634443735067951e-02
3.410000000000000253e-01,-1.097967167519688786e-01,4.623833329622002025e-02,8.747809104351771115e-02
3.420000000000000262e-01,-1.474876503364375147e-01,1.038741980043043495e-01,7.656515367868557687e-02
3.430000000000000271e-01,-1.171484793241968775e-01,1.086478976865582341e-01,2.303444872677063229e-02
3.439999999999999725e-01,-3.572461873481090622e-02,7.302679595974116700e-02,-2.194064680494220432e-02
3.449999999999999734e-01,6.428885240907439291e-02,1.469383810686793017e-02,-7.663200078282891847e-02
3.459999999999999742e-01,1.195022984853178899e-01,-4.654459246491372132e-02,-8.456231899555324838e-02
3.469999999999999751e-01,1.509906396595364075e-01,-9.662801359202273510e-02,-9.283901301805802531e-02
3.479999999999999760e-01,1.178249115674653846e-01,-8.894727403143368183e-02,-2.988472536983905956e-02
3.489999999999999769e-01,3.367213327697125835e-02,-5.258515815693620005e-02,4.647861099945511942e-02
3.499999999999999778e-01,-7.491752550111333009e-02,-2.381506517039753599e-04,7.186573544803522007e-02
3.509999999999999787e-01,-1.192322094644674008e-01,6.386412116171487352e-02,8.966511954912147198e-02
3.519999999999999796e-01,-1.467338050065544741e-01,1.181283606774349293e-01,6.365070611360977570e-02
3.529999999999999805e-01,-9.105825601327684204e-02,1.026777464500255588e-01,1.451318593464066137e-02
3.539999999999999813e-01,-2.724996898222309394e-02,5.487726083235611868e-02,-1.027952176262304784e-02
3.549999999999999822e-01,9.263753443365078943e-02,-4.836676150376120016e-04,-8.538707105069215375e-02
3.559999999999999831e-01,1.270805194822229034e-01,-7.889532598777697359e-02,-6.892375871784957309e-02
3.569999999999999840e-01,1.416189254661981700e-01,-1.262622801121698612e-01,-6.679729911009787968e-02
3.579999999999999849e-01,1.089500160267100892e-01,-1.203502069615638020e-01,-4.017236439927050068e-02
3.589999999999999858e-01,1.072226402248411745e-02,-6.933736640717455546e-02,3.387325462634404455e-02
3.599999999999999867e-01,-5.363288502029553428e-02,3.266294866665020447e-02,5.995685676099166833e-02
3.609999999999999876e-01,-1.455490998702149708e-01,7.951509295438545510e-02,7.878513026204192471e-02
3.619999999999999885e-01,-1.320572974618061945e-01,1.062949610471782547e-01,5.551798829571209792e-02
3.629999999999999893e-01,-9.075496637897864649e-02,1.013065219265593397e-01,2.233004021296195601e-02
3.639999999999999902e-01,2.061402093420799247e-02,4.922491211872093153e-02,-3.581585768088579869e-02
3.649999999999999911e-01,9.143342035887723485e-02,-4.153527319778697185e-02,-5.165359182461218973e-02
3.659999999999999920e-01,1.504042893067016329e-01,-9.485348375986973890e-02,-7.063073307184786209e-02
3.669999999999999929e-01,1.375919530339940744e-01,-1.085170193643982123e-01,-6.784584077971772542e-02
3.679999999999999938e-01,9.131290176419283589e-02,-9.251025485985718555e-02,-1.865576093394260421e-02
3.689999999999999947e-01,-1.709863377650274602e-04,-2.617259869085780156e-03,4.237754018218814478e-02
3.699999999999999956e-01,-1.074146606242593061e-01,2.109657213697798891e-02,6.919998723218269421e-02
3.709999999999999964e-01,-1.503915138521518813e-01,1.239753559021456730e-01,7.868325228025380147e-02
3.719999999999999973e-01,-1.381552239586316677e-01,1.041148662791568646e-01,6.952249893708227491e-02
3.729999999999999982e-01,-4.037367445954118117e-02,9.879946883979301431e-02,4.250857983295129594e-02
3.739999999999999991e-01,2.270693081274037170e-02,1.493421344845523302e-02,-8.640982882901783110e-03
3.750000000000000000e-01,1.004727481646552484e-01,-5.117146288899367124e-02,-6.774350712951117404e-02
3.760000000000000009e-01,1.514104632052433452e-01,-1.106057220752458964e-01,-9.063977862297352417e-02
3.770000000000000018e-01,1.218499803464134362e-01,-1.109622718198172986e-01,-5.951658767970235964e-02
3.780000000000000027e-01,3.796323033731328900e-02,-6.912434881343020032e-02,-9.086456414478812083e-03
3.790000000000000036e-01,-4.059318282582966009e-02,-2.601481045737980002e-02,4.249925505404373444e-02
3.800000000000000044e-01,-1.224078220157435032e-01,5.033281255596153830e-02,8.276125303282820533e-02
3.810000000000000053e-01,-1.240551543553579383e-01,9.858490944468627226e-02,8.852507500205597513e-02
3.820000000000000062e-01,-9.634271401986345407e-02,1.237565537087049194e-01,5.031314055542511487e-02
3.830000000000000071e-01,-3.870050791677667745e-02,6.458621351744575634e-02,3.852298164503838163e-03
3.840000000000000080e-01,5.149881472961589240e-02,-8.659502405085084745e-03,-5.163813457394551831e-02
3.850000000000000089e-01,1.130602892278207428e-01,-6.442307704591812567e-02,-7.578539118972545119e-02
3.860000000000000098e-01,1.273572567068101402e-01,-1.103471384207178746e-01,-9.337519207165809187e-02
3.870000000000000107e-01,1.040618459411114111e-01,-1.061110325410085237e-01,-4.911438763169150706e-02
3.880000000000000115e-01,2.600159585579367438e-02,-3.632964822537786825e-02,-2.282708368159779618e-03
3.890000000000000124e-01,-5.969047873390338765e-02,3.420227627554304345e-02,3.516011590730074715e-02
3.900000000000000133e-01,-1.228890091079280628e-01,1.066283531025142284e-01,8.573138035046169725e-02
3.910000000000000142e-01,-1.221046496157310035e-01,1.250162227741126175e-01,7.189740240599264143e-02
3.920000000000000151e-01,-9.512789993966611068e-02,9.486093597349647133e-02,6.664669175962069370e-02
3.930000000000000160e-01,-1.982420306750233910e-02,2.737667911285324163e-02,4.878004155748759396e-03
3.940000000000000169e-01,6.285821499839998328e-02,-4.630446406049838065e-02,-5.367691412437195636e-02
3.950000000000000178e-01,1.333991473822654372e-01,-8.104225125507880101e-02,-8.667403904960077621e-02
3.960000000000000187e-01,1.455722003249552421e-01,-1.207008216791334160e-01,-8.756049564633899829e-02
3.970000000000000195e-01,9.067275157851277523e-02,-6.880771271929869703e-02,-4.896596833465669679e-02
3.980000000000000204e-01,5.345229570299037981e-03,-6.522544288804705756e-03,2.243856367766822006e-03
3.990000000000000213e-01,-9.348303074782732258e-02,5.377980595353101800e-02,4.064633238418945832e-02
4.000000000000000222e-01,-1.424847839482156764e-01,1.110665853181034279e-01,1.008737918066008460e-01
4.010000000000000231e-01,-1.452895773794565526e-01,1.250166595762717547e-01,8.827316219832927191e-02
4.020000000000000240e-01,-8.531999991626958157e-02,7.476114506155877304e-02,5.871365528101839260e-02
4.030000000000000249e-01,2.421890582082512899e-02,9.984614740487698231e-03,-4.262556505225239926e-03
4.040000000000000258e-01,8.034319250209248642e-02,-6.391209382797352623e-02,-6.388230916164332196e-02
4.050000000000000266e-01,1.524216947679520318e-01,-1.076383867228852403e-01,-8.498725355811510840e-02
4.060000000000000275e-01,1.187871075326735748e-01,-1.011539011697294432e-01,-7.634940071285793717e-02
4.069999999999999729e-01,7.676369711746304503e-02,-7.862872968589763867e-02,-5.396129497509390138e-02
4.079999999999999738e-01,1.455181141598081186e-03,5.315062178697363936e-03,-4.088942892236566129e-04
4.089999999999999747e-01,-7.343754896097456908e-02,9.036010372395134049e-02,6.856827798223441572e-02
4.099999999999999756e-01,-1.459883991309148532e-01,8.929013689714083990e-02,8.288983183911897978e-02
4.109999999999999765e-01,-1.489947888203645987e-01,1.284966756448838177e-01,7.498584061296330316e-02
4.119999999999999774e-01,-7.357337914874283180e-02,7.395459881164891114e-02,2.486711223704790932e-02
4.129999999999999782e-01,3.375197598089441087e-02,-1.975058079242911560e-02,-2.319610557699467238e-02
4.139999999999999791e-01,1.101253473032596936e-01,-8.250950405648270480e-02,-6.041825167331679736e-02
4.149999999999999800e-01,1.427246776209341594e-01,-1.219910387121833917e-01,-8.927798540510607783e-02
4.159999999999999809e-01,1.321952794368408124e-01,-1.103404049716301544e-01,-7.050413585854087284e-02
4.169999999999999818e-01,7.027424101583946980e-02,-6.201659794683343774e-02,-2.924439145440622251e-02
4.179999999999999827e-01,-2.581726593687001109e-02,3.639775182427499450e-02,1.886806572838613250e-02
4.189999999999999836e-01,-1.050831389605428601e-01,8.814213825433668548e-02,6.477891749154680856e-02
4.199999999999999845e-01,-1.465154256694593538e-01,9.772058530040446389e-02,1.181293651232627057e-01
4.209999999999999853e-01,-1.234923215745714759e-01,9.740429028212750640e-02,7.377091163682658603e-02
4.219999999999999862e-01,-5.099563862180619273e-02,4.229753094723993911e-02,1.682948271036352819e-02
4.229999999999999871e-01,4.994404304876310513e-02,-4.943385828662005821e-02,-2.005785331723927006e-02
4.239999999999999880e-01,1.161253179308920080e-01,-1.062710720918735446e-01,-7.909313975392376350e-02
4.249999999999999889e-01,1.465726654823231445e-01,-1.135009565826570060e-01,-9.522885480376555578e-02
4.259999999999999898e-01,9.646851842200433735e-02,-8.822886408719739226e-02,-5.619989816942603383e-02
4.269999999999999907e-01,2.867232162063259801e-02,-2.299186716233311140e-02,-3.097933291140122711e-02
4.279999999999999916e-01,-6.204242115752730408e-02,6.240638879679132750e-02,1.397190982828193546e-02
4.289999999999999925e-01,-1.210081843776296823e-01,9.478999676887570058e-02,7.953361919449949968e-02
4.299999999999999933e-01,-1.466138488817154417e-01,1.185986156948865833e-01,7.977973644722151370e-02
4.309999999999999942e-01,-1.299451079887302685e-01,6.203275254154343166e-02,8.233842564388343943e-02
4.319999999999999951e-01,-2.621944279973616870e-02,1.129424048271765631e-02,1.752779338784597393e-02
4.329999999999999960e-01,4.420407637996901645e-02,-8.973620363802724265e-02,-3.464422648452638448e-02
4.339999999999999969e-01,1.280513181715964011e-01,-1.105568391699263547e-01,-7.986960089251209094e-02
4.349999999999999978e-01,1.390540390039972651e-01,-1.085338026916122106e-01,-9.260458433216353646e-02
4.359999999999999987e-01,8.755466627038106797e-02,-7.867097754309335111e-02,-7.110337481414413796e-02
4.369999999999999996e-01,1.848022727468424942e-02,-1.646249334957473193e-02,-3.421812369535463805e-02
4.380000000000000004e-01,-7.040551816295194387e-02,5.931751873735088831e-02,4.806992119088549648e-02
4.390000000000000013e-01,-1.299944105904383695e-01,1.046796790136356042e-01,7.625947919570648381e-02
4.400000000000000022e-01,-1.341251483105786457e-01,1.282762957478604526e-01,9.886592117265943780e-02
4.410000000000000031e-01,-9.140415429453907503e-02,5.393493891311582772e-02,4.478038792349382097e-02
4.420000000000000040e-01,2.283576568256140762e-02,-2.096930692021986911e-02,1.678017058793570410e-02
4.430000000000000049e-01,9.929114157493751369e-02,-7.836752777905155176e-02,-9.478826316075860889e-03
4.440000000000000058e-01,1.274710499426255639e-01,-1.141457099953747389e-01,-7.096604548980463278e-02
4.450000000000000067e-01,1.469951418784117558e-01,-7.010001623975846419e-02,-8.773898977765215434e-02
4.460000000000000075e-01,7.417865784341542978e-02,-4.961428377457199196e-02,-8.027267064137366681e-02
4.470000000000000084e-01,-1.021053072456202561e-02,3.291827962628317977e-02,-2.752347488724445415e-02
4.480000000000000093e-01,-8.392946652641775085e-02,8.248423996066779618e-02,3.828789624406219588e-02
4.490000000000000102e-01,-1.598760007952864381e-01,1.102475002178464475e-01,7.320694801993281320e-02
4.500000000000000111e-01,-1.393689696076227946e-01,8.244138378156098956e-02,1.041676696287731907e-01
4.510000000000000120e-01,-4.351742289988089207e-02,2.390526896977319266e-02,5.768072500746686954e-02
4.520000000000000129e-01,1.425208403268798767e-02,-5.799649131376594102e-02,1.101046214759756128e-02
4.530000000000000138e-01,1.155963461333379405e-01,-1.087066904000289214e-01,-3.133052634110757712e-02
4.540000000000000147e-01,1.565781196755636762e-01,-1.397161985414282770e-01,-7.074483974198737812e-02
4.550000000000000155e-01,1.273581300774654090e-01,-8.916180499113086910e-02,-7.753738695851462859e-02
4.560000000000000164e-01,5.567968944321914637e-02,-3.617652540456815086e-02,-4.676933248731085513e-02
4.570000000000000173e-01,-2.540407492505283513e-02,4.983117693622495653e-02,1.046637867969701062e-02
4.580000000000000182e-01,-1.228861561941060609e-01,1.097994739199734116e-01,5.800428160787880066e-02
4.590000000000000191e-01,-1.546890625640094941e-01,1.091488545788650844e-01,8.893356008955266567e-02
4.600000000000000200e-01,-1.191415440983760871e-01,7.958812489774431953e-02,7.230449980165191970e-02
4.610000000000000209e-01,-7.676201106069927005e-02,3.354971481079084550e-03,4.595124943940628176e-02
4.620000000000000218e-01,2.988486703507883813e-02,-6.174469464152335108e-02,-7.211134499641152357e-03
4.630000000000000226e-01,1.051641088251817763e-01,-1.126855190657861244e-01,-4.749462980369596743e-02
4.640000000000000235e-01,1.330134183645405865e-01,-1.136324060976662276e-01,-8.380388393086125876e-02
4.650000000000000244e-01,1.214777211679645558e-01,-7.335207174303615130e-02,-8.499445699266318377e-02
4.660000000000000253e-01,3.200959486267485749e-02,7.958113077538665758e-03,-2.513619481773392630e-02
4.670000000000000262e-01,-5.632875131939454189e-02,7.402244405701130514e-02,-2.736981136704477041e-03
4.680000000000000271e-01,-1.362633707352705892e-01,1.203586777761960908e-01,7.319294941167824031e-02
4.689999999999999725e-01,-1.641695314942230588e-01,1.207499114899997228e-01,1.010610226710517839e-01
4.699999999999999734e-01,-9.285091951249611897e-02,4.260567799725567539e-02,8.751647724647258764e-02
4.709999999999999742e-01,-1.330806862791959928e-02,-9.114332657656406059e-03,5.272241825526235298e-02
4.719999999999999751e-01,6.374347777652207558e-02,-6.452545035207971069e-02,-1.368468544239389434e-02
4.729999999999999760e-01,1.519846061102731183e-01,-1.209045017100241343e-01,-5.904716527634907425e-02
4.739999999999999769e-01,1.337652200960831039e-01,-1.065205555758504674e-01,-8.470773169862369500e-02
4.749999999999999778e-01,1.009551241045834602e-01,-5.068276688792033163e-02,-8.729065728091106591e-02
4.759999999999999787e-01,3.321732754223512968e-02,6.891792171408688342e-03,-3.650290288949226830e-02
4.769999999999999796e-01,-7.174366854900139645e-02,8.538334490399783483e-02,1.689606591641578878e-02
4.779999999999999805e-01,-1.224955471834720255e-01,9.377316164073765115e-02,4.661746521628482715e-02
4.789999999999999813e-01,-1.537122276051816061e-01,1.033705166019827787e-01,7.624646336661154711e-02
4.799999999999999822e-01,-9.813796731070990875e-02,2.797263401223933077e-02,1.018571799371247449e-01
4.809999999999999831e-01,-7.236934750910512144e-03,-3.517931702825277673e-02,3.820003056982428091e-02
4.819999999999999840e-01,8.910694235504967864e-02,-8.900920128807930654e-02,-3.031910389521254301e-03
4.829999999999999849e-01,1.366302234477353716e-01,-1.004816650010969398e-01,-4.893633117214361145e-02
4.839999999999999858e-01,1.257070347988237802e-01,-8.393708324229715023e-02,-9.224389371064156684e-02
4.849999999999999867e-01,7.435389168631478807e-02,-2.172858801673467621e-02,-6.845681634855531328e-02
4.859999999999999876e-01,-1.951284490381092682e-02,4.435210043484340975e-02,-3.004390732115747725e-02
4.869999999999999885e-01,-8.025437610573760150e-02,1.224438413500271855e-01,3.405529578753881820e-02
4.879999999999999893e-01,-1.458091364141794188e-01,1.370881387750379488e-01,6.368590050716438355e-02
4.889999999999999902e-01,-1.332551278171943965e-01,1.050990142429798074e-01,9.753080350063107751e-02
4.899999999999999911e-01,-7.871396269441686966e-02,3.142033425399951702e-02,8.903381476842293918e-02
4.909999999999999920e-01,-5.268781684000719287e-04,-7.735213530958591488e-02,1.661789435503717091e-02
4.919999999999999929e-01,9.553263062918031234e-02,-1.212767998957733351e-01,-1.138321976303528077e-02
4.929999999999999938e-01,1.471272081421964584e-01,-9.394722756713809464e-02,-7.193270127967836547e-02
4.939999999999999947e-01,1.315468966383263327e-01,-7.540282401467530982e-02,-7.517297959928645468e-02
4.949999999999999956e-01,5.075430211910644113e-02,9.777087019515452032e-03,-7.710308385132574882e-02
4.959999999999999964e-01,-2.266325511476018767e-02,7.029572615475611352e-02,-2.397550277707883801e-02
4.969999999999999973e-01,-9.762246975635098523e-02,1.196457744231880227e-01,2.219819597345759621e-02
4.979999999999999982e-01,-1.506942836237429584e-01,9.865306595596196049e-02,7.323388953165760329e-02
4.989999999999999991e-01,-1.165386531091353178e-01,5.206314953345584501e-02,9.724284427796575647e-02
5.000000000000000000e-01,-4.997980615675504806e-02,-1.937457761751798513e-02,6.822089680305021275e-02
5.010000000000000009e-01,4.743035158133914603e-02,-9.668233860599541318e-02,1.709606807683413179e-02
5.020000000000000018e-01,1.274975389304477680e-01,-1.050643718682390676e-01,-3.056857687372275742e-02
5.030000000000000027e-01,1.406528417915281493e-01,-8.844861225588895870e-02,-9.674856569733925049e-02
5.040000000000000036e-01,1.445783285267542850e-01,-3.333130632041534508e-02,-8.563721145226611819e-02
5.050000000000000044e-01,4.178889057778819444e-02,2.350826362602092059e-02,-8.840676071977934813e-02
5.060000000000000053e-01,-5.026661258733571697e-02,9.072272765446409704e-02,-3.076700224589861907e-02
5.070000000000000062e-01,-1.473367412991222758e-01,1.397161201195877556e-01,5.022896369782696435e-02
5.080000000000000071e-01,-1.514147212796645992e-01,9.221343357040220901e-02,1.095430047857800931e-01
5.090000000000000080e-01,-1.043497710701330738e-01,4.813650282751721909e-02,8.236745730741321103e-02
5.100000000000000089e-01,-2.875572282503100277e-02,-4.433971786678773952e-02,5.734251058441582061e-02
5.110000000000000098e-01,6.934360006673417898e-02,-9.546825933945411735e-02,4.480091888086754266e-04
5.120000000000000107e-01,1.166823914173069077e-01,-1.200045158386432165e-01,-4.776051859245173531e-02
5.130000000000000115e-01,1.521883729213961700e-01,-8.672411445038376299e-02,-5.697225273623331143e-02
5.140000000000000124e-01,8.584808861208638453e-02,-2.252485778454444906e-02,-9.811395269253588014e-02
5.150000000000000133e-01,1.760068739004906277e-02,3.650718416209471073e-02,-5.948033934127610473e-02
5.160000000000000142e-01,-7.221380290173899652e-02,1.172606450087345514e-01,-9.885576857897440672e-03
5.170000000000000151e-01,-1.383281643692865215e-01,1.102899377445681478e-01,3.701551218958189921e-02
5.180000000000000160e-01,-1.359096513793593419e-01,7.152277666378310805e-02,9.685004527529782192e-02
5.190000000000000169e-01,-9.454245880001772850e-02,4.214170048372144553e-03,6.553505765609281275e-02
5.200000000000000178e-01,-1.704881578598838043e-02,-6.130407046101456203e-02,5.410266442950515536e-02
5.210000000000000187e-01,6.175360069186475176e-02,-1.278510119990442784e-01,-1.688367830058691620e-04
5.220000000000000195e-01,1.461762926548890729e-01,-1.093233082236060305e-01,-5.140173712603920975e-02
5.230000000000000204e-01,1.437137784625243109e-01,-6.703443306806428081e-02,-7.050780446605635354e-02
5.240000000000000213e-01,1.012499046657257956e-01,2.309248453281638469e-02,-8.828415727878727304e-02
5.250000000000000222e-01,-1.347110985240697854e-02,7.268727233188562731e-02,-6.374725150672141960e-02
5.260000000000000231e-01,-1.042359426878029793e-01,9.780613369247528888e-02,2.518920450273171019e-02
5.270000000000000240e-01,-1.452817436709831489e-01,9.287070873186843711e-02,4.971296409889668783e-02
5.280000000000000249e-01,-1.342973749376188131e-01,3.859153163096441103e-02,7.242348994481327684e-02
5.290000000000000258e-01,-6.739454390967097863e-02,-2.406994353969587816e-02,6.827085699087531712e-02
5.300000000000000266e-01,2.126192189037995686e-02,-8.374659283435727242e-02,4.741376486500811782e-02
5.310000000000000275e-01,1.144150545284757514e-01,-1.153353514300555771e-01,6.873189047338846419e-03
5.320000000000000284e-01,1.453107519963072747e-01,-8.150403202728009888e-02,-6.054864868447932397e-02
5.330000000000000293e-01,1.351973646747326174e-01,-3.130969609037938250e-02,-9.351376728384133696e-02
5.340000000000000302e-01,6.087184907255658445e-02,4.891001717771031182e-02,-9.472265394161746843e-02
5.350000000000000311e-01,-1.713192482343776565e-02,1.180916892197054480e-01,-3.238632608525712775e-02
5.360000000000000320e-01,-1.044267560349179391e-01,1.114584226859939714e-01,1.402065276920583942e-02
5.370000000000000329e-01,-1.201016827023690392e-01,1.022862004349007620e-01,4.980546854893484060e-02
5.380000000000000338e-01,-1.096307971335179071e-01,3.788848991086753160e-02,7.453033936842869134e-02
5.390000000000000346e-01,-5.839448793109289909e-02,-4.499613424006548845e-02,7.949862014137921984e-02
5.400000000000000355e-01,3.839607749966268690e-02,-1.087593337240197050e-01,4.430233034320914948e-02
5.410000000000000364e-01,1.166137342336655697e-01,-1.149466388883142176e-01,-1.744742944516971747e-02
5.420000000000000373e-01,1.553570080244364160e-01,-1.042190149280588368e-01,-5.578680256482319161e-02
5.430000000000000382e-01,1.223385069970115285e-01,-2.199427694868615057e-02,-7.350067638202048559e-02
5.440000000000000391e-01,6.266349873238524770e-02,6.364950290513367304e-02,-9.044172771909621267e-02
5.450000000000000400e-01,-2.999454080230664482e-02,1.118537884516671160e-01,-4.622856212859825092e-02
5.460000000000000409e-01,-1.155144532951473541e-01,1.012068422857222566e-01,1.105367870838688642e-02
5.470000000000000417e-01,-1.368217387621752379e-01,9.099654762245017181e-02,5.403110812425253318e-02
5.480000000000000426e-01,-1.316722113568932206e-01,7.964823910986419111e-04,8.825313657978772763e-02
5.490000000000000435e-01,-3.078470065024433919e-02,-4.517462985440812151e-02,8.402072135212676485e-02
5.500000000000000444e-01,5.489755806630697982e-02,-8.981314661613748473e-02,4.422335918535041932e-02
5.510000000000000453e-01,1.320910832255920986e-01,-1.078773063174832264e-01,-4.044109745722769544e-02
5.520000000000000462e-01,1.369436526575029400e-01,-3.454686358554134168e-02,-6.841245697576518736e-02
5.530000000000000471e-01,9.482152219380438063e-02,2.208230725794555968e-02,-8.629540558008026718e-02
5.540000000000000480e-01,2.102577061128559424e-02,6.385586561874069533e-02,-6.524445512498140698e-02
5.550000000000000488e-01,-7.363198417834293519e-02,1.045780317300350898e-01,-2.682318678772921752e-02
5.560000000000000497e-01,-1.259923907607126137e-01,1.284913806760102917e-01,2.992970834512933415e-02
5.570000000000000506e-01,-1.397343094294617727e-01,6.010068894227527797e-02,8.305826367739950478e-02
5.580000000000000515e-01,-1.013317807573207302e-01,-2.321423819089086377e-02,7.119355866586207782e-02
5.590000000000000524e-01,-9.873824620433188995e-03,-9.565012425842230048e-02,6.085991832139301533e-02
5.600000000000000533e-01,6.234715524526048686e-02,-1.294404365718380967e-01,1.578817111160110004e-02
5.610000000000000542e-01,1.564945896306354500e-01,-1.029381065972724274e-01,-3.110501754450221631e-02
5.620000000000000551e-01,1.479438655783520129e-01,-3.525588879689989241e-02,-7.362462647880227418e-02
5.629999999999999449e-01,8.026565107309929781e-02,3.740439052278482501e-02,-9.765563248672082253e-02
5.639999999999999458e-01,-8.870034100191477242e-03,9.964609256079799693e-02,-8.670141938896096245e-02
5.649999999999999467e-01,-8.438373401681878438e-02,1.363918603356708004e-01,-2.036898649657178928e-02
5.659999999999999476e-01,-1.378763619903403959e-01,8.484660082097852940e-02,2.729035602578517433e-02
5.669999999999999485e-01,-1.640187050597722851e-01,4.504856174056743462e-02,8.489367541777144421e-02
5.679999999999999494e-01,-7.557817733159014062e-02,-5.588306721505649499e-02,8.870940519218417641e-02
5.689999999999999503e-01,1.333846700058198727e-02,-1.196245000763349053e-01,5.396442308733981341e-02
5.699999999999999512e-01,1.151464968922280424e-01,-1.119543238040319327e-01,8.438057967784864943e-03
5.709999999999999520e-01,1.538530508142740560e-01,-8.403211443127912850e-02,-2.563458266456630774e-02
5.719999999999999529e-01,1.441035933934384505e-01,2.181747662464969973e-03,-7.652445753909940807e-02
5.729999999999999538e-01,6.183839083651256757e-02,6.244520304754116319e-02,-7.059805133352758943e-02
5.739999999999999547e-01,-1.404020451151844970e-02,1.101580995346805175e-01,-4.318692843255791253e-02
5.749999999999999556e-01,-9.813438962904305618e-02,1.266048735762710375e-01,-2.518517832190216542e-03
5.759999999999999565e-01,-1.425906178362916776e-01,8.824165664650562846e-02,3.087955622923982402e-02
5.769999999999999574e-01,-1.084849004485763657e-01,1.846254318995181609e-02,8.725302756398256587e-02
5.779999999999999583e-01,-6.301029072385243290e-02,-4.876828662334390524e-02,8.579578740822356442e-02
5.789999999999999591e-01,5.002926548510546606e-02,-1.212496257778085396e-01,7.234869606999781710e-02
5.799999999999999600e-01,1.127730633743027344e-01,-9.774284231392756095e-02,1.324841221827258338e-02
5.809999999999999609e-01,1.290037006104838291e-01,-5.770414106572839541e-02,-4.282958240676398853e-02
5.819999999999999618e-01,1.171755372681468343e-01,2.514442042306059069e-02,-1.032606834512036775e-01
5.829999999999999627e-01,5.375290250078233745e-02,7.746459962726252868e-02,-9.857639401884600583e-02
5.839999999999999636e-01,-4.219555656776120128e-02,9.881216640684523100e-02,-4.724991044627695896e-02
5.849999999999999645e-01,-1.117345881181706774e-01,1.012966565843317623e-01,-1.438265918478657222e-02
5.859999999999999654e-01,-1.558464440552949359e-01,4.321609535087336113e-02,4.243762604514376979e-02
5.869999999999999662e-01,-1.181205139421364902e-01,-2.941688676445873910e-02,6.996739591716326367e-02
5.879999999999999671e-01,-1.459547422183836950e-02,-7.688840967279410299e-02,4.977911669370858883e-02
5.889999999999999680e-01,8.431250404153700639e-02,-1.177018042979877527e-01,4.732623001494962872e-02
5.899999999999999689e-01,1.201785237224757136e-01,-1.002130443389089021e-01,9.042904440738270308e-05
5.909999999999999698e-01,1.563457308100110743e-01,-5.039659232338710576e-02,-3.423503858484556323e-02
5.919999999999999707e-01,1.066398786481717459e-01,3.407277393469172050e-02,-8.551726230604358991e-02
5.929999999999999716e-01,4.888996159816427767e-02,8.367409499968231357e-02,-7.745526733995691804e-02
5.939999999999999725e-01,-7.008383793260972161e-02,1.153458988324520818e-01,-4.142078336045123405e-02
5.949999999999999734e-01,-1.183599387823360549e-01,8.937467865061234085e-02,7.665261476754187814e-03
5.959999999999999742e-01,-1.410881482673733422e-01,1.836035152013603192e-02,3.860101203628065608e-02
5.969999999999999751e-01,-9.448157371063335697e-02,-3.762908475033006905e-02,8.154470957115890484e-02
5.979999999999999760e-01,-2.055032987603635369e-02,-9.703053379889410579e-02,7.556246288399809385e-02
5.989999999999999769e-01,5.666456537059251508e-02,-1.066349486242388206e-01,5.103441120895834543e-02
5.999999999999999778e-01,1.314832007993506080e-01,-7.423368539887674478e-02,9.295476335942456578e-03
6.009999999999999787e-01,1.676830284586824371e-01,-4.495768100099223428e-04,-5.266891126650372068e-02
6.019999999999999796e-01,8.869416069901639443e-02,5.174211052194717386e-02,-7.403044771336907137e-02
6.029999999999999805e-01,2.427472189740632544e-02,1.080498982142362313e-01,-7.426066833956132540e-02
6.039999999999999813e-01,-8.302570679352794247e-02,9.984825014480293304e-02,-4.366665937252067753e-02
6.049999999999999822e-01,-1.454118403158714545e-01,6.411662637074419524e-02,1.523421315448652072e-02
6.059999999999999831e-01,-1.326810690235598056e-01,1.257257667207863734e-03,5.371299493374261103e-02
6.069999999999999840e-01,-8.391136446163262319e-02,-8.153208137812373302e-02,8.005382596752350088e-02
6.079999999999999849e-01,5.776308979759404647e-03,-1.111101830834085036e-01,6.468530754497113511e-02
6.089999999999999858e-01,1.059674725555992958e-01,-1.216113536997039668e-01,4.616725572613609996e-02
6.099999999999999867e-01,1.320452881964233049e-01,-6.018093061463938159e-02,-1.721051797848022202e-02
6.109999999999999876e-01,1.283652943709362726e-01,6.605292149379650597e-03,-4.522343647321144106e-02
6.119999999999999885e-01,7.331957139256180256e-02,6.693570748949759230e-02,-1.028107480571238685e-01
6.129999999999999893e-01,-1.406396710152033568e-02,1.101726685367240555e-01,-5.568570202296498767e-02
6.139999999999999902e-01,-1.171653403532348647e-01,9.721310800656199347e-02,-3.575795301943481691e-02
6.149999999999999911e-01,-1.563705997730608366e-01,5.573629179118025356e-02,9.879227748688152247e-03
6.159999999999999920e-01,-1.448383757231916369e-01,-1.464536050353099951e-02,6.761650408466132745e-02
6.169999999999999929e-01,-5.744297141822271580e-02,-9.817905270355507807e-02,8.250866703335239805e-02
6.179999999999999938e-01,2.449705916496941818e-02,-1.242245805287402610e-01,8.086832131615454000e-02
6.189999999999999947e-01,1.285596812862326022e-01,-7.693066985121367607e-02,3.190806579048124231e-02
6.199999999999999956e-01,1.254851587757355447e-01,-4.892298396985980680e-02,-1.781448596842690260e-02
6.209999999999999964e-01,1.340073087901872406e-01,4.100324355919890418e-02,-8.098518447512194351e-02
6.219999999999999973e-01,5.594848900235136618e-02,1.071277534363896528e-01,-8.207530422232052481e-02
6.229999999999999982e-01,-4.082383125196217821e-02,1.073860743854306299e-01,-7.930516504122660237e-02
6.239999999999999991e-01,-1.102523530155511966e-01,7.804605751621315757e-02,-2.063242838820811623e-02
6.250000000000000000e-01,-1.240237266524559789e-01,8.092282184561060132e-03,6.759128745359895864e-03
6.260000000000000009e-01,-1.370645647585148341e-01,-4.437787244745181742e-02,6.524577375468106066e-02
6.270000000000000018e-01,-1.754821314601600138e-02,-1.293661081747521369e-01,1.039397734839866416e-01
6.280000000000000027e-01,5.919718855959756054e-02,-1.255316891429808790e-01,8.071135357515524245e-02
6.290000000000000036e-01,1.160329323382808947e-01,-6.936750508483129074e-02,2.789456345848016772e-02
6.300000000000000044e-01,1.364606932020751284e-01,-3.326907003707896271e-02,-1.196078777136436351e-02
6.310000000000000053e-01,1.091060353927894300e-01,6.288058241307244167e-02,-5.775680105176191764e-02
6.320000000000000062e-01,3.770560025132559806e-02,1.078639427873221007e-01,-1.029017943599891682e-01
6.330000000000000071e-01,-7.584833445105360061e-02,9.882092778966920787e-02,-7.138253582134719555e-02
6.340000000000000080e-01,-1.387123389395716055e-01,6.484318386972708070e-02,-1.880493725325010565e-02
6.350000000000000089e-01,-1.430833388788712579e-01,1.664261370283981814e-02,3.342739426689438076e-02
6.360000000000000098e-01,-8.845107081026412632e-02,-8.056251087540194922e-02,7.214034421035571409e-02
6.370000000000000107e-01,-2.123998350110720482e-02,-1.160776032171604577e-01,9.386669981822488851e-02
6.380000000000000115e-01,5.888751321188154947e-02,-1.076851907678967324e-01,4.949202412109871690e-02
6.390000000000000124e-01,1.449291851782164298e-01,-4.500529830595693254e-02,-3.312810686681079420e-03
6.400000000000000133e-01,1.523023744094444132e-01,2.450820701178441779e-02,-2.554218165241561520e-02
6.410000000000000142e-01,7.325630795010934504e-02,7.905126137889297022e-02,-8.974616963780780721e-02
6.420000000000000151e-01,-3.064355826440641126e-03,1.209931384846548164e-01,-7.366101032524492720e-02
6.430000000000000160e-01,-9.312039316193834737e-02,8.591097875956096863e-02,-7.206696376317556219e-02
6.440000000000000169e-01,-1.372903265729195632e-01,5.912441066754156593e-02,-1.545085408620082423e-02
6.450000000000000178e-01,-1.381645654639630239e-01,-3.233198871427490906e-02,4.489961957584177182e-02
6.460000000000000187e-01,-7.712194047951047293e-02,-8.474089231882503404e-02,6.810858382684838175e-02
6.470000000000000195e-01,1.717066050466444990e-02,-1.114315240598838241e-01,9.062462682862247598e-02
6.480000000000000204e-01,8.374242125349294630e-02,-1.024899582392533454e-01,5.990065671337796438e-02
6.490000000000000213e-01,1.512691491260313992e-01,-2.727278317050495574e-02,6.195101318464538327e-03
6.500000000000000222e-01,1.352984802643643070e-01,3.274137853526506298e-02,-4.393189077769270312e-02
6.510000000000000231e-01,6.803620228345597098e-02,1.000328408951885045e-01,-8.199145563640330980e-02
6.520000000000000240e-01,-2.038148492684522389e-02,9.685362348987852643e-02,-7.244121518740462284e-02
6.530000000000000249e-01,-8.801237147852265796e-02,1.010901389258141020e-01,-5.657399106722486165e-02
6.540000000000000258e-01,-1.320142554835588844e-01,2.654115775774775962e-02,-2.287055661982981963e-02
6.550000000000000266e-01,-1.312687076367184680e-01,-3.586029835933130655e-02,5.282535658426963654e-02
6.560000000000000275e-01,-6.667640079841175016e-02,-1.201354000926982135e-01,7.419906075432571024e-02
6.570000000000000284e-01,4.274222386008841301e-02,-1.174254695422268790e-01,6.033781151833676748e-02
6.580000000000000293e-01,9.527348521450759722e-02,-9.968709688957647086e-02,5.246665483285158776e-02
6.590000000000000302e-01,1.507561965573939178e-01,-6.509858125472175495e-03,1.079809213184607444e-02
6.600000000000000311e-01,1.347028832345553706e-01,6.712341797351531469e-02,-3.023507522281461413e-02
6.610000000000000320e-01,6.619479815073843476e-02,1.054118839143604464e-01,-5.950358925067026489e-02
6.620000000000000329e-01,-4.353082906426723742e-02,1.198289317662030035e-01,-6.847539253586537589e-02
6.630000000000000338e-01,-1.284950626505462767e-01,5.883788817232315366e-02,-4.459312334769655745e-02
6.640000000000000346e-01,-1.557932975143848375e-01,-3.826302394411723075e-03,-9.024410347559158607e-03
6.650000000000000355e-01,-1.138259307458052844e-01,-7.325224901718005444e-02,6.940010928581336058e-02
6.660000000000000364e-01,-3.094464553883907731e-02,-1.149195327080072548e-01,8.804611271318375787e-02
6.670000000000000373e-01,6.416367696419138233e-02,-9.890025791885508066e-02,6.913258442709310780e-02
6.680000000000000382e-01,1.380157009010821167e-01,-7.390944225297164938e-02,5.203278903975103870e-02
6.690000000000000391e-01,1.495891517847881547e-01,-8.907475622212630362e-04,9.208203643179832185e-03
6.700000000000000400e-01,9.642460889922858935e-02,6.452814287447476704e-02,-3.307840118990418299e-02
6.710000000000000409e-01,5.080180357251633944e-02,1.235247018993004264e-01,-8.408254010357314734e-02
6.720000000000000417e-01,-5.081091603636103682e-02,1.033996638486305575e-01,-7.844409111038622151e-02
6.730000000000000426e-01,-1.249406831909169735e-01,4.773605761543968373e-02,-4.007899052993268985e-02
6.740000000000000435e-01,-1.542222219498842195e-01,-4.443713286664209561e-02,4.617457626452197567e-03
6.750000000000000444e-01,-9.224396603362261526e-02,-6.340962141549311148e-02,7.891948426221256918e-02
6.760000000000000453e-01,-3.408503626897802646e-02,-1.237705029923650002e-01,1.030869461583589358e-01
6.770000000000000462e-01,8.703572438264307876e-02,-8.503645999273509726e-02,7.273694341307494760e-02
6.780000000000000471e-01,1.130138154558500696e-01,-2.326104295091220575e-02,5.082419826528384449e-02
6.790000000000000480e-01,1.492703158640781846e-01,4.334467284583207874e-02,-8.956520864842089369e-03
6.800000000000000488e-01,8.843098820688677364e-02,9.639974630803599398e-02,-6.578843119748124801e-02
6.810000000000000497e-01,1.112859025734387781e-02,1.117273266456745295e-01,-8.254530607576451851e-02
6.820000000000000506e-01,-7.805591801501327032e-02,8.541523581453308589e-02,-8.956665686432185858e-02
6.830000000000000515e-01,-1.142354926029701956e-01,1.036979044200337166e-02,-4.825268858517278020e-02
6.840000000000000524e-01,-1.261036158129898166e-01,-4.707473884673278597e-02,-1.417994117016822559e-03
6.850000000000000533e-01,-9.582776367306293508e-02,-1.065442891074118992e-01,6.258518605052058870e-02
6.860000000000000542e-01,-2.949855901218233212e-03,-1.158500604094946235e-01,5.221326614751699985e-02
6.870000000000000551e-01,1.056604293955160229e-01,-7.443110389137043426e-02,8.713353153033630283e-02
6.879999999999999449e-01,1.321627049586835689e-01,-2.004412508357656438e-03,3.869346551843962090e-02
6.889999999999999458e-01,1.407664125332830918e-01,6.022486307575993653e-02,-7.323012441236890178e-03
6.899999999999999467e-01,7.724907196138652843e-02,1.023344875052768499e-01,-8.306045054433304486e-02
6.909999999999999476e-01,-8.800397277526640291e-03,1.119590217030145135e-01,-8.108258554311295607e-02
6.919999999999999485e-01,-1.130213133995658509e-01,5.502695659676858086e-02,-6.711274556039972805e-02
6.929999999999999494e-01,-1.546005985329728105e-01,-2.217610202565654942e-02,-4.312893619411614643e-02
6.939999999999999503e-01,-1.304259328759442005e-01,-7.873837982044971928e-02,2.293153091327161663e-02
6.949999999999999512e-01,-7.176745422074796987e-02,-1.136111408548447360e-01,6.887172187781881449e-02
6.959999999999999520e-01,4.172502807946697201e-03,-1.280145177007198931e-01,9.259461921095084314e-02
6.969999999999999529e-01,1.103045885613254118e-01,-5.564511513434034634e-02,6.458634466975810007e-02
6.979999999999999538e-01,1.318178363417264465e-01,1.193406477130894844e-02,4.278168426830534360e-02
6.989999999999999547e-01,1.197633308996853968e-01,4.995569045279261294e-02,3.490337753587485856e-03
6.999999999999999556e-01,4.494651091369714080e-02,1.090995056482293307e-01,-7.211130649162621198e-02
7.009999999999999565e-01,-3.700391347802947650e-02,9.384286432932154032e-02,-9.869722375814143911e-02
7.019999999999999574e-01,-8.442127067083786407e-02,6.089703946751335445e-02,-8.025183891213961973e-02
7.029999999999999583e-01,-1.235971213665355284e-01,-1.453874619752274985e-02,-2.772424703953541361e-02
7.039999999999999591e-01,-1.171414909083639266e-01,-8.695606411674786096e-02,1.078591104554846476e-02
7.049999999999999600e-01,-4.494238731336162168e-02,-1.093231690937653405e-01,6.564965115649673555e-02
7.059999999999999609e-01,3.396053908961051138e-02,-9.125988424296038737e-02,9.666995326151711643e-02
7.069999999999999618e-01,1.155628377033310616e-01,-2.525368882579948071e-02,7.098656494973804021e-02
7.079999999999999627e-01,1.494697806597030942e-01,5.217392279987598941e-02,2.305648580902864772e-02
7.089999999999999636e-01,1.377168428042540027e-01,9.020506468026914804e-02,-3.149471522959633452e-02
7.099999999999999645e-01,4.458861996962001917e-02,1.070241938460841369e-01,-7.906652618436099678e-02
7.109999999999999654e-01,-8.123266628826808500e-02,8.575305087778707647e-02,-7.707888941599927435e-02
7.119999999999999662e-01,-1.193730184796562149e-01,2.157315404529938294e-02,-5.667178837369847566e-02
7.129999999999999671e-01,-1.522821084374403888e-01,-2.861652880392134141e-02,-2.222115036094697918e-02
7.139999999999999680e-01,-9.141787181462725231e-02,-1.277226370145659873e-01,2.631854632055955628e-02
7.149999999999999689e-01,-2.834260311411072181e-02,-1.227551474580065027e-01,7.920944362455750731e-02
7.159999999999999698e-01,8.525185332471203747e-02,-7.350340724250956081e-02,7.988477092306646432e-02
7.169999999999999707e-01,1.384282829822069960e-01,8.249338256222741098e-03,3.772386505680934421e-02
7.179999999999999716e-01,1.558168950653344154e-01,5.402148154605843772e-02,1.933056231988931201e-02
7.189999999999999725e-01,1.005441734184034097e-01,1.000317001429401331e-01,-1.954838672084987031e-02
7.199999999999999734e-01,-3.658207733392953263e-03,9.825744724483007064e-02,-9.560608002699300112e-02
7.209999999999999742e-01,-8.433144372766625263e-02,6.915489110196279543e-02,-9.372810929540853486e-02
7.219999999999999751e-01,-1.434288127098233001e-01,-2.257175215023674367e-03,-6.288309779662089316e-02
7.229999999999999760e-01,-1.296734088491133807e-01,-9.239395660573077040e-02,-3.829854221304199949e-03
7.239999999999999769e-01,-8.461218789361130144e-02,-9.810603006640994384e-02,7.078142813882543072e-02
7.249999999999999778e-01,7.262661470501062923e-04,-1.028483696873555425e-01,7.688738705743336510e-02
7.259999999999999787e-01,5.963663889319761879e-02,-6.115511500181037424e-02,6.330178837985366014e-02
7.269999999999999796e-01,1.418520843406821108e-01,1.627306370298512578e-02,5.814635322107101351e-02
7.279999999999999805e-01,1.595625515929074145e-01,6.365501239347978735e-02,-2.524087268441763555e-03
7.289999999999999813e-01,9.095868078839125515e-02,1.227222339138941409e-01,-7.146720256951055728e-02
7.299999999999999822e-01,-1.890053449084011516e-02,6.181958444733565844e-02,-9.537308442282936560e-02
7.309999999999999831e-01,-9.045029365206455618e-02,3.780646047946066568e-02,-9.575159581598063907e-02
7.319999999999999840e-01,-1.370074055449380657e-01,-1.920320492838439516e-02,-4.725420814885233911e-02
7.329999999999999849e-01,-1.355357597396231739e-01,-8.274769816283482349e-02,1.243200046281199220e-02
7.339999999999999858e-01,-8.480901649846030177e-02,-1.150502719922185252e-01,5.614814829520256567e-02
7.349999999999999867e-01,3.064546878387882159e-02,-1.043733584556008342e-01,7.448115794577347959e-02
7.359999999999999876e-01,1.066326300008999389e-01,-5.533259431222627145e-02,8.969322734077656012e-02
7.369999999999999885e-01,1.567388910435022487e-01,5.252767209724538283e-02,5.926413251223504319e-02
7.379999999999999893e-01,1.236527591192571607e-01,8.551297246283191822e-02,6.368841664157822574e-03
7.389999999999999902e-01,5.328317073938001330e-02,1.225436637435890208e-01,-5.672155150436775095e-02
7.399999999999999911e-01,-2.549626013584899500e-02,7.347848677770642267e-02,-7.925910781784432924e-02
7.409999999999999920e-01,-1.225343447190408580e-01,1.836520288205710158e-02,-8.062678913533423419e-02
7.419999999999999929e-01,-1.328037649272856002e-01,-7.125919358389065650e-02,-3.959447014318429742e-02
7.429999999999999938e-01,-1.189824445875777015e-01,-1.078361413966532623e-01,9.964774901806956395e-03
7.439999999999999947e-01,-4.338764610143421713e-02,-1.235820305020076670e-01,7.599594604762538452e-02
7.449999999999999956e-01,2.652885506302533197e-02,-6.955851925837626404e-02,8.739076365273695801e-02
7.459999999999999964e-01,1.204276597992900849e-01,1.690014003570552981e-02,8.581953484508694774e-02
7.469999999999999973e-01,1.276668961003483149e-01,6.415801820075889284e-02,6.393127613542236298e-02
7.479999999999999982e-01,1.253530637967702199e-01,1.008150848317354714e-01,1.422208423677173358e-02
7.489999999999999991e-01,3.977690266046074452e-02,1.052791078179062395e-01,-5.157593821248658561e-02
7.500000000000000000e-01,-4.191662591924846804e-02,7.201893611960230590e-02,-8.999528369231937774e-02
7.510000000000000009e-01,-1.322203289452220931e-01,-6.987289688216693963e-04,-6.069163269776119835e-02
7.520000000000000018e-01,-1.673569539496534975e-01,-6.378099333369484369e-02,-4.718807138098354143e-02
7.530000000000000027e-01,-1.148230621934048235e-01,-1.177976472843126066e-01,4.070020035580570322e-02
7.540000000000000036e-01,-3.813204694246612181e-02,-1.021364939402323868e-01,5.614832037521837876e-02
7.550000000000000044e-01,8.558570673081065949e-02,-3.866368453366861996e-02,7.829453875140865438e-02
7.560000000000000053e-01,1.143248247415559887e-01,1.298876586523716077e-02,6.253542592705152448e-02
7.570000000000000062e-01,1.614082094674276491e-01,7.460292947379910944e-02,3.164325796694111154e-02
7.580000000000000071e-01,9.097212643671655219e-02,1.265998280082351879e-01,-2.392598894051989333e-02
7.590000000000000080e-01,2.971941264932258589e-02,1.205771894660213478e-01,-6.413694333988441409e-02
7.600000000000000089e-01,-6.211314595838166031e-02,3.719831505248469977e-02,-9.878184049680466261e-02
7.610000000000000098e-01,-1.308597751732753778e-01,-2.313455299585880434e-02,-7.204980896995748230e-02
7.620000000000000107e-01,-1.461483953601298569e-01,-8.421728948715137553e-02,-4.192421580802944275e-02
7.630000000000000115e-01,-9.959986703514141226e-02,-1.029699725782176195e-01,1.287903308535513075e-02
7.640000000000000124e-01,-6.967509753738360123e-03,-8.250168473851327011e-02,4.922210342479905326e-02
7.650000000000000133e-01,8.919074616985350756e-02,-9.632557448521325907e-03,9.570450150269836642e-02
7.660000000000000142e-01,1.408110300927503389e-01,4.089208994050110707e-02,3.796014751851892188e-02
7.670000000000000151e-01,1.165544839795710774e-01,1.033515131201226955e-01,4.608513916946378047e-02
7.680000000000000160e-01,1.003142419103273120e-01,1.040459448902056050e-01,-2.812689275732937338e-02
7.690000000000000169e-01,-5.451985561085861270e-03,1.138822975129704512e-01,-6.310723150058179798e-02
7.700000000000000178e-01,-1.073882176661500459e-01,3.879534759775444402e-02,-7.722260056521373928e-02
7.710000000000000187e-01,-1.532260774598609987e-01,-4.124146249522409047e-02,-6.791634144249375504e-02
7.720000000000000195e-01,-1.174488236486318088e-01,-1.028874820565094800e-01,-2.858009650411651864e-02
7.730000000000000204e-01,-5.729652399588898437e-02,-1.142733074063412013e-01,2.627587980982621155e-02
7.740000000000000213e-01,2.197395996562371071e-02,-8.420804580904502068e-02,7.803714657122173826e-02
7.750000000000000222e-01,9.627786868692453370e-02,1.849356966460890053e-02,1.028746739657469128e-01
7.760000000000000231e-01,1.318094857627067074e-01,6.896242048618780873e-02,4.134544488902037324e-02
7.770000000000000240e-01,1.150756998152891036e-01,1.149337191142772580e-01,1.728988632128095060e-02
7.780000000000000249e-01,7.611554343143965562e-02,1.177677127141763258e-01,-3.632623746283825117e-02
7.790000000000000258e-01,-2.463592230738307146e-02,5.955144796658468770e-02,-9.555903820349320732e-02
7.800000000000000266e-01,-1.260608009136151286e-01,-9.152695731684774155e-03,-7.774897708690131637e-02
7.810000000000000275e-01,-1.354174350354709067e-01,-8.948121348790817609e-02,-6.182643773222203792e-02
7.820000000000000284e-01,-1.341968302277127267e-01,-1.094382630673355339e-01,-2.502128239590673334e-02
7.830000000000000293e-01,-5.242868104214104541e-02,-1.249622047371847650e-01,1.923618401553815055e-02
7.840000000000000302e-01,7.049704422857046293e-02,-4.286241132461937609e-02,8.214205550127902378e-02
7.850000000000000311e-01,1.011919774135061484e-01,1.392857161992659860e-02,8.815006027990821003e-02
7.860000000000000320e-01,1.447134168772098439e-01,7.979573954979737871e-02,5.404878285577109642e-02
7.870000000000000329e-01,1.373057733962540772e-01,1.107312924140168992e-01,1.388534371265298314e-02
7.880000000000000338e-01,2.419607725831581999e-02,1.000947669108092630e-01,-4.302149718652228949e-02
7.890000000000000346e-01,-3.066210402536697494e-02,2.856505061564443629e-02,-7.179977816176544292e-02
7.900000000000000355e-01,-1.259340171770922945e-01,-2.144632701753183476e-02,-9.195763808435296338e-02
7.910000000000000364e-01,-1.448780863562361132e-01,-8.868442015677006907e-02,-5.732299369823243979e-02
7.920000000000000373e-01,-1.113174830518156994e-01,-1.411894133990142242e-01,1.323040411287706476e-02
7.930000000000000382e-01,-3.791742938196480256e-02,-7.404068087943471710e-02,5.702631267800932491e-02
7.940000000000000391e-01,8.006563241001000975e-02,-2.163820502546822191e-02,5.815506937689374906e-02
7.950000000000000400e-01,1.216522816007257202e-01,1.269351438087303573e-02,9.548426307549491565e-02
7.960000000000000409e-01,1.522089507100639338e-01,1.081740648593004922e-01,4.936709526426269479e-02
7.970000000000000417e-01,9.025551525222495763e-02,1.128784285223585204e-01,3.666345607775083840e-03
7.980000000000000426e-01,1.839618653279027904e-02,9.359020034116891096e-02,-2.053793372442851498e-02
7.990000000000000435e-01,-6.498223395180439954e-02,3.701794844491042291e-02,-8.934140161365408672e-02
8.000000000000000444e-01,-1.369800325010511188e-01,-6.546691391084602518e-02,-8.365709842989736689e-02
8.010000000000000453e-01,-1.407637499201622455e-01,-1.087849437145991943e-01,-5.439821574424755918e-02
8.020000000000000462e-01,-1.027909742817690597e-01,-1.139524815854449508e-01,-1.023812935926695679e-02
8.030000000000000471e-01,-1.463704991988801565e-02,-7.767676890242672383e-02,7.333527225394928517e-02
8.040000000000000480e-01,9.037538729412529503e-02,1.030014443796182388e-04,9.890817059727888272e-02
8.050000000000000488e-01,1.331575524241177255e-01,8.078957375189466106e-02,9.244370476464223996e-02
8.060000000000000497e-01,1.383588218247620572e-01,1.073173516546997996e-01,6.012655229307800608e-02
8.070000000000000506e-01,6.479652561102960950e-02,1.140253787873907187e-01,-1.383577457574826754e-03
8.080000000000000515e-01,2.790530766669151608e-03,7.098905324416722451e-02,-5.303598308330886857e-02
8.090000000000000524e-01,-9.352358659091536408e-02,-1.877083701591139922e-02,-8.654045625760750649e-02
8.100000000000000533e-01,-1.371452839175761607e-01,-6.835648009133667158e-02,-8.270683247768184643e-02
8.110000000000000542e-01,-1.142781812126485719e-01,-1.009226154126393188e-01,-2.525183775492084379e-02
8.120000000000000551e-01,-7.714670133396726859e-02,-1.143475101751635914e-01,5.075749743684215831e-03
8.129999999999999449e-01,1.910975256789854138e-02,-4.396476263466611578e-02,5.735959305735148506e-02
8.139999999999999458e-01,1.181160592765964634e-01,1.752577405553481724e-02,1.043007671356582233e-01
8.149999999999999467e-01,1.300796124717115143e-01,7.635111726115353936e-02,8.813296609478937782e-02
8.159999999999999476e-01,1.217906615178135782e-01,1.103779434624027472e-01,4.281034311927576358e-02
8.169999999999999485e-01,6.037729478085004237e-02,1.029488894190860732e-01,-2.067085653702854190e-04
8.179999999999999494e-01,-4.292871557161100776e-02,6.179320234150016689e-02,-6.880373043905141373e-02
8.189999999999999503e-01,-1.239430700005217240e-01,-2.286185975453279909e-02,-8.171702792029471307e-02
8.199999999999999512e-01,-1.337884635926251953e-01,-1.157646348189873553e-01,-6.798989470064868701e-02
8.209999999999999520e-01,-1.398791996990815800e-01,-1.417388114980543401e-01,-5.735629700767096162e-02
8.219999999999999529e-01,-6.589084861954576378e-02,-7.907177901220854843e-02,1.224293968423727577e-02
8.229999999999999538e-01,6.063365819116264127e-02,-3.290096824998472308e-02,5.706972090388177932e-02
8.239999999999999547e-01,1.128823402560358846e-01,4.092659863709965234e-02,7.022510270462445359e-02
8.249999999999999556e-01,1.725517912348496774e-01,1.167612095457493671e-01,7.295144874302263160e-02
8.259999999999999565e-01,1.092297834946435453e-01,1.277769769131716915e-01,2.214219450428064548e-02
8.269999999999999574e-01,3.159569892640978761e-02,6.762898104589697146e-02,-3.136299844681680882e-02
8.279999999999999583e-01,-4.147215212758527392e-02,2.422173019719764744e-02,-6.483216226099933199e-02
8.289999999999999591e-01,-1.210170234016683527e-01,-5.768435104416322345e-02,-7.711125308580314697e-02
8.299999999999999600e-01,-1.368075402357011028e-01,-1.074071950930907959e-01,-7.206906400230439491e-02
8.309999999999999609e-01,-1.027001482892138801e-01,-9.244383853821065700e-02,-1.992313650290569726e-02
8.319999999999999618e-01,-4.081365020856722592e-02,-9.156146607028041451e-02,3.021894516465293418e-02
8.329999999999999627e-01,5.319114974554172565e-02,-1.040380131882416570e-02,7.690296836894101873e-02
8.339999999999999636e-01,1.157218205414334566e-01,6.121777302517387997e-02,1.109624849456060519e-01
8.349999999999999645e-01,1.385905450265196570e-01,1.291096263842799463e-01,8.484270228362862654e-02
8.359999999999999654e-01,8.927041203616783993e-02,1.146415689332399290e-01,4.763368723586360043e-02
8.369999999999999662e-01,3.116267619401019012e-02,5.572029794559190535e-02,-4.582104122690305176e-02
8.379999999999999671e-01,-6.145246348769867195e-02,-5.828069029779677813e-03,-6.700309126851720920e-02
8.389999999999999680e-01,-1.277485067028370502e-01,-8.104129584293562338e-02,-7.479266400676640170e-02
8.399999999999999689e-01,-1.505668970174227350e-01,-1.134109609897206578e-01,-8.427932862360398847e-02
8.409999999999999698e-01,-1.078840266138829523e-01,-1.200761340099636837e-01,-2.489391707801226483e-02
8.419999999999999707e-01,-1.191372322983417879e-02,-4.072842864492556836e-02,2.623783214054282303e-02
8.429999999999999716e-01,6.841656570010251626e-02,8.262158185392935728e-03,6.536100618139824292e-02
8.439999999999999725e-01,1.382359868643944223e-01,7.513337970666976451e-02,9.442439912002258129e-02
8.449999999999999734e-01,1.455801465385489213e-01,9.918056149692608403e-02,7.598764748703878968e-02
8.459999999999999742e-01,1.007156736815126158e-01,7.861893677903666888e-02,2.660129496957292991e-02
8.469999999999999751e-01,9.547570794853259615e-03,3.368137335884627270e-02,-5.289993223896042457e-02
8.479999999999999760e-01,-9.174717292862215323e-02,-5.066391234274648936e-02,-7.614244332373296120e-02
8.489999999999999769e-01,-1.430572864042368719e-01,-8.856882286873739296e-02,-7.951310969065289447e-02
8.499999999999999778e-01,-1.689736716751965018e-01,-1.146783276995300832e-01,-6.404277501096487801e-02
8.509999999999999787e-01,-5.223639497773431561e-02,-9.636473660001705632e-02,-2.650381836502526886e-02
8.519999999999999796e-01,1.529182850830156266e-02,-5.060106173004466634e-02,3.851465461946938784e-02
8.529999999999999805e-01,1.000939198044760448e-01,4.539182037878863180e-02,6.364289739064188378e-02
8.539999999999999813e-01,1.585023661029281994e-01,9.016796344724116452e-02,6.669531996564778686e-02
8.549999999999999822e-01,1.358277946694524951e-01,1.227859165464500329e-01,4.372687918767555193e-02
8.559999999999999831e-01,5.091245742327122487e-02,1.024375471599160425e-01,-1.516953182455163876e-02
8.569999999999999840e-01,-2.278076362222846221e-02,3.090255179606285138e-02,-4.015524939826673606e-02
8.579999999999999849e-01,-1.185712050927629768e-01,-5.026058029142927569e-02,-8.446296187582481851e-02
8.589999999999999858e-01,-1.340707080498910186e-01,-1.117653690093322466e-01,-6.813057251888318677e-02
8.599999999999999867e-01,-9.931372911511011925e-02,-1.152084194733087597e-01,-7.538670617544095121e-02
8.609999999999999876e-01,-7.541655085323256680e-02,-6.687270593568364618e-02,2.340436916284595933e-03
8.619999999999999885e-01,3.471030638430972620e-02,-1.007599052395571904e-02,4.078962099051674367e-02
8.629999999999999893e-01,1.093994597199332425e-01,7.265099492663237846e-02,8.352853258160314320e-02
8.639999999999999902e-01,1.619493612458815790e-01,1.182811297785558852e-01,8.612567639355721283e-02
8.649999999999999911e-01,1.042168657595344133e-01,9.863425862443880865e-02,5.537832014408929082e-02
8.659999999999999920e-01,3.623945297100946566e-02,6.509453716351203123e-02,-2.107931109928306429e-02
8.669999999999999929e-01,-4.250800559948043206e-02,1.417008174931929385e-03,-5.570799053317430222e-02
8.679999999999999938e-01,-1.018946362043882253e-01,-8.971913447865671742e-02,-9.294383704569826599e-02
8.689999999999999947e-01,-1.545570815008676935e-01,-1.136446480017051786e-01,-7.897325718893968838e-02
8.699999999999999956e-01,-1.239034878966145115e-01,-1.015831231351338876e-01,-5.108249371544708317e-02
8.709999999999999964e-01,-5.191978062776868991e-02,-4.396750774486214708e-02,-1.302312047293271643e-02
8.719999999999999973e-01,4.624385213491969543e-02,1.249928457799147352e-02,5.366130819196521240e-02
8.729999999999999982e-01,1.230252554690172972e-01,7.382492331532880536e-02,9.569547320525698120e-02
8.739999999999999991e-01,1.392719178715253747e-01,1.327973337024258016e-01,6.812937531077342679e-02
8.750000000000000000e-01,1.086180744458813408e-01,8.780734654964482411e-02,5.067291618091594035e-02
8.760000000000000009e-01,2.334849286120706940e-02,3.073327862511008798e-02,1.528648701788307878e-03
8.770000000000000018e-01,-8.936017836934728731e-02,-2.971832287289079624e-02,-5.011757161152766149e-02
8.780000000000000027e-01,-1.319180319410166724e-01,-9.281711621774323129e-02,-8.033391812184757785e-02
8.790000000000000036e-01,-1.475502917609446130e-01,-1.147966338622184862e-01,-7.791847764863431280e-02
8.800000000000000044e-01,-7.643569043366145455e-02,-9.652096963832486332e-02,-4.985558780728153311e-02
8.810000000000000053e-01,-1.569039505350017238e-02,-2.078957258318391357e-02,-9.129157842358048489e-03
8.820000000000000062e-01,9.284243085605027590e-02,4.295531421573756808e-02,3.455752513064732495e-02
8.830000000000000071e-01,1.174968178378795330e-01,1.008550597509590280e-01,6.833835171049365553e-02
8.840000000000000080e-01,1.598153661793619285e-01,1.010277736334394411e-01,8.745838271521112761e-02
8.850000000000000089e-01,9.650360869295661337e-02,6.924926861684671531e-02,4.210327930554087078e-02
8.860000000000000098e-01,-4.980399080699618800e-03,5.774320795863709457e-03,-1.561525575971347418e-02
8.870000000000000107e-01,-7.147314853288008751e-02,-5.055535982159336389e-02,-7.005501712468023556e-02
8.880000000000000115e-01,-1.537177794240384698e-01,-1.354903506421302473e-01,-8.693669973314481492e-02
8.890000000000000124e-01,-1.397664930514706250e-01,-1.128821318989264993e-01,-7.277229214358738041e-02
8.900000000000000133e-01,-7.885118890718192941e-02,-8.909895438379061838e-02,-6.684097138443123240e-03
8.910000000000000142e-01,6.258188353832853240e-03,-1.091109294791794623e-02,2.591597535475021613e-02
8.920000000000000151e-01,9.182732954713306028e-02,7.876188736537247104e-02,5.318937737381574521e-02
8.930000000000000160e-01,1.370078591868895690e-01,1.121634963809468172e-01,9.079937697259286844e-02
8.940000000000000169e-01,1.148231240601546577e-01,1.060234449748869295e-01,6.715991012169823804e-02
8.950000000000000178e-01,7.292956735048959638e-02,6.407747942435847166e-02,5.109949400498789429e-02
8.960000000000000187e-01,-2.921317563582639942e-02,-2.989058035436007160e-03,-4.270265283125538464e-02
8.970000000000000195e-01,-1.186819807423553086e-01,-6.884168479389031481e-02,-5.337620476379426049e-02
8.980000000000000204e-01,-1.570226014706971041e-01,-1.175907345097526591e-01,-8.922297220934778672e-02
8.990000000000000213e-01,-1.395796423820989673e-01,-1.196345842014928801e-01,-6.795843158612127621e-02
9.000000000000000222e-01,-3.947576304711172129e-02,-6.428451350139681442e-02,-4.033999551219795421e-02
9.010000000000000231e-01,2.596807522636118692e-02,1.375416233497576968e-02,2.329022787416265561e-02
9.020000000000000240e-01,1.074172598753810881e-01,7.285461194296614929e-02,7.768220402332051688e-02
9.030000000000000249e-01,1.542136038850303037e-01,1.004100840578283638e-01,8.353915990101572209e-02
9.040000000000000258e-01,1.159910495346794662e-01,1.045265730846085678e-01,8.142696709591421000e-02
9.050000000000000266e-01,4.245161421491810277e-02,3.727001567787214392e-02,3.049746233706081278e-02
9.060000000000000275e-01,-3.421464659467882141e-02,-2.426815790424975000e-02,-3.911362976444394957e-02
9.070000000000000284e-01,-1.226977241070702773e-01,-7.811595816307263795e-02,-8.116545288520549128e-02
9.080000000000000293e-01,-1.511311795995544660e-01,-1.377389917414821030e-01,-9.092390780289889840e-02
9.090000000000000302e-01,-1.094147168297426309e-01,-8.456254194113523026e-02,-8.026687613496795437e-02
9.100000000000000311e-01,-3.587630967914168939e-02,-3.590597249181887163e-02,-4.001151537542721459e-02
9.110000000000000320e-01,6.385261038655136445e-02,4.852125706167675218e-02,2.803492606758048455e-02
9.120000000000000329e-01,1.282983712055036363e-01,8.664322678461079674e-02,6.624315326388501013e-02
9.130000000000000338e-01,1.664759941604270488e-01,1.117748815991346928e-01,8.162499741711737311e-02
9.140000000000000346e-01,1.091774942018532424e-01,9.535496751008983030e-02,6.624851606867852849e-02
9.150000000000000355e-01,1.692291263626959086e-02,-3.634568242264673513e-03,3.623263379131759498e-02
9.160000000000000364e-01,-6.115750336083781991e-02,-5.251519496673558857e-02,-3.366632722357017216e-02
9.170000000000000373e-01,-1.296700151163109327e-01,-1.042571842763936191e-01,-8.106830728229240390e-02
9.180000000000000382e-01,-1.179715980944468362e-01,-9.403102032290423795e-02,-7.157967088948223588e-02
9.190000000000000391e-01,-9.821582398475170450e-02,-6.626113268647844390e-02,-6.042856544241469868e-02
9.200000000000000400e-01,-1.875227671841857638e-02,-1.429844129029062862e-02,-1.967967845156409767e-02
9.210000000000000409e-01,7.345574452581947467e-02,7.980827229589779193e-02,3.456993143753896158e-02
9.220000000000000417e-01,1.361911855650910497e-01,1.241411538981135182e-01,7.005708761783618899e-02
9.230000000000000426e-01,1.429086430931892915e-01,9.989788855645849452e-02,9.722139617573889725e-02
9.240000000000000435e-01,8.486326031899669997e-02,3.198457384575281032e-02,5.406951060068190124e-02
9.250000000000000444e-01,7.645750430279941653e-03,-4.328139100046822334e-03,1.123763015752985740e-02
9.260000000000000453e-01,-7.997726391525117329e-02,-5.265491493517956978e-02,-5.234744741055637890e-02
9.270000000000000462e-01,-1.280403531427994901e-01,-1.274371825771176692e-01,-8.314669422343176630e-02
9.280000000000000471e-01,-1.457618335742565385e-01,-1.068737288381761685e-01,-7.847324293893172265e-02
9.290000000000000480e-01,-1.022329091874576018e-01,-5.957969480480709845e-02,-5.480752531896516955e-02
9.300000000000000488e-01,1.547015144901805941e-03,7.736222480331990392e-03,-3.057605721136044240e-03
9.310000000000000497e-01,8.972068989397112559e-02,8.533209963908026940e-02,5.143832081986632332e-02
9.320000000000000506e-01,1.449588371842680523e-01,1.150917350787326321e-01,1.003294720531498485e-01
9.330000000000000515e-01,1.445762516237499573e-01,1.068591842857151974e-01,8.134158327709956060e-02
9.340000000000000524e-01,5.445002544023173907e-02,2.918966360339032146e-02,4.825731023076593185e-02
9.350000000000000533e-01,-6.761689639408103268e-03,-5.625263913511588387e-02,-2.414202578182387659e-03
9.360000000000000542e-01,-8.813123763569036262e-02,-1.077980198222786845e-01,-3.446657991811456767e-02
9.370000000000000551e-01,-1.477289247960383023e-01,-1.177847530822557220e-01,-9.411471834289711347e-02
9.379999999999999449e-01,-1.207138448710050882e-01,-8.664894977959607114e-02,-9.654330888121404053e-02
9.389999999999999458e-01,-6.807296084866253094e-02,-4.727780302703783744e-02,-5.046147067861189717e-02
9.399999999999999467e-01,4.068235293176984679e-02,1.393234022192779524e-02,-7.076894933978726196e-03
9.409999999999999476e-01,9.371101564427911090e-02,9.458120639664464868e-02,6.358074078771565329e-02
9.419999999999999485e-01,1.442597076959433455e-01,1.199667935001531710e-01,7.372377312708902619e-02
9.429999999999999494e-01,1.374908068315516818e-01,8.854590816233086359e-02,8.287962834500597897e-02
9.439999999999999503e-01,6.931529277957956814e-02,2.092079770456529639e-02,5.620172085228244269e-02
9.449999999999999512e-01,-4.141858564507789470e-02,-6.937548598435422376e-02,1.006242208550049005e-02
9.459999999999999520e-01,-1.247389141859304162e-01,-1.170744555249061541e-01,-5.836882290843773552e-02
9.469999999999999529e-01,-1.525036347336375109e-01,-8.938798502878164687e-02,-7.520026373287730381e-02
9.479999999999999538e-01,-1.374892056171929666e-01,-7.230077583863482593e-02,-8.496320932534573434e-02
9.489999999999999547e-01,-3.693907270930702619e-02,-1.851130717483949126e-02,-3.674227790198816151e-02
9.499999999999999556e-01,4.115853339259748639e-02,6.010268156071752604e-02,8.786005071213931830e-03
9.509999999999999565e-01,1.266838974551224850e-01,1.213375042343257243e-01,6.130453688228603565e-02
9.519999999999999574e-01,1.512545927834191284e-01,1.120863308623793464e-01,9.035967101563673054e-02
9.529999999999999583e-01,1.086822035707700057e-01,6.649806984829705059e-02,9.109387147518376027e-02
9.539999999999999591e-01,3.800820872354192248e-02,3.228202998215834538e-03,4.371245505760200378e-02
9.549999999999999600e-01,-6.307558369886742677e-02,-8.164499472180859752e-02,-1.045970665570075675e-02
9.559999999999999609e-01,-1.319740774656438798e-01,-1.082488371760503554e-01,-4.835249596668558802e-02
9.569999999999999618e-01,-1.395272646456913457e-01,-8.903801018116688781e-02,-7.734132343082267269e-02
9.579999999999999627e-01,-1.009173708334739350e-01,-6.169527407333254276e-02,-7.384730033860174847e-02
9.589999999999999636e-01,-2.397624972176728986e-02,1.758796068043470134e-02,-2.333967759103088013e-02
9.599999999999999645e-01,8.179764997924030001e-02,8.573651222648336068e-02,1.184767245682723062e-02
9.609999999999999654e-01,1.179509399700670869e-01,1.156154852344861567e-01,7.262217995442793450e-02
9.619999999999999662e-01,1.221824399014859314e-01,9.736788885512591418e-02,8.464034532333079841e-02
9.629999999999999671e-01,9.157046043475218500e-02,3.736062493077117047e-02,7.087020648417494129e-02
9.639999999999999680e-01,4.862494308705383496e-03,-5.780236317826327463e-02,3.625206088961546724e-02
9.649999999999999689e-01,-7.265240175659697097e-02,-1.097650914603615913e-01,-2.455480878147644000e-02
9.659999999999999698e-01,-1.546918170864523268e-01,-1.065475737227095238e-01,-6.675171886499896290e-02
9.669999999999999707e-01,-1.424360941655420931e-01,-8.746866036325587346e-02,-8.086287998626298656e-02
9.679999999999999716e-01,-8.972944240055406862e-02,-4.193393998865452277e-02,-6.462883006531452978e-02
9.689999999999999725e-01,-4.202225380538619250e-03,4.597935527876743922e-02,-4.253164633873828676e-02
9.699999999999999734e-01,9.943163541724979460e-02,9.181375522675259970e-02,3.332863067733304180e-02
9.709999999999999742e-01,1.226734654388544482e-01,1.173449842783483993e-01,6.912905545747198566e-02
9.719999999999999751e-01,1.566240631500316893e-01,7.823537769969000910e-02,9.339191135390545462e-02
9.729999999999999760e-01,8.483149334482774362e-02,1.049805162529642011e-02,6.814165119101772694e-02
9.739999999999999769e-01,-9.647790148927203741e-03,-5.718839403822264383e-02,3.502879813994166230e-02
9.749999999999999778e-01,-8.822240764212990749e-02,-1.134290781768184375e-01,-2.435719558495107184e-02
9.759999999999999787e-01,-1.260710682486396172e-01,-1.254376739017671327e-01,-7.195078675863969542e-02
9.769999999999999796e-01,-1.446879452483621209e-01,-5.573608891212410849e-02,-9.062922063073618195e-02
9.779999999999999805e-01,-5.934796049077003394e-02,2.482428155981597148e-02,-9.357699665528880495e-02
9.789999999999999813e-01,3.198112963997069846e-02,5.411166430685845907e-02,-1.404218244743070387e-02
9.799999999999999822e-01,1.064293481132713298e-01,1.061361527471535865e-01,2.474957891386459635e-02
9.809999999999999831e-01,1.536785748852798894e-01,1.115869007178070943e-01,7.362321957755797730e-02
9.819999999999999840e-01,1.183605037929985060e-01,6.461656099912889417e-02,8.852281346781204485e-02
9.829999999999999849e-01,6.457253481145505680e-02,-2.624593929004515047e-02,6.948877600052091874e-02
9.839999999999999858e-01,-4.296445698730263357e-02,-8.515265982471217909e-02,2.415788800699119471e-02
9.849999999999999867e-01,-1.239226929773188379e-01,-1.091556454906732615e-01,-2.378871515330435379e-02
9.859999999999999876e-01,-1.514886027331679985e-01,-1.198123878163332295e-01,-6.649039371674651810e-02
9.869999999999999885e-01,-1.154464395829255530e-01,-4.657505915779566741e-02,-8.684308077827197769e-02
9.879999999999999893e-01,-3.898125327961560194e-02,3.424831170915097756e-02,-5.842763697087675206e-02
9.889999999999999902e-01,3.384332656740896006e-02,9.284959204518958287e-02,-2.396199943774505320e-02
9.899999999999999911e-01,1.187145304236184862e-01,1.310863364037291590e-01,6.320678696396089813e-02
9.909999999999999920e-01,1.320029176410286720e-01,1.039018908350421710e-01,5.796256654303272998e-02
9.919999999999999929e-01,1.060068400278520173e-01,4.836969441946144949e-02,6.662000108363963502e-02
9.929999999999999938e-01,2.984429969334184002e-02,-5.286871641756345913e-02,6.302671049903305067e-02
9.939999999999999947e-01,-6.275943647550953630e-02,-9.450563928948296777e-02,1.807834464810807382e-02
9.949999999999999956e-01,-1.390260459318103659e-01,-1.213326049422771696e-01,-2.473182841343901303e-02
9.959999999999999964e-01,-1.463655630295043197e-01,-1.026338779814933017e-01,-7.514153212855095854e-02
9.969999999999999973e-01,-1.126297055461619456e-01,-3.930002181671907874e-02,-7.450026367479482825e-02
9.979999999999999982e-01,-2.890869885846794260e-02,7.549720931138031998e-02,-5.892827918027498946e-02
9.989999999999999991e-01,7.784452321814383513e-02,9.608849837617805534e-02,-8.328291292798191761e-03
1.000000000000000000e+00,1.217065982213380859e-01,1.047431107398638095e-01,4.330679471299053729e-02
1.000999999999999890e+00,1.323437137227536919e-01,5.261159537194193964e-02,9.329041661032327903e-02
1.002000000000000002e+00,7.851719955993560762e-02,-1.252664137594383838e-02,7.880549133816426577e-02
1.002999999999999892e+00,1.690442965868863695e-02,-9.645368812145431459e-02,6.789204405221820060e-02
1.004000000000000004e+00,-8.405232773094661880e-02,-1.200808512177775900e-01,2.619416703163078390e-03
1.004999999999999893e+00,-1.247426910179489923e-01,-1.121495671311733000e-01,-4.595159882748078156e-02
1.006000000000000005e+00,-1.311874925869268294e-01,-7.738535153508854791e-02,-8.938893761593287579e-02
1.006999999999999895e+00,-8.609553959504138987e-02,6.627009754724443209e-03,-7.082089448097107776e-02
1.008000000000000007e+00,8.155133841133824224e-03,7.161107365404534297e-02,-6.075374127858843010e-02
1.008999999999999897e+00,8.839851884381366709e-02,1.165104738801301387e-01,6.120317834144163149e-04
1.010000000000000009e+00,1.303784618929047234e-01,1.130402348482575092e-01,4.890327700966255742e-02
1.010999999999999899e+00,1.538651597714883745e-01,6.944433629910411188e-02,9.534660112027633361e-02
1.012000000000000011e+00,9.431220518928350172e-02,-1.219847785406602547e-02,9.103935658595559144e-02
1.012999999999999901e+00,-3.559744170969860594e-02,-7.774431134908113550e-02,6.241058523252186740e-02
1.014000000000000012e+00,-8.337410852358259628e-02,-1.275209213962377741e-01,-2.165813870872250815e-02
1.014999999999999902e+00,-1.330311681874500329e-01,-1.238273812637317173e-01,-2.740584989792443221e-02
1.016000000000000014e+00,-1.406583220084168806e-01,-6.845577147155060271e-02,-8.553040254417060284e-02
1.016999999999999904e+00,-5.102457951456781243e-02,1.649898000419566108e-02,-9.104925583212505891e-02
1.018000000000000016e+00,2.764434239343372193e-02,6.934547192839703167e-02,-4.350109617503009063e-02
1.018999999999999906e+00,1.222805225264218809e-01,1.143781305931617087e-01,3.139625878062718076e-03
1.020000000000000018e+00,1.385776725666419407e-01,1.016065075505930282e-01,3.269819889729292522e-02
1.020999999999999908e+00,1.329995977225097437e-01,1.590544796474688966e-02,7.268345565759211369e-02
1.022000000000000020e+00,7.284825477185505327e-02,-6.339286936585873666e-02,9.167091764538153054e-02
1.022999999999999909e+00,-3.527037245995864878e-02,-1.067371048092010111e-01,4.866962842170156206e-02
1.024000000000000021e+00,-1.243486044617521241e-01,-1.375899461135634549e-01,-2.489917417230413932e-02
1.024999999999999911e+00,-1.382553832964254492e-01,-9.728770698791043559e-02,-5.413255297851202880e-02
1.026000000000000023e+00,-1.161671148180499907e-01,-5.852078502048792263e-02,-8.806454430671753486e-02
1.026999999999999913e+00,-4.307153808400041722e-02,5.915543329573916959e-02,-7.777057154657665561e-02
1.028000000000000025e+00,3.509239192056110013e-02,9.733543359589695576e-02,-2.446406431048505151e-02
1.028999999999999915e+00,1.164332934978852263e-01,1.081532965417876940e-01,1.409742400572025663e-02
1.030000000000000027e+00,1.808186383805026332e-01,9.522946062036169446e-02,6.433982112906003192e-02
1.030999999999999917e+00,1.210379381547314753e-01,7.661051083322630365e-03,8.924230394380519571e-02
1.032000000000000028e+00,3.784670558263965312e-02,-5.791905665597908009e-02,7.104824697352074558e-02
1.032999999999999918e+00,-4.263191906522217911e-02,-9.247442299448502268e-02,3.613021322107333455e-02
1.034000000000000030e+00,-1.215778093460035680e-01,-1.198930061867207741e-01,-3.803848424772034251e-03
1.034999999999999920e+00,-1.420355041113588179e-01,-6.022940619018196662e-02,-4.805966120285749127e-02
1.036000000000000032e+00,-9.252375223729865372e-02,-2.324342562240194407e-02,-8.910257002429908257e-02
1.036999999999999922e+00,-1.227727506979983674e-02,8.271443065956468610e-02,-5.857721983094851120e-02
1.038000000000000034e+00,8.360677126887411381e-02,1.212567339720844600e-01,-3.413757202606059610e-02
1.038999999999999924e+00,1.188774540479524827e-01,1.206316279820897480e-01,4.431752314490818717e-02
1.040000000000000036e+00,1.409443774141482808e-01,6.352215830753613068e-02,7.063563890212663787e-02
1.040999999999999925e+00,9.742083531705204857e-02,-1.752885363905395955e-02,9.627606746772364443e-02
1.042000000000000037e+00,2.253724979895675024e-02,-7.467077723320289517e-02,7.605848600632116041e-02
1.042999999999999927e+00,-9.180965520400515001e-02,-1.220119330654667322e-01,1.264572306349667601e-02
1.044000000000000039e+00,-1.401410121870231840e-01,-1.008547612449176845e-01,-2.796237887189259932e-02
1.044999999999999929e+00,-1.363775497099877498e-01,-3.837231464721164997e-02,-7.684820462458921697e-02
1.046000000000000041e+00,-8.263717684286693566e-02,2.748123473787700277e-02,-9.273428851133197481e-02
1.046999999999999931e+00,-3.107204830594340397e-03,1.026688362180115804e-01,-4.910760764874881612e-02
1.048000000000000043e+00,9.027791054901716794e-02,1.211931277882270092e-01,-4.059923459711935884e-02
1.048999999999999932e+00,1.154729127731791982e-01,9.276966309250185561e-02,3.296293901313857022e-02
1.050000000000000044e+00,1.297020400324361278e-01,2.701925450849293475e-02,4.798891028840838319e-02
1.050999999999999934e+00,1.040213542153275300e-01,-3.909409442702399540e-02,9.090508657031619311e-02
1.052000000000000046e+00,-1.301905120654774442e-02,-7.542998264461735214e-02,5.233950754915898257e-02
1.052999999999999936e+00,-9.754329408869488738e-02,-1.396823564234869752e-01,1.265584423252343917e-03
1.054000000000000048e+00,-1.583548243670185318e-01,-8.947824038358417886e-02,-5.212790677282258534e-02
1.054999999999999938e+00,-1.379855963754782755e-01,-3.198001811196729549e-02,-7.627882531924264076e-02
1.056000000000000050e+00,-6.867541931700485436e-02,5.577067034104452731e-02,-8.657979984739715140e-02
1.056999999999999940e+00,8.946048797931510643e-03,1.050145028346693848e-01,-3.327638100129123866e-02
1.058000000000000052e+00,1.059800231588421404e-01,1.238820694022984281e-01,-7.803013989073209755e-03
1.058999999999999941e+00,1.275660163145819204e-01,8.371662298142788783e-02,2.300168111278801455e-02
1.060000000000000053e+00,1.407673086617576008e-01,2.634721494950351562e-03,7.667004942596065964e-02
1.060999999999999943e+00,5.558450659065631433e-02,-5.022815764097599694e-02,6.604021131614422335e-02
1.062000000000000055e+00,-3.755678711654372032e-02,-1.315846816130627761e-01,6.443716705556380708e-02
1.062999999999999945e+00,-1.227747278118373059e-01,-1.085287115395528884e-01,-6.601425131193953445e-03
1.064000000000000057e+00,-1.449886596560268637e-01,-7.747133640190466408e-02,-2.186499503659893387e-02
1.064999999999999947e+00,-1.328126020401942942e-01,-2.834014331800582386e-03,-6.011548320596121764e-02
1.066000000000000059e+00,-6.536538900436808519e-02,8.639425525630187175e-02,-8.906889779212370795e-02
1.066999999999999948e+00,4.212436273634722478e-02,1.046362452693396505e-01,-5.362029299858689368e-02
1.068000000000000060e+00,1.295747016732327617e-01,1.157538290039065026e-01,-1.160051496607678208e-02
1.068999999999999950e+00,1.585396808279027903e-01,3.935130435723346864e-02,4.417182063531192165e-02
1.070000000000000062e+00,1.089342665205972477e-01,-1.446869784905077151e-02,5.702423096484222215e-02
1.070999999999999952e+00,5.250642116957754402e-02,-7.580005626477213931e-02,7.227454872685200316e-02
1.072000000000000064e+00,-5.389688615369059993e-02,-1.156239851287623049e-01,5.262992118589659291e-02
1.072999999999999954e+00,-1.129035456755843880e-01,-1.038802860028525121e-01,-8.710502611594644190e-05
1.074000000000000066e+00,-1.669729179341262193e-01,-3.310505599100030394e-02,-5.840450707064905045e-02
1.074999999999999956e+00,-1.038195022418722246e-01,2.960035638869112570e-02,-7.700380836064502077e-02
1.076000000000000068e+00,-4.842031242228701793e-02,8.219239418012630471e-02,-1.031592511533207940e-01
1.076999999999999957e+00,6.301299552952703553e-02,1.059935859225481919e-01,-5.947344543875374145e-02
1.078000000000000069e+00,1.249638782468032588e-01,9.499875596878507023e-02,-3.420800422839104325e-03
1.078999999999999959e+00,1.499391217369342721e-01,4.897227272932343917e-02,4.368796599472327125e-02
1.080000000000000071e+00,1.082086460122413940e-01,-3.883112815076096569e-02,1.062134206545606308e-01
1.080999999999999961e+00,7.396468861696668673e-03,-1.093487881024740732e-01,8.125739173138712967e-02
1.082000000000000073e+00,-8.515604770868141771e-02,-1.279682142606808626e-01,4.792136076316880905e-02
1.082999999999999963e+00,-1.311756125822662045e-01,-9.346955262155783040e-02,9.632694555821306320e-03
1.084000000000000075e+00,-1.460580288387530457e-01,-1.760385019135534898e-02,-7.654445036949703018e-02
1.084999999999999964e+00,-8.289922347836771455e-02,4.912516747600284561e-02,-8.853892279824090994e-02
1.086000000000000076e+00,-2.037607988536352388e-02,1.038032723904272481e-01,-7.686972394361758776e-02
1.086999999999999966e+00,4.335824107823040702e-02,1.240589441005421623e-01,-3.492032968448485764e-02
1.088000000000000078e+00,1.610468337645861447e-01,7.710437839703443430e-02,6.217134432794314738e-04
1.088999999999999968e+00,1.449399464019936190e-01,-1.073944636998205165e-02,5.613018757064892200e-02
1.090000000000000080e+00,9.520027335254027667e-02,-4.849871971036249368e-02,9.976826836719589198e-02
1.090999999999999970e+00,-1.216462146278455420e-02,-1.029043091098873902e-01,7.357011234699625812e-02
1.092000000000000082e+00,-8.128588890877964934e-02,-1.092411232539098193e-01,4.242500021251123521e-02
1.092999999999999972e+00,-1.516797629784811252e-01,-7.759167136947577037e-02,-2.358554768621313330e-02
1.094000000000000083e+00,-1.281129257297203283e-01,2.237986284191273781e-02,-8.440150296400393548e-02
1.094999999999999973e+00,-5.345130457697563203e-02,5.974657729156195723e-02,-7.032954310651891305e-02
1.096000000000000085e+00,2.906350371335826577e-02,1.301153021414900579e-01,-5.983965240811218306e-02
1.096999999999999975e+00,9.623727156406776395e-02,8.186801591783977872e-02,-4.831016955177187128e-02
1.098000000000000087e+00,1.507478476187721905e-01,4.576154733251543150e-02,8.179018446034434786e-03
1.098999999999999977e+00,1.666717918990631708e-01,-1.287293675514219506e-02,6.051143059276612585e-02
1.100000000000000089e+00,6.510537420899800698e-02,-7.124681110130340334e-02,8.110294701076507795e-02
1.100999999999999979e+00,-3.180237203843225280e-02,-1.169979588035951479e-01,9.963652802648383100e-02
1.102000000000000091e+00,-9.411678526203808015e-02,-1.211548953398511874e-01,4.796618899645754136e-02
1.102999999999999980e+00,-1.673917052776225656e-01,-3.390959688782815146e-02,-2.271669921401254719e-02
1.104000000000000092e+00,-1.200602107297683990e-01,1.912153466023693016e-02,-6.504465609629593581e-02
1.104999999999999982e+00,-3.154540294608782630e-02,9.605558981644933547e-02,-8.582139760209896162e-02
1.106000000000000094e+00,5.356696788077768695e-02,1.114088971670254002e-01,-6.958274706876171889e-02
1.106999999999999984e+00,1.183452948432487523e-01,8.760174202926031273e-02,-2.423757679467344189e-02
1.108000000000000096e+00,1.510236104971890703e-01,2.796871220832447547e-02,1.333719186408995061e-02
1.108999999999999986e+00,1.246953603481300299e-01,-3.753758413490111689e-02,4.888948618665728968e-02
1.110000000000000098e+00,3.703311178083843608e-02,-9.488493195525633805e-02,8.975837463958361018e-02
1.110999999999999988e+00,-5.212611921370383788e-02,-1.216605351598167711e-01,7.534340567455938276e-02
1.112000000000000099e+00,-1.160039167804916560e-01,-7.621071766897240252e-02,1.211676361107319813e-02
1.112999999999999989e+00,-1.461580905520846463e-01,-3.792794274117145675e-02,-1.923588268004118584e-02
1.114000000000000101e+00,-1.022748895431324911e-01,5.615919745354606973e-02,-6.291716743546101054e-02
1.114999999999999991e+00,-3.101355400530437720e-02,1.009414070163305588e-01,-8.018481459630780184e-02
1.116000000000000103e+00,5.487441140946904689e-02,1.097321436893136104e-01,-6.981802895848619739e-02
1.116999999999999993e+00,1.210875294911315514e-01,9.730206577594170680e-02,-1.985426031920634743e-02
1.118000000000000105e+00,1.359445745918680948e-01,-1.523820272200071720e-02,3.785756600312199793e-02
1.118999999999999995e+00,1.204332842560185690e-01,-6.327894753579101084e-02,4.445439856857805183e-02
1.120000000000000107e+00,2.786837142294113986e-02,-1.164131024363919686e-01,6.702972436796417188e-02
1.120999999999999996e+00,-5.682013507517842676e-02,-1.081250667646338065e-01,8.086952300534143434e-02
1.122000000000000108e+00,-1.308899096439750387e-01,-5.276012285115658923e-02,4.071609902103188322e-02
1.122999999999999998e+00,-1.476131873052754229e-01,2.589710469775605844e-02,-5.913387588419895258e-02
1.124000000000000110e+00,-1.040303797352762905e-01,7.939907423431137590e-02,-8.092120194881408102e-02
1.125000000000000000e+00,9.153545542773464105e-03,1.143337821310157765e-01,-8.328010130401063138e-02
1.125999999999999890e+00,8.041852577126876178e-02,1.394369974963352854e-01,-8.318769022532659929e-02
1.127000000000000002e+00,1.409981755972966044e-01,5.723100372242054951e-02,-1.004206636453133794e-02
1.127999999999999892e+00,1.226248878311734375e-01,-2.984071175939758888e-02,4.838808173551766706e-02
1.129000000000000004e+00,6.134738764338262818e-02,-8.379934756003183660e-02,9.726636495086642131e-02
1.129999999999999893e+00,9.400967650324556016e-03,-1.100552771428406629e-01,8.121309047418233396e-02
1.131000000000000005e+00,-8.654767696479241657e-02,-1.113011235738415317e-01,6.600450586029198152e-02
1.131999999999999895e+00,-1.391124977783549932e-01,-4.267907381747518963e-02,1.324780846525762477e-03
1.133000000000000007e+00,-1.186469958323935203e-01,4.873636724698469924e-02,-3.509456245635567823e-02
1.133999999999999897e+00,-8.883177622870221113e-02,9.387924854115417550e-02,-7.764320398553652136e-02
1.135000000000000009e+00,2.603635514594911451e-02,1.359794022683920300e-01,-9.086605672536998690e-02
1.135999999999999899e+00,1.195668814702113281e-01,1.109713372602248310e-01,-7.863281846465117186e-02
1.137000000000000011e+00,1.438897170028166361e-01,5.834167990703035406e-02,7.629495953934118356e-05
1.137999999999999901e+00,1.299860253396586118e-01,-4.028602079850304718e-02,3.298065480581767461e-02
1.139000000000000012e+00,6.178060012284498220e-02,-8.400815913147831326e-02,8.404455018543278977e-02
1.139999999999999902e+00,-2.268303603216991274e-02,-1.224198290279260998e-01,8.184417154075825096e-02
1.141000000000000014e+00,-1.258585541394932061e-01,-8.093066925211432616e-02,6.509628758336420684e-02
1.141999999999999904e+00,-1.511428151921339058e-01,-1.906887369287583664e-02,1.488961045910855950e-02
1.143000000000000016e+00,-1.325785960487440851e-01,4.085647892005841997e-02,-5.944078446222344353e-02
1.143999999999999906e+00,-5.327491214779372236e-02,1.095807975777489118e-01,-7.294005731731822983e-02
1.145000000000000018e+00,4.594359026160396015e-02,1.181180757163723949e-01,-8.689716581669319762e-02
1.145999999999999908e+00,1.152124519083748827e-01,5.762949267354475907e-02,-3.998184479052869361e-02
1.147000000000000020e+00,1.322576104250647866e-01,9.796287985910995949e-03,-8.227271736838707647e-03
1.147999999999999909e+00,1.260352432452080118e-01,-7.183002811188345105e-02,3.900267882286780063e-02
1.149000000000000021e+00,2.593975423884319412e-02,-1.206503049989506721e-01,8.133791902115324046e-02
1.149999999999999911e+00,-5.099404255227058674e-02,-1.285457070310089822e-01,7.634945566011486218e-02
1.151000000000000023e+00,-1.255335790621250891e-01,-5.365804180470045565e-02,6.033583180223468095e-02
1.151999999999999913e+00,-1.314102685542678783e-01,9.430262397498478597e-03,-1.172143802946498670e-02
1.153000000000000025e+00,-1.154718309785529445e-01,8.164100662585727086e-02,-6.163107872288701994e-02
1.153999999999999915e+00,-5.938618301261304466e-02,1.208072497544640383e-01,-8.152335911593625029e-02
1.155000000000000027e+00,6.351139334450468799e-02,1.440341578968299674e-01,-6.745433321976812557e-02
1.155999999999999917e+00,1.193867464846682241e-01,5.998457908327575749e-02,-5.016667428462922435e-02
1.157000000000000028e+00,1.458571479626927236e-01,-3.632066415386323716e-02,2.597173059923781058e-02
1.157999999999999918e+00,7.875631783598910363e-02,-8.592973092951596004e-02,5.696846140645595025e-02
1.159000000000000030e+00,3.978809868677928019e-02,-1.093827308673601256e-01,9.166151669126086643e-02
1.159999999999999920e+00,-6.425588773350063287e-02,-9.867190985485042865e-02,7.428284022596300107e-02
1.161000000000000032e+00,-1.374248804478760966e-01,-4.826349537960104852e-02,4.563507863623405408e-02
1.161999999999999922e+00,-1.384274598259701838e-01,7.324056028372577520e-04,-3.200267736846269806e-02
1.163000000000000034e+00,-9.927051280603202410e-02,9.906233179231194175e-02,-5.321663936098163655e-02
1.163999999999999924e+00,-1.010254582624720747e-03,1.188024634452509720e-01,-6.720693713799370805e-02
1.165000000000000036e+00,8.800715875052803061e-02,8.583507633874533360e-02,-7.574058225282578882e-02
1.165999999999999925e+00,1.414149863422221876e-01,2.807210076108272723e-02,-3.279112644717503688e-02
1.167000000000000037e+00,1.326441060094948332e-01,-3.986384349603826205e-02,1.888870990196245270e-02
1.167999999999999927e+00,8.965702794807195453e-02,-1.334599998370815666e-01,7.749962917056231471e-02
1.169000000000000039e+00,6.343065138808215301e-04,-1.151894298294139501e-01,8.492665318447771561e-02
1.169999999999999929e+00,-7.023964529885938501e-02,-8.277727194385671450e-02,8.846862033992312913e-02
1.171000000000000041e+00,-1.324635999524915730e-01,-2.478532921747404055e-02,5.343971012218954458e-02
1.171999999999999931e+00,-1.503437910579258630e-01,6.073555515925668086e-02,-1.849900859289055084e-03
1.173000000000000043e+00,-7.159079281890158575e-02,1.086738633782082381e-01,-5.576531965889952591e-02
1.173999999999999932e+00,2.933422156417014523e-03,1.070999717269178059e-01,-1.029877616973655097e-01
1.175000000000000044e+00,9.883487221268510980e-02,6.594821315259473404e-02,-7.628772684349333089e-02
1.175999999999999934e+00,1.263552092659437354e-01,-1.026851229659811980e-02,-3.312023259479104920e-02
1.177000000000000046e+00,1.298320773915371262e-01,-5.257021199161144437e-02,2.396098635650873929e-02
1.177999999999999936e+00,5.963011664603810186e-02,-1.084244509597401956e-01,5.413773690051643106e-02
1.179000000000000048e+00,-3.552232443823630931e-02,-1.060601832784599102e-01,8.020532079378230039e-02
1.179999999999999938e+00,-9.846235470685490987e-02,-5.929430685201025897e-02,7.007307375529828186e-02
1.181000000000000050e+00,-1.494084578230609750e-01,3.512341283093796396e-02,2.686591677328678540e-02
