time,acc_x,acc_y,acc_z
0.000000000000000000e+00,6.553612871535466344e-02,-1.999578227501070185e-02,1.307152102292611362e-01
1.000000000000000021e-03,-1.471026067941008375e-01,-1.589188522820861038e-01,-5.319959801196884330e-02
2.000000000000000042e-03,-3.206295041887246566e-01,-2.344055058815814330e-01,-1.785513392151388823e-01
3.000000000000000062e-03,-1.993054173931129436e-01,-4.941613334625043902e-02,-1.920442734719333133e-01
4.000000000000000083e-03,1.065407504705425806e-01,1.830779282003809627e-01,-2.075867932173006830e-02
5.000000000000000104e-03,3.604333596638873982e-01,2.861559644970073646e-01,1.715378158834257594e-01
6.000000000000000125e-03,2.684823388649262843e-01,1.305849332425389475e-01,2.093589422600405092e-01
7.000000000000000146e-03,-8.290024935891625313e-02,-1.480088611754029060e-01,6.326255598423237425e-02
8.000000000000000167e-03,-3.322734443770500867e-01,-2.766393752990773947e-01,-1.959980487991874465e-01
8.999999999999999320e-03,-2.656298970027398676e-01,-1.775201687886692470e-01,-1.819327735301617399e-01
1.000000000000000021e-02,3.692690185548521548e-02,7.158665687830803592e-02,-5.465407825277944498e-02
1.099999999999999936e-02,2.508777236497301000e-01,2.288011760680452866e-01,4.404383567190184312e-02
1.200000000000000025e-02,2.581166963679738524e-01,1.726233639462886049e-01,1.508291235095117755e-01
1.299999999999999940e-02,6.643021721989526840e-02,-1.253251423411408036e-02,7.147247123308909933e-02
1.400000000000000029e-02,-9.485464220156863968e-02,-1.142991030396011687e-01,2.464050049119836244e-02
1.499999999999999944e-02,-1.323250430562105395e-01,-1.222197897338333783e-01,-9.017072820129384825e-02
1.600000000000000033e-02,-1.628665842913373796e-01,-1.234106631778461860e-01,-1.004084919690733102e-01
1.700000000000000122e-02,-7.914718975222867492e-02,2.348599221822737781e-02,-8.292959911512119697e-02
1.799999999999999864e-02,9.522611029211293376e-02,1.229223584000797564e-01,-3.437448058625877656e-02
1.899999999999999953e-02,2.133959519325046017e-01,1.710938010237061935e-01,7.650343023132141762e-02
2.000000000000000042e-02,2.372430894122170286e-01,1.233662446688044007e-01,1.842007206639394712e-01
2.100000000000000130e-02,1.168087945145342664e-02,-7.920912559539691755e-02,9.480251064252136206e-02
2.199999999999999872e-02,-2.603447562496635781e-01,-2.570945311062467487e-01,-7.396088789528307283e-02
2.299999999999999961e-02,-3.264914129652029540e-01,-2.137984344820726690e-01,-1.918263710230512231e-01
2.400000000000000050e-02,-9.673485068477885584e-02,5.266376776812290578e-02,-1.478689197890281359e-01
2.500000000000000139e-02,2.168369837441401493e-01,2.719150273872443790e-01,3.647177871187136378e-02
2.599999999999999881e-02,3.697944458115268729e-01,2.469466989516576061e-01,1.875059027854592553e-01
2.699999999999999969e-02,1.596339095694546129e-01,-2.386459968530576028e-02,1.944122286557260493e-01
2.800000000000000058e-02,-1.769881206762239922e-01,-2.267688530033439565e-01,-1.292500944731596671e-02
2.900000000000000147e-02,-3.039409194927989999e-01,-1.917907312968337163e-01,-1.595998394732717485e-01
2.999999999999999889e-02,-2.090942958897652193e-01,-3.486682573845654304e-02,-1.857719184926863998e-01
3.099999999999999978e-02,8.145251725916866081e-02,1.335659145337946274e-01,-5.157879214110639571e-02
3.200000000000000067e-02,2.192620657668660211e-01,2.170124075842654043e-01,7.823250665723416319e-02
3.300000000000000155e-02,1.806596289253353527e-01,9.348941793314852200e-02,1.452041613404998488e-01
3.400000000000000244e-02,8.807433238315398594e-02,-3.033552747998834870e-02,7.215674473719457804e-02
3.500000000000000333e-02,-7.814449980568188847e-02,-1.428578460259657956e-01,4.419039694163278548e-02
3.599999999999999728e-02,-1.421632079125576820e-01,-1.314566832176538858e-01,-5.341596810041837617e-02
3.699999999999999817e-02,-1.651134715352784721e-01,-7.165187741620215878e-02,-1.270752069745243740e-01
3.799999999999999906e-02,-9.755137789863617404e-02,2.765051263356732830e-03,-1.168825316716458895e-01
3.899999999999999994e-02,1.247826170528733986e-01,1.890346839068983431e-01,-2.502468464843012920e-03
4.000000000000000083e-02,2.753370324213259557e-01,1.599012138122598015e-01,9.176123429549462585e-02
4.100000000000000172e-02,2.001591563189642486e-01,4.560005329975813822e-03,1.706304038030698189e-01
4.200000000000000261e-02,-3.755873465383375437e-02,-2.005169136427116805e-01,1.058159990984146315e-01
4.299999999999999656e-02,-3.068310004786795053e-01,-2.646115217385737184e-01,-1.137135180376754318e-01
4.399999999999999745e-02,-2.989169445370614686e-01,-8.933740667869605190e-02,-2.094605205177469121e-01
4.499999999999999833e-02,1.209544848600372681e-02,1.776373873770218381e-01,-1.375326997407569085e-01
4.599999999999999922e-02,3.447777696989682839e-01,2.835674321388639840e-01,6.758688793774515757e-02
4.700000000000000011e-02,2.959880476536759786e-01,1.264309828779967559e-01,1.965900012001621233e-01
4.800000000000000100e-02,4.533614299051606789e-02,-1.261059900718452809e-01,1.257390696818171116e-01
4.900000000000000189e-02,-2.650181564464060835e-01,-2.264323285779053785e-01,-4.687881226837849191e-02
5.000000000000000278e-02,-2.230660227011643792e-01,-1.025598987221497671e-01,-1.256346268310853942e-01
5.099999999999999672e-02,-1.166188802253673440e-01,5.439054304230470788e-02,-1.189090984014439106e-01
5.199999999999999761e-02,1.251101776924985198e-01,1.485747132723975183e-01,-2.824129857156520984e-02
5.299999999999999850e-02,1.967759993361096471e-01,1.126146998301520291e-01,5.819905190974050679e-02
5.399999999999999939e-02,1.725221120342074199e-01,2.772274863667703246e-02,9.660044827674500734e-02
5.500000000000000028e-02,8.478113845183297970e-02,-6.039833637386513021e-02,1.012070005376615456e-01
5.600000000000000117e-02,-8.367099509395516110e-02,-9.236763698257838273e-02,-2.861202539433240887e-03
5.700000000000000205e-02,-2.199452839325618803e-01,-1.460620183914305426e-01,-1.723291468956145503e-02
5.800000000000000294e-02,-2.270093706963496605e-01,-5.152154621684056773e-02,-1.307502953334225837e-01
5.899999999999999689e-02,-6.009773736353332674e-02,1.050922510558233991e-01,-1.483311575010567152e-01
5.999999999999999778e-02,1.997909721257375981e-01,2.189450397786170954e-01,-3.189530748747547440e-02
6.099999999999999867e-02,3.321830556389216427e-01,1.148275867778170145e-01,1.153537573702554941e-01
6.199999999999999956e-02,1.514198980187081989e-01,-1.015051980302737605e-01,1.965205768440098921e-01
6.300000000000000044e-02,-1.811873102474004793e-01,-2.762786446499761461e-01,1.058521515979649746e-01
6.400000000000000133e-02,-3.838685816948098073e-01,-1.965389046004893669e-01,-1.166904397323854509e-01
6.500000000000000222e-02,-2.157550975581560004e-01,5.663052476286935255e-02,-2.455984800746135732e-01
6.600000000000000311e-02,9.386367017408626945e-02,2.724500179139927591e-01,-1.141120608323111796e-01
6.700000000000000400e-02,3.459919814351347100e-01,2.162007813014332203e-01,7.516156019273247113e-02
6.800000000000000488e-02,1.916737728093885207e-01,-2.460344394731134657e-02,2.001547429015330670e-01
6.900000000000000577e-02,-4.044530003345014890e-02,-2.063598756291216141e-01,1.509132617505524188e-01
7.000000000000000666e-02,-2.404799738762930517e-01,-2.055110894023993440e-01,-2.612313950154051146e-03
7.099999999999999367e-02,-1.885374027751219317e-01,-3.147835592831930984e-02,-9.196870471852613971e-02
7.199999999999999456e-02,-1.705822416834503960e-02,1.332520614597677289e-01,-1.150079815094915553e-01
7.299999999999999545e-02,9.019930471906986713e-02,1.451693043531526173e-01,-5.838231949260565268e-02
7.399999999999999634e-02,1.806016451757032071e-01,1.270441768045895981e-01,5.029630626048280789e-02
7.499999999999999722e-02,1.432015098390318486e-01,2.749889005976185324e-02,6.530749084317298558e-02
7.599999999999999811e-02,6.566528165031076947e-02,-9.586801954481637134e-02,1.078102203819374522e-01
7.699999999999999900e-02,-9.409339574194854061e-02,-1.927640041123007686e-01,6.611350987908255761e-02
7.799999999999999989e-02,-2.441333297175801165e-01,-1.328801285630187845e-01,-4.839776833488487057e-02
7.900000000000000078e-02,-2.220869641228097324e-01,3.752338063426807757e-02,-1.487497620293081191e-01
8.000000000000000167e-02,-9.734075933636797233e-04,2.023649858981777239e-01,-1.570512187279383964e-01
8.100000000000000255e-02,2.917173501736826657e-01,2.370768806166223819e-01,-1.157277807189063118e-02
8.200000000000000344e-02,3.249590598539996433e-01,2.161629885434487516e-02,1.660899276018736603e-01
8.300000000000000433e-02,7.792949740527502223e-02,-2.542635643123564715e-01,2.201886799706527786e-01
8.400000000000000522e-02,-2.664052469121105382e-01,-2.562650196503400424e-01,7.002768232562142647e-02
8.500000000000000611e-02,-3.298937532777992399e-01,-2.441439636410098687e-02,-1.408559470609695996e-01
8.599999999999999312e-02,-1.313792348945488075e-01,1.971108684828953572e-01,-2.126363207308163417e-01
8.699999999999999400e-02,1.721903257778678586e-01,2.671356393647917327e-01,-6.523502168718040006e-02
8.799999999999999489e-02,3.500053822848956941e-01,8.465431158303148018e-02,1.388820835523907615e-01
8.899999999999999578e-02,1.788688768943562102e-01,-9.306548484871111915e-02,1.791876931852216803e-01
8.999999999999999667e-02,-1.148519673673406849e-01,-1.723228173846341194e-01,1.277359773893071981e-01
9.099999999999999756e-02,-2.089641445475076409e-01,-8.931588178333682571e-02,-5.411191802097451570e-02
9.199999999999999845e-02,-1.590835229142542329e-01,2.415644579842513018e-02,-1.172576301052418724e-01
9.299999999999999933e-02,-1.473870761667908820e-02,1.112752859561318697e-01,-1.015557304552558160e-01
9.400000000000000022e-02,1.039216805038685881e-01,1.328536247291094430e-01,-4.807929551636264814e-02
9.500000000000000111e-02,1.461696561967786578e-01,8.931939633423160996e-02,-8.170006748356949816e-03
9.600000000000000200e-02,1.744531924645770504e-01,-3.337208017324433396e-02,1.109651893792755334e-01
9.700000000000000289e-02,3.501150758839078475e-02,-1.893166959338407063e-01,1.083985736660832144e-01
9.800000000000000377e-02,-1.647475583810014965e-01,-2.054947049501082978e-01,9.117804870087052593e-02
9.900000000000000466e-02,-2.758822893648554819e-01,-9.251855211936292622e-02,-2.086216584905003710e-02
1.000000000000000056e-01,-1.848248303447522778e-01,1.511242895600221903e-01,-1.853482250333157444e-01
1.010000000000000064e-01,1.121034815014429753e-01,2.756145170201422800e-01,-1.406469251914322371e-01
1.019999999999999934e-01,3.689202357695508527e-01,1.511565194104310117e-01,2.333698694238074689e-02
1.029999999999999943e-01,2.801166814670230654e-01,-1.321851832135921556e-01,2.246701904404820038e-01
1.039999999999999952e-01,-6.439011242724697326e-02,-3.196920414503207075e-01,2.211712845628727442e-01
1.049999999999999961e-01,-3.457098943386865963e-01,-1.780974182874083545e-01,3.208461150609063367e-02
1.059999999999999970e-01,-3.156512631298642457e-01,1.162905004744789750e-01,-1.476693138246103765e-01
1.069999999999999979e-01,1.192236481260115777e-02,2.674969258202890554e-01,-2.055127999778743608e-01
1.079999999999999988e-01,2.368578987950550330e-01,1.732606559490438014e-01,-4.018670092240046038e-02
1.089999999999999997e-01,2.629883138388572350e-01,1.736137648804601851e-03,1.055074750896344143e-01
1.100000000000000006e-01,7.649192153272602046e-02,-1.843286704918195851e-01,1.543752371043636551e-01
1.110000000000000014e-01,-1.591786343528732439e-01,-1.721693968783891415e-01,9.624348082113766412e-02
1.120000000000000023e-01,-1.864397624315710933e-01,-3.235087967835636319e-02,-2.662413997608140126e-02
1.130000000000000032e-01,-1.574477478391072827e-01,2.498068929803218610e-02,-6.981898702266134404e-02
1.140000000000000041e-01,-3.817513753559306777e-02,1.328746126360386137e-01,-1.124028798626114795e-01
1.150000000000000050e-01,1.021423836431757520e-01,1.786537162825260205e-01,-8.599046632053485018e-02
1.160000000000000059e-01,2.291964614726026694e-01,4.876391775847419702e-02,-3.129518689346225818e-02
1.170000000000000068e-01,1.915396733284597530e-01,-1.024479316467789003e-01,7.810498889446833293e-02
1.179999999999999938e-01,4.217050670751726696e-03,-2.188247259622081997e-01,1.718679694051579998e-01
1.189999999999999947e-01,-2.272421539955385150e-01,-1.647923007854912303e-01,1.040377068297803076e-01
1.199999999999999956e-01,-3.286513516552074243e-01,6.030705531735342656e-02,-9.487423776903843031e-02
1.209999999999999964e-01,-9.309250490670706313e-02,2.766456163147765768e-01,-2.049940992311020949e-01
1.219999999999999973e-01,2.300708684251600578e-01,2.203950830777871295e-01,-1.402494043690273029e-01
1.229999999999999982e-01,3.678013836173636975e-01,3.592204256890753344e-03,3.020578428536655965e-02
1.239999999999999991e-01,1.656338483924527094e-01,-2.229398689614842388e-01,1.955908406249235454e-01
1.250000000000000000e-01,-1.726083869211248456e-01,-2.182485982305775452e-01,1.864159590962725654e-01
1.260000000000000009e-01,-3.564896788730315680e-01,-7.092242181598823469e-02,2.421601306137929205e-02
1.270000000000000018e-01,-1.749507475035502746e-01,2.016823407425941128e-01,-1.586128310074546299e-01
1.280000000000000027e-01,9.905140752235674917e-02,1.937972539683291973e-01,-1.658280646686357274e-01
1.290000000000000036e-01,2.781768689305156306e-01,1.118588029802145278e-01,-2.925088137406208280e-02
1.300000000000000044e-01,1.953383826535922407e-01,-4.828075677020066125e-02,1.037533715550964242e-01
1.310000000000000053e-01,5.088161584710472474e-02,-1.627494427318751102e-01,1.616164426873675231e-01
1.320000000000000062e-01,-1.118593013902805383e-01,-1.132557082406481230e-01,9.480590011550349416e-02
1.330000000000000071e-01,-1.620958528645645158e-01,-4.238683633205357626e-02,3.279710771572168053e-03
1.340000000000000080e-01,-1.669659855502582946e-01,4.824608052849176099e-02,-8.815263499118712598e-02
1.350000000000000089e-01,-5.123788594891390963e-02,1.320011648228701095e-01,-9.789316213224555363e-02
1.360000000000000098e-01,1.303533130728536382e-01,1.680476882013125228e-01,-9.029806989009900309e-02
1.370000000000000107e-01,2.310532526930504094e-01,1.865102949844219329e-02,-1.522495254482160096e-02
1.380000000000000115e-01,1.958181704388981259e-01,-1.711291329494591673e-01,1.146353511549186716e-01
1.390000000000000124e-01,-6.756319659329886040e-02,-2.483080934432695952e-01,1.452882664714190419e-01
1.400000000000000133e-01,-3.177105755839164658e-01,-7.733508002888893340e-02,9.391770278078488687e-02
1.409999999999999865e-01,-3.178454417186066805e-01,1.855782158464878706e-01,-1.147673749656513975e-01
1.419999999999999873e-01,4.474053473921372343e-02,2.849728607923719959e-01,-2.050810085339902777e-01
1.429999999999999882e-01,3.248029435117764097e-01,1.369448465490457900e-01,-1.272778984764686150e-01
1.439999999999999891e-01,3.553622420937986304e-01,-1.486162582588425873e-01,5.530335673736424401e-02
1.449999999999999900e-01,5.426343745265279489e-02,-2.777625988541316260e-01,2.066172311290749575e-01
1.459999999999999909e-01,-2.664464397451488664e-01,-1.265155362051106069e-01,1.510314826434952240e-01
1.469999999999999918e-01,-3.330092681804709409e-01,1.039063217862215560e-01,-1.913568690069089931e-02
1.479999999999999927e-01,-1.029139227677246110e-01,2.369165523906535398e-01,-1.485736275328835565e-01
1.489999999999999936e-01,1.456236043929852175e-01,1.765956118802260999e-01,-1.783156088287589924e-01
1.499999999999999944e-01,2.357332366439990889e-01,1.897406857851719961e-02,-1.409693391286693381e-02
1.509999999999999953e-01,1.431694806133123332e-01,-1.044762749585109035e-01,1.131978759652379485e-01
1.519999999999999962e-01,1.559824856789299337e-02,-2.004781223539072732e-01,1.266573454442444235e-01
1.529999999999999971e-01,-1.222407819031450377e-01,-1.052177889851357989e-01,1.236648785347190943e-01
1.539999999999999980e-01,-1.513359270042209936e-01,-2.995816994802429079e-02,2.495971143532709977e-02
1.549999999999999989e-01,-1.541054387401560033e-01,1.059472809834618029e-01,-4.252607339627006988e-02
1.559999999999999998e-01,-2.871851699809365235e-02,1.860203339591205984e-01,-9.455204223823152065e-02
1.570000000000000007e-01,2.272982578661985331e-01,1.121441483755303697e-01,-1.226392546081678941e-01
1.580000000000000016e-01,3.001319210887575251e-01,-8.586237674645554041e-02,-2.684026516326290177e-02
1.590000000000000024e-01,1.228919890994333713e-01,-2.430726766136313277e-01,1.395725575057298606e-01
1.600000000000000033e-01,-1.271610688076313667e-01,-1.882227152820932781e-01,1.746948489939903204e-01
1.610000000000000042e-01,-3.846290047585848582e-01,7.979082350094943155e-02,5.602586937339602835e-02
1.620000000000000051e-01,-2.180437525098218310e-01,2.897147514038836413e-01,-1.684966601711172518e-01
1.630000000000000060e-01,1.305407560186678528e-01,2.030339054970080881e-01,-1.786905868793285668e-01
1.640000000000000069e-01,3.759369361846886526e-01,-2.130326330076756300e-02,-1.289717213774697613e-01
1.650000000000000078e-01,2.736482239464044786e-01,-2.466523427945582214e-01,7.867930442322457196e-02
1.660000000000000087e-01,-4.785789896322348302e-02,-2.148185679126764225e-01,1.883485686575454843e-01
1.670000000000000095e-01,-2.827537160850687181e-01,-8.529589128089695715e-03,1.230926036359586279e-01
1.680000000000000104e-01,-2.685610595197072126e-01,1.463042041619309896e-01,-5.428514270103069854e-03
1.690000000000000113e-01,-5.877763781808071492e-02,1.295221837015384792e-01,-1.488940944914992626e-01
1.700000000000000122e-01,1.415780270540205055e-01,1.032359087281152776e-01,-1.381383352342728799e-01
1.710000000000000131e-01,1.681140824554237800e-01,-8.926121846152792333e-03,-5.902613641938898870e-02
1.719999999999999862e-01,1.170733182980952802e-01,-1.264459199843925019e-01,9.017014871180581426e-02
1.729999999999999871e-01,1.327925935988019668e-02,-1.521061670331458060e-01,1.420946636681024444e-01
1.739999999999999880e-01,-1.229173267480823117e-01,-1.393555110854253209e-01,1.433879488013563019e-01
1.749999999999999889e-01,-1.981098244875095782e-01,7.303407741792580093e-03,1.359114599002025046e-02
1.759999999999999898e-01,-1.711920211005808767e-01,1.957886687768700951e-01,-3.212545641534128582e-02
1.769999999999999907e-01,1.226671112235244894e-02,2.286708515368194028e-01,-1.291523891915702660e-01
1.779999999999999916e-01,2.722932507669193480e-01,1.060919763213435084e-02,-1.350619913751043011e-01
1.789999999999999925e-01,2.998949729186815016e-01,-1.823638160892862292e-01,-1.092645069982005855e-02
1.799999999999999933e-01,7.299335763350460471e-02,-2.742851583440169549e-01,1.485606493576657750e-01
1.809999999999999942e-01,-2.635881766606670840e-01,-6.979845561843914248e-02,1.997240430610269513e-01
1.819999999999999951e-01,-3.501504066459443787e-01,1.837795110114082420e-01,5.737054893463149757e-02
1.829999999999999960e-01,-1.285818625569878360e-01,2.995852136537194843e-01,-1.045017682576860757e-01
1.839999999999999969e-01,2.216425980632986126e-01,1.173293424886974884e-01,-2.215470660498830846e-01
1.849999999999999978e-01,3.239160106367649505e-01,-1.433734194938618423e-01,-9.198008616031365381e-02
1.859999999999999987e-01,1.566319272122171369e-01,-2.268680687948047558e-01,1.152378786913131892e-01
1.869999999999999996e-01,-8.354871278846100202e-02,-1.320721806811545329e-01,1.981863483282790273e-01
1.880000000000000004e-01,-2.561492212024322201e-01,1.034714359968699066e-02,1.020969091423418462e-01
1.890000000000000013e-01,-1.891930010697605025e-01,1.626850827071803507e-01,-3.507659050718784505e-02
1.900000000000000022e-01,-3.219367716489285325e-03,1.481279065011752161e-01,-1.416759879241071551e-01
1.910000000000000031e-01,1.258736172119281349e-01,7.109444113715596147e-02,-1.373678525765198721e-01
1.920000000000000040e-01,1.726924088086156106e-01,-1.470880361340184267e-02,-3.682316654070942608e-02
1.930000000000000049e-01,1.159160909879097118e-01,-1.095100939027350700e-01,4.378772115187217623e-02
1.940000000000000058e-01,6.085207817117521678e-02,-1.770003768816808265e-01,7.495682403416301098e-02
1.950000000000000067e-01,-1.253997116894677022e-01,-6.985654136773439271e-02,9.623418494912308607e-02
1.960000000000000075e-01,-2.159007753898885829e-01,1.334002973616888466e-01,4.976960742125839665e-02
1.970000000000000084e-01,-1.970628849045504005e-01,2.604610721126233708e-01,-9.301019586576145942e-03
1.980000000000000093e-01,8.560814330474010581e-02,1.564863218998550076e-01,-1.634973412697742767e-01
1.990000000000000102e-01,3.480961157782330173e-01,-1.359294083888653304e-01,-1.447468492685103081e-01
2.000000000000000111e-01,2.927348883333916185e-01,-2.547176957811205233e-01,-1.424369362740064357e-02
2.010000000000000120e-01,-5.438812641504230105e-02,-1.570402559604409387e-01,1.841528948965153734e-01
2.020000000000000129e-01,-3.405724602694020775e-01,4.925230236954551005e-02,2.018337522392445738e-01
2.030000000000000138e-01,-3.228237723105233936e-01,2.505142947193405023e-01,4.314020089502401678e-02
2.039999999999999869e-01,-5.279031009485527816e-03,2.059126304550215336e-01,-1.430878290273961684e-01
2.049999999999999878e-01,2.711733010267901589e-01,-8.781810459696951648e-03,-2.020908747019836693e-01
2.059999999999999887e-01,2.877261706225519577e-01,-1.804742783769154035e-01,-6.551927676631681685e-02
2.069999999999999896e-01,8.028450905789741299e-02,-2.009487717085678971e-01,1.442708946641585721e-01
2.079999999999999905e-01,-1.324659306818255222e-01,-8.802352551612153964e-02,1.747697959660813316e-01
2.089999999999999913e-01,-2.109542110693906902e-01,4.740926632063113128e-02,5.669087431323848597e-02
2.099999999999999922e-01,-1.316380426734016784e-01,1.038041502264459431e-01,-9.003208535071872617e-03
2.109999999999999931e-01,-1.100609465841150859e-02,1.313601101128079318e-01,-9.606973425937234690e-02
2.119999999999999940e-01,1.026495509881599766e-01,8.264806653506014122e-02,-1.109108068158187882e-01
2.129999999999999949e-01,1.816813644989055399e-01,-5.019760079133662317e-02,-5.167605063173009994e-02
2.139999999999999958e-01,1.590113456183229468e-01,-1.969889201212157437e-01,1.531585030069284627e-02
2.149999999999999967e-01,2.703286084275373629e-03,-1.819668094455181850e-01,8.504174649417713117e-02
2.159999999999999976e-01,-2.301234102797668213e-01,6.270360252009857249e-02,1.366164054602973799e-01
2.169999999999999984e-01,-2.747700019332035004e-01,2.522806201714150043e-01,8.268873082522303075e-02
2.179999999999999993e-01,-1.137492193976005761e-01,2.404579064288487611e-01,-8.550848824085352518e-02
2.190000000000000002e-01,2.261552137844567434e-01,1.711738986236664012e-02,-2.143269414004300155e-01
2.200000000000000011e-01,3.592124921455381870e-01,-2.361794012781439633e-01,-1.662827837253405827e-01
2.210000000000000020e-01,1.636576182361417220e-01,-2.759671526064484959e-01,4.023812820332038631e-02
2.220000000000000029e-01,-1.715847246847032603e-01,-5.886621994615538062e-02,2.093426853369200202e-01
2.230000000000000038e-01,-3.737883654524118415e-01,1.920554830858298423e-01,2.287044098216272914e-01
2.240000000000000047e-01,-2.222683694965559842e-01,2.587475832608887027e-01,-7.841423401994025016e-03
2.250000000000000056e-01,1.176795609278148136e-01,8.813901683551397803e-02,-1.485115205457360477e-01
2.260000000000000064e-01,2.849780537596334762e-01,-7.393048052359069144e-02,-2.292911062511885922e-01
2.270000000000000073e-01,2.293213451751214826e-01,-2.127081740424298373e-01,-3.767205959736482507e-02
2.280000000000000082e-01,1.948564822700097135e-02,-1.656958279530516276e-01,1.073207318869585369e-01
2.290000000000000091e-01,-1.476985144169261632e-01,8.418662270847331042e-03,1.530527659715958388e-01
2.300000000000000100e-01,-1.286664228679346988e-01,7.557958357511211644e-02,8.752654523911541917e-02
2.310000000000000109e-01,-1.438727603148714507e-01,1.430267187442909316e-01,-2.121835614692081304e-02
2.320000000000000118e-01,-5.834834426064409996e-03,1.618891226962413665e-01,-1.074313604447096893e-01
2.330000000000000127e-01,1.344578605860344833e-01,1.033517352823266032e-02,-8.758983237646324194e-02
2.340000000000000135e-01,2.155168868811299654e-01,-1.720490122140640732e-01,-6.063614475320992098e-02
2.349999999999999867e-01,1.733728332644181580e-01,-2.137391105995168905e-01,5.496539894176018758e-03
2.359999999999999876e-01,-4.935499849762564617e-02,-1.078452583147054972e-01,1.181859492848047061e-01
2.369999999999999885e-01,-2.850894875936654249e-01,1.413400986234812917e-01,1.385111340761191467e-01
2.379999999999999893e-01,-2.931845183403972155e-01,2.826215959132096223e-01,6.470750952626729002e-02
2.389999999999999902e-01,-1.997782282327186312e-02,1.781613069189509069e-01,-8.094855516801649498e-02
2.399999999999999911e-01,3.041091114390485628e-01,-1.068657071969863204e-01,-2.194148930331567826e-01
2.409999999999999920e-01,3.555820887990692736e-01,-2.850348233342386850e-01,-1.340082697736328654e-01
2.419999999999999929e-01,7.595345234408217017e-02,-1.617912177592779333e-01,4.562936151416484287e-02
2.429999999999999938e-01,-2.604942120964807151e-01,8.140253878871529791e-02,1.955524949627168163e-01
2.439999999999999947e-01,-3.373257573490225925e-01,2.269147348221154936e-01,1.739241195107264493e-01
2.449999999999999956e-01,-8.613943328573525626e-02,2.042700345070761203e-01,-3.474383224523834579e-02
2.459999999999999964e-01,1.569316405425152106e-01,3.203121959989029682e-02,-2.065277656792172400e-01
2.469999999999999973e-01,2.737893961053393665e-01,-1.282359618032734017e-01,-2.003772202164933736e-01
2.479999999999999982e-01,1.492562071351554442e-01,-8.826478933129609794e-02,-5.589655858056933463e-02
2.489999999999999991e-01,-2.880610739438064713e-02,-1.207232990355833757e-01,7.463093393028961964e-02
2.500000000000000000e-01,-1.155252731054819126e-01,3.955373068971670958e-02,1.224698845025418009e-01
2.510000000000000009e-01,-1.881732584313527690e-01,1.261755089905629568e-01,7.305560661998890259e-02
2.520000000000000018e-01,-1.159516915450355401e-01,1.871158369590768811e-01,-1.995893912929011874e-02
2.530000000000000027e-01,3.638809469691115656e-02,1.360955785083888536e-01,-5.510493257721764404e-02
2.540000000000000036e-01,1.686602283728597940e-01,-8.598821189205078930e-02,-9.581074055879572338e-02
2.550000000000000044e-01,2.948815706044518592e-01,-2.296298400347265012e-01,-1.160521838667562255e-01
2.560000000000000053e-01,1.374000907219291023e-01,-1.946464280848359263e-01,2.989608203469713149e-02
2.570000000000000062e-01,-1.302471562752601231e-01,1.938269658318169872e-02,1.363215170585611313e-01
2.580000000000000071e-01,-3.034711713987066073e-01,2.627775248991013335e-01,1.382837560658175535e-01
2.590000000000000080e-01,-2.412541915934117986e-01,2.300151054551668461e-01,7.133503429625019654e-02
2.600000000000000089e-01,7.382142106164284179e-02,-3.806013223406122178e-03,-1.111745090710388600e-01
2.610000000000000098e-01,3.634711672476071964e-01,-2.299687165708379499e-01,-2.203515707121114775e-01
2.620000000000000107e-01,2.895552773016460413e-01,-2.395025105553796052e-01,-1.400112645535454836e-01
2.630000000000000115e-01,-3.657752499004302688e-02,-4.347122748370475798e-02,8.190811136611982068e-02
2.640000000000000124e-01,-2.944739006324822439e-01,1.307501483689877952e-01,2.222460121641098574e-01
2.650000000000000133e-01,-2.605224504980412359e-01,1.638800346149011655e-01,1.510210145621832811e-01
2.660000000000000142e-01,-5.065351636411374175e-02,1.023309474137425179e-01,-4.383322901323121433e-03
2.670000000000000151e-01,1.978516741378623378e-01,-5.573223598212465046e-02,-1.545426067140137916e-01
2.680000000000000160e-01,2.170682736219238518e-01,-8.749343967132867939e-02,-1.642070877787838445e-01
2.690000000000000169e-01,1.169267982991473581e-01,-1.467929573117221775e-01,-2.892487108617971051e-02
2.700000000000000178e-01,-1.659900273027740958e-02,-7.548625927384879086e-02,1.074063625989327558e-01
2.710000000000000187e-01,-1.409795346189626486e-01,4.791829031010106862e-03,1.140491247568768962e-01
2.720000000000000195e-01,-2.072391087602126758e-01,1.410695339597830833e-01,8.735745721177290424e-02
2.730000000000000204e-01,-1.436339445060978437e-01,2.033647332233432248e-01,1.455120004499384917e-02
2.740000000000000213e-01,6.372744085650874912e-02,-8.709707907010921790e-03,-5.704687200818054499e-02
2.750000000000000222e-01,2.460172337283276223e-01,-2.053432159647339827e-01,-1.327032073707664073e-01
2.760000000000000231e-01,2.606225523454741566e-01,-2.920773601020241195e-01,-9.511301137466253441e-02
2.770000000000000240e-01,6.034302733919772593e-02,-1.074649316291557827e-01,2.315235929166631779e-03
2.780000000000000249e-01,-2.122779550608319410e-01,1.435665646513833715e-01,1.853739191061551106e-01
2.790000000000000258e-01,-3.886158280066996928e-01,3.277605536145040688e-01,1.808080313198777433e-01
2.800000000000000266e-01,-1.256177561088100414e-01,1.787368547868537494e-01,5.583068309257650103e-02
2.810000000000000275e-01,1.981408669999668304e-01,-1.548273916961670493e-01,-1.259143149503963444e-01
2.819999999999999729e-01,3.792110550236042488e-01,-2.101091345392164245e-01,-2.202459836526357573e-01
2.829999999999999738e-01,2.026553426478360231e-01,-1.231010939141008870e-01,-8.371924619059094297e-02
2.839999999999999747e-01,-1.165742741955171219e-01,7.731673605591608822e-02,9.012480135987073482e-02
2.849999999999999756e-01,-2.382496707453736207e-01,1.859898059639399914e-01,2.059391961375664493e-01
2.859999999999999765e-01,-2.093278907028381930e-01,1.340998461128394548e-01,1.089072802628580638e-01
2.869999999999999774e-01,3.123342299598387897e-02,4.020698725798140666e-02,-4.293412669134389487e-02
2.879999999999999782e-01,1.825016254136384852e-01,-1.979817312082886999e-02,-1.786529634040905090e-01
2.889999999999999791e-01,1.761612845813189387e-01,-1.329193237183806942e-01,-9.112532192524926133e-02
2.899999999999999800e-01,9.514273261657044123e-02,-1.556446480081905004e-01,-3.661671896109085916e-02
2.909999999999999809e-01,8.238453817496719372e-03,-6.237986321648281846e-02,6.353027558288242005e-02
2.919999999999999818e-01,-1.404530737011208674e-01,9.063435998763379187e-02,8.686409978825150591e-02
2.929999999999999827e-01,-2.218371212589782815e-01,2.368976338097124879e-01,7.723139112773121095e-02
2.939999999999999836e-01,-1.324691264646822020e-01,1.678705656583002470e-01,5.022816915660338610e-02
2.949999999999999845e-01,1.107911405015855749e-01,-6.148640565431299360e-02,-5.641970614570964576e-02
2.959999999999999853e-01,2.986772803676853161e-01,-2.859164051215804525e-01,-1.079154198407773907e-01
2.969999999999999862e-01,2.697258828562349442e-01,-1.986819804222691166e-01,-1.155755611727682097e-01
2.979999999999999871e-01,1.663690180280413822e-02,5.831563999827187039e-02,-2.514105894562201644e-03
2.989999999999999880e-01,-2.871546993660459290e-01,2.764864737338033063e-01,1.625588775393450869e-01
2.999999999999999889e-01,-2.834928603112297774e-01,2.314504035211014110e-01,2.138028351240156832e-01
3.009999999999999898e-01,-3.459999847970153530e-02,5.403563916396825727e-03,2.340636826798317416e-02
3.019999999999999907e-01,2.589575837146054216e-01,-1.960019654331196792e-01,-1.816645890830283772e-01
3.029999999999999916e-01,3.241199795547120566e-01,-2.293845207909725459e-01,-1.953344210882425047e-01
3.039999999999999925e-01,1.036132558883809673e-01,-2.784524921082110263e-02,-9.331946735535678883e-02
3.049999999999999933e-01,-1.926406435211770185e-01,9.182622525747910491e-02,1.109469675030713282e-01
3.059999999999999942e-01,-2.678138015095772317e-01,1.421214677766957646e-01,1.946482127347964608e-01
3.069999999999999951e-01,-1.290940786367525128e-01,1.048418472502802984e-01,8.842400397125924072e-02
3.079999999999999960e-01,7.620774042253418423e-02,-1.371990395490378526e-03,-2.571769674919625534e-02
3.089999999999999969e-01,1.634444321980484116e-01,-6.411366330981393968e-02,-1.044503024619837656e-01
3.099999999999999978e-01,1.647966728331551889e-01,-1.875019193557884989e-01,-9.362331997005030049e-02
3.109999999999999987e-01,1.151855929645142496e-01,-1.531051316970422904e-01,-7.337033318449971003e-03
3.119999999999999996e-01,-3.892063842781968291e-02,1.532460930258906610e-02,3.905085874155935638e-02
3.130000000000000004e-01,-1.862604356345624879e-01,1.810457825432542633e-01,6.971748538740930867e-02
3.140000000000000013e-01,-2.552237558733742584e-01,2.355876538122173847e-01,1.239421015324918551e-01
3.150000000000000022e-01,-6.772515359854767991e-02,4.236260921002374391e-02,6.053786889462695747e-02
3.160000000000000031e-01,1.864528880969981151e-01,-2.358513903120621480e-01,-6.295578005573869429e-02
3.170000000000000040e-01,3.339838359887403185e-01,-2.796505699082533769e-01,-1.932362645990694794e-01
3.180000000000000049e-01,1.976368674484920984e-01,-8.480807920789047716e-02,-1.362406565788777668e-01
3.190000000000000058e-01,-2.062833869145870580e-01,1.905711547247232462e-01,1.267153298871821591e-02
3.200000000000000067e-01,-3.839335361505056832e-01,2.977474829512813392e-01,1.978110203007781009e-01
3.210000000000000075e-01,-2.724625260837849061e-01,1.160433313008712858e-01,1.981836131656231625e-01
3.220000000000000084e-01,1.070026290431549260e-01,-1.360394638983684068e-01,-3.967646333918110890e-02
3.230000000000000093e-01,2.978645040157060775e-01,-2.103053522774919470e-01,-1.875580217958708329e-01
3.240000000000000102e-01,2.404548803665953194e-01,-1.058347939947205524e-01,-1.858122773328694244e-01
3.250000000000000111e-01,1.420331191985112380e-02,-4.990422976869367082e-03,-4.747126484281779385e-02
3.260000000000000120e-01,-2.168112110104545853e-01,9.789505677399701344e-02,1.005756693076106517e-01
3.270000000000000129e-01,-2.009073443156712269e-01,1.709575202614423972e-01,1.612066787724917849e-01
3.280000000000000138e-01,-1.058376998747098119e-01,1.231403786955516805e-01,8.545353912380683481e-02
3.290000000000000147e-01,-1.043025746528459434e-03,-1.221282958695333806e-02,-4.809248227388284586e-02
3.300000000000000155e-01,1.210437465561250564e-01,-1.744825069898063297e-01,-5.721454687327277161e-02
3.310000000000000164e-01,1.895421408938763042e-01,-2.076367039670413417e-01,-1.210979761431511398e-01
3.320000000000000173e-01,1.057356373976031660e-01,-1.199111260050721717e-01,-2.741088871283397371e-02
3.330000000000000182e-01,-6.083334328156234094e-02,1.155339293462342987e-01,1.869538758794113062e-02
3.340000000000000191e-01,-2.664946465727693892e-01,2.804255747462871540e-01,9.431731449373879916e-02
3.350000000000000200e-01,-2.639922639573963337e-01,1.683294541565492908e-01,1.046655302134436444e-01
3.360000000000000209e-01,-1.134934143474836468e-02,-1.350553549231140182e-01,4.669038501877584291e-02
3.370000000000000218e-01,2.798789959457720355e-01,-2.550746642610592918e-01,-7.583187148425808710e-02
3.380000000000000226e-01,3.542251110766033162e-01,-1.956889615892843104e-01,-1.911859720964901310e-01
3.390000000000000235e-01,9.177305030043218792e-02,6.765940873311991621e-02,-1.368558606649165343e-01
3.400000000000000244e-01,-2.442507461427886606e-01,2.562790779010863385e-01,5.883448143217875209e-02
3.410000000000000253e-01,-3.286370556131978371e-01,1.994381000985013808e-01,1.813471693709653443e-01
3.420000000000000262e-01,-1.273374085658061372e-01,7.978784432015785175e-03,1.763829700218124685e-01
3.430000000000000271e-01,1.819891126158355854e-01,-1.309320390823557612e-01,-1.702971370174974006e-02
3.439999999999999725e-01,2.836600085024554851e-01,-1.634055751704780179e-01,-1.815220200783001780e-01
3.449999999999999734e-01,1.664439263188584039e-01,-5.011807304709487570e-02,-1.878986511767612722e-01
3.459999999999999742e-01,-5.275266486545389377e-02,2.120543451237958885e-02,-4.387308391181456851e-02
3.469999999999999751e-01,-1.780183062142832728e-01,5.767101866594129267e-02,9.270213827735515610e-02
3.479999999999999760e-01,-1.912510573868148600e-01,1.429399268703990256e-01,1.252797412344195116e-01
3.489999999999999769e-01,-6.648297193326362098e-02,8.509085389322708359e-02,9.273615173327373618e-02
3.499999999999999778e-01,1.820541291439160825e-02,-7.132201348429521859e-02,-4.107029331528145449e-02
3.509999999999999787e-01,1.524282400664755122e-01,-2.204976712071713141e-01,-8.850860971654513076e-02
3.519999999999999796e-01,2.257789895736987407e-01,-1.883134472818175920e-01,-1.119486721850378591e-01
3.529999999999999805e-01,1.541212318772478551e-01,3.760709041328900298e-02,-5.338455410844895194e-02
3.539999999999999813e-01,-1.246657942075620890e-01,2.206321938367872271e-01,2.727647068481154138e-02
3.549999999999999822e-01,-3.032521891495836286e-01,2.080155999614018980e-01,1.106693072152930002e-01
3.559999999999999831e-01,-2.276443929511709763e-01,4.757173156352921539e-02,1.534270575489806721e-01
3.569999999999999840e-01,6.068051516327498812e-02,-2.331692683746683648e-01,7.159601926921585480e-02
3.579999999999999849e-01,3.495496512977573911e-01,-2.935462642645246811e-01,-1.114834080820567286e-01
3.589999999999999858e-01,2.924145541228856948e-01,-6.349408098110358167e-02,-1.510726991966485355e-01
3.599999999999999867e-01,-1.179009334325214825e-03,1.655407846536909033e-01,-1.402280196669589696e-01
3.609999999999999876e-01,-2.941300355378134723e-01,2.446417406502499059e-01,5.707402217230175823e-02
3.619999999999999885e-01,-3.352702103976240022e-01,8.405085750146010226e-02,2.000215388127570271e-01
3.629999999999999893e-01,-5.159853070839441613e-02,-4.916625440749335108e-02,1.399067308240145857e-01
3.639999999999999902e-01,2.072793255134841028e-01,-1.113935324145617217e-01,-7.906633744485201676e-02
3.649999999999999911e-01,2.587876434210469312e-01,-1.314728127926383661e-01,-1.527509051050064959e-01
3.659999999999999920e-01,1.389216376691836397e-01,-2.665106087277255287e-02,-1.510713571129079780e-01
3.669999999999999929e-01,-6.077275983328687264e-02,4.481368333806214077e-02,-1.378859149355863255e-03
3.679999999999999938e-01,-1.230552922408522376e-01,1.293234115823856945e-01,7.865720097625177043e-02
3.689999999999999947e-01,-1.735562384015273407e-01,1.740667607403056927e-01,1.176129989355135935e-01
3.699999999999999956e-01,-1.019076620292794222e-01,2.624522483071555293e-02,7.189353296175080010e-02
3.709999999999999964e-01,4.200251743525835330e-02,-1.573369569581281602e-01,5.740210884012755289e-03
3.719999999999999973e-01,2.179046695698649283e-01,-2.479359068331014049e-01,-6.848830598992902696e-02
3.729999999999999982e-01,2.353310741158612107e-01,-1.231746456341979712e-01,-1.220679721981607901e-01
3.739999999999999991e-01,8.808508887553002931e-02,1.888615760091471307e-01,-7.271055907430862275e-02
3.750000000000000000e-01,-2.267347487470638412e-01,2.832033872225548365e-01,1.754414568065573027e-02
3.760000000000000009e-01,-3.509776306116345612e-01,1.742016854583444962e-01,1.330797218332125387e-01
3.770000000000000018e-01,-1.623067971886841820e-01,-1.369458546233786600e-01,1.264260343004380560e-01
3.780000000000000027e-01,2.401581368387682713e-01,-2.618666161654389368e-01,4.820627853049009454e-02
3.790000000000000036e-01,3.731437232353732592e-01,-1.847075812929737937e-01,-1.008551641142831357e-01
3.800000000000000044e-01,2.207953090729921353e-01,3.544708388943260818e-02,-2.122131548847232818e-01
3.810000000000000053e-01,-1.295489133873807541e-01,2.175076074671539461e-01,-1.349270497324920604e-01
3.820000000000000062e-01,-3.210579591943509281e-01,1.443165139685581300e-01,1.253215648271670535e-01
3.830000000000000071e-01,-2.190369714523389688e-01,3.122967170792673164e-02,1.925820842557481871e-01
3.840000000000000080e-01,2.847108076547066532e-02,-2.949022502978427759e-02,1.600561989849688393e-01
3.850000000000000089e-01,1.802894979326630787e-01,-1.396723623962953797e-01,-5.073268390307973663e-02
3.860000000000000098e-01,1.954202736019838849e-01,-1.156239904391227341e-01,-1.817849912117310285e-01
3.870000000000000107e-01,1.186053528501853915e-01,-2.519247555918750422e-02,-1.298730762008727668e-01
3.880000000000000115e-01,-5.077298706083859664e-02,1.081031168002654919e-01,-1.027740053992965384e-02
3.890000000000000124e-01,-1.481103157801196557e-01,1.932988693202242203e-01,1.003333286260591206e-01
3.900000000000000133e-01,-2.046896066845065587e-01,1.609128274204121856e-01,1.221080301794425366e-01
3.910000000000000142e-01,-1.151626424012353045e-01,-7.327734286153621268e-02,6.206749355274297775e-02
3.920000000000000151e-01,8.402862914963836471e-02,-2.615678414982444688e-01,1.865574774414069598e-03
3.930000000000000160e-01,2.587012414593322651e-01,-1.857545014520705917e-01,-6.722471969546936488e-02
3.940000000000000169e-01,2.338476785540001823e-01,6.554880757920517054e-02,-1.303196948725071636e-01
3.950000000000000178e-01,-4.395853598571763943e-02,2.565391292345212126e-01,-6.913471434157716922e-02
3.960000000000000187e-01,-2.987304885396142584e-01,2.462904210537044669e-01,2.827311260037742788e-02
3.970000000000000195e-01,-3.662270562688382802e-01,4.814228545333872934e-03,1.224599828961441678e-01
3.980000000000000204e-01,-3.132312367040507306e-02,-1.759161452542893633e-01,1.918302354910261243e-01
3.990000000000000213e-01,2.818412595243527941e-01,-2.424630326440889716e-01,3.710388694563454548e-02
4.000000000000000222e-01,3.736503603571490473e-01,-4.815758165229613863e-02,-1.344121621254666665e-01
4.010000000000000231e-01,7.881124862813110310e-02,1.090739809190812148e-01,-2.322951961797792286e-01
4.020000000000000240e-01,-2.352114494108929199e-01,1.850748240703129210e-01,-6.888119691744044870e-02
4.030000000000000249e-01,-2.805218576705124645e-01,1.372650639055336408e-01,1.173274079250754692e-01
4.040000000000000258e-01,-1.374909237663120842e-01,-1.727865766051461457e-02,1.902843326849931460e-01
4.050000000000000266e-01,7.755916686475845812e-02,-9.156292861329158594e-02,7.059373916539254945e-02
4.060000000000000275e-01,1.954996949776061643e-01,-1.476096489045322646e-01,-6.124670264487423049e-02
4.069999999999999729e-01,1.483275705232416641e-01,-1.782149997727447976e-01,-1.789407836609200886e-01
4.079999999999999738e-01,1.301083048035469314e-01,9.205570405760634886e-03,-1.622435846807183113e-01
4.089999999999999747e-01,-4.399652738641364469e-02,1.783213940070233483e-01,-7.947549349145625538e-03
4.099999999999999756e-01,-1.330980471271829280e-01,2.100554910620337501e-01,7.146325929682674494e-02
4.109999999999999765e-01,-2.483778076689745207e-01,8.655546793296139962e-02,1.276105463578854904e-01
4.119999999999999774e-01,-8.706854151451591528e-02,-1.916876010295288091e-01,7.182528669361026852e-02
4.129999999999999782e-01,1.609636150950642941e-01,-2.937141050629795136e-01,2.561199694473281080e-02
4.139999999999999791e-01,3.210097064412553713e-01,-1.125505304335552709e-01,-4.473175562242859976e-02
4.149999999999999800e-01,2.008750848906516728e-01,1.616386051302017290e-01,-1.550759907095396462e-01
4.159999999999999809e-01,-1.112724524426929318e-01,2.898869088484031242e-01,-9.294481054318365354e-02
4.169999999999999818e-01,-3.305386840065862031e-01,1.574993398078994855e-01,4.548789996862468571e-02
4.179999999999999827e-01,-2.711700863646587245e-01,-9.397341464828783131e-02,1.874710258080318215e-01
4.189999999999999836e-01,7.118004205467051704e-02,-2.261997523682423017e-01,1.706925685891191036e-01
4.199999999999999845e-01,3.404508927072654179e-01,-1.441610111519203430e-01,-4.222578721986578430e-03
4.209999999999999853e-01,2.889533190215501923e-01,4.096240929106638451e-02,-1.800781383521488643e-01
4.219999999999999862e-01,9.058577306131755311e-03,1.202993020137945318e-01,-2.069134119996722809e-01
4.229999999999999871e-01,-1.958057188112204972e-01,1.432084696080093700e-01,-5.746466323776846380e-02
4.239999999999999880e-01,-2.469690304876587805e-01,9.248979365455622936e-02,1.733814027676059133e-01
4.249999999999999889e-01,-7.931734294560338627e-02,-2.421891673785646001e-02,1.875562664584763117e-01
4.259999999999999898e-01,6.347058799934229834e-02,-1.367633859060253532e-01,9.313806073511839145e-02
4.269999999999999907e-01,1.683918947500936958e-01,-1.593252218435086409e-01,-6.919583277800152310e-02
4.279999999999999916e-01,1.901906884159347277e-01,-7.657407870177521114e-02,-1.617500131596606716e-01
4.289999999999999925e-01,4.392550537368853508e-02,1.068451682614434822e-01,-1.321903171100870522e-01
4.299999999999999933e-01,-8.489040335338270127e-02,2.722882441747805915e-01,-3.003718615616344720e-02
4.309999999999999942e-01,-2.297926678347860241e-01,1.805040277249424785e-01,2.733883897712851771e-02
4.319999999999999951e-01,-2.251305241958387882e-01,-6.876205136679265639e-02,1.150596223371431609e-01
4.329999999999999960e-01,-2.516585975798240477e-02,-2.941031872176864681e-01,9.445531864605996586e-02
4.339999999999999969e-01,2.572370004878780092e-01,-1.930373665494962143e-01,2.434186735119765396e-02
4.349999999999999978e-01,3.161846467464003441e-01,4.936877511823674347e-02,-7.776241919511235612e-02
4.359999999999999987e-01,9.461092922076612399e-02,2.431269615043549770e-01,-1.644784557682121562e-01
4.369999999999999996e-01,-2.581136594099630033e-01,2.366357470609224689e-01,-1.034478155215557416e-01
4.380000000000000004e-01,-3.554221450364278279e-01,2.543531935803577948e-02,6.814061686746496205e-02
4.390000000000000013e-01,-1.715073837299203319e-01,-2.051718360504004857e-01,1.862405118343976040e-01
4.400000000000000022e-01,1.990453459753443177e-01,-1.444770404939091923e-01,1.695142542237934313e-01
4.410000000000000031e-01,3.519042424133869695e-01,-5.527594565786483893e-02,-1.592508346227517607e-02
4.420000000000000040e-01,1.960668802729829407e-01,7.810600529400067715e-02,-2.031234149553508839e-01
4.430000000000000049e-01,-5.698003378399639496e-02,1.111322620385191556e-01,-1.730754330040815414e-01
4.440000000000000058e-01,-2.205232957491595203e-01,1.234511904345961253e-01,-6.583283774670943556e-02
4.450000000000000067e-01,-1.878315509673773309e-01,4.150558835362362642e-02,1.214638579191400780e-01
4.460000000000000075e-01,-5.399679553984609859e-02,-3.045687445711394922e-02,1.807327592375039260e-01
4.470000000000000084e-01,3.609336511845069595e-02,-2.243335871691322370e-01,9.045929925003197425e-02
4.480000000000000093e-01,1.463694105285970881e-01,-1.808103957555636798e-01,-6.868168729199843059e-02
4.490000000000000102e-01,1.533113280440602799e-01,-1.422193159565357220e-03,-1.357104781921765202e-01
4.500000000000000111e-01,1.047766174518005161e-01,2.027090886011074788e-01,-1.184670094956467579e-01
4.510000000000000120e-01,-1.143671606733568658e-01,2.667564369525571855e-01,-2.876265885532003352e-02
4.520000000000000129e-01,-2.431615482177990339e-01,7.232743237345740095e-02,3.855470518071874020e-02
4.530000000000000138e-01,-2.168964457936023160e-01,-2.073999820091591839e-01,1.329608282613008174e-01
4.540000000000000147e-01,7.254453819547784788e-02,-2.765226193474114580e-01,8.419378181321737764e-02
4.550000000000000155e-01,3.354020750375857340e-01,-8.513894120270060206e-02,3.240797081755648901e-02
4.560000000000000164e-01,2.866928829873039986e-01,1.621633359704080235e-01,-7.193897408989841091e-02
4.570000000000000173e-01,-5.978044503475297977e-03,2.773785233899809244e-01,-1.577906730608591712e-01
4.580000000000000182e-01,-3.113786339688252580e-01,1.030375628080632266e-01,-1.340596428872412871e-01
4.590000000000000191e-01,-3.415979907609891786e-01,-5.933974470678413798e-02,7.252032928319693261e-02
4.600000000000000200e-01,-5.997276784783651948e-02,-1.475700508748813977e-01,1.958970969854632316e-01
4.610000000000000209e-01,2.681789084572643866e-01,-1.288454976672939456e-01,2.045330453367367185e-01
4.620000000000000218e-01,2.716450820864881877e-01,-5.232507967835310116e-03,-2.063408369239239787e-02
4.630000000000000226e-01,6.389518180655821833e-02,6.164375350378946405e-02,-1.810505223862177993e-01
4.640000000000000235e-01,-1.177932828613659916e-01,1.192972947789406046e-01,-1.925479564474939786e-01
4.650000000000000244e-01,-1.886777502920624905e-01,1.310037595365014240e-01,-1.133605389524114035e-02
4.660000000000000253e-01,-1.483083700411849393e-01,2.033111721273009667e-02,1.167397322836855739e-01
4.670000000000000262e-01,-4.531168221889008557e-02,-1.402049525237892558e-01,1.531585183555134178e-01
4.680000000000000271e-01,4.512575485933770919e-02,-2.452516111822915235e-01,7.332829879037701393e-02
4.689999999999999725e-01,2.040095068255624311e-01,-1.325483459572846523e-01,-4.116252699791445729e-02
4.699999999999999734e-01,2.200177727463377697e-01,1.722635769502325331e-01,-8.307395681428846046e-02
4.709999999999999742e-01,2.358491423142935334e-02,2.978211606551404711e-01,-1.089701307302870514e-01
4.719999999999999751e-01,-1.926109146359146485e-01,1.668237092890476336e-01,-5.374904227575381249e-02
4.729999999999999760e-01,-3.355542788991921488e-01,-1.059124161834378020e-01,-8.545185978604211835e-03
4.739999999999999769e-01,-1.705647272343004117e-01,-2.751881363549388282e-01,1.472342690123938092e-01
4.749999999999999778e-01,1.834861052211091692e-01,-1.969353692099338471e-01,1.572136588967753823e-01
4.759999999999999787e-01,3.707501825691941755e-01,2.536576942596872539e-02,3.830832023278588766e-02
4.769999999999999796e-01,2.009597543000460618e-01,2.517294274742327698e-01,-1.461829609233611660e-01
4.779999999999999805e-01,-1.724545162172408941e-01,1.630906213191144760e-01,-1.961899546482596957e-01
4.789999999999999813e-01,-3.187491212441313504e-01,-2.365540031143206247e-03,-1.332077747416804958e-01
4.799999999999999822e-01,-2.416596483452769784e-01,-1.285056840041424175e-01,7.918844905005489876e-02
4.809999999999999831e-01,2.683354289605133919e-02,-1.523420988731635506e-01,2.222140208286443597e-01
4.819999999999999840e-01,2.516593177516784352e-01,-5.876956773679176821e-02,1.507499258769011696e-01
4.829999999999999849e-01,2.256722351837876506e-01,8.980684772104561772e-03,-6.083318120068929857e-02
4.839999999999999858e-01,6.867879819834425692e-02,1.172880980857374245e-01,-1.754016219350018058e-01
4.849999999999999867e-01,-9.941206987016944219e-02,1.818341959064427027e-01,-1.901583381004232909e-01
4.859999999999999876e-01,-1.615920681286612259e-01,1.522797321116858282e-01,8.026200430861686217e-04
4.869999999999999885e-01,-1.370315072956565239e-01,-3.547665196365877571e-02,1.225433954435117268e-01
4.879999999999999893e-01,-8.566285442685935003e-02,-2.333035361372702288e-01,1.071115124640075605e-01
4.889999999999999902e-01,9.297301023541217069e-02,-1.811984398299566201e-01,6.343313289333291083e-02
4.899999999999999911e-01,2.238772411830559084e-01,1.630361429802730522e-02,-5.274792118747762687e-02
4.909999999999999920e-01,2.409228608433668095e-01,2.542300834121299924e-01,-6.311814758151229610e-02
4.919999999999999929e-01,-8.515621434657354508e-03,2.607709906265981425e-01,-1.002804497907287262e-01
4.929999999999999938e-01,-2.932393449977783173e-01,2.074740166630647739e-02,-7.356440069825009864e-02
4.939999999999999947e-01,-3.215250001017614379e-01,-2.260406705139546280e-01,3.080417867700438114e-02
4.949999999999999956e-01,-3.386675445865309358e-02,-2.744516904934830581e-01,1.249469349298225757e-01
4.959999999999999964e-01,2.779821098148039238e-01,-6.228773489839992822e-02,1.866979715968083431e-01
4.969999999999999973e-01,3.496012259970972536e-01,1.265251042109763469e-01,4.003897175304269029e-02
4.979999999999999982e-01,1.188102974678702656e-01,1.980237777414793898e-01,-1.427840624621361798e-01
4.989999999999999991e-01,-2.381237794582355127e-01,7.870270797397670159e-02,-1.976398645349175531e-01
5.000000000000000000e-01,-3.323637531697676839e-01,-2.954144118667552041e-02,-7.996840780661028381e-02
5.010000000000000009e-01,-1.534209331277130994e-01,-1.241610973119161992e-01,8.143396807102226687e-02
5.020000000000000018e-01,1.370057902787688853e-01,-1.555663118560671188e-01,1.919833528704150971e-01
5.030000000000000027e-01,2.316718714797329493e-01,-1.093977440353497282e-01,1.052243713650795748e-01
5.040000000000000036e-01,1.658317094095743960e-01,4.412494460641695759e-02,-3.994012783713495052e-02
5.050000000000000044e-01,2.425802843488336288e-02,1.698022820883866579e-01,-1.938450380873950885e-01
5.060000000000000053e-01,-1.105667782071872024e-01,2.060154673153760663e-01,-1.241883821748217820e-01
5.070000000000000062e-01,-1.551225181764444572e-01,8.101764088008595044e-02,9.755865998059753616e-03
5.080000000000000071e-01,-1.891482266630375997e-01,-1.375526164391896733e-01,1.156675308389148032e-01
5.090000000000000080e-01,-6.030947258785118725e-02,-2.927643580578608851e-01,9.339005168025724113e-02
5.100000000000000089e-01,1.459352386847820038e-01,-1.174134840014554731e-01,6.639618202969166383e-02
5.110000000000000098e-01,3.057978954665483418e-01,1.238993923484970200e-01,8.690966648186398275e-03
5.120000000000000107e-01,1.702198443516195203e-01,3.067619888178512721e-01,-1.075407566379113083e-01
5.130000000000000115e-01,-9.237152143216920130e-02,1.505097977638218398e-01,-1.194744593901843066e-01
5.140000000000000124e-01,-3.393422563272362469e-01,-1.156923111885349020e-01,-9.385675248892201561e-02
5.150000000000000133e-01,-2.649779401349033892e-01,-2.646403089797443320e-01,2.222372550916927245e-02
5.160000000000000142e-01,1.107189576516030838e-01,-1.471207788508216985e-01,1.548224498307964048e-01
5.170000000000000151e-01,3.576217128811180479e-01,4.830979260614188392e-02,1.666673858492989935e-01
5.180000000000000160e-01,3.064366571567592734e-01,1.611940025823297984e-01,3.511839653300135450e-02
5.190000000000000169e-01,6.058063095419272126e-03,1.687300287463009973e-01,-1.617284507060706422e-01
5.200000000000000178e-01,-2.609338233884908598e-01,4.720146800186542091e-02,-2.423873983684253219e-01
5.210000000000000187e-01,-2.518645405027803430e-01,-5.901993602867905420e-02,-6.847223218698728076e-02
5.220000000000000195e-01,-8.119775884897822982e-02,-1.209909516622939551e-01,1.090625435781644587e-01
5.230000000000000204e-01,1.598887634147442838e-01,-1.375955298675624605e-01,2.235841670587117302e-01
5.240000000000000213e-01,2.214883399904277739e-01,-4.085959095237538113e-02,7.643868420785346340e-02
5.250000000000000222e-01,1.361882249053966432e-01,1.072992718149474306e-01,-4.890885523631861159e-02
5.260000000000000231e-01,7.020647427979814781e-02,2.405724749345800606e-01,-1.941942591815052355e-01
5.270000000000000240e-01,-9.631616115816973855e-02,1.791234372977701383e-01,-1.006647618580831793e-01
5.280000000000000249e-01,-2.069444993125748034e-01,-5.306874943265474376e-02,5.073526601111561646e-03
5.290000000000000258e-01,-1.583903199322218014e-01,-3.098287501273401245e-01,8.493169316741198960e-02
5.300000000000000266e-01,-3.956030351593240596e-02,-2.303198802633537046e-01,1.175072421234853587e-01
5.310000000000000275e-01,2.269161248271814590e-01,3.297810897443596845e-02,5.575349628637765731e-02
5.320000000000000284e-01,3.464313829048640270e-01,2.677300702582701142e-01,4.813818696228627791e-03
5.330000000000000293e-01,1.245263085601612946e-01,2.395711639295195206e-01,-7.572013423761005113e-02
5.340000000000000302e-01,-2.129404931721398109e-01,1.603398641919558804e-02,-1.634753201578977855e-01
5.350000000000000311e-01,-3.639476948181093463e-01,-1.929674934689068200e-01,-8.993571385872393964e-02
5.360000000000000320e-01,-1.674649141802517782e-01,-1.877656137397714642e-01,7.365332453358877651e-02
5.370000000000000329e-01,1.699633397521307099e-01,-8.696534234046779388e-02,1.906660950424113599e-01
5.380000000000000338e-01,3.460273109905545597e-01,9.616563980933412470e-02,1.994129578634886435e-01
5.390000000000000346e-01,2.212390441564490162e-01,1.292578043713450697e-01,-9.185669382629319327e-03
5.400000000000000355e-01,-8.233574512809238577e-02,1.289253932218750454e-01,-2.076822349430827164e-01
5.410000000000000364e-01,-2.200685270273037009e-01,5.228388805930527655e-02,-2.224326760071346776e-01
5.420000000000000373e-01,-2.008434874557211147e-01,-6.451976053909981579e-02,-4.929474846122031823e-02
5.430000000000000382e-01,-1.399691256932138889e-02,-1.727751393651002221e-01,1.513174569493841437e-01
5.440000000000000391e-01,9.884552981613671518e-02,-1.970662187212065264e-01,1.974908301740914696e-01
5.450000000000000400e-01,1.550242511152453706e-01,-3.454468691683169196e-02,8.959909874859289802e-02
5.460000000000000409e-01,1.584546422660740861e-01,1.774796427490851480e-01,-7.907006289232258733e-02
5.470000000000000417e-01,6.807136391153446875e-02,2.460440544562826348e-01,-1.568915888950790927e-01
5.480000000000000426e-01,-8.008621244978657294e-02,7.042546218087979149e-02,-1.062960448522219936e-01
5.490000000000000435e-01,-2.425843896177521386e-01,-2.019025455955206494e-01,-1.246086329312346037e-02
5.500000000000000444e-01,-1.854068783800951470e-01,-3.075136248522705729e-01,5.122273108050542229e-02
5.510000000000000453e-01,5.878726573784758686e-02,-9.692829152892568079e-02,7.355415458774552939e-02
5.520000000000000462e-01,3.360932145829080842e-01,1.366007826827136951e-01,9.666522019523966780e-02
5.530000000000000471e-01,2.857956973694600888e-01,2.547587205308273206e-01,3.944525395771450449e-02
5.540000000000000480e-01,-1.577963597361492151e-02,1.254153294289284126e-01,-8.101508666158029059e-02
5.550000000000000488e-01,-3.102075263544679662e-01,-7.579993063104045747e-02,-1.774892635884471603e-01
5.560000000000000497e-01,-3.420191789406069049e-01,-2.041430868546154076e-01,-1.160587461093023215e-01
5.570000000000000506e-01,-7.926542422984778069e-02,-1.296174024279201920e-01,5.671668322893598513e-02
5.580000000000000515e-01,2.549415059788170956e-01,-6.147663097329007093e-03,2.106023681866277808e-01
5.590000000000000524e-01,3.524002892074243887e-01,1.011884253061478833e-01,1.299107069844126772e-01
5.600000000000000533e-01,7.528932669189773719e-02,1.263126684489135343e-01,-4.886620011994133317e-02
5.610000000000000542e-01,-1.272000613070668751e-01,1.308200077626743008e-01,-1.927224507680037335e-01
5.620000000000000551e-01,-2.178035621311597558e-01,4.070672876761987670e-03,-1.818035803299840880e-01
5.629999999999999449e-01,-1.595246066233172999e-01,-1.123666298275825121e-01,-1.012584480552645820e-02
5.639999999999999458e-01,-3.751561609579496387e-02,-2.027615023720283627e-01,1.788388327506046094e-01
5.649999999999999467e-01,9.500487519458686303e-02,-1.006738848146408460e-01,1.511685111715978524e-01
5.659999999999999476e-01,1.582682930837769619e-01,1.277562171930394508e-01,7.130641760629413684e-02
5.669999999999999485e-01,1.626330246939487467e-01,2.553250712555640844e-01,-3.563565784193620245e-02
5.679999999999999494e-01,1.955698337303907533e-02,1.928242514834984100e-01,-1.352501843668358628e-01
5.689999999999999503e-01,-1.712934502306497353e-01,-7.618681877354052667e-02,-9.885504323985187802e-02
5.699999999999999512e-01,-3.027949752072999212e-01,-2.679920812349891879e-01,-9.703507649535883517e-03
5.709999999999999520e-01,-1.706039000731400246e-01,-2.242210989384720021e-01,6.041556326100177253e-03
5.719999999999999529e-01,1.746800013061016732e-01,5.136888298363631589e-02,1.073542904157926275e-01
5.729999999999999538e-01,4.109258659216249998e-01,2.149569551498542175e-01,9.988327099824212407e-02
5.739999999999999547e-01,2.016961824261782332e-01,1.832384862249167301e-01,5.618047801317917200e-02
5.749999999999999556e-01,-7.551574415666494067e-02,-8.598184457624578891e-03,-1.196793440979974366e-01
5.759999999999999565e-01,-3.636709865956048171e-01,-1.331979646492323366e-01,-2.112506133683479392e-01
5.769999999999999574e-01,-2.776371039196824930e-01,-1.634888882118143150e-01,-9.134508919098904833e-02
5.779999999999999583e-01,2.652424641898388363e-02,-7.692097476600319450e-02,5.925667206422401828e-02
5.789999999999999591e-01,2.851036874455499248e-01,2.250258838351786722e-02,2.424599477512266732e-01
5.799999999999999600e-01,2.527789449678689571e-01,1.300789851777785222e-01,1.542257224021673090e-01
5.809999999999999609e-01,4.324422193754407645e-02,1.701708377008402384e-01,-4.158519574568855792e-02
5.819999999999999618e-01,-1.317964893025865003e-01,7.967732423752177384e-02,-2.081291981902456401e-01
5.829999999999999627e-01,-1.584792986733096209e-01,-3.949925348757622745e-02,-1.446397493505606202e-01
5.839999999999999636e-01,-1.420344024381408610e-01,-2.322336890586429725e-01,-1.513584603969714108e-02
5.849999999999999645e-01,6.492353824589528789e-03,-2.114235096894591659e-01,1.249284455433143232e-01
5.859999999999999654e-01,9.788250038348579596e-02,2.893910872675625745e-02,1.269921436957333616e-01
5.869999999999999662e-01,2.176548616670349601e-01,2.239607404399420743e-01,3.923850319968546357e-02
5.879999999999999671e-01,1.747479570643996338e-01,2.640026788411595215e-01,-3.513571581966246776e-02
5.889999999999999680e-01,-3.644890855585017353e-02,4.609755440195129755e-02,-1.007089516602473755e-01
5.899999999999999689e-01,-2.377993648713500052e-01,-2.549361836722649488e-01,-1.042747428033301421e-01
5.909999999999999698e-01,-2.996665364381955743e-01,-2.603024986712916267e-01,-5.992877100972637122e-02
5.919999999999999707e-01,-6.351281803080122135e-02,-8.952725481985625289e-02,2.273565538964124680e-02
5.929999999999999716e-01,2.357176817550483972e-01,1.341466821076577887e-01,1.333526786630833127e-01
5.939999999999999725e-01,3.408731024959842371e-01,2.014729007975527009e-01,1.751853556802144274e-01
5.949999999999999734e-01,1.382660773258687359e-01,1.171387261345919056e-01,4.060294883058867405e-02
5.959999999999999742e-01,-1.915373500594646228e-01,-7.001711842377696116e-02,-1.009327747820475824e-01
5.969999999999999751e-01,-3.246995676067946368e-01,-1.359345515585993480e-01,-1.795174964693345421e-01
5.979999999999999760e-01,-1.978525890058950576e-01,-1.253951765562431042e-01,-1.304285477605979793e-01
5.989999999999999769e-01,1.265615311579017521e-01,-4.063668049094765200e-02,1.054125156167780852e-01
5.999999999999999778e-01,2.515570611472929263e-01,4.655558159696524673e-02,1.959792391957431434e-01
6.009999999999999787e-01,1.973595979851499871e-01,1.557679267422794889e-01,1.254054050599009984e-01
6.019999999999999796e-01,3.064696534564160081e-04,1.730455905323049770e-01,-1.041236126743680657e-01
6.029999999999999805e-01,-1.163729173933514688e-01,5.091228705825775330e-02,-2.022354239233812578e-01
6.039999999999999813e-01,-1.865393418702918915e-01,-1.268580405374198083e-01,-1.464215666167140439e-01
6.049999999999999822e-01,-1.382388058759175253e-01,-2.407116975343599197e-01,1.043169897249951808e-02
6.059999999999999831e-01,-3.805437128745799841e-02,-9.843912010796070089e-02,1.226057364395024690e-01
6.069999999999999840e-01,1.392916510483801495e-01,1.690424957480907153e-01,1.511526671434382241e-01
6.079999999999999849e-01,2.499543156820729084e-01,3.031224681314484970e-01,5.367894119866207375e-02
6.089999999999999858e-01,1.938625325364848606e-01,1.844311027382892210e-01,-5.921170036951686755e-02
6.099999999999999867e-01,-9.751543406218507459e-02,-7.429053290106306384e-02,-1.345214773904506722e-01
6.109999999999999876e-01,-3.409545148642560419e-01,-2.592337278714161308e-01,-1.194233216857633756e-01
6.119999999999999885e-01,-2.547728723964858832e-01,-1.812544235797222125e-01,-5.726301293288441063e-02
6.129999999999999893e-01,4.977647425716903024e-02,2.100975942245039349e-02,2.005547780153158627e-02
6.139999999999999902e-01,3.347839819616827972e-01,2.057395139284842189e-01,1.430691937011855097e-01
6.149999999999999911e-01,3.292543288349355501e-01,1.843095693071521990e-01,1.354444215747235558e-01
6.159999999999999920e-01,-2.279078126290044314e-03,5.833535336532148091e-02,2.256230520256718997e-02
6.169999999999999929e-01,-2.637982374851424172e-01,-9.773755632867776877e-02,-1.674234910971888479e-01
6.179999999999999938e-01,-2.808903778116947358e-01,-1.431576406017952829e-01,-1.870673033255766116e-01
6.189999999999999947e-01,-7.057404396324955254e-02,-1.088548091862294037e-01,-8.436300978382682558e-02
6.199999999999999956e-01,1.806500007539093011e-01,-5.352061616454566878e-02,1.251855067136976307e-01
6.209999999999999964e-01,2.240179584682009117e-01,9.439235750586937035e-02,2.327676777705687261e-01
6.219999999999999973e-01,1.155296632898028947e-01,2.096914804800012189e-01,1.090199908732315676e-01
6.229999999999999982e-01,1.051215395860496081e-02,1.891025435896111218e-01,-1.222378918405173376e-01
6.239999999999999991e-01,-1.404449310688895558e-01,-3.236638417461424472e-02,-1.906096993446056154e-01
6.250000000000000000e-01,-1.813076439013678598e-01,-1.991843239258115628e-01,-1.218582661457509875e-01
6.260000000000000009e-01,-1.845586188286112428e-01,-2.146639722030435626e-01,1.968739466999816154e-02
6.270000000000000018e-01,2.021122707450278416e-02,2.234718678539477157e-02,1.059393989485682697e-01
6.280000000000000027e-01,2.396250153744158562e-01,2.551639967608327342e-01,1.026693973193753551e-01
6.290000000000000036e-01,2.767694787461409955e-01,2.941188001231113680e-01,7.292315775670146771e-02
6.300000000000000044e-01,8.626493401899804070e-02,1.770026939142162886e-02,2.979279485935096890e-03
6.310000000000000053e-01,-2.080709230956217515e-01,-2.034796746411042800e-01,-8.934246199146803069e-02
6.320000000000000062e-01,-3.670943369624121155e-01,-2.352018759845273255e-01,-1.403751250632717662e-01
6.330000000000000071e-01,-2.025108219279315724e-01,-6.577775217687890918e-02,-1.004751820265346457e-01
6.340000000000000080e-01,1.544607809071527615e-01,1.264672450853633612e-01,5.677172743637973196e-02
6.350000000000000089e-01,3.135722122222827646e-01,1.608931492520734863e-01,1.670623399383001639e-01
6.360000000000000098e-01,2.544428609880317604e-01,1.058369946037000520e-01,1.667080885461477424e-01
6.370000000000000107e-01,-8.614375992820963446e-02,-2.092844278788217813e-02,4.111040886486415358e-03
6.380000000000000115e-01,-2.756483142662008445e-01,-5.973399655863100705e-02,-1.771426270172483941e-01
6.390000000000000124e-01,-2.542900912899375143e-01,-1.210881848008628359e-01,-2.181957295154555165e-01
6.400000000000000133e-01,2.461895592163586277e-02,-1.481202581640783944e-01,-9.875761891238139106e-03
6.410000000000000142e-01,1.602392938805032307e-01,-9.651875645083064087e-03,1.371431969391187500e-01
6.420000000000000151e-01,1.647981888186134947e-01,1.759833190425775518e-01,2.316593683723996711e-01
6.430000000000000160e-01,7.923051621772075892e-02,2.490104717248306232e-01,5.851761024734671718e-02
6.440000000000000169e-01,1.651974265852384170e-04,9.885978940530139314e-02,-9.322455360211912012e-02
6.450000000000000178e-01,-1.632020092653913013e-01,-1.721480906988429316e-01,-1.658316595447565656e-01
6.460000000000000187e-01,-2.085684237223656146e-01,-3.259972003249013150e-01,-1.099978519473634730e-01
6.470000000000000195e-01,-1.631315910447224682e-01,-1.307642446788756796e-01,2.147243981926188344e-02
6.480000000000000204e-01,4.127345934830109475e-02,1.405076732479982049e-01,9.148075838012605099e-02
6.490000000000000213e-01,2.692207466431362217e-01,2.803767444950391319e-01,1.172717736065672645e-01
6.500000000000000222e-01,2.927237568118088440e-01,1.541428421785289715e-01,9.394463338046429857e-02
6.510000000000000231e-01,8.151304944504184774e-03,-9.331093755993979943e-02,4.391611071451534051e-03
6.520000000000000240e-01,-2.912362923801734560e-01,-2.280468751343542877e-01,-7.104082678817449925e-02
6.530000000000000249e-01,-3.708445008376574648e-01,-1.775754723822638437e-01,-1.335661639038562276e-01
6.540000000000000258e-01,-9.178979944561847792e-02,4.738056822932986550e-02,-1.002163279164128701e-01
6.550000000000000266e-01,2.583714641172870641e-01,1.437434619632903809e-01,6.027456671360344187e-02
6.560000000000000275e-01,3.587710177985818927e-01,1.596175500522708512e-01,1.514634526229370892e-01
6.570000000000000284e-01,1.062479566486177612e-01,8.875813455697237342e-02,1.756696649030018709e-01
6.580000000000000293e-01,-1.752458924749752123e-01,2.385794007182793965e-03,-2.555538526588028991e-02
6.590000000000000302e-01,-2.607794096651412374e-01,-1.329694744277218899e-01,-1.794257905408420395e-01
6.600000000000000311e-01,-1.793587665291938582e-01,-1.957238946129505608e-01,-1.549197810799972375e-01
6.610000000000000320e-01,4.292593348433061846e-03,-9.752303006981802302e-02,-2.772374680069327607e-02
6.620000000000000329e-01,1.160673361942175935e-01,6.895359583565575934e-02,1.752810674114886891e-01
6.630000000000000338e-01,1.442520208635323375e-01,2.360362703808029372e-01,1.857830346381515174e-01
6.640000000000000346e-01,1.559931615126548543e-01,1.805733349528429177e-01,8.826737642061327493e-02
6.650000000000000355e-01,2.445907309311540559e-02,-5.029577707588340357e-02,-9.032036559468589743e-02
6.660000000000000364e-01,-1.899970122648743653e-01,-2.869316561786194875e-01,-1.564699187850953632e-01
6.670000000000000373e-01,-2.267024819944929159e-01,-1.991092330944187194e-01,-6.600237162160114968e-02
6.680000000000000382e-01,-1.643530896913239780e-01,1.098437688739379442e-02,2.702435481098060949e-02
6.690000000000000391e-01,1.359175165911611638e-01,2.437882077906755596e-01,6.041961759709219698e-02
6.700000000000000400e-01,3.102475742820012816e-01,2.525602863770208817e-01,1.172471508438073795e-01
6.710000000000000409e-01,2.234061730389924338e-01,1.643833137029547878e-02,8.452627369587234485e-02
6.720000000000000417e-01,-1.047796883463488482e-01,-1.992102429766047234e-01,3.382215706174834108e-02
6.730000000000000426e-01,-3.351303690112708566e-01,-1.725768686690168918e-01,-1.053517014040467603e-01
6.740000000000000435e-01,-2.903249167799213382e-01,-6.325976308501653211e-02,-1.402806137169385348e-01
6.750000000000000444e-01,4.742571644357600202e-02,5.874153906500016037e-02,-9.757179007530564219e-02
6.760000000000000453e-01,2.564853148780611436e-01,1.391546109447968915e-01,8.805473686444864612e-02
6.770000000000000462e-01,2.363146645365958864e-01,1.401226608673949714e-01,2.209045910547876856e-01
6.780000000000000471e-01,3.433848722940686243e-02,8.795570399538124584e-02,1.650418015666244020e-01
6.790000000000000480e-01,-1.881957917238185618e-01,-5.116812346504659437e-02,-3.926951547016287875e-02
6.800000000000000488e-01,-2.441082202216219299e-01,-1.805368109828235645e-01,-1.689085345127288584e-01
6.810000000000000497e-01,-1.060281806804462823e-01,-1.786750429455362665e-01,-1.815641976739074404e-01
6.820000000000000506e-01,2.758503478036739356e-02,-1.852788618045625446e-02,-8.205834734081596249e-03
6.830000000000000515e-01,1.542032801311577217e-01,2.148656063793329407e-01,1.001341222380070367e-01
6.840000000000000524e-01,1.815853730361597362e-01,2.554416043527857894e-01,1.536015237693081625e-01
6.850000000000000533e-01,1.270674816336610502e-01,8.338981873655029742e-02,4.798128101888921027e-02
6.860000000000000542e-01,-1.357103810540826079e-02,-1.855099833608730708e-01,-7.892978452217891405e-02
6.870000000000000551e-01,-2.090644996089071617e-01,-2.921997268825860528e-01,-1.022316885482143500e-01
6.879999999999999449e-01,-2.655875874877776655e-01,-1.125297818280630441e-01,-8.328315765528301884e-02
6.889999999999999458e-01,-5.375211768032106541e-02,1.635137084745997837e-01,-2.311760491806703205e-02
6.899999999999999467e-01,2.433499084385539191e-01,2.268937382952554427e-01,4.985683586498435016e-02
6.909999999999999476e-01,3.866788036502979420e-01,1.354385134764775900e-01,1.325574328734151208e-01
6.919999999999999485e-01,1.502387584779120711e-01,-5.894745658581595354e-02,1.019282598690442604e-01
6.929999999999999494e-01,-2.150803838757839592e-01,-1.673675796249466941e-01,3.621164478610690296e-02
6.939999999999999503e-01,-3.493589604649956493e-01,-1.209453310620423605e-01,-1.615447887898391610e-01
6.949999999999999512e-01,-2.072438557420504257e-01,-4.600253599461332638e-02,-1.929763810261955759e-01
6.959999999999999520e-01,1.192278828547348873e-01,8.711809234219862474e-02,-7.825295368576004607e-02
6.969999999999999529e-01,2.768931374152672764e-01,1.351819084884095801e-01,8.323696755267030734e-02
6.979999999999999538e-01,2.080844870683863090e-01,1.388919397008142598e-01,2.272235681391443773e-01
6.989999999999999547e-01,-1.145343011629556575e-02,2.209302824224622722e-02,1.384064397875757191e-01
6.999999999999999556e-01,-1.684643518188058409e-01,-1.386371649102854930e-01,-8.873364823149787473e-02
7.009999999999999565e-01,-1.726516180986054361e-01,-2.277189649380724212e-01,-1.933658577081803775e-01
7.019999999999999574e-01,-6.198484904455375116e-02,-1.523084551713111134e-01,-1.456317264721090077e-01
7.029999999999999583e-01,1.907267626894129306e-02,1.145692965553058579e-01,-1.241100000874289892e-02
7.039999999999999591e-01,1.398496869258009367e-01,3.200877846897431933e-01,1.284288615584898152e-01
7.049999999999999600e-01,2.110751217019349590e-01,1.929507649976284489e-01,1.221117727650445767e-01
7.059999999999999609e-01,1.598837407489047957e-01,-3.994024755773079027e-02,5.555294508194740660e-02
7.069999999999999618e-01,-1.200880055053420575e-01,-3.141211931832042503e-01,-6.214728927726737712e-02
7.079999999999999627e-01,-2.789725565210289804e-01,-2.482164420339463273e-01,-7.280307614586534193e-02
7.089999999999999636e-01,-2.748414494443974787e-01,5.538258579419874650e-02,-9.422223192545552128e-02
7.099999999999999645e-01,1.142766511380979670e-02,2.433398336088964387e-01,-4.460906563605992331e-02
7.109999999999999654e-01,3.207092871511662557e-01,1.676220578153182761e-01,5.947287420858542867e-02
7.119999999999999662e-01,3.500753504553514861e-01,6.477344968377904237e-03,1.202863748844899133e-01
7.129999999999999671e-01,4.229319364296113548e-02,-1.187399028249832150e-01,1.510409103374967255e-01
7.139999999999999680e-01,-2.786801829378571238e-01,-1.115671063534427049e-01,-1.177550769496720461e-02
7.149999999999999689e-01,-2.982641339847373341e-01,-1.070657029819157557e-01,-1.710832313977945496e-01
7.159999999999999698e-01,-8.408690302483710910e-02,6.054884328090420244e-04,-2.180839753378721602e-01
7.169999999999999707e-01,1.772901366865144712e-01,6.324578302269340258e-02,-7.063923722715116649e-02
7.179999999999999716e-01,2.669632129366888984e-01,2.024210389325914738e-01,1.212042033071388109e-01
7.189999999999999725e-01,1.257792685814811962e-01,1.714100776530723125e-01,2.468689279691915484e-01
7.199999999999999734e-01,-5.675866937770299853e-02,-3.732541708244589695e-02,9.882904676325207638e-02
7.209999999999999742e-01,-1.664351469109938975e-01,-2.000844846454990222e-01,-5.053034069295873204e-02
7.219999999999999751e-01,-1.776064294018383505e-01,-2.695119818105853327e-01,-2.218775916954979499e-01
7.229999999999999760e-01,-9.044084570379908039e-02,-2.220744240892101595e-02,-1.252636617755004955e-01
7.239999999999999769e-01,1.722306374923694011e-02,2.432468500638772513e-01,3.683782009659205409e-02
7.249999999999999778e-01,1.833531757036176990e-01,2.556211390078620416e-01,1.277871410308674682e-01
7.259999999999999787e-01,3.148349226837862114e-01,5.361135849542175702e-02,1.384839433045108870e-01
7.269999999999999796e-01,1.095250736013707871e-01,-1.814437358810577217e-01,2.235502572848633782e-02
7.279999999999999805e-01,-1.511614594860296312e-01,-2.552608963624184990e-01,-5.060864897834072701e-02
7.289999999999999813e-01,-3.257226246163208994e-01,-9.074790219228447141e-02,-1.237600184630681388e-01
7.299999999999999822e-01,-1.716671536213815186e-01,8.496602680761011772e-02,-1.204366016777478066e-01
7.309999999999999831e-01,1.472375465052459254e-01,2.107777617771777190e-01,-6.292163805366327023e-02
7.319999999999999840e-01,3.488830900312571148e-01,1.518828231975717924e-01,3.178515573576986414e-02
7.329999999999999849e-01,2.427537749701808023e-01,-3.122312247791918585e-02,1.431001091414334236e-01
7.339999999999999858e-01,-5.898253983282220753e-02,-8.852412274965491823e-02,1.361909236915762322e-01
7.349999999999999867e-01,-2.705639084191021060e-01,-1.118926300337540480e-01,-2.019941031104728960e-02
7.359999999999999876e-01,-2.456556089740280779e-01,-7.874914167716330626e-02,-1.673001433155070217e-01
7.369999999999999885e-01,6.309367301610824263e-02,4.511080463433213977e-02,-1.885028772154654086e-01
7.379999999999999893e-01,1.921127900844606939e-01,1.382227940834672986e-01,-5.466821658958535834e-02
7.389999999999999902e-01,2.207894754403064708e-01,1.864041814220906701e-01,1.637786510171065912e-01
7.399999999999999911e-01,6.701379003923729760e-02,9.238243255987409197e-02,2.222791053720604704e-01
7.409999999999999920e-01,-6.105034273100548581e-02,-1.812266324422808494e-01,6.963276413780124241e-02
7.419999999999999929e-01,-1.441707715205211571e-01,-2.691773134854717475e-01,-1.090236192324147702e-01
7.429999999999999938e-01,-1.682863144983055836e-01,-1.224077967864272976e-01,-1.839639682756384065e-01
7.439999999999999947e-01,-1.047146015156534271e-01,1.403058321027434996e-01,-8.862397918721089118e-02
7.449999999999999956e-01,6.356258436394840450e-02,2.810648556076008053e-01,8.594218708875453819e-03
7.459999999999999964e-01,2.716819538226209474e-01,1.865939776079442447e-01,1.396725597330085999e-01
7.469999999999999973e-01,2.970499871863143126e-01,-1.092023292233058052e-01,1.401352989272644789e-01
7.479999999999999982e-01,3.344242293519202307e-03,-2.602876380004158774e-01,4.656982152406497627e-02
7.489999999999999991e-01,-2.798748878304068155e-01,-2.050913570469622416e-01,1.059424399847399764e-03
7.500000000000000000e-01,-3.683091944163283671e-01,-7.600721987826055716e-03,-8.208909393344566985e-02
7.510000000000000009e-01,-1.082975175791542066e-01,1.688838962957977252e-01,-1.119086859460584338e-01
7.520000000000000018e-01,2.408394933857079812e-01,1.505689400464847172e-01,-2.768143745391578661e-02
7.530000000000000027e-01,3.729250211008713900e-01,3.125854359352313316e-02,8.441154119996059635e-02
7.540000000000000036e-01,1.651937167354158575e-01,-9.643235835178912141e-02,1.694262286263598927e-01
7.550000000000000044e-01,-1.469582327388301579e-01,-1.019162879298467078e-01,1.357244398585245870e-01
7.560000000000000053e-01,-3.351967493725854230e-01,-1.373342168137798025e-01,-3.149047077248415261e-02
7.570000000000000062e-01,-1.620148447349306076e-01,-8.866087891963828072e-02,-1.745829528824003607e-01
7.580000000000000071e-01,6.191269222856855131e-02,7.987690314512072010e-02,-1.903528741489564080e-01
7.590000000000000080e-01,1.593120102678547700e-01,2.300175250620952183e-01,-3.646615898809235558e-03
7.600000000000000089e-01,1.603823046901036720e-01,1.672448885999746893e-01,1.599788364237163529e-01
7.610000000000000098e-01,8.952307263799605397e-02,-4.994333923791968027e-02,2.041997867584287585e-01
7.620000000000000107e-01,-5.224403867980553090e-02,-2.622584754172195831e-01,8.880033462140572709e-02
7.630000000000000115e-01,-1.719255064751760154e-01,-2.232490255445682414e-01,-1.069007770150571524e-01
7.640000000000000124e-01,-2.198004198347081606e-01,-3.603685994051213093e-02,-1.434349935427255418e-01
7.650000000000000133e-01,-1.053472903079321898e-01,2.718993406969840709e-01,-1.376282765214831283e-01
7.660000000000000142e-01,1.270959911209663951e-01,2.508910134762746824e-01,2.509831264950990182e-02
7.670000000000000151e-01,3.208713307616249399e-01,5.217610583900108429e-02,8.451527996389476827e-02
7.680000000000000160e-01,2.418112504053863132e-01,-1.668368783399294952e-01,1.198675432901854104e-01
7.690000000000000169e-01,-1.105497489376549430e-01,-2.342816441456619103e-01,6.311240120135477860e-02
7.700000000000000178e-01,-3.518538826069567138e-01,-1.103450164313875131e-01,3.549015133057383670e-03
7.710000000000000187e-01,-2.822885862209047469e-01,8.063019191674639097e-02,-8.098243881501220043e-02
7.720000000000000195e-01,-2.440059531366761420e-03,1.423584367171318310e-01,-9.373318676500044799e-02
7.730000000000000204e-01,3.185471692577737102e-01,1.013778234622934316e-01,-6.182870422133834865e-02
7.740000000000000213e-01,3.137817218203243219e-01,1.178122053935124446e-02,6.493405623180059649e-02
7.750000000000000222e-01,5.503291763729752095e-02,-7.402851046045261230e-02,1.957096486148015568e-01
7.760000000000000231e-01,-1.800168566175151252e-01,-1.695765984070100596e-01,2.033587960881236278e-01
7.770000000000000240e-01,-2.346478110669444062e-01,-1.557908933703795740e-01,-2.596417897445433762e-02
7.780000000000000249e-01,-1.447666388832298534e-01,-1.567825418322677661e-02,-1.896193380325069677e-01
7.790000000000000258e-01,6.782949890093821488e-02,1.442878580512010345e-01,-2.002629081107571984e-01
7.800000000000000266e-01,1.358907665734667702e-01,2.406015392159459310e-01,2.831798089593403484e-02
7.810000000000000275e-01,2.056888288053065061e-01,1.213014519609433572e-01,1.590581264783982873e-01
7.820000000000000284e-01,8.678121588326923042e-02,-1.700105808514178751e-01,1.870253897009736821e-01
7.830000000000000293e-01,-4.516277656212618064e-02,-2.945195214162607544e-01,4.458305872025098565e-02
7.840000000000000302e-01,-2.353775461402492497e-01,-1.499671357650426695e-01,-1.134039866969119292e-01
7.850000000000000311e-01,-2.318260521400146434e-01,1.523496223419160966e-01,-1.505403455140303937e-01
7.860000000000000320e-01,-4.103914994143475353e-02,2.534374438891076053e-01,-7.841965956352756062e-02
7.870000000000000329e-01,1.994348296998275649e-01,1.319406137337720275e-01,2.000468649513431965e-02
7.880000000000000338e-01,3.303291545832716114e-01,-1.062428518947324541e-01,7.663508189548746963e-02
7.890000000000000346e-01,1.558322464183657940e-01,-1.808506768896935013e-01,1.487708859815852491e-01
7.900000000000000355e-01,-1.723675712236747704e-01,-1.756729027207832861e-01,8.984772153192879807e-02
7.910000000000000364e-01,-3.700850079190232678e-01,-4.717759606604783607e-02,-7.797802932115706180e-03
7.920000000000000373e-01,-2.238838860983617396e-01,1.154330954138517301e-01,-9.056265320734194213e-02
7.930000000000000382e-01,1.521475122743462527e-01,1.245957348489244859e-01,-1.679534491218280801e-01
7.940000000000000391e-01,3.691247876563111263e-01,1.312439236127505016e-01,-8.287980292149176031e-02
7.950000000000000400e-01,1.979241429386294215e-01,6.512438935098481887e-03,1.056118198358364929e-01
7.960000000000000409e-01,-3.013994562542535432e-03,-1.046642479588790059e-01,1.901166864793018829e-01
7.970000000000000417e-01,-2.235092133435255535e-01,-2.111936724284890210e-01,1.178818218626192932e-01
7.980000000000000426e-01,-1.849314353339492900e-01,-1.134533843153449628e-01,-6.011805732540582287e-02
7.990000000000000435e-01,-4.400426987754780389e-02,1.013312116786043021e-01,-2.066440539402904786e-01
8.000000000000000444e-01,4.113287589847752779e-02,2.410280422785064103e-01,-1.264634667851844418e-01
8.010000000000000453e-01,1.499531623550247883e-01,2.065606070752773749e-01,2.702552709286573651e-02
8.020000000000000462e-01,1.747968737797649108e-01,-4.855542976089070872e-02,1.537562118109532250e-01
8.030000000000000471e-01,1.078499330597893907e-01,-2.419694479072722337e-01,1.428139777927419640e-01
8.040000000000000480e-01,-1.197791157607011325e-01,-2.412146554537488441e-01,6.807422254728454081e-02
8.050000000000000488e-01,-2.833761722381904491e-01,-6.456094455509389651e-03,-9.155721929351776089e-02
8.060000000000000497e-01,-2.482296417875418382e-01,2.260617953199201835e-01,-1.151151533448583342e-01
8.070000000000000506e-01,1.670414439114055287e-03,2.507364097074567533e-01,-1.074098634730747542e-01
8.080000000000000515e-01,3.241748562631484587e-01,5.090196412890234112e-02,-3.453935452069149814e-02
8.090000000000000524e-01,2.954259392000764262e-01,-1.282954836542250787e-01,5.344745625387498089e-02
8.100000000000000533e-01,3.795558705893677109e-02,-1.571139756899202211e-01,1.097778433391484454e-01
8.110000000000000542e-01,-2.854669501553926958e-01,-9.862443894779560072e-02,1.221706315709922275e-01
8.120000000000000551e-01,-3.624894934638215327e-01,3.889282711560557854e-02,-6.251075715972874772e-03
8.129999999999999449e-01,-1.122127505287958127e-01,1.105754815683972075e-01,-1.083380806740593116e-01
8.139999999999999458e-01,1.758815209336791197e-01,1.427073432697876787e-01,-1.827372947663780944e-01
8.149999999999999467e-01,2.755480594409042694e-01,1.033665261919655964e-01,-3.154675391010550861e-02
8.159999999999999476e-01,1.134117001327694524e-01,-9.130801939401937337e-03,1.359372473147906490e-01
8.169999999999999485e-01,-1.018189710454271146e-01,-1.712294234389088732e-01,2.452037691853033441e-01
8.179999999999999494e-01,-1.817491301427277828e-01,-2.174928172776442459e-01,8.700145889233301677e-02
8.189999999999999503e-01,-1.460560311502834552e-01,-2.196379239658522234e-02,-1.077937995287892997e-01
8.199999999999999512e-01,-5.914341495887142502e-02,2.090203870444094225e-01,-2.198101201495272772e-01
8.209999999999999520e-01,7.534613845642193497e-02,2.368426379279712501e-01,-1.431613744608536687e-01
8.219999999999999529e-01,1.816771052678445575e-01,6.917036495067280244e-02,5.288366306476758455e-02
8.229999999999999538e-01,2.427786943242316309e-01,-1.965638894868278752e-01,1.471947808042074202e-01
8.239999999999999547e-01,6.957577978048568035e-02,-2.501626339321053050e-01,1.393872917313238036e-01
8.249999999999999556e-01,-1.342025283346808262e-01,-1.136678103240240378e-01,4.108200325096383887e-02
8.259999999999999565e-01,-2.944018994290080737e-01,1.453734739873323856e-01,-4.033019110767008253e-02
8.269999999999999574e-01,-2.044949745665314567e-01,2.771095320413963781e-01,-1.319494142085027300e-01
8.279999999999999583e-01,1.285614949342784863e-01,9.495414998605054835e-02,-1.104477403071222469e-01
8.289999999999999591e-01,3.813102527574795397e-01,-3.510282024744768720e-02,-4.530373116178843668e-02
8.299999999999999600e-01,2.670121552076984428e-01,-1.376512591888538473e-01,4.548669770727026967e-02
8.309999999999999609e-01,-6.300768805075279699e-02,-1.441413454011035433e-01,1.242999701239650562e-01
8.319999999999999618e-01,-2.923740948098689785e-01,-7.567878715630438347e-02,1.068687979141066113e-01
8.329999999999999627e-01,-2.493198816984689703e-01,3.561822658606752373e-02,-2.687806062427106502e-03
8.339999999999999636e-01,-1.641573109639028055e-02,1.352650375915549208e-01,-1.522906409822487317e-01
8.349999999999999645e-01,2.284192447347538069e-01,2.079365970453032897e-01,-2.179652925301284461e-01
8.359999999999999654e-01,2.665998384003427923e-01,1.071301146487679407e-01,-5.734694418036741931e-02
8.369999999999999662e-01,5.898893419920694242e-02,-1.247713196999703789e-01,1.456273004059789322e-01
8.379999999999999671e-01,-8.541795072931111787e-02,-3.208054878452932801e-01,2.188824683002356941e-01
8.389999999999999680e-01,-1.522933253417119437e-01,-1.726135684251489943e-01,7.999187680037778136e-02
8.399999999999999689e-01,-1.913589952750285872e-01,9.808937933156408606e-02,-1.285084261865082622e-01
8.409999999999999698e-01,-5.694828068833728690e-02,3.039756047354346680e-01,-2.139499529007685141e-01
8.419999999999999707e-01,6.609215320312494812e-02,1.709781927187809525e-01,-1.194661041162992099e-01
8.429999999999999716e-01,2.358193657761943618e-01,-4.436194441502570168e-02,1.554588329840961118e-02
8.439999999999999725e-01,2.465676740250459242e-01,-2.520957479947212865e-01,1.122972511279402147e-01
8.449999999999999734e-01,4.129322570974961609e-02,-2.376324216945593371e-01,1.078782485869155400e-01
8.459999999999999742e-01,-2.301607887979447709e-01,-5.019360912572547097e-04,1.664544585671178314e-02
8.469999999999999751e-01,-3.430128575227034959e-01,1.964736727140904693e-01,-5.960768867307980612e-02
8.479999999999999760e-01,-1.243152850534747084e-01,1.589629088444542981e-01,-8.698792925829590406e-02
8.489999999999999769e-01,2.439034478875201917e-01,4.598174520839041352e-02,-1.152437545931086771e-01
8.499999999999999778e-01,3.584074579925550230e-01,-5.724348177600225435e-02,-3.137967527965786207e-02
8.509999999999999787e-01,1.825857252574251965e-01,-1.331454280375699850e-01,5.848586964861678811e-02
8.519999999999999796e-01,-1.612530148808978270e-01,-1.374882249563557923e-01,1.552229626253981976e-01
8.529999999999999805e-01,-3.589785747522780124e-01,-4.527907891049247346e-02,1.430501188137094926e-01
8.539999999999999813e-01,-1.760994846780623846e-01,6.115766800011888243e-02,-3.714500482777281093e-02
8.549999999999999822e-01,8.644801278397924726e-02,2.176349738568189862e-01,-1.800795189077629976e-01
8.559999999999999831e-01,2.338782465528526366e-01,1.401039045558254148e-01,-2.010241091841901140e-01
8.569999999999999840e-01,1.648224388895206394e-01,-2.685600245627912941e-02,-2.594994996820816635e-02
8.579999999999999849e-01,3.733991221293087026e-02,-2.423454967416907857e-01,1.383901044967003890e-01
8.589999999999999858e-01,-6.640570214075844357e-02,-2.470240882404083349e-01,2.067942841690418310e-01
8.599999999999999867e-01,-1.548367493641453485e-01,-6.304929299780247243e-02,7.389579963201155233e-02
8.609999999999999876e-01,-2.090001222052405572e-01,2.865525110339022796e-01,-1.148419127699446263e-01
8.619999999999999885e-01,-9.382413013931628631e-02,2.542041496853156834e-01,-1.980847305178234652e-01
8.629999999999999893e-01,9.914144145982500822e-02,6.200621103002037365e-02,-7.975112872509315665e-02
8.639999999999999902e-01,2.683637588910006699e-01,-2.129891863187295120e-01,5.010618995844504792e-02
8.649999999999999911e-01,1.743425466702673288e-01,-2.611264890059616928e-01,9.968924002855993061e-02
8.659999999999999920e-01,-7.502459727868963923e-02,-1.157448033501918272e-01,1.069603961392742580e-01
8.669999999999999929e-01,-3.184510627059932153e-01,7.339462943844343723e-02,4.595706779003546488e-02
8.679999999999999938e-01,-2.992933098710094386e-01,1.509353867720621967e-01,-2.279233374602082293e-02
8.689999999999999947e-01,1.303017044651567924e-02,1.209776763698632990e-01,-9.809371608614610161e-02
8.699999999999999956e-01,2.934997623995641014e-01,4.348183813696962496e-02,-1.389988094779027461e-01
8.709999999999999964e-01,3.333896502412860285e-01,-7.569011256511179453e-02,-7.491727707237168243e-02
8.719999999999999973e-01,3.771549383840040737e-02,-1.897474571486913730e-01,5.012758601088444788e-02
8.729999999999999982e-01,-2.544716692594871099e-01,-1.147466028395469489e-01,1.797050368167260603e-01
8.739999999999999991e-01,-3.024170057156319591e-01,2.214477487348670386e-03,1.305465832307907970e-01
8.750000000000000000e-01,-1.208161871154704581e-01,1.655687382218702097e-01,-2.038678854419015071e-02
8.760000000000000009e-01,9.515502593451684310e-02,2.423125424453207999e-01,-1.956199693047721844e-01
8.770000000000000018e-01,1.826807930717430639e-01,1.210737015918006004e-01,-1.796280464741047134e-01
8.780000000000000027e-01,1.589143398403310425e-01,-1.827696339203179199e-01,-1.534584000700605320e-02
8.790000000000000036e-01,4.242495932409200143e-02,-2.906753671549989204e-01,1.643917498124873866e-01
8.800000000000000044e-01,-4.170429196231817404e-02,-1.814869668927153457e-01,2.019117491058453617e-01
8.810000000000000053e-01,-1.551089281870743908e-01,9.041626340783280591e-02,3.580030654618746033e-02
8.820000000000000062e-01,-1.771728764166269066e-01,3.085445752972262867e-01,-1.130572088238891715e-01
8.830000000000000071e-01,-2.884856847858743856e-02,1.798033119421475756e-01,-1.497709680736126758e-01
8.840000000000000080e-01,1.912361815045085789e-01,-9.375078248890382493e-02,-6.264228113446226875e-02
8.850000000000000089e-01,2.896964232239169768e-01,-2.531573903968692418e-01,5.198449983608269959e-02
8.860000000000000098e-01,1.354032632066646258e-01,-1.739096562764510800e-01,1.043926678292209920e-01
8.870000000000000107e-01,-1.553136616516866964e-01,-9.679175843597558060e-03,8.812631423194780544e-02
8.880000000000000115e-01,-3.561947095228266691e-01,1.053287124297665606e-01,4.642584113981327448e-02
8.890000000000000124e-01,-2.120585796114394517e-01,1.380556873493231917e-01,-8.027326666357048959e-03
8.900000000000000133e-01,8.688837311609581837e-02,1.064799623067883283e-01,-6.532821578231055859e-02
8.910000000000000142e-01,3.377008300875904978e-01,-1.062732588871043160e-02,-1.654938147482512278e-01
8.920000000000000151e-01,2.414020436128250791e-01,-1.453376063189783518e-01,-8.615827051680842452e-02
8.930000000000000160e-01,-3.499122686350918804e-02,-1.860092722891642514e-01,8.040737473672013302e-02
8.940000000000000169e-01,-2.348056626139328473e-01,-1.138065403784418311e-01,1.538360125043218007e-01
8.950000000000000178e-01,-2.248363548507721632e-01,8.142807634416834861e-02,1.387909182454971080e-01
8.960000000000000187e-01,-4.647865102673337523e-02,2.133458847584933926e-01,-7.733215181176777975e-02
8.970000000000000195e-01,7.895700083085457899e-02,1.846519547723620702e-01,-1.948720078215937235e-01
8.980000000000000204e-01,1.636218011542162620e-01,-4.072884729251092378e-02,-1.447243510765215402e-01
8.990000000000000213e-01,1.585491428883668563e-01,-2.524680054288558906e-01,4.742946839569499307e-02
9.000000000000000222e-01,1.104643532816069335e-01,-2.223154130550472618e-01,1.679593844209922027e-01
9.010000000000000231e-01,-1.005206340206057092e-01,-9.932782857631680326e-03,1.717355723395098954e-01
9.020000000000000240e-01,-2.316615191853616806e-01,2.152332963084316875e-01,3.700491305389649183e-02
9.030000000000000249e-01,-2.110879586350933035e-01,2.376565164081644865e-01,-1.030988301683593289e-01
9.040000000000000258e-01,-4.165232217244011458e-03,4.241919605317275022e-02,-1.592949306910379781e-01
9.050000000000000266e-01,2.805575705043391599e-01,-1.779647811117472389e-01,-4.747372819021294932e-02
9.060000000000000275e-01,3.286748515170350715e-01,-1.904793679854417665e-01,2.261447068199081128e-03
9.070000000000000284e-01,3.568873427834368117e-02,-1.114173527796786523e-01,1.026533745873343395e-01
9.080000000000000293e-01,-2.927135841971797992e-01,3.907059826755161086e-02,1.281666455286131767e-01
9.090000000000000302e-01,-3.554646187834081261e-01,1.421026237914461698e-01,7.698024121989373303e-02
9.100000000000000311e-01,-9.548268927296474362e-02,1.166897098802192195e-01,-1.364730401845598573e-02
9.110000000000000320e-01,2.216950738871827642e-01,9.614724609387194365e-02,-8.548439954108405514e-02
9.120000000000000329e-01,2.997954669622140966e-01,-1.037955362016151385e-02,-1.714798303548940028e-01
9.130000000000000338e-01,1.552340540605982033e-01,-1.870779461269876931e-01,-5.894149794175025658e-02
9.140000000000000346e-01,-1.160128675330700937e-01,-2.010656749112205155e-01,1.040613022317959657e-01
9.150000000000000355e-01,-2.297272284986623669e-01,-7.647940281140169771e-02,1.998881100875696815e-01
9.160000000000000364e-01,-1.599194043352912542e-01,2.119604583362089956e-01,1.082576430650883520e-01
9.170000000000000373e-01,-2.514293047772682768e-02,2.654087100169550961e-01,-6.901807586969908870e-02
9.180000000000000382e-01,6.748909255592770717e-02,1.009589268757405678e-01,-1.919809809250856703e-01
9.190000000000000391e-01,1.589592526089283475e-01,-1.707524483908174906e-01,-1.368726711200251300e-01
9.200000000000000400e-01,2.030035523130352682e-01,-3.094186842204074139e-01,2.940858017832942775e-02
9.210000000000000409e-01,5.150618400364549709e-02,-1.517133089528202028e-01,1.504144002258856194e-01
9.220000000000000417e-01,-1.249417541173833690e-01,1.080297444648727762e-01,1.369337779379762032e-01
9.230000000000000426e-01,-2.795606580374453976e-01,2.514322190832675163e-01,3.031315434650548937e-02
9.240000000000000435e-01,-1.733863892022154407e-01,1.382161336250775918e-01,-1.103057042347179578e-01
9.250000000000000444e-01,1.182708162465811036e-01,-3.537107859693488371e-02,-1.194593697010811612e-01
9.260000000000000453e-01,3.251942410872074585e-01,-1.330718414215787959e-01,-8.216678362261299606e-02
9.270000000000000462e-01,2.613485507677239528e-01,-1.259646713704146714e-01,-6.875373134803759029e-03
9.280000000000000471e-01,-6.176902174408818030e-02,-6.455435536710991962e-02,4.767153135246627454e-02
9.290000000000000480e-01,-3.208745164803137873e-01,4.784240928802267062e-02,1.626005421029232678e-01
9.300000000000000488e-01,-2.530146814589729343e-01,1.212741978807199555e-01,1.178025912179597318e-01
9.310000000000000497e-01,9.093027220406986119e-03,1.535443483373536422e-01,-5.801604789970527497e-03
9.320000000000000506e-01,2.549592822200677511e-01,6.135515645908887206e-02,-1.217815470124717775e-01
9.330000000000000515e-01,2.789010554160610278e-01,-1.103549885691290783e-01,-1.960981228876974292e-01
9.340000000000000524e-01,7.735565779781417017e-02,-2.481991560353876691e-01,-6.747416319549234820e-02
9.350000000000000533e-01,-1.097057518110889779e-01,-1.532709171495516554e-01,1.281264208560091711e-01
9.360000000000000542e-01,-1.654079259501504140e-01,9.848875790717279144e-02,2.137402972831973780e-01
9.370000000000000551e-01,-1.314567080757451933e-01,2.953285720395779634e-01,1.088317321486328981e-01
9.379999999999999449e-01,-6.751291357308537855e-02,2.060972201837794060e-01,-1.341468908310489427e-01
9.389999999999999458e-01,7.491365522275657274e-02,-5.391677996093460767e-02,-2.086344412291348815e-01
9.399999999999999467e-01,2.035094836625380432e-01,-3.221202963414299125e-01,-1.065871637666284816e-01
9.409999999999999476e-01,1.830841648405688582e-01,-2.202476865410006313e-01,3.163497031130765857e-02
9.419999999999999485e-01,-1.415314121161856788e-03,1.824165355239922709e-02,1.648388559641052742e-01
9.429999999999999494e-01,-2.376996276074905268e-01,1.966774793992784598e-01,1.207368104416064875e-01
9.439999999999999503e-01,-2.923573899880363425e-01,1.785923350604398108e-01,7.367753193290334582e-03
9.449999999999999512e-01,-1.026035387848418662e-01,4.762452671095487172e-02,-5.065945717365111234e-02
9.459999999999999520e-01,2.342169812842741783e-01,-9.026200620134419705e-02,-1.010334334340850515e-01
9.469999999999999529e-01,3.768724859383799641e-01,-1.429136883837390515e-01,-9.174508189693278415e-02
9.479999999999999538e-01,1.852893167197863233e-01,-1.288341974108967170e-01,-2.733148975461047528e-02
9.489999999999999547e-01,-1.518312161535996518e-01,-3.066788269228216957e-02,7.354773203063411091e-02
9.499999999999999556e-01,-3.454990237031255185e-01,7.509308378677918838e-02,9.989471151862108766e-02
9.509999999999999565e-01,-2.241179762366700412e-01,1.969939283855347001e-01,9.339291870465213363e-02
9.519999999999999574e-01,9.281749544644260497e-02,1.898207655586724441e-01,-3.486131683122566604e-04
9.529999999999999583e-01,2.461173801804836525e-01,-9.451209615096916455e-03,-2.033506566837256502e-01
9.539999999999999591e-01,1.802872495280209431e-01,-2.247654628223269835e-01,-1.838757135667559439e-01
9.549999999999999600e-01,2.838681612787147951e-02,-2.083640569776232521e-01,-4.605118134308017891e-02
9.559999999999999609e-01,-9.813261608218828980e-02,-5.417910644022192607e-02,1.636076792355160292e-01
9.569999999999999618e-01,-1.825728062778982641e-01,2.140753290678745757e-01,2.526468330339388668e-01
9.579999999999999627e-01,-1.250639362903954444e-01,2.801597296928255987e-01,9.352217515025165739e-02
9.589999999999999636e-01,-3.444874535489621942e-02,7.936313863886114428e-02,-1.392646533648142504e-01
9.599999999999999645e-01,1.394686198000175126e-01,-1.910250184684417207e-01,-2.300214875616169441e-01
9.609999999999999654e-01,2.543697967108446423e-01,-2.601901019162008999e-01,-1.006238972596942144e-01
9.619999999999999662e-01,2.206208891289866691e-01,-1.086710224559412769e-01,5.116306924983594906e-02
9.629999999999999671e-01,-4.961148335298829620e-02,1.179373126541328753e-01,1.255581666228181847e-01
9.639999999999999680e-01,-2.972984786357353304e-01,1.858458988076794327e-01,1.118090174138985093e-01
9.649999999999999689e-01,-2.883559317644425191e-01,1.223936151402714029e-01,4.312421450873081541e-02
9.659999999999999698e-01,-8.046139188264885347e-03,-1.687673743140103919e-02,-4.789703873451355703e-02
9.669999999999999707e-01,2.989538923934135228e-01,-9.819593293196124395e-02,-1.100988889562079104e-01
9.679999999999999716e-01,3.458310163357162792e-01,-1.635243022833371973e-01,-9.359608047209068415e-02
9.689999999999999725e-01,4.694640062192919489e-02,-1.084853542753697747e-01,-5.135410773595936590e-02
9.699999999999999734e-01,-2.401597639815097329e-01,-2.292266569687657907e-02,6.488812865025912757e-02
9.709999999999999742e-01,-3.122943214173138915e-01,1.703923704471198008e-01,1.768750300359732963e-01
9.719999999999999751e-01,-1.381003724139476529e-01,2.189329871431459906e-01,1.044026969153783874e-01
9.729999999999999760e-01,1.725000946079253972e-01,1.059580904349311792e-01,-9.440263316413366815e-03
9.739999999999999769e-01,2.333009802733882199e-01,-1.260945752375136342e-01,-1.877595591283281184e-01
9.749999999999999778e-01,1.596818544467765999e-01,-2.470124436838002091e-01,-1.647079219867650102e-01
9.759999999999999787e-01,7.269145302950153105e-03,-1.783581038212874448e-01,-5.162960465181265328e-03
9.769999999999999796e-01,-9.867627407822907037e-02,8.601710275239396464e-02,1.846195985444122334e-01
9.779999999999999805e-01,-1.855393251036171476e-01,2.824809707751122501e-01,1.943414177394086895e-01
9.789999999999999813e-01,-1.722179378380843950e-01,1.953847416227794398e-01,6.384857385317971312e-02
9.799999999999999822e-01,-1.164879551468746624e-02,-5.772592958944420399e-02,-1.053120733316163793e-01
9.809999999999999831e-01,1.889970810951707991e-01,-2.524541859245316711e-01,-1.812909669139251556e-01
9.819999999999999840e-01,2.780253398546376764e-01,-2.060254228539888377e-01,-8.897833343098460190e-02
9.829999999999999849e-01,1.976725309728966373e-01,-2.290783984521780128e-02,4.371242151872618137e-02
9.839999999999999858e-01,-1.696857483073283546e-01,1.509357797064348750e-01,1.016833710649445721e-01
9.849999999999999867e-01,-3.132818149513407757e-01,1.891968154542419955e-01,1.301510574196152736e-01
9.859999999999999876e-01,-2.277433275717135885e-01,1.108127815539864947e-01,1.353953377638597404e-02
9.869999999999999885e-01,1.291070036043031333e-01,-6.067120700781368503e-02,-3.144411096167064323e-02
9.879999999999999893e-01,3.250513560886624798e-01,-9.769322343548740573e-02,-1.242847803272218443e-01
9.889999999999999902e-01,2.689868229533728394e-01,-1.372334478260397728e-01,-1.283892121293509769e-01
9.899999999999999911e-01,-2.449270787703306668e-02,-8.330407070724524243e-02,-6.510418032658875365e-02
9.909999999999999920e-01,-3.056342427806794104e-01,3.897039699410208280e-02,6.323341751347597017e-02
9.919999999999999929e-01,-2.284216168700601290e-01,2.202938488809342565e-01,1.683712219692740097e-01
9.929999999999999938e-01,-2.107805289433705917e-02,1.821185158234022161e-01,1.295834700127064532e-01
9.939999999999999947e-01,1.375712507864829126e-01,3.763419136769782618e-03,-7.935664873076744841e-02
9.949999999999999956e-01,1.911723899466556964e-01,-2.242978058777726491e-01,-2.489646349016771676e-01
9.959999999999999964e-01,1.414654701845274309e-01,-2.580532806737554363e-01,-1.825285901514604181e-01
9.969999999999999973e-01,2.141130232359106725e-02,-3.472659882581725921e-02,4.057212330897780328e-02
9.979999999999999982e-01,-1.168808769107605033e-01,2.247345552976225402e-01,1.784707144244769284e-01
9.989999999999999991e-01,-2.211482645933778579e-01,2.688815641290575043e-01,1.843788865264544552e-01
1.000000000000000000e+00,-1.668028036862430064e-01,4.758749966573629780e-02,7.809316448432776329e-03
1.000999999999999890e+00,-4.341336857061894004e-03,-1.647670376134395820e-01,-1.625644381392353510e-01
1.002000000000000002e+00,2.377509842694152664e-01,-2.446338361224662805e-01,-1.848814899208721663e-01
1.002999999999999892e+00,2.951558243222039968e-01,-1.114245851889816008e-01,-5.397585474840591035e-02
1.004000000000000004e+00,2.810879736784571356e-02,6.843572973757998390e-02,4.551818020293248862e-02
1.004999999999999893e+00,-2.686987253940061882e-01,1.449304823911959639e-01,7.408818137123228398e-02
1.006000000000000005e+00,-3.286620415610593260e-01,1.349077943641054378e-01,1.134990631540227085e-01
1.006999999999999895e+00,-1.169177333755281600e-01,2.260418645678099678e-02,7.163855564306234602e-02
1.008000000000000007e+00,2.424181858642561471e-01,-4.123182940864741908e-02,-1.898763194230740706e-02
1.008999999999999897e+00,3.251788890889500405e-01,-1.643662478428577212e-01,-1.332575014228158938e-01
1.010000000000000009e+00,1.155619175306224489e-01,-1.466872766009128526e-01,-1.658100380878193558e-01
1.010999999999999899e+00,-1.131459292694270702e-01,-3.118960733860248052e-02,-3.526541719532368113e-02
1.012000000000000011e+00,-2.447110030414157700e-01,1.677182797032714945e-01,9.820913130415351300e-02
1.012999999999999901e+00,-1.712138731289783999e-01,2.444126903451939170e-01,1.964552693813304551e-01
1.014000000000000012e+00,-9.146885647439364705e-03,8.184668547990844867e-02,8.295414641397168276e-02
1.014999999999999902e+00,1.316379981952408018e-01,-1.284770132356760075e-01,-1.248747198189274626e-01
1.016000000000000014e+00,1.639652245678056564e-01,-3.044455398865940077e-01,-2.409150389739775078e-01
1.016999999999999904e+00,1.402440258131811002e-01,-1.891942010749559921e-01,-1.554231967234180611e-01
1.018000000000000016e+00,-9.843936805616828201e-04,1.130478924610572589e-01,3.419855215258271047e-02
1.018999999999999906e+00,-1.483563002212843207e-01,2.899332235239284739e-01,1.767329887269951660e-01
1.020000000000000018e+00,-2.266792448840819763e-01,1.509658237662229729e-01,1.816482176861343723e-01
1.020999999999999908e+00,-1.597288668493170583e-01,-4.521741962007116283e-02,-3.401208660871381673e-03
1.022000000000000020e+00,1.149255084207770061e-01,-1.667612019018943903e-01,-1.530687611836318851e-01
1.022999999999999909e+00,3.322508608017253340e-01,-1.633377329418675139e-01,-1.376048453456430454e-01
1.024000000000000021e+00,2.650142345402894950e-01,-3.117679803804920824e-02,-8.784677819769326490e-02
1.024999999999999911e+00,-3.303461462828660017e-02,1.125017546941583929e-01,2.055096448252502483e-02
1.026000000000000023e+00,-3.258267989402667819e-01,1.607007531276693213e-01,6.824038660616826846e-02
1.026999999999999913e+00,-3.280517254603056987e-01,1.392775161982709731e-01,1.232428797560538580e-01
1.028000000000000025e+00,7.383702566958295216e-03,7.018280578815699888e-02,8.982098181680042703e-02
1.028999999999999915e+00,2.394727444931827043e-01,-1.039430434885770249e-01,-3.794824375740816526e-03
1.030000000000000027e+00,2.937329947344740622e-01,-1.894932352216478766e-01,-1.251187885488737883e-01
1.030999999999999917e+00,1.077538356665948965e-01,-1.503418754138993729e-01,-1.693625095532579894e-01
1.032000000000000028e+00,-1.282022801647512977e-01,8.868187960168270878e-02,-5.627652585563894944e-02
1.032999999999999918e+00,-2.323703243779032812e-01,2.305163255331533767e-01,1.548455856591049729e-01
1.034000000000000030e+00,-1.459299615843016318e-01,2.296566412324817230e-01,1.792199874201624854e-01
1.034999999999999920e+00,2.792556836009348065e-02,-1.310541668284413708e-02,1.241241924927905110e-01
1.036000000000000032e+00,1.155313292517882173e-01,-2.770477874490843706e-01,-1.326252900749322339e-01
1.036999999999999922e+00,1.665427921918906373e-01,-2.835074738878318179e-01,-2.051901824412918074e-01
1.038000000000000034e+00,1.570342909635804585e-01,8.583801033056772875e-03,-1.535144443368361145e-01
1.038999999999999924e+00,1.346066768841291950e-02,2.293365744563077291e-01,6.959831646823808060e-02
1.040000000000000036e+00,-2.375924161747233476e-01,2.312856962581370801e-01,1.853546346217790630e-01
1.040999999999999925e+00,-2.739904011186833910e-01,2.398583675068341470e-02,1.630147746935324549e-01
1.042000000000000037e+00,-1.020422578822277049e-01,-1.457379801763011296e-01,2.536546768477036459e-02
1.042999999999999927e+00,1.917501250576093552e-01,-1.608132735493526533e-01,-8.946473220845117813e-02
1.044000000000000039e+00,3.772868589321484722e-01,-9.161801339426516033e-02,-1.127679409805848465e-01
1.044999999999999929e+00,1.780034588788584060e-01,3.122905495112257568e-02,-1.060658974007573502e-01
1.046000000000000041e+00,-1.584580660566135557e-01,7.378088775881018468e-02,8.163400027745482471e-03
1.046999999999999931e+00,-3.418390124691555454e-01,1.620593204493688266e-01,6.676813729869764125e-02
1.048000000000000043e+00,-2.035132404944834383e-01,1.572032592848157384e-01,1.257250433280813207e-01
1.048999999999999932e+00,5.345791500961472736e-02,-4.388735954041974273e-03,1.226652381440796330e-01
1.050000000000000044e+00,2.734238080374143953e-01,-1.567007553304509970e-01,-2.632103602029324182e-02
1.050999999999999934e+00,2.080791806515028541e-01,-2.175946399021374822e-01,-1.249213068972148677e-01
1.052000000000000046e+00,3.209708155352212350e-02,-5.440582449377956431e-02,-1.948749575475064721e-01
1.052999999999999936e+00,-1.831248113758043305e-01,2.086644697740821230e-01,-1.933593234750729042e-02
1.054000000000000048e+00,-1.589652264687214100e-01,2.869349208163390341e-01,1.814330135268805155e-01
1.054999999999999938e+00,-1.159933885012555121e-01,9.238681592322652014e-02,1.750172417601367492e-01
1.056000000000000050e+00,-1.651510106100531963e-02,-1.697754183591883015e-01,6.041532843714331885e-02
1.056999999999999940e+00,1.515080210997033494e-01,-2.735683502515753318e-01,-1.070950710509001313e-01
1.058000000000000052e+00,1.877716299617724627e-01,-1.484481384382800584e-01,-2.170672159036323989e-01
1.058999999999999941e+00,1.320132102895318071e-01,1.318472837006837983e-01,-1.041692794972079866e-01
1.060000000000000053e+00,-5.460988529338783870e-02,2.812316273189829907e-01,5.225065198716578180e-02
1.060999999999999943e+00,-2.787633903061038088e-01,1.284142327902254854e-01,1.232851996140279099e-01
1.062000000000000055e+00,-2.985220816762502172e-01,-2.010682941782801839e-02,9.390002221511835334e-02
1.062999999999999945e+00,-9.501811242935457105e-03,-1.306068719628742936e-01,2.778695661000151178e-03
1.064000000000000057e+00,2.875153901963599101e-01,-1.359981103447598649e-01,-7.785360807414644368e-02
1.064999999999999947e+00,3.230690600514591893e-01,-4.771790082353232626e-02,-8.142292126259639828e-02
1.066000000000000059e+00,9.421853314422234948e-02,2.151496852554338462e-03,-8.425364350126196555e-02
1.066999999999999948e+00,-2.593528728512921600e-01,1.380982938096420864e-01,-7.235966697466068333e-03
1.068000000000000060e+00,-3.858639010868820662e-01,1.694669611400774767e-01,6.495654662622082909e-02
1.068999999999999950e+00,-1.289211177185156376e-01,1.037131798536498339e-01,1.630746113989408885e-01
1.070000000000000062e+00,1.695484337010922105e-01,-1.044454198671432715e-01,1.135315946236093998e-01
1.070999999999999952e+00,2.669321575340580788e-01,-2.710769140288817325e-01,-5.727048454007980377e-02
1.072000000000000064e+00,1.358591014849842571e-01,-1.951037395574830580e-01,-1.766546503025251680e-01
1.072999999999999954e+00,4.111733158025833966e-03,7.611924595652190539e-02,-1.958180069303573911e-01
1.074000000000000066e+00,-1.621624104805152178e-01,2.939471656879557582e-01,-2.622310330746813190e-02
1.074999999999999956e+00,-1.719562657264874783e-01,1.910366444945791053e-01,1.946051118970929805e-01
1.076000000000000068e+00,-1.196387589350392938e-01,-1.955600953233285755e-02,1.811131795753832818e-01
1.076999999999999957e+00,-2.716381715970723684e-02,-2.597092544769449840e-01,6.103761307626140442e-02
1.078000000000000069e+00,1.786983828308087163e-01,-2.400970630706371900e-01,-1.363834743984651543e-01
1.078999999999999959e+00,2.944505164423228960e-01,-2.973967884827777297e-02,-2.386663242252130002e-01
1.080000000000000071e+00,1.381023401740529011e-01,1.598393704416782579e-01,-7.614623868012106167e-02
1.080999999999999961e+00,-1.433904446418703682e-01,1.808958057637485850e-01,8.707254942653290530e-02
1.082000000000000073e+00,-2.954268012046386560e-01,4.782609599315051224e-02,1.546516123915277763e-01
1.082999999999999963e+00,-2.482594143085602723e-01,-6.846197797113011407e-02,1.104070702350089667e-01
1.084000000000000075e+00,1.022347227036878858e-01,-1.299914424712367289e-01,9.918168744938078013e-03
1.084999999999999964e+00,3.414426784716670937e-01,-9.521985189298447227e-02,-7.760333218393171417e-02
1.086000000000000076e+00,2.865648221173492383e-01,-5.359810542292284957e-02,-6.898768538389002392e-02
1.086999999999999966e+00,-6.415847135501968890e-02,3.365845514474712086e-02,-1.547425996344113930e-01
1.088000000000000078e+00,-3.230242116921479001e-01,1.992712183088789779e-01,-3.149056679260695685e-02
1.088999999999999968e+00,-2.920256465708123139e-01,2.236102283055827478e-01,5.440664285864253713e-02
1.090000000000000080e+00,-3.842477576094804892e-02,1.413540620342524333e-02,1.874179131323462366e-01
1.090999999999999970e+00,1.685221152863491112e-01,-2.205343850519100035e-01,1.132618378910725393e-01
1.092000000000000082e+00,1.853470171262655009e-01,-2.556951509853611637e-01,-5.138928398821691196e-02
1.092999999999999972e+00,1.595797767319844518e-01,-4.506768739784571681e-02,-2.091770656893996161e-01
1.094000000000000083e+00,-1.399512443460104033e-02,2.238224051950892524e-01,-1.785664564925603381e-01
1.094999999999999973e+00,-1.351069256902223958e-01,2.785225059245023949e-01,2.722541230901716000e-02
1.096000000000000085e+00,-1.753191203889201966e-01,8.453440993971331197e-02,2.150358643959959237e-01
1.096999999999999975e+00,-1.892435875111165011e-01,-1.339965949517655519e-01,2.126903399088563851e-01
1.098000000000000087e+00,1.309409716975630522e-02,-2.250200849471754305e-01,1.372228094596108366e-02
1.098999999999999977e+00,2.599884998255681534e-01,-1.012599288195071140e-01,-1.063310908621680206e-01
1.100000000000000089e+00,2.581904662911406745e-01,7.226976580252367222e-02,-1.689987876836320790e-01
1.100999999999999979e+00,9.813664567381594206e-02,1.609712219650014653e-01,-7.934343142643628111e-02
1.102000000000000091e+00,-2.410785648378903634e-01,1.061403821378118784e-01,6.749935627805317417e-02
1.102999999999999980e+00,-3.548376548837801625e-01,2.552711465103928157e-02,1.246145473257245784e-01
1.104000000000000092e+00,-1.145360502275965392e-01,-5.602167081508727803e-02,9.756642020560897521e-02
1.104999999999999982e+00,2.110670279981827768e-01,-1.399354075636322081e-01,4.138011861008699527e-02
1.106000000000000094e+00,3.417016095378529461e-01,-1.497665794072551848e-01,-3.388700208351577703e-02
1.106999999999999984e+00,1.824020127905130184e-01,-5.090226679595693735e-03,-1.007674583464327478e-01
1.108000000000000096e+00,-1.244323925602335151e-01,1.825133362296993689e-01,-1.295219506824031031e-01
1.108999999999999986e+00,-3.006106137240944221e-01,2.620567318121061473e-01,-3.879760523919516257e-02
1.110000000000000098e+00,-2.088181708429257544e-01,1.249760174668290980e-01,7.162528363951134458e-02
1.110999999999999988e+00,6.419373565418605432e-02,-1.573236505600689450e-01,2.078530116970207509e-01
1.112000000000000099e+00,2.056316185119114182e-01,-2.727519231820752510e-01,1.043512133171350525e-01
1.112999999999999989e+00,1.469536780137956355e-01,-1.588342387244729703e-01,-2.768924984017450547e-02
1.114000000000000101e+00,1.161914870587751475e-01,7.765933679408822121e-02,-2.316191016268380753e-01
1.114999999999999991e+00,-3.573980171115151167e-03,2.542475838779548747e-01,-1.858767669334633332e-01
1.116000000000000103e+00,-1.664526826275168347e-01,2.041934413125713887e-01,4.464656075486256315e-02
1.116999999999999993e+00,-2.335886049977749790e-01,-2.031701980898923537e-02,2.100516199580842180e-01
1.118000000000000105e+00,-1.128334640850836568e-01,-2.270986584765355698e-01,1.809121958089278392e-01
1.118999999999999995e+00,9.249719817222638862e-02,-1.635440575040237876e-01,1.720448304918450327e-02
1.120000000000000107e+00,2.757704523195884661e-01,-2.884918392055352623e-02,-1.356094042672466027e-01
1.120999999999999996e+00,2.535022921853212208e-01,8.514930856444909157e-02,-1.556055335684909391e-01
1.122000000000000108e+00,-4.110827021821349819e-02,1.161468146513038729e-01,-5.425263801465976532e-02
1.122999999999999998e+00,-3.063166493565755433e-01,1.100443094079552736e-01,3.603757070902866705e-02
1.124000000000000110e+00,-3.187032895944590938e-01,3.963271648170015732e-02,1.042770758573116074e-01
1.125000000000000000e+00,-4.040826999865888836e-02,-5.825559938786525199e-02,1.056597197014808864e-01
1.125999999999999890e+00,3.027882134538592007e-01,-1.809484031654766678e-01,5.414552738445903290e-02
1.127000000000000002e+00,3.208575741233460343e-01,-1.636664403275917279e-01,-4.990405801576775630e-02
1.127999999999999892e+00,7.277626879389391401e-02,3.758092526483614720e-02,-8.332894506840084203e-02
1.129000000000000004e+00,-2.019165598589808819e-01,2.299322580774373626e-01,-1.493623638362979733e-01
1.129999999999999893e+00,-2.554961637136507480e-01,2.334880916982911281e-01,-6.350171222073067168e-02
1.131000000000000005e+00,-1.231162324025616983e-01,-1.197767091176702402e-02,1.501473150303954673e-01
1.131999999999999895e+00,4.166216611188153923e-02,-2.434920313955356574e-01,1.829316013919810580e-01
1.133000000000000007e+00,1.709827290005250522e-01,-2.833509936744376678e-01,9.645535406456015592e-02
1.133999999999999897e+00,2.103227138967844190e-01,-3.877730975394596408e-02,-8.069825287171547568e-02
1.135000000000000009e+00,1.068801147592651074e-01,2.386743568695945950e-01,-2.442579098062180321e-01
1.135999999999999899e+00,-6.333823614446010275e-02,2.722711769664419301e-01,-1.242816390561467116e-01
1.137000000000000011e+00,-1.889684050182574571e-01,8.056540536599957059e-02,7.800626070022566305e-02
1.137999999999999901e+00,-2.548616301098415304e-01,-1.375774090285513951e-01,1.656421546590721994e-01
1.139000000000000012e+00,-1.117802940697339431e-01,-2.209163415799662300e-01,1.792865556128074023e-01
1.139999999999999902e+00,1.362319974966479663e-01,-7.188572639281065602e-02,7.359187648103941715e-03
1.141000000000000014e+00,3.193424028742487542e-01,1.848514442353521234e-02,-1.101989063548939329e-01
1.141999999999999904e+00,2.014199424831025764e-01,1.006377219663138062e-01,-1.289628882315745628e-01
1.143000000000000016e+00,-1.706555556054275280e-01,1.254280742731855580e-01,-3.184460204684975981e-02
1.143999999999999906e+00,-3.446908341974552759e-01,8.144381756834104258e-02,6.268661645060282991e-03
1.145000000000000018e+00,-2.776398668272009873e-01,1.949560607372955996e-04,6.940976711735026561e-02
1.145999999999999908e+00,5.501828944176742620e-02,-1.669975138588364882e-01,1.158076260024266529e-01
1.147000000000000020e+00,3.014481842059463235e-01,-2.106974268127176919e-01,7.439165726261795508e-02
1.147999999999999909e+00,2.174349792495184619e-01,-7.267944936643763731e-02,-3.743092949319974660e-02
1.149000000000000021e+00,8.485320188779987491e-03,1.501313865300197836e-01,-1.494778157256663464e-01
1.149999999999999911e+00,-1.824759824375506989e-01,2.462720903411021733e-01,-1.497365487422553931e-01
1.151000000000000023e+00,-2.029429191324739201e-01,1.132296556754609079e-01,-4.449702204422355950e-02
1.151999999999999913e+00,-8.274453420608916809e-02,-1.376712397272812638e-01,1.552012057024534653e-01
1.153000000000000025e+00,7.328316531174158821e-02,-3.149227546506908060e-01,2.452451325084840650e-01
1.153999999999999915e+00,1.790693482885631349e-01,-1.546373292624014517e-01,1.059741644109088027e-01
1.155000000000000027e+00,2.118256352640043028e-01,8.990743317433537440e-02,-1.303453818225002170e-01
1.155999999999999917e+00,1.069526894273027523e-01,2.332963306244855151e-01,-2.105083516635386787e-01
1.157000000000000028e+00,-6.260395410476765621e-02,1.616597383647816188e-01,-7.369156887349338769e-02
1.157999999999999918e+00,-2.490565694469245028e-01,-7.654297341011864764e-02,6.893207702295020556e-02
1.159000000000000030e+00,-2.714420912695100774e-01,-1.835094033898043986e-01,1.778912428874961649e-01
1.159999999999999920e+00,-3.634575240199213603e-02,-1.583283560085518293e-01,1.499942826461190537e-01
1.161000000000000032e+00,2.852852397720238575e-01,-6.364282664598075456e-02,2.449748185986868124e-03
1.161999999999999922e+00,3.750875546158370377e-01,6.822021280376204533e-02,-6.592103245401181866e-02
1.163000000000000034e+00,9.452939354126956017e-02,1.084270409147437275e-01,-9.495834247529338912e-02
1.163999999999999924e+00,-2.093201383596418330e-01,1.717392455510529659e-01,-6.189183809248179069e-02
1.165000000000000036e+00,-3.583098792751492345e-01,5.687889545569101146e-02,1.713168629235538396e-03
1.165999999999999925e+00,-9.369492731627697413e-02,-1.131351553597151061e-01,1.039590520333791845e-01
1.167000000000000037e+00,1.831790300497712909e-01,-2.465634375693123714e-01,1.806914830309289677e-01
1.167999999999999927e+00,3.071290054011317494e-01,-1.468813794106683390e-01,1.166703305510168459e-01
1.169000000000000039e+00,1.708262495589321084e-01,6.030558303696992306e-02,-5.686557744594485098e-02
1.169999999999999929e+00,-4.365717527948900778e-02,2.585857286274648170e-01,-1.521028651110961638e-01
1.171000000000000041e+00,-1.742147393670290811e-01,2.396913643755617107e-01,-1.940937046314835934e-01
1.171999999999999931e+00,-1.905049630711811159e-01,-2.177432405199557566e-02,-8.136249857543203026e-03
1.173000000000000043e+00,-8.363434058600745236e-02,-2.596127465030637627e-01,1.778345610934154719e-01
1.173999999999999932e+00,2.647415935665389103e-03,-2.567249504840330987e-01,1.733428968333882991e-01
1.175000000000000044e+00,1.615840112110653037e-01,-6.313253885003396529e-03,3.837136101277639072e-02
1.175999999999999934e+00,2.158066960150432922e-01,2.126715103620992198e-01,-1.706617441596980922e-01
1.177000000000000046e+00,1.474753420809730153e-01,2.079261805188888645e-01,-1.977854313220536453e-01
1.177999999999999936e+00,-1.058955439526489961e-01,8.883913598298753822e-02,-7.168042403194128942e-02
1.179000000000000048e+00,-3.201015136296401775e-01,-8.701281874982610964e-02,8.719123042153872905e-02
1.179999999999999938e+00,-2.285543157085733468e-01,-1.590785051485204549e-01,1.855043551392400458e-01
1.181000000000000050e+00,8.049005996844567357e-02,-1.097870296657950800e-01,1.356615247426387894e-01
