time,acc_x,acc_y,acc_z
0.000000000000000000e+00,2.785417421994155762e-01,2.130090263218508140e-01,1.653800091366000036e-01
1.000000000000000021e-03,2.387663287696707992e-01,1.994711867156248042e-01,1.543998755606263429e-01
2.000000000000000042e-03,2.253969478372530033e-01,1.902981566052842355e-01,1.477466698479112661e-01
3.000000000000000062e-03,2.244735779244825258e-01,1.708872010468446834e-01,1.164676501128164565e-01
4.000000000000000083e-03,1.961218531573962476e-01,1.450463053564911287e-01,1.596050297906399518e-01
5.000000000000000104e-03,1.473959358044283907e-01,8.396457630126351324e-02,9.761790830794930818e-02
6.000000000000000125e-03,9.567246156180823913e-02,4.888191946840240998e-02,8.918181254290112603e-02
7.000000000000000146e-03,6.058467874795908648e-02,2.562837492958124509e-03,7.397637380352219127e-02
8.000000000000000167e-03,3.576866694404665786e-02,-3.783640392653053047e-02,1.746431731376881999e-02
8.999999999999999320e-03,-3.464810248726356290e-02,-6.715468270349955748e-02,-5.302004744450070951e-03
1.000000000000000021e-02,-6.935266071367184038e-02,-9.540192218497013654e-02,-3.691692922825096784e-02
1.099999999999999936e-02,-1.312254192794065633e-01,-1.407338589461707978e-01,-6.118511119892796474e-02
1.200000000000000025e-02,-1.887642332435138237e-01,-1.646703804571061636e-01,-7.407132563254256730e-02
1.299999999999999940e-02,-2.061509342035774406e-01,-1.617933870273519925e-01,-1.095532993735820471e-01
1.400000000000000029e-02,-2.150928229791967405e-01,-2.179317905006432909e-01,-1.306622795710012663e-01
1.499999999999999944e-02,-2.395476318083872014e-01,-2.151233589488023290e-01,-1.605072694185450954e-01
1.600000000000000033e-02,-2.659184672007319228e-01,-2.095526378182717142e-01,-1.579743345538879296e-01
1.700000000000000122e-02,-2.305846160181312665e-01,-2.002018456697962356e-01,-1.641807297607029426e-01
1.799999999999999864e-02,-2.553361327214047072e-01,-1.905161009985117948e-01,-1.604101213680746429e-01
1.899999999999999953e-02,-2.224057399649511102e-01,-1.751251399895371874e-01,-1.470557466549608228e-01
2.000000000000000042e-02,-2.061467450543663926e-01,-1.315770595668399601e-01,-1.543200468610291809e-01
2.100000000000000130e-02,-2.191435767514209043e-01,-1.331916867693571649e-01,-1.118644517822367235e-01
2.199999999999999872e-02,-1.523395317613631117e-01,-7.601238637317701829e-02,-9.965350598524171100e-02
2.299999999999999961e-02,-1.341942123836918077e-01,-3.825337686666117898e-02,-9.955376297842484512e-02
2.400000000000000050e-02,-6.147949986544790080e-02,-2.143318299609823369e-02,-8.029549285413745130e-02
2.500000000000000139e-02,4.141409898168284948e-03,4.256917678704538049e-02,-4.872731659868869553e-02
2.599999999999999881e-02,2.924381891885723464e-02,3.777090299583500677e-02,-2.591161394556882464e-02
2.699999999999999969e-02,6.858661889828858438e-02,1.110092362205014477e-01,2.240001893959789325e-02
2.800000000000000058e-02,1.142282668451940764e-01,1.523374607192299612e-01,7.907515890166182115e-02
2.900000000000000147e-02,1.700357798981728674e-01,1.387289577782767347e-01,6.403996082256054045e-02
2.999999999999999889e-02,1.995240332151657081e-01,1.652720390349192159e-01,8.607980248132980627e-02
3.099999999999999978e-02,2.123109062342314335e-01,2.145363605484024716e-01,1.034074327212391731e-01
3.200000000000000067e-02,2.441006623777843276e-01,1.871693799913478895e-01,1.422005598416495320e-01
3.300000000000000155e-02,2.720994553333900279e-01,1.979676706063547842e-01,1.475530683071863691e-01
3.400000000000000244e-02,2.660471995988600846e-01,2.036769511856823534e-01,1.643095203184171127e-01
3.500000000000000333e-02,2.659733399636962647e-01,2.022095305085387928e-01,1.515428214237966309e-01
3.599999999999999728e-02,2.346192331141794263e-01,1.640550441350678290e-01,1.685177791109160328e-01
3.699999999999999817e-02,2.502291983469454584e-01,1.485799141351873132e-01,1.423712086861898818e-01
3.799999999999999906e-02,2.091231448852326480e-01,1.159341766952857594e-01,1.453689199792064235e-01
3.899999999999999994e-02,1.827672071730765957e-01,6.513896579140761312e-02,1.092572506431155471e-01
4.000000000000000083e-02,1.239981757062892376e-01,6.527228073363038063e-02,9.540926545068155462e-02
4.100000000000000172e-02,8.241982989063195708e-02,-8.688515247024236957e-03,1.067919617268511812e-01
4.200000000000000261e-02,2.858292300099513419e-02,-1.330271290335557043e-02,6.843925235558404041e-02
4.299999999999999656e-02,-2.094702142831850536e-02,-4.303997564861661990e-02,-5.062034138586097003e-04
4.399999999999999745e-02,-7.067052640281304421e-02,-1.302675073586613830e-01,1.166868101432546982e-02
4.499999999999999833e-02,-1.314512031486440302e-01,-1.342432483467434212e-01,-4.106834307801563583e-02
4.599999999999999922e-02,-1.804702650237682837e-01,-1.733246860916737853e-01,-3.381409385885955632e-02
4.700000000000000011e-02,-1.912094560444732583e-01,-1.809658510918397412e-01,-8.357440918077019276e-02
4.800000000000000100e-02,-2.178439699563558540e-01,-1.937833552297384132e-01,-9.826998761577548924e-02
4.900000000000000189e-02,-2.374283992619269368e-01,-2.001270373167976513e-01,-1.294254209632693664e-01
5.000000000000000278e-02,-2.574427109005038017e-01,-2.191954900645958493e-01,-1.575868351084512009e-01
5.099999999999999672e-02,-2.411407563476908877e-01,-1.934700854612652066e-01,-1.369481111814182250e-01
5.199999999999999761e-02,-2.527096477960397158e-01,-2.061680963292236157e-01,-1.400412550053359018e-01
5.299999999999999850e-02,-2.471236556703510501e-01,-1.813134236074715189e-01,-1.734829383631796285e-01
5.399999999999999939e-02,-2.197665602431503606e-01,-1.724009086867016594e-01,-1.373143120274102624e-01
5.500000000000000028e-02,-2.115166990174037198e-01,-1.178862737803206828e-01,-1.516041880601753100e-01
5.600000000000000117e-02,-1.743469001916097827e-01,-1.018693496612453064e-01,-1.242229233632967389e-01
5.700000000000000205e-02,-1.557087619356438413e-01,-7.396942649648093060e-02,-1.320465039186093648e-01
5.800000000000000294e-02,-1.127156828516549664e-01,1.261152724531626945e-03,-7.180981774715826382e-02
5.899999999999999689e-02,-5.766359292750988103e-02,-5.558571593428223226e-03,-6.992684585129423092e-02
5.999999999999999778e-02,-2.382923809913494242e-03,6.898530409540383490e-02,-6.285990734947947967e-02
6.099999999999999867e-02,2.595106187750564550e-02,1.027759280463776403e-01,9.038819452941505503e-03
6.199999999999999956e-02,1.115454993895656638e-01,1.397446586762781384e-01,4.554761609239655479e-02
6.300000000000000044e-02,1.434469342627912591e-01,1.684133856893562375e-01,5.637180947288673166e-02
6.400000000000000133e-02,2.009198973344295258e-01,1.782454460688870646e-01,6.894504987185469391e-02
6.500000000000000222e-02,2.409407893826043257e-01,2.171989464704255912e-01,1.073212858525714603e-01
6.600000000000000311e-02,2.307608935329565347e-01,2.027578740576022887e-01,1.083807598766736296e-01
6.700000000000000400e-02,2.390703545051996448e-01,2.047862967921032507e-01,1.309980043309134645e-01
6.800000000000000488e-02,2.400327051696955483e-01,1.975790551789390892e-01,1.445044993164911196e-01
6.900000000000000577e-02,2.598517967927312378e-01,2.075296798466217674e-01,1.591319757905204357e-01
7.000000000000000666e-02,2.677125689221188098e-01,1.993124976285637340e-01,1.854555463389019609e-01
7.099999999999999367e-02,2.300712736368722977e-01,1.429861660653619637e-01,1.484364901096296430e-01
7.199999999999999456e-02,2.352782172466970911e-01,1.209592537554502328e-01,1.562546250522840463e-01
7.299999999999999545e-02,1.961830259715318381e-01,7.894239852644571731e-02,1.360922265666465458e-01
7.399999999999999634e-02,1.558915981502054515e-01,1.002044377310243456e-01,1.288742040786801102e-01
7.499999999999999722e-02,1.128714359361942948e-01,2.896298922214958146e-02,1.053720012933002659e-01
7.599999999999999811e-02,6.304131102803306463e-02,1.761206346696779501e-02,7.587588529608670085e-02
7.699999999999999900e-02,1.442651297197329076e-02,-5.905327528284794181e-02,7.433608951434812762e-02
7.799999999999999989e-02,-5.294358432498770528e-02,-1.175097116730242641e-01,1.852032009493522619e-02
7.900000000000000078e-02,-9.127969979997563321e-02,-1.112242550551198472e-01,-2.044389783647705076e-03
8.000000000000000167e-02,-1.123533349614603966e-01,-1.496267329017758607e-01,-6.299145781044866721e-02
8.100000000000000255e-02,-1.798980742465542126e-01,-1.710436062922462142e-01,-4.682128344244765317e-02
8.200000000000000344e-02,-1.918005050971618719e-01,-1.801100279296628248e-01,-6.258296282333354610e-02
8.300000000000000433e-02,-2.102241312158195097e-01,-1.898060758821691063e-01,-1.099638549769149098e-01
8.400000000000000522e-02,-2.663174097849981825e-01,-2.227447519410641341e-01,-1.407064292978349174e-01
8.500000000000000611e-02,-2.511978381047447195e-01,-1.819957323464055643e-01,-1.470938813137109280e-01
8.599999999999999312e-02,-2.700792637195299495e-01,-2.140779822025803414e-01,-1.538759111547736147e-01
8.699999999999999400e-02,-2.711485833971115644e-01,-1.865839173741031531e-01,-1.476427281583453099e-01
8.799999999999999489e-02,-2.341893667947887170e-01,-1.695512523475258271e-01,-1.485857208394190665e-01
8.899999999999999578e-02,-2.120082497931367327e-01,-1.047969877886020806e-01,-1.750337351643901918e-01
8.999999999999999667e-02,-2.239157103087063838e-01,-1.011756179937965128e-01,-1.669195749544278573e-01
9.099999999999999756e-02,-1.869312536679348935e-01,-5.469544862705577604e-02,-1.469454587067378359e-01
9.199999999999999845e-02,-1.003314834505475289e-01,-1.681323902337092044e-02,-8.534667075368379541e-02
9.299999999999999933e-02,-6.189354214654012309e-02,4.316697310734484566e-02,-8.335461206395089473e-02
9.400000000000000022e-02,-2.225139507530631000e-02,8.590837863790727613e-02,-6.901902853073056676e-02
9.500000000000000111e-02,3.482024056304026255e-02,1.178201095054143693e-01,-4.252592253362662278e-02
9.600000000000000200e-02,6.574280966796818004e-02,1.239124120644155697e-01,8.777182115194638243e-03
9.700000000000000289e-02,1.211693566886271611e-01,1.428126788173986750e-01,4.830795469755507637e-02
9.800000000000000377e-02,1.614818153838983028e-01,1.517143596315281284e-01,2.005423224978272398e-02
9.900000000000000466e-02,2.088720145319159227e-01,1.953391148080950157e-01,5.496047412297485474e-02
1.000000000000000056e-01,2.136181842893238314e-01,2.108693722162846285e-01,8.638923156084159227e-02
1.010000000000000064e-01,2.447878228784246268e-01,1.915762501430401388e-01,1.274805925888721214e-01
1.019999999999999934e-01,2.668867130460909065e-01,2.109233163448844262e-01,1.568043901086963454e-01
1.029999999999999943e-01,2.696866514354258615e-01,1.923986519720926047e-01,1.346104146304819837e-01
1.039999999999999952e-01,2.379934185029181914e-01,1.919530936161459311e-01,1.658758155462333739e-01
1.049999999999999961e-01,2.424758369855609663e-01,1.791267632885577832e-01,1.553541162442264867e-01
1.059999999999999970e-01,2.061915986387317656e-01,1.393852920291310526e-01,1.597314600975356935e-01
1.069999999999999979e-01,2.039347298418736631e-01,8.656604396303896332e-02,1.250692843974089696e-01
1.079999999999999988e-01,1.656479599814497661e-01,7.332088207198582397e-02,1.474108654251660988e-01
1.089999999999999997e-01,1.319794271817456011e-01,-3.354917338413480627e-03,1.152246436389019191e-01
1.100000000000000006e-01,8.144060328566503359e-02,-1.553890690359736870e-03,1.004609064581262201e-01
1.110000000000000014e-01,3.788450314269540403e-02,-4.165601053583110197e-02,4.900270935337332906e-02
1.120000000000000023e-01,-3.973841266307685111e-02,-1.113350784633235779e-01,6.208166080147798499e-02
1.130000000000000032e-01,-6.871104907113202709e-02,-1.133919662292824232e-01,-1.261964273859992984e-02
1.140000000000000041e-01,-1.099017354150338549e-01,-1.406453285073956672e-01,-7.291638801520048709e-03
1.150000000000000050e-01,-1.606786030631301154e-01,-1.848404926565642148e-01,-3.114666566257096036e-02
1.160000000000000059e-01,-1.685920511092914853e-01,-1.916525916172051869e-01,-3.387162410416937747e-02
1.170000000000000068e-01,-2.089856904832044227e-01,-2.272729330317608543e-01,-7.097489181048662055e-02
1.179999999999999938e-01,-2.531020891400450057e-01,-2.000970718128262660e-01,-1.393238942102256184e-01
1.189999999999999947e-01,-2.543677964518802903e-01,-2.083841087957862825e-01,-1.229720620851455781e-01
1.199999999999999956e-01,-2.896898816120747067e-01,-2.230782923713319210e-01,-1.530745429784833300e-01
1.209999999999999964e-01,-2.683896398365421265e-01,-2.017323715191503553e-01,-1.546563928149666534e-01
1.219999999999999973e-01,-2.569014687790072138e-01,-1.650111939527687255e-01,-1.640908848721766289e-01
1.229999999999999982e-01,-2.291867735277892670e-01,-1.505983334505054672e-01,-1.527452576285928121e-01
1.239999999999999991e-01,-2.196239914158658324e-01,-1.103906694176044895e-01,-1.559863057832178157e-01
1.250000000000000000e-01,-1.689744120630496116e-01,-4.299217535821404923e-02,-1.248999356763237922e-01
1.260000000000000009e-01,-1.207900971760248465e-01,-2.740263458373234581e-02,-1.291382794195409522e-01
1.270000000000000018e-01,-1.222676712444248637e-01,1.004772397904441297e-03,-9.719505740871375865e-02
1.280000000000000027e-01,-3.111777507883304109e-02,3.259030988177454707e-02,-8.230232876833010192e-02
1.290000000000000036e-01,-1.730880516710537817e-02,8.413417045191300125e-02,-4.045941259063844109e-02
1.300000000000000044e-01,6.608968287515452900e-02,1.444015381981188506e-01,-2.678843381132589227e-02
1.310000000000000053e-01,1.239017959455211010e-01,1.665694151738577877e-01,1.026084502733167446e-02
1.320000000000000062e-01,1.567130630130038338e-01,1.737064124437759094e-01,1.967787992467899885e-02
1.330000000000000071e-01,1.685993273326963915e-01,2.183466856877176732e-01,4.341179671802264384e-02
1.340000000000000080e-01,2.253659833106488042e-01,1.872483662838627938e-01,7.703647265616281326e-02
1.350000000000000089e-01,2.400663219934104919e-01,1.786303016644961439e-01,9.367195009533706151e-02
1.360000000000000098e-01,2.421263163035914656e-01,1.962599210187420673e-01,1.217530940579872045e-01
1.370000000000000107e-01,2.571884152635739995e-01,2.219157005031842655e-01,1.309582548316576001e-01
1.380000000000000115e-01,2.659025859223504429e-01,2.060486532686955086e-01,1.464563066736886132e-01
1.390000000000000124e-01,2.569165266701481376e-01,1.924505620735818823e-01,1.872442957909207784e-01
1.400000000000000133e-01,2.442461514544302936e-01,1.363794785139247623e-01,1.444286169030635225e-01
1.409999999999999865e-01,2.033531301634774191e-01,1.036459147472499065e-01,1.504569319854786591e-01
1.419999999999999873e-01,1.735541337913886484e-01,9.715952463939554751e-02,1.335204325630985345e-01
1.429999999999999882e-01,1.294439248020700928e-01,5.453759427022989575e-02,1.396419232646299580e-01
1.439999999999999891e-01,1.120662641967373890e-01,2.379221296845738902e-03,1.253333546892199668e-01
1.449999999999999900e-01,6.906346980717270601e-02,-3.163450821185353340e-02,9.446655541307122372e-02
1.459999999999999909e-01,8.972263652682149065e-03,-8.256294722027539279e-02,6.326665133224697313e-02
1.469999999999999918e-01,-3.646075258642742650e-02,-1.107966605969727819e-01,3.679569294778418237e-02
1.479999999999999927e-01,-9.797331935591482854e-02,-1.666157730834148254e-01,4.398868602130123762e-02
1.489999999999999936e-01,-1.394762381868256407e-01,-1.795231697758637446e-01,-7.693385579955695081e-03
1.499999999999999944e-01,-1.636847558913857581e-01,-2.001322852968722144e-01,-5.739099101776487521e-02
1.509999999999999953e-01,-2.065681090616127702e-01,-1.988939028868611236e-01,-6.512347243836721922e-02
1.519999999999999962e-01,-2.341461057280511404e-01,-2.053094563145692331e-01,-1.111775861038288293e-01
1.529999999999999971e-01,-2.876022089637210732e-01,-2.026149374885767573e-01,-1.260129348324300624e-01
1.539999999999999980e-01,-2.634817074048642627e-01,-1.884713056111497476e-01,-1.581365000972257406e-01
1.549999999999999989e-01,-2.701440281855569947e-01,-1.644547598638670116e-01,-1.367779747064108709e-01
1.559999999999999998e-01,-2.820742812728149196e-01,-1.776791042247671537e-01,-1.626029432078885395e-01
1.570000000000000007e-01,-2.129954170972226946e-01,-1.246201512058031646e-01,-1.683331926975284165e-01
1.580000000000000016e-01,-2.290526766352661836e-01,-1.091855493955620482e-01,-1.629369956227554872e-01
1.590000000000000024e-01,-1.931697252461222203e-01,-7.993008239584328822e-02,-1.723870008350471272e-01
1.600000000000000033e-01,-1.570974649757310160e-01,-3.434039948206221715e-02,-1.379430873887574627e-01
1.610000000000000042e-01,-1.022898761084130026e-01,-2.332157512047918629e-02,-1.265045506081018956e-01
1.620000000000000051e-01,-6.175853032240735674e-02,5.006682578984239518e-02,-9.725163369359400567e-02
1.630000000000000060e-01,-2.103117832729848799e-02,8.253701715106553927e-02,-1.054988637476798052e-01
1.640000000000000069e-01,3.468142393057131040e-02,1.477393597279845761e-01,-5.237487480172767218e-02
1.650000000000000078e-01,8.849333572677886561e-02,1.654971850922933863e-01,-4.862602576117678460e-02
1.660000000000000087e-01,1.494220268738894741e-01,1.569145062744211061e-01,1.349641256272835974e-02
1.670000000000000095e-01,1.770225209195452620e-01,1.936864824035766652e-01,4.165801744162568598e-02
1.680000000000000104e-01,1.855585008067643371e-01,2.174232222992709962e-01,4.941776761806128404e-02
1.690000000000000113e-01,2.496084243412343417e-01,2.107122922689735334e-01,8.694261862669015739e-02
1.700000000000000122e-01,2.778648752473162342e-01,2.144479743060359045e-01,9.797086375948733938e-02
1.710000000000000131e-01,2.680228871292971715e-01,2.216682624695347492e-01,1.119608672274637201e-01
1.719999999999999862e-01,2.571351913873776707e-01,1.870137131679310560e-01,1.284468615497312005e-01
1.729999999999999871e-01,2.435797588219049958e-01,1.696157677894051530e-01,1.602812555772084591e-01
1.739999999999999880e-01,2.301232365474062680e-01,1.392234405615958848e-01,1.489157421266866510e-01
1.749999999999999889e-01,2.405683204565106925e-01,1.185344715289783912e-01,1.689092483009585199e-01
1.759999999999999898e-01,1.781790866738245938e-01,7.280159300260910515e-02,1.424079402029877206e-01
1.769999999999999907e-01,1.665477696206829616e-01,4.845508179100670859e-02,1.524926175514545457e-01
1.779999999999999916e-01,1.226875771672038123e-01,-1.298934755280387911e-02,1.520773785836947722e-01
1.789999999999999925e-01,7.023533428683934043e-02,-4.333212367740627013e-02,1.248534509381700464e-01
1.799999999999999933e-01,1.993162338833598737e-02,-8.296770030421853070e-02,9.479717096335442406e-02
1.809999999999999942e-01,-2.501868270106621939e-02,-1.019516469103085715e-01,6.306232633677259780e-02
1.819999999999999951e-01,-8.196560234252926735e-02,-1.244598321438693950e-01,5.613119455858422285e-02
1.829999999999999960e-01,-1.201178837057704091e-01,-1.545431946006246282e-01,2.011786041405887182e-02
1.839999999999999969e-01,-1.538011840402441488e-01,-1.897203082590454837e-01,-1.635913181016605128e-02
1.849999999999999978e-01,-1.812223630395902452e-01,-1.855313651058315971e-01,-5.860503580278036972e-02
1.859999999999999987e-01,-2.379778510706855033e-01,-2.139952538010658212e-01,-8.329772448314759492e-02
1.869999999999999996e-01,-2.575006441036157834e-01,-2.313524631400948883e-01,-9.739094379508070332e-02
1.880000000000000004e-01,-2.818740102362331523e-01,-1.652527599712945439e-01,-1.437061682318108435e-01
1.890000000000000013e-01,-2.610347916926151202e-01,-1.930794729374056551e-01,-1.149783261566714315e-01
1.900000000000000022e-01,-2.744737363230618232e-01,-1.529154082267706605e-01,-1.532100565092751332e-01
1.910000000000000031e-01,-2.573547652059544610e-01,-1.475097149055477341e-01,-1.460971233070733066e-01
1.920000000000000040e-01,-2.257328016796865955e-01,-9.693592882031097646e-02,-1.521042559797396998e-01
1.930000000000000049e-01,-2.094362980150291653e-01,-6.898214235118727000e-02,-1.693510472596921057e-01
1.940000000000000058e-01,-1.638442152348553171e-01,-4.753147567708109617e-02,-1.298683826428031485e-01
1.950000000000000067e-01,-1.231494813833260149e-01,-1.437493556304624345e-02,-1.280669440717225049e-01
1.960000000000000075e-01,-7.527701473083421579e-02,5.095033369338880513e-02,-1.213988245024703316e-01
1.970000000000000084e-01,-4.351158961824246746e-02,8.238174672616599414e-02,-9.671612568794589471e-02
1.980000000000000093e-01,-8.986545441414866761e-03,1.212651253618903385e-01,-5.614281113534181494e-02
1.990000000000000102e-01,5.931358443453099705e-02,1.351484071332839099e-01,-5.713781508656856634e-02
2.000000000000000111e-01,9.188238677313356750e-02,1.716666415217628361e-01,-6.899425230787584185e-03
2.010000000000000120e-01,1.231064939896527877e-01,2.115132380355768116e-01,8.073488454192243036e-03
2.020000000000000129e-01,1.746307206151190283e-01,1.980290884982050248e-01,6.221106119556107754e-03
2.030000000000000138e-01,2.159588891864704374e-01,2.244074226128304206e-01,2.822685380063180705e-02
2.039999999999999869e-01,2.605726866619199056e-01,2.106234340587692377e-01,8.057358519781110395e-02
2.049999999999999878e-01,2.427459491921730439e-01,2.085472986673581053e-01,1.194646333563165463e-01
2.059999999999999887e-01,2.741887837079666213e-01,1.857352009102334611e-01,1.252936464254937599e-01
2.069999999999999896e-01,2.146702135197347261e-01,1.502312847776457461e-01,1.592724402076331480e-01
2.079999999999999905e-01,2.499511062741356926e-01,1.539205291193690706e-01,1.660929466494191487e-01
2.089999999999999913e-01,2.338096045112089127e-01,1.087706267724903308e-01,1.756548582537588166e-01
2.099999999999999922e-01,2.183876572852505304e-01,6.882015553484102655e-02,1.650066840407765634e-01
2.109999999999999931e-01,1.927646960618469851e-01,4.915226850750221976e-02,1.459069753395125235e-01
2.119999999999999940e-01,1.443638289703871036e-01,-2.683911377905917259e-02,1.303157228896445197e-01
2.129999999999999949e-01,1.040041604860669627e-01,-1.981255318596735274e-02,1.156729737038606487e-01
2.139999999999999958e-01,4.511915345641362429e-02,-6.808354390280194068e-02,1.194889857245147458e-01
2.149999999999999967e-01,1.171145090916504358e-02,-9.783601580690007293e-02,7.373029035915766582e-02
2.159999999999999976e-01,-3.213190467654389315e-02,-1.375395232196041650e-01,6.356058646372379772e-02
2.169999999999999984e-01,-8.351950245051242838e-02,-1.534781866832513608e-01,3.458953605011891308e-02
2.179999999999999993e-01,-1.387027044777489060e-01,-1.964880636361061306e-01,8.212668733409258029e-03
2.190000000000000002e-01,-1.870132420079903268e-01,-1.717754755161661206e-01,-2.040718034928687766e-02
2.200000000000000011e-01,-1.836542122618792239e-01,-2.055098530131235501e-01,-4.399514680406426542e-02
2.210000000000000020e-01,-2.300557504981265156e-01,-1.996487983818428791e-01,-7.650131725566139407e-02
2.220000000000000029e-01,-2.599570054633237315e-01,-1.709214994353332184e-01,-9.674535601583313105e-02
2.230000000000000038e-01,-2.721466628484441319e-01,-2.012535035285760443e-01,-1.306736806158844966e-01
2.240000000000000047e-01,-2.655633300009335729e-01,-1.744138726746855550e-01,-1.238538090286691457e-01
2.250000000000000056e-01,-2.638350322199237707e-01,-1.414235431104402807e-01,-1.555017258060631125e-01
2.260000000000000064e-01,-2.469573503718718310e-01,-1.304611223758694039e-01,-1.369618069214101896e-01
2.270000000000000073e-01,-2.175438166501280357e-01,-7.731864604988218648e-02,-1.588658533786869997e-01
2.280000000000000082e-01,-2.246173189027037831e-01,-4.978100278508123394e-02,-1.726610875114150123e-01
2.290000000000000091e-01,-1.318020344796921595e-01,1.274136970311190160e-04,-1.382041622080137089e-01
2.300000000000000100e-01,-1.099371715226131890e-01,3.108184350145047278e-02,-1.301382413532494453e-01
2.310000000000000109e-01,-6.153074077353620080e-02,9.857215262459789740e-02,-1.050565216739039048e-01
2.320000000000000118e-01,-1.235413461613811201e-02,1.066493046964883534e-01,-7.281611475205929107e-02
2.330000000000000127e-01,1.460458968661160033e-02,1.204116065740456765e-01,-6.800141543072356354e-02
2.340000000000000135e-01,8.182365415626977057e-02,1.637863055679746882e-01,-4.883646079209764956e-02
2.349999999999999867e-01,1.375031845921687035e-01,2.004787252891069571e-01,-3.261839715462484107e-02
2.359999999999999876e-01,1.739058193869243707e-01,2.101392556674243906e-01,8.077881300657417663e-03
2.369999999999999885e-01,2.041229481846228710e-01,2.183805602878400309e-01,3.573361105923202052e-02
2.379999999999999893e-01,2.173124152363811179e-01,2.028466439874042349e-01,6.661771054546739013e-02
2.389999999999999902e-01,2.622501230106928927e-01,1.935755397874023009e-01,1.015105823332707324e-01
2.399999999999999911e-01,2.760948794515115101e-01,1.951141391783229873e-01,1.095436552456058865e-01
2.409999999999999920e-01,2.853475294442542887e-01,1.619873978168943074e-01,1.329376498525574879e-01
2.419999999999999929e-01,2.502809853201031220e-01,1.505948026742838231e-01,1.777204384441442020e-01
2.429999999999999938e-01,2.281048363093541587e-01,1.542418137548354218e-01,1.562862684183376760e-01
2.439999999999999947e-01,2.255756068330679598e-01,5.147969134168218358e-02,1.656865307554760691e-01
2.449999999999999956e-01,1.980513236896406237e-01,3.530308254104085053e-02,1.420381404098607359e-01
2.459999999999999964e-01,1.705950280867561120e-01,-1.964293199256872055e-02,1.333360797109174323e-01
2.469999999999999973e-01,1.228067504504563451e-01,-3.844233949304151632e-02,1.370401433700157989e-01
2.479999999999999982e-01,9.720703297085395156e-02,-6.710061589867431786e-02,9.806695599665153640e-02
2.489999999999999991e-01,3.359688836587188671e-02,-1.148660214805129198e-01,9.951187166540145790e-02
2.500000000000000000e-01,7.729375851119184813e-03,-1.440087855338854361e-01,9.699619608624474032e-02
2.510000000000000009e-01,-9.257939414832624947e-02,-1.476393753354413585e-01,8.131522366735258189e-02
2.520000000000000018e-01,-1.024755250207069479e-01,-1.779720674314319850e-01,3.988962883255102454e-02
2.530000000000000027e-01,-1.504635438225837840e-01,-1.778348260726947960e-01,-6.740663197639659016e-03
2.540000000000000036e-01,-1.899947560488554621e-01,-2.237780600451320656e-01,-1.673798765232272640e-02
2.550000000000000044e-01,-2.426081063051849784e-01,-2.025735371300496079e-01,-4.822947465194150213e-02
2.560000000000000053e-01,-2.553715542295907914e-01,-2.088318155057654057e-01,-6.520158915954257783e-02
2.570000000000000062e-01,-2.454475382073105783e-01,-1.843247334144873795e-01,-1.101742814893996864e-01
2.580000000000000071e-01,-2.607485607552514906e-01,-1.594534885995014806e-01,-1.089712505341715321e-01
2.590000000000000080e-01,-2.730206749157987889e-01,-1.500150912760681576e-01,-1.325309834118031660e-01
2.600000000000000089e-01,-2.721547165127111145e-01,-1.568897913493425278e-01,-1.577164499742277626e-01
2.610000000000000098e-01,-2.375737222467005361e-01,-1.059544047680406331e-01,-1.581800409111410455e-01
2.620000000000000107e-01,-2.241957250502106813e-01,-2.787345704633891266e-02,-1.601535392776222144e-01
2.630000000000000115e-01,-1.822407452808353090e-01,-1.384677470946365715e-02,-1.568829319592253690e-01
2.640000000000000124e-01,-1.648988265454260083e-01,2.632494718065594985e-02,-1.625408067609604434e-01
2.650000000000000133e-01,-7.116678302465326289e-02,6.742580775121391479e-02,-1.431788890713358298e-01
2.660000000000000142e-01,-2.833805738372990185e-02,1.154129860992433865e-01,-1.042686658072530942e-01
2.670000000000000151e-01,3.122641413811705173e-03,1.493490056918632958e-01,-7.286141162359817403e-02
2.680000000000000160e-01,4.711063623762437591e-02,1.852966694600299002e-01,-7.061292832733413738e-02
2.690000000000000169e-01,1.215113922336643337e-01,2.026931311961519266e-01,-2.256583375180805720e-02
2.700000000000000178e-01,1.628836231988763372e-01,1.729799115751769201e-01,-8.164930165309784021e-03
2.710000000000000187e-01,1.769571476779278341e-01,2.317320731843653114e-01,1.159678123033535107e-03
2.720000000000000195e-01,1.928810314497345635e-01,2.213802046312440819e-01,7.444352869104164938e-02
2.730000000000000204e-01,2.394978559199562040e-01,2.123478320147693943e-01,7.175356641124443213e-02
2.740000000000000213e-01,2.704927476388619967e-01,1.885023485316713321e-01,7.041903905881964632e-02
2.750000000000000222e-01,2.865166858516997594e-01,2.155027596209796448e-01,1.007829885877874476e-01
2.760000000000000231e-01,2.396282499305511515e-01,1.301455377483171361e-01,1.557410068681512327e-01
2.770000000000000240e-01,2.575673982064715650e-01,1.088733022588581484e-01,1.568946372863638528e-01
2.780000000000000249e-01,2.151616922094633233e-01,8.006186677203017132e-02,1.353418610329275296e-01
2.790000000000000258e-01,2.059262655293633837e-01,6.888104034626370276e-02,1.562562861434482475e-01
2.800000000000000266e-01,1.947618463487767460e-01,3.657418516245082574e-02,1.498440818439196742e-01
2.810000000000000275e-01,1.358718256978300176e-01,7.503313273976812761e-03,1.566813359471723455e-01
2.819999999999999729e-01,7.316473206123216833e-02,-8.319644136373936794e-02,1.378699002663948403e-01
2.829999999999999738e-01,4.011986986571090125e-02,-9.550267415045568531e-02,1.261706528039905351e-01
2.839999999999999747e-01,1.138370008871449762e-02,-1.297069618486293985e-01,8.960580831387149336e-02
2.849999999999999756e-01,-6.969899839297023780e-02,-1.607307924536131305e-01,8.038825945899298608e-02
2.859999999999999765e-01,-1.019504459872007801e-01,-1.698941426975251190e-01,6.523937467179589944e-02
2.869999999999999774e-01,-1.468706960870249378e-01,-1.820230945268024869e-01,2.914436452248086312e-02
2.879999999999999782e-01,-1.684734259950950996e-01,-2.345103217415887564e-01,-1.725505227651424542e-02
2.889999999999999791e-01,-1.874939200925363758e-01,-2.139904499121727810e-01,-1.048766538230569423e-02
2.899999999999999800e-01,-2.642180343024435607e-01,-2.405426548577283830e-01,-6.013286693794670651e-02
2.909999999999999809e-01,-3.018437138982910106e-01,-1.889009196396023993e-01,-8.887281507329346242e-02
2.919999999999999818e-01,-2.512135562184541482e-01,-2.053260178982717343e-01,-1.064888415115933518e-01
2.929999999999999827e-01,-2.553021887003465440e-01,-1.613636902175365484e-01,-1.148084537060139881e-01
2.939999999999999836e-01,-2.823870537447151774e-01,-1.037625911592402334e-01,-1.520120770043577874e-01
2.949999999999999845e-01,-2.411475989985703561e-01,-9.585826400372207678e-02,-1.825834567075947379e-01
2.959999999999999853e-01,-2.098017662662486627e-01,-6.108063237499799375e-02,-1.528973619486801994e-01
2.969999999999999862e-01,-2.011785007472072784e-01,-1.033056961100083451e-02,-1.472400197847607006e-01
2.979999999999999871e-01,-1.619663951318641437e-01,1.473238047282488146e-02,-1.528736581181885934e-01
2.989999999999999880e-01,-1.248071541118581373e-01,7.192917201929989457e-02,-1.385786504242982053e-01
2.999999999999999889e-01,-6.019619113200275207e-02,8.159420020722298050e-02,-1.188511435323761495e-01
3.009999999999999898e-01,-1.927416211290717066e-02,1.152800046318176036e-01,-1.386304790985876667e-01
3.019999999999999907e-01,4.648791587755420063e-03,1.794119650001722299e-01,-1.032325427818281544e-01
3.029999999999999916e-01,6.884653800439292926e-02,1.892148800259072505e-01,-7.218438906191593230e-02
3.039999999999999925e-01,1.098510424445772043e-01,1.978465676929944683e-01,-3.424355128657870229e-02
3.049999999999999933e-01,1.753916113470885274e-01,2.204207940275926536e-01,-8.611172107674055706e-03
3.059999999999999942e-01,2.093235008067096115e-01,2.073054149203526764e-01,2.937812286264790754e-02
3.069999999999999951e-01,2.483829456469099362e-01,2.091902749090042146e-01,2.808627623027997594e-02
3.079999999999999960e-01,2.384965374170959496e-01,1.825519975936726880e-01,1.085197906770602044e-01
3.089999999999999969e-01,2.576222937082273678e-01,1.553323592611924320e-01,1.153531413145489209e-01
3.099999999999999978e-01,2.645526334222630949e-01,1.524215392417691550e-01,1.205109739645627426e-01
3.109999999999999987e-01,2.454103997081709954e-01,1.264954346124230189e-01,1.355595955100705741e-01
3.119999999999999996e-01,2.380284365547089276e-01,8.624456402975623492e-02,1.586982947402503508e-01
3.130000000000000004e-01,2.295144780610498259e-01,9.468534190070311551e-02,1.458159865367363028e-01
3.140000000000000013e-01,1.736123500370866934e-01,4.754458026545191340e-02,1.515912175361079361e-01
3.150000000000000022e-01,1.706047477017615388e-01,-1.154418879369333191e-02,1.318066178292265633e-01
3.160000000000000031e-01,1.207688529915590253e-01,-3.462510031911620462e-02,1.612889772666284693e-01
3.170000000000000040e-01,7.156114409086013206e-02,-1.214585828657032684e-01,1.571981466392562421e-01
3.180000000000000049e-01,6.403948155497505949e-03,-1.309156003813818636e-01,1.003144782082924652e-01
3.190000000000000058e-01,-8.893071845759088420e-03,-1.547954286880451058e-01,1.335237663366307392e-01
3.200000000000000067e-01,-5.902546357633371016e-02,-1.533637143056570673e-01,7.728219790559266722e-02
3.210000000000000075e-01,-1.118243506012782384e-01,-1.957141064740949843e-01,5.307095053418365432e-02
3.220000000000000084e-01,-1.456298194758073039e-01,-2.142966235073711367e-01,-1.739708083035131081e-02
3.230000000000000093e-01,-1.959553257288045858e-01,-1.894232055233324996e-01,6.874216644710357850e-03
3.240000000000000102e-01,-2.248325022242069759e-01,-2.064089900865757887e-01,-5.401798420455871524e-02
3.250000000000000111e-01,-2.571075292632447051e-01,-1.778473738874636889e-01,-5.190156526350778177e-02
3.260000000000000120e-01,-2.514606180768736987e-01,-1.802553780550892604e-01,-9.421266387532432895e-02
3.270000000000000129e-01,-2.569858173725115269e-01,-1.633788620423063109e-01,-1.006897021627506522e-01
3.280000000000000138e-01,-2.675060134662157196e-01,-1.292697854384603218e-01,-1.200913266853390754e-01
3.290000000000000147e-01,-2.472059268041569557e-01,-1.124474990589707513e-01,-1.431055042970211244e-01
3.300000000000000155e-01,-2.227568395942841895e-01,-4.174033952107342182e-02,-1.401337335586956834e-01
3.310000000000000164e-01,-2.076998522040539863e-01,-3.837884777834743577e-02,-1.327553561441895957e-01
3.320000000000000173e-01,-1.818942242535248610e-01,4.471803308812601248e-03,-1.429361023493454785e-01
3.330000000000000182e-01,-1.025006295223989256e-01,3.302819602067975924e-02,-1.437257725279801612e-01
3.340000000000000191e-01,-8.780326033210125725e-02,7.911154351842070165e-02,-1.624812039934368790e-01
3.350000000000000200e-01,-4.534967936700773361e-02,1.280512392910277408e-01,-1.096571105500517423e-01
3.360000000000000209e-01,-6.498946314326341234e-03,1.351253405862055945e-01,-1.202903253175075377e-01
3.370000000000000218e-01,4.273058757067003249e-02,1.567120343774748292e-01,-8.443780104823535304e-02
3.380000000000000226e-01,1.174541589932826396e-01,2.014556055195689810e-01,-6.346438579481966658e-02
3.390000000000000235e-01,1.640481616963877509e-01,2.007929087242141253e-01,-3.437177409359378627e-02
3.400000000000000244e-01,1.723582075720198059e-01,2.212969508891230730e-01,9.152918836789062859e-03
3.410000000000000253e-01,2.132690000746593484e-01,1.945633976526849052e-01,-6.799351440302634116e-03
3.420000000000000262e-01,2.371244859327986954e-01,2.105547326127531205e-01,7.234756040994133608e-02
3.430000000000000271e-01,2.624864934840921982e-01,1.717491662577800005e-01,8.858921865611188440e-02
3.439999999999999725e-01,2.776250192167412645e-01,1.926941482367299785e-01,6.582030486255754931e-02
3.449999999999999734e-01,2.628521967493326339e-01,1.379628087612181364e-01,1.121648116563635639e-01
3.459999999999999742e-01,2.312020574039197474e-01,1.063282445112753022e-01,1.426619629307949721e-01
3.469999999999999751e-01,2.229692905976071171e-01,6.356969289473123064e-02,1.431844858578259494e-01
3.479999999999999760e-01,2.033980929165787044e-01,1.943924357079871573e-02,1.512349556268343109e-01
3.489999999999999769e-01,1.783050298177758508e-01,-1.285991213462157196e-02,1.447117047233627829e-01
3.499999999999999778e-01,1.454131789355700421e-01,-5.568447608517997777e-02,1.624782765886231273e-01
3.509999999999999787e-01,1.060239242374160229e-01,-9.007282718511526454e-02,1.429178120222580894e-01
3.519999999999999796e-01,3.918045510316182922e-02,-1.028642139884857754e-01,1.205205365097104936e-01
3.529999999999999805e-01,2.704645814818114682e-02,-1.421703003092391338e-01,1.379509242458490104e-01
3.539999999999999813e-01,-2.417309237593112670e-02,-1.555605868164741390e-01,9.884148036494073974e-02
3.549999999999999822e-01,-9.794939866541758910e-02,-2.118991923189086080e-01,7.268543825265676162e-02
3.559999999999999831e-01,-1.443663148971519317e-01,-2.058362151556855368e-01,3.044635472837943849e-02
3.569999999999999840e-01,-1.831556961060770150e-01,-1.959408785807605635e-01,5.577989989222886108e-03
3.579999999999999849e-01,-2.131331433585735569e-01,-2.179998233301772559e-01,-2.070253228037762308e-02
3.589999999999999858e-01,-2.322462576774254606e-01,-1.996961205082055379e-01,-3.990565637813515282e-02
3.599999999999999867e-01,-2.479269253516658000e-01,-2.019515658428963911e-01,-9.496323255780327044e-02
3.609999999999999876e-01,-2.691207451633915171e-01,-1.519088424993836894e-01,-1.099826720655291828e-01
3.619999999999999885e-01,-2.591832084400410019e-01,-1.496154695811595936e-01,-1.156035596882421801e-01
3.629999999999999893e-01,-2.451248016553675968e-01,-9.728494582628101350e-02,-1.393331486698797805e-01
3.639999999999999902e-01,-2.414309074732571281e-01,-5.996199376648727458e-02,-1.497393012946906243e-01
3.649999999999999911e-01,-2.464350943305082531e-01,-7.297007815450644308e-02,-1.670633570414523927e-01
3.659999999999999920e-01,-1.840909115509301031e-01,3.736250472217985622e-03,-1.455542967636404561e-01
3.669999999999999929e-01,-1.740192863840577253e-01,4.809039308149754693e-02,-1.667922806552179782e-01
3.679999999999999938e-01,-1.114846719121905250e-01,8.634589217316146481e-02,-1.458822020301985267e-01
3.689999999999999947e-01,-7.552186870992458334e-02,1.154773278656551355e-01,-1.281327369076987743e-01
3.699999999999999956e-01,-9.530550085882313893e-03,1.391654811163565986e-01,-1.256678596626157052e-01
3.709999999999999964e-01,3.347996185147163878e-02,1.632770790996256050e-01,-1.053306627564808973e-01
3.719999999999999973e-01,7.748233368147801337e-02,2.178284103118878490e-01,-5.830684645642908448e-02
3.729999999999999982e-01,1.082265013513796087e-01,2.061102778019962556e-01,-6.273757284719977401e-02
3.739999999999999991e-01,1.786498384730133282e-01,2.333495049825116963e-01,-3.660921060321544601e-02
3.750000000000000000e-01,2.077266185035987478e-01,2.259728916025141032e-01,-1.135571511155518062e-02
3.760000000000000009e-01,2.181763373636394776e-01,1.924425736014447330e-01,8.215222737430276020e-03
3.770000000000000018e-01,2.469567843968382137e-01,1.896211404474929807e-01,4.139809463122862132e-02
3.780000000000000027e-01,2.958108157462613907e-01,1.456227198546448665e-01,8.536056097162147971e-02
3.790000000000000036e-01,2.680065360668781316e-01,1.427498901020333166e-01,1.198225159755751806e-01
3.800000000000000044e-01,2.696058790102857650e-01,1.155364705780867474e-01,1.396155925348481208e-01
3.810000000000000053e-01,2.430963551296537739e-01,6.061357612170591852e-02,1.248300927833816687e-01
3.820000000000000062e-01,2.280130593361519298e-01,1.776703857742402415e-02,1.478121531451618009e-01
3.830000000000000071e-01,1.886296131500551365e-01,-1.739946205582702798e-02,1.609221200694202214e-01
3.840000000000000080e-01,1.708284714370191526e-01,-4.398059517176055450e-02,1.806536744068708289e-01
3.850000000000000089e-01,1.271030738576302832e-01,-8.903558613036710589e-02,1.547781977639356987e-01
3.860000000000000098e-01,7.931081265047641715e-02,-1.344261706261664913e-01,1.431395727403963480e-01
3.870000000000000107e-01,1.345706365228493268e-02,-1.434592407811659809e-01,1.248045645797449255e-01
3.880000000000000115e-01,-2.861383958861126939e-02,-1.906602090975689223e-01,1.046350123829120488e-01
3.890000000000000124e-01,-9.080347026318021098e-02,-2.301439813198882522e-01,9.509094938004743203e-02
3.900000000000000133e-01,-1.266184653675437310e-01,-1.854414012357482322e-01,8.759848339527838423e-02
3.910000000000000142e-01,-1.298989199980808418e-01,-2.225338370928793275e-01,3.762189362455624353e-02
3.920000000000000151e-01,-1.949306991829246327e-01,-2.120356122351031436e-01,3.626785086237278161e-02
3.930000000000000160e-01,-2.280368838856252911e-01,-1.971228235616390156e-01,-3.522512970643162239e-02
3.940000000000000169e-01,-2.337571199503898356e-01,-1.735402279511327750e-01,-5.208409431840262116e-02
3.950000000000000178e-01,-2.697189703954743223e-01,-1.556735789029838890e-01,-6.356010362000001634e-02
3.960000000000000187e-01,-2.838446049362332024e-01,-1.189271248028247047e-01,-1.098402359616417467e-01
3.970000000000000195e-01,-2.552044588462636932e-01,-1.240545555299545910e-01,-1.212644581061688709e-01
3.980000000000000204e-01,-2.488485724041634428e-01,-8.148370696527353074e-02,-1.146853564169858647e-01
3.990000000000000213e-01,-2.084840556215876717e-01,-5.698006419738300965e-02,-1.423366357856151176e-01
4.000000000000000222e-01,-1.827475682410040492e-01,1.945429492130979973e-02,-1.379689793993613689e-01
4.010000000000000231e-01,-1.863132136975754471e-01,4.618029177583855838e-02,-1.537883093047174854e-01
4.020000000000000240e-01,-1.137342897127036484e-01,7.311089353994237872e-02,-1.690586059675316666e-01
4.030000000000000249e-01,-7.614016617019167543e-02,8.551728660091652279e-02,-1.486326577215159594e-01
4.040000000000000258e-01,-2.247119425551884209e-02,1.602379964821365466e-01,-1.134243497462463640e-01
4.050000000000000266e-01,2.676811812110066555e-03,1.817033705846206604e-01,-1.200304663179147385e-01
4.060000000000000275e-01,4.828850242708305346e-02,1.736565178061400261e-01,-8.722457872254785194e-02
4.069999999999999729e-01,1.312338396148902686e-01,1.927289159467875657e-01,-5.524585028570008771e-02
4.079999999999999738e-01,1.681259098855725220e-01,2.086075688346935852e-01,-5.496754836096594266e-02
4.089999999999999747e-01,1.714254607099451877e-01,1.863860807509901962e-01,1.292623934533750595e-02
4.099999999999999756e-01,1.967617137910888103e-01,2.064441004691525139e-01,2.161285511832697001e-02
4.109999999999999765e-01,2.377443264594654992e-01,1.906060025182351181e-01,2.586875401080311263e-02
4.119999999999999774e-01,2.458262608106732139e-01,1.576825249360863934e-01,4.776146314887511068e-02
4.129999999999999782e-01,2.731092543607027689e-01,1.240218386644081489e-01,8.203810198906910656e-02
4.139999999999999791e-01,2.537413716450185319e-01,1.040368412781524504e-01,1.223170356401226677e-01
4.149999999999999800e-01,2.435727490383863825e-01,9.030629250741123437e-02,1.228395296392960079e-01
4.159999999999999809e-01,2.364292785440228750e-01,2.969985225065869053e-02,1.204038855065261149e-01
4.169999999999999818e-01,2.098435672539873953e-01,9.368360908183801655e-03,1.498320880217318407e-01
4.179999999999999827e-01,1.779259061974427236e-01,-3.412687729240097140e-02,1.544140782455435401e-01
4.189999999999999836e-01,1.716231620994267681e-01,-7.434013527826879852e-02,1.661638551439384992e-01
4.199999999999999845e-01,8.213461553114223546e-02,-1.222180389304742681e-01,1.578082301645957752e-01
4.209999999999999853e-01,7.656906725997283947e-02,-1.470818659967152164e-01,1.498041480275564552e-01
4.219999999999999862e-01,-6.304481793535182677e-03,-1.612927716874403006e-01,1.424513226750532824e-01
4.229999999999999871e-01,-6.151871784965412537e-02,-1.734320715329452089e-01,1.119259192181897289e-01
4.239999999999999880e-01,-1.141015124613320858e-01,-2.094421686118129733e-01,9.958866836539700951e-02
4.249999999999999889e-01,-1.116853336106898714e-01,-2.338206813635496928e-01,5.284009893128495394e-02
4.259999999999999898e-01,-1.622957190507780256e-01,-2.154754048276865952e-01,1.863041840640704272e-02
4.269999999999999907e-01,-2.037665108793755009e-01,-2.033266204715177827e-01,1.142313514964147722e-02
4.279999999999999916e-01,-2.175078696968532621e-01,-1.804609594102087877e-01,-3.251203286123734767e-03
4.289999999999999925e-01,-2.327933299383418142e-01,-1.768351596943103510e-01,-5.548735220322543321e-02
4.299999999999999933e-01,-2.544192525446531961e-01,-1.444708622477527682e-01,-6.928822229763302587e-02
4.309999999999999942e-01,-2.578266624938272966e-01,-1.053611183089237929e-01,-1.192546024352711537e-01
4.319999999999999951e-01,-2.475797095891650312e-01,-1.022239485307353812e-01,-1.114460680428418365e-01
4.329999999999999960e-01,-2.798484300984258599e-01,-4.129820920544202689e-02,-1.183987078600518966e-01
4.339999999999999969e-01,-1.702614454921140830e-01,-3.107353231376934304e-03,-1.515589744499712677e-01
4.349999999999999978e-01,-2.142795977506747052e-01,3.091259394606482233e-02,-1.770286982576927681e-01
4.359999999999999987e-01,-1.428597818379630513e-01,8.243604134808332762e-02,-1.525130406916140602e-01
4.369999999999999996e-01,-1.017941286289597014e-01,8.113011192961805396e-02,-1.341604584662630661e-01
4.380000000000000004e-01,-7.341840680255598550e-02,1.189813365874729800e-01,-1.661368175823504101e-01
4.390000000000000013e-01,-1.512977041166429365e-02,1.606988236029898987e-01,-1.275475045339490854e-01
4.400000000000000022e-01,3.698299457079616548e-02,1.979850507197603027e-01,-1.328791224973943086e-01
4.410000000000000031e-01,7.585058891640621137e-02,2.141405458701704234e-01,-7.097495152516183903e-02
4.420000000000000040e-01,1.239095057888959794e-01,1.868523424688975920e-01,-4.793562397063436814e-02
4.430000000000000049e-01,1.677720843079478774e-01,2.179934912635413391e-01,-7.122461774510070731e-02
4.440000000000000058e-01,2.158668139202423453e-01,2.301074851142636823e-01,-9.399529915567651425e-03
4.450000000000000067e-01,2.147449387360072792e-01,2.140353602478131667e-01,2.400197771933768043e-02
4.460000000000000075e-01,2.473259226393499099e-01,1.629957017382411832e-01,3.921878718046416246e-02
4.470000000000000084e-01,2.537549453435025693e-01,1.557602629681312523e-01,6.389199511664070408e-02
4.480000000000000093e-01,2.700419066291129266e-01,1.250087308785317597e-01,7.074946952847799286e-02
4.490000000000000102e-01,2.783149738091081904e-01,6.448818602771239084e-02,1.202545572624402342e-01
4.500000000000000111e-01,2.465437813391201938e-01,5.004783226890953396e-02,1.719467642634455729e-01
4.510000000000000120e-01,2.166305591357314819e-01,1.885477604513937375e-03,1.560761200737333654e-01
4.520000000000000129e-01,1.918391342712827408e-01,-3.576859308085290901e-02,1.499384218655983314e-01
4.530000000000000138e-01,1.426221346862871497e-01,-5.352970867924927711e-02,1.705127637301530885e-01
4.540000000000000147e-01,1.246402159603561821e-01,-9.774538896106116370e-02,1.775308597888562157e-01
4.550000000000000155e-01,7.352549130704054414e-02,-1.342109752270341794e-01,1.539245705509000028e-01
4.560000000000000164e-01,-1.023862113168884196e-02,-1.502760757256884905e-01,1.670662174556197810e-01
4.570000000000000173e-01,-1.927487720155546605e-02,-1.844458663017803646e-01,1.392072797954916896e-01
4.580000000000000182e-01,-8.820613501243640409e-02,-2.393847339482453873e-01,8.561676367179874014e-02
4.590000000000000191e-01,-1.005140316223749608e-01,-2.031839347823296005e-01,7.692000217609736012e-02
4.600000000000000200e-01,-1.437596603079772661e-01,-2.125485818532709403e-01,5.780353016755024331e-02
4.610000000000000209e-01,-1.912259777406591088e-01,-1.854839307387775027e-01,9.173604171636276505e-03
4.620000000000000218e-01,-1.944445664271661212e-01,-1.863810759092268399e-01,-5.693776923867530440e-03
4.630000000000000226e-01,-2.249337334976034830e-01,-1.790206468723860855e-01,-3.213904315873286621e-02
4.640000000000000235e-01,-2.628065930182383880e-01,-1.233949099099683894e-01,-4.361675900176802817e-02
4.650000000000000244e-01,-2.708353594952118693e-01,-1.222223798772588410e-01,-8.463651151435422348e-02
4.660000000000000253e-01,-2.409980567404610419e-01,-7.592995445749224637e-02,-1.121298621375549226e-01
4.670000000000000262e-01,-2.464823789525855957e-01,-4.498002338896008728e-02,-1.183641480245788968e-01
4.680000000000000271e-01,-2.260477449869816302e-01,-3.942578314289632048e-03,-1.642214047032082846e-01
4.689999999999999725e-01,-2.032377009507139454e-01,2.520337080590918932e-02,-1.573958641153317684e-01
4.699999999999999734e-01,-1.377228533324957871e-01,6.258410853605607393e-02,-1.680754257126959306e-01
4.709999999999999742e-01,-1.384564144314458511e-01,7.956811312201907127e-02,-1.606339202077109174e-01
4.719999999999999751e-01,-5.799141139762298974e-02,1.479217232305929108e-01,-1.637703572688481990e-01
4.729999999999999760e-01,-3.104406727866072455e-02,1.634623892836685466e-01,-1.539421287372078062e-01
4.739999999999999769e-01,1.916307829656551179e-02,1.608481559620929258e-01,-1.170056564834099644e-01
4.749999999999999778e-01,6.172976213546801927e-02,2.116259330560017748e-01,-1.177265851396242374e-01
4.759999999999999787e-01,8.997277384614460471e-02,1.996087057901255457e-01,-1.033368031584862290e-01
4.769999999999999796e-01,1.670888898972189285e-01,1.976341161277179181e-01,-6.396402779420527762e-02
4.779999999999999805e-01,1.794244473196471568e-01,2.126874080987959381e-01,-5.165685938027025220e-02
4.789999999999999813e-01,2.471115942888698069e-01,2.199534778920354816e-01,-4.965713384247467249e-03
4.799999999999999822e-01,2.265596160230671785e-01,1.873388148475695070e-01,3.954850351301508055e-03
4.809999999999999831e-01,2.536688141166789090e-01,1.495794883280464338e-01,3.783012882160540630e-02
4.819999999999999840e-01,2.694790567368792189e-01,1.064832291145797888e-01,7.612006236034510320e-02
4.829999999999999849e-01,2.747002531452762408e-01,5.484110759690234704e-02,7.287326325949716743e-02
4.839999999999999858e-01,2.463509673234494934e-01,4.684741212147264938e-02,1.023761790334121319e-01
4.849999999999999867e-01,2.850943155129615492e-01,1.515566080033268863e-02,1.077338546446501566e-01
4.859999999999999876e-01,2.232066378616251456e-01,-2.490019072446685369e-02,1.507655074992504396e-01
4.869999999999999885e-01,1.963860221813910067e-01,-7.454366151002843333e-02,1.601606433675643038e-01
4.879999999999999893e-01,1.246895805878922708e-01,-9.852390515562804707e-02,1.886315519627349835e-01
4.889999999999999902e-01,8.626164935658904576e-02,-1.313640059450772168e-01,1.690846391719814379e-01
4.899999999999999911e-01,5.157302009748338661e-02,-1.691670054551230595e-01,1.402173355756685669e-01
4.909999999999999920e-01,1.160228627870953273e-03,-1.962832230155656943e-01,1.475180714697912343e-01
4.919999999999999929e-01,-2.840253300178744930e-02,-2.203487546527454766e-01,1.229736875206951796e-01
4.929999999999999938e-01,-1.016929047084282611e-01,-2.076230525844046382e-01,7.020106372677267781e-02
4.939999999999999947e-01,-1.257006468700039015e-01,-2.204413313048492473e-01,8.192191830846529133e-02
4.949999999999999956e-01,-1.948412672690258973e-01,-2.067926411171112366e-01,6.803551449513178806e-02
4.959999999999999964e-01,-2.187368573007915651e-01,-2.139391853258686971e-01,4.653793372365751940e-02
4.969999999999999973e-01,-2.091356255879442960e-01,-1.622961798230914687e-01,-4.932448001645002578e-03
4.979999999999999982e-01,-2.389546288028051302e-01,-1.529742040239881196e-01,-2.036034941378520730e-02
4.989999999999999991e-01,-2.621492065640265157e-01,-1.522924693712924549e-01,-4.459987175471493565e-02
5.000000000000000000e-01,-2.732930063608163818e-01,-9.090248873421381826e-02,-8.968442049089538071e-02
5.010000000000000009e-01,-2.503678556650715259e-01,-6.345321180153941365e-02,-1.204057214767787209e-01
5.020000000000000018e-01,-2.234729325049689685e-01,-4.584054396250536456e-02,-1.259164740799379456e-01
5.030000000000000027e-01,-2.377494080818262634e-01,3.011488725577469647e-02,-1.448184355231295628e-01
5.040000000000000036e-01,-1.986732037578850252e-01,8.085054594206413092e-02,-1.754664918531629869e-01
5.050000000000000044e-01,-1.484014957933176282e-01,1.040039473641235224e-01,-1.587322900429808115e-01
5.060000000000000053e-01,-1.300884378709745992e-01,1.254103291307234747e-01,-1.634076100963520184e-01
5.070000000000000062e-01,-4.153659254662479122e-02,1.412022133605263796e-01,-1.421461525984777652e-01
5.080000000000000071e-01,-1.018181252673109596e-03,1.743912946626508531e-01,-1.684199333650025499e-01
5.090000000000000080e-01,1.230248874012894109e-02,2.215345555304267799e-01,-1.370586462356284951e-01
5.100000000000000089e-01,7.742271064595052099e-02,2.427230905838309305e-01,-1.119002180912488237e-01
5.110000000000000098e-01,1.326169731639837424e-01,2.207917266916217813e-01,-7.365931473480082092e-02
5.120000000000000107e-01,1.452003411627560969e-01,1.922745169622599448e-01,-8.494349694066261058e-02
5.130000000000000115e-01,2.087415093060639437e-01,1.760632404394752437e-01,-1.068238055004318288e-02
5.140000000000000124e-01,2.347153774739588195e-01,1.527167783250850397e-01,2.320706828822821643e-03
5.150000000000000133e-01,2.398486814979084725e-01,1.415238484025228560e-01,2.797338298513519020e-02
5.160000000000000142e-01,2.567123174249895112e-01,1.267713066028307300e-01,4.465802368881155449e-02
5.170000000000000151e-01,2.652404027864103675e-01,1.046397842595972322e-01,4.359164647088856898e-02
5.180000000000000160e-01,2.698372966895152825e-01,5.983356824505567384e-02,1.113555599369633886e-01
5.190000000000000169e-01,2.528093558690265863e-01,1.237345481731189599e-02,1.266240285186268633e-01
5.200000000000000178e-01,2.278602978261978496e-01,-5.954435615829707651e-03,1.453621940976248250e-01
5.210000000000000187e-01,2.120711124440550766e-01,-6.830386529688779740e-02,1.515782286968211656e-01
5.220000000000000195e-01,1.431519372460782757e-01,-8.486927003823520332e-02,1.456875313200639011e-01
5.230000000000000204e-01,1.161356695572647729e-01,-1.209604063540942881e-01,1.580752324493740479e-01
5.240000000000000213e-01,5.237547927604425252e-02,-1.577707781502449558e-01,1.683777909853687582e-01
5.250000000000000222e-01,2.250681495027578166e-02,-1.780048169010660652e-01,1.495835293741768768e-01
5.260000000000000231e-01,-6.172157907474643337e-03,-2.138723279565782620e-01,1.298616847000645946e-01
5.270000000000000240e-01,-6.879494035237121441e-02,-1.994560206429952520e-01,1.168266468255933083e-01
5.280000000000000249e-01,-1.017537496480441089e-01,-2.025747631779412361e-01,1.151699490067168846e-01
5.290000000000000258e-01,-1.432836966398568779e-01,-2.225734485550235064e-01,7.918976256478700571e-02
5.300000000000000266e-01,-2.071935791169051133e-01,-1.755921979434972580e-01,4.822011417229672692e-02
5.310000000000000275e-01,-2.139896403017561011e-01,-2.237458795880326035e-01,1.757164802397535863e-02
5.320000000000000284e-01,-2.090941385047005996e-01,-1.378917990075369249e-01,7.309477725331111134e-03
5.330000000000000293e-01,-2.566190617941134788e-01,-1.211035797021746685e-01,-5.386599448279418695e-02
5.340000000000000302e-01,-2.721324553890535625e-01,-1.074517120363689404e-01,-5.598879417188056679e-02
5.350000000000000311e-01,-2.643567146014529357e-01,-7.025604065853066627e-02,-9.076632479244331475e-02
5.360000000000000320e-01,-2.552370050575664684e-01,-8.030628023324909437e-03,-1.087800502980498102e-01
5.370000000000000329e-01,-2.276207226190434807e-01,1.904480529023515681e-02,-1.276767943881641498e-01
5.380000000000000338e-01,-2.179781245619678565e-01,4.463060163212291542e-02,-1.425623976214235866e-01
5.390000000000000346e-01,-1.531318316104445243e-01,7.501128202546318569e-02,-1.470973033356177684e-01
5.400000000000000355e-01,-1.147606044435477007e-01,1.201457722724317001e-01,-1.685827955531427613e-01
5.410000000000000364e-01,-7.881324044615559132e-02,1.742941833252441841e-01,-1.384552331354350629e-01
5.420000000000000373e-01,-2.505188232217353886e-02,1.920444255050384463e-01,-1.469110864475942912e-01
5.430000000000000382e-01,1.724896929227566836e-02,1.799119178699946919e-01,-1.465326309725990539e-01
5.440000000000000391e-01,2.513495609188362914e-02,2.099307632242298216e-01,-1.285212168648288689e-01
5.450000000000000400e-01,1.074171786678416174e-01,2.194303509280144671e-01,-9.409304904818704962e-02
5.460000000000000409e-01,1.769605568248906469e-01,2.016611179780566643e-01,-7.831542681111032522e-02
5.470000000000000417e-01,1.829756180589144077e-01,1.969936265996576341e-01,-5.918918958405817304e-02
5.480000000000000426e-01,2.070283930187640786e-01,2.079758596509753976e-01,-1.445117671916123711e-02
5.490000000000000435e-01,2.275073162735622989e-01,1.515600287500014909e-01,-2.850821105588555865e-02
5.500000000000000444e-01,2.527605448767254459e-01,1.068241808058412873e-01,2.257025822505942178e-02
5.510000000000000453e-01,2.642930614551151636e-01,9.470371407952977993e-02,8.763909406571444849e-02
5.520000000000000462e-01,2.492790159345856793e-01,5.812067173171484719e-02,9.571131705223845376e-02
5.530000000000000471e-01,2.559467905229926288e-01,3.536284340759122957e-02,1.180777310638945615e-01
5.540000000000000480e-01,2.497915325909776385e-01,-2.627379466026511998e-02,1.346406046606353490e-01
5.550000000000000488e-01,2.096979913499126824e-01,-7.009897974192833003e-02,1.483776025972785850e-01
5.560000000000000497e-01,1.955238657904069532e-01,-9.640258550901496803e-02,1.443503709226390264e-01
5.570000000000000506e-01,1.216476877765282349e-01,-1.044871463998357508e-01,1.686947562815670487e-01
5.580000000000000515e-01,8.603806813846003043e-02,-1.489591064949625510e-01,1.558743063109205296e-01
5.590000000000000524e-01,3.539943682293091726e-02,-1.579808406665126341e-01,1.744335498387072358e-01
5.600000000000000533e-01,6.318892020528565391e-03,-1.795018027399055693e-01,1.605050723972920867e-01
5.610000000000000542e-01,-5.157136099566671239e-02,-1.914764581458943959e-01,1.113368041497910937e-01
5.620000000000000551e-01,-7.800050121285828642e-02,-2.483581375885756948e-01,1.321586186967645959e-01
5.629999999999999449e-01,-1.387899351629546252e-01,-1.937627558315636600e-01,1.010883596027278841e-01
5.639999999999999458e-01,-1.956990609158013872e-01,-2.309782762794773681e-01,6.577811525667826009e-02
5.649999999999999467e-01,-2.009919950425329560e-01,-1.826144382592996829e-01,2.826235977325823254e-02
5.659999999999999476e-01,-2.444539844963471986e-01,-1.641108523875029479e-01,-1.305966094966684587e-02
5.669999999999999485e-01,-2.664024684696162937e-01,-1.299490589266350526e-01,1.872416645215475156e-02
5.679999999999999494e-01,-2.898955710697205257e-01,-1.023887070331494509e-01,-2.272755262867382983e-02
5.689999999999999503e-01,-2.645634353453349408e-01,-5.535510232811216569e-02,-7.717418314090676579e-02
5.699999999999999512e-01,-2.796877116040925038e-01,-4.562630250783901442e-02,-1.113013559414139375e-01
5.709999999999999520e-01,-2.233883487654058642e-01,4.052486839573158500e-02,-9.745770936225332803e-02
5.719999999999999529e-01,-2.453389853795109876e-01,8.198283176552700890e-02,-1.299306144196130663e-01
5.729999999999999538e-01,-2.084170115143081925e-01,6.197302724207550545e-02,-1.785097101411813048e-01
5.739999999999999547e-01,-1.579082795065330780e-01,1.201315403028214435e-01,-1.243523465335463901e-01
5.749999999999999556e-01,-8.067500702327240480e-02,1.202013698435474426e-01,-1.608960807863978049e-01
5.759999999999999565e-01,-5.393563783601261485e-02,1.819805863098017673e-01,-1.404375041307983907e-01
5.769999999999999574e-01,-3.914683319653503024e-02,1.826194270259880181e-01,-1.787010107177520735e-01
5.779999999999999583e-01,4.532103592630162131e-02,2.181534434285718749e-01,-1.312446881226753403e-01
5.789999999999999591e-01,8.066286900723870779e-02,2.248359417935880955e-01,-1.558717338570606292e-01
5.799999999999999600e-01,1.491924470563511240e-01,1.977126023427587254e-01,-1.170111968332575997e-01
5.809999999999999609e-01,1.587336760726794360e-01,2.085227910445746902e-01,-3.770927636248355003e-02
5.819999999999999618e-01,2.125730143006753781e-01,1.989982477430247698e-01,-5.065235999739680500e-02
5.829999999999999627e-01,2.304651588442564181e-01,1.589902081586326010e-01,-2.587503205154225230e-02
5.839999999999999636e-01,2.494644446057796838e-01,1.379661043463817904e-01,6.013324275968613859e-03
5.849999999999999645e-01,2.658510969948352232e-01,8.280532728667996945e-02,4.461701111164207562e-02
5.859999999999999654e-01,2.713056075380956278e-01,5.936307533931594466e-02,4.546302861384143856e-02
5.869999999999999662e-01,2.591177198991715946e-01,1.604023582407141518e-02,1.106358636106812704e-01
5.879999999999999671e-01,2.196825278305561402e-01,2.025998853448291587e-02,9.235151837233557259e-02
5.889999999999999680e-01,2.237268196789817531e-01,-3.642492376557342898e-02,1.267324893263687136e-01
5.899999999999999689e-01,1.860926866715954531e-01,-7.397434281248700672e-02,1.511592778222969058e-01
5.909999999999999698e-01,1.382751165034722673e-01,-9.260205884474237426e-02,1.389755357775977751e-01
5.919999999999999707e-01,1.303407721714669176e-01,-1.329221810821243632e-01,1.532284856053511279e-01
5.929999999999999716e-01,8.222999095251884438e-02,-1.895317603508711035e-01,1.426031705436031916e-01
5.939999999999999725e-01,2.565133607134217203e-02,-2.193607818696143019e-01,1.321542249705362493e-01
5.949999999999999734e-01,-2.859739255345019465e-02,-2.187361020108575527e-01,1.636279519644199265e-01
5.959999999999999742e-01,-7.347509068550760192e-02,-2.109001152959780467e-01,1.210770998297485551e-01
5.969999999999999751e-01,-1.250101211737990325e-01,-2.291597271807707947e-01,1.195357220320686364e-01
5.979999999999999760e-01,-1.598119524996304552e-01,-1.908188827875517413e-01,8.418555015424344923e-02
5.989999999999999769e-01,-1.632599908281218148e-01,-1.910242250273894438e-01,8.440696187721630217e-02
5.999999999999999778e-01,-2.463229008325991121e-01,-1.531769165200911886e-01,4.298351044611462002e-02
6.009999999999999787e-01,-2.472551868581551737e-01,-1.461362564470952419e-01,4.079813656334757566e-02
6.019999999999999796e-01,-2.818850039731026214e-01,-7.450297792333306079e-02,-2.738231406319786843e-02
6.029999999999999805e-01,-2.488231716741317878e-01,-5.424252511287470241e-02,-6.270708131256982898e-02
6.039999999999999813e-01,-2.705884924676047465e-01,-2.995365931517642022e-02,-8.735435399664871758e-02
6.049999999999999822e-01,-2.288772412046787552e-01,1.969052886094763838e-02,-1.020457724903295199e-01
6.059999999999999831e-01,-2.357197944253542621e-01,7.469212735690038130e-02,-1.019874833264469427e-01
6.069999999999999840e-01,-2.130222030318696114e-01,8.712840665441973220e-02,-1.241409504501148897e-01
6.079999999999999849e-01,-1.786455874846955838e-01,1.086488200800070081e-01,-1.379539043004036070e-01
6.089999999999999858e-01,-1.415331175072352676e-01,1.706939836108619934e-01,-1.518248874483680566e-01
6.099999999999999867e-01,-6.686087405900346947e-02,1.628792569626748843e-01,-1.698399665603388120e-01
6.109999999999999876e-01,-1.793930995853989380e-02,1.905227129625206850e-01,-1.830907199642583250e-01
6.119999999999999885e-01,7.669234721649741951e-05,2.047926092035894929e-01,-1.553555203879844193e-01
6.129999999999999893e-01,5.459349397649564811e-02,2.136389814006734167e-01,-1.229170425811773187e-01
6.139999999999999902e-01,8.553694439684966788e-02,2.017665651951900674e-01,-1.131322001135464106e-01
6.149999999999999911e-01,1.404129166144772178e-01,2.088356456162760444e-01,-1.046788862242382517e-01
6.159999999999999920e-01,2.059575263391586752e-01,1.833598022890177703e-01,-6.480387959679184684e-02
6.169999999999999929e-01,2.447269637262465825e-01,1.902664738560885804e-01,-3.595466026725051278e-02
6.179999999999999938e-01,2.539508497135868903e-01,1.514096861330576083e-01,-2.548331417252016479e-02
6.189999999999999947e-01,2.640167582705885141e-01,9.268904465526937864e-02,2.767504366108182803e-02
6.199999999999999956e-01,2.840009281059371893e-01,6.611123570304230923e-02,6.236928137854205051e-02
6.209999999999999964e-01,2.485839921205378056e-01,2.506475326745063320e-02,6.442206728955991724e-02
6.219999999999999973e-01,2.437625984247371036e-01,-1.791104430669829273e-02,8.124956276572102565e-02
6.229999999999999982e-01,2.402904831286701848e-01,-5.616883831160311702e-02,1.013460878873939097e-01
6.239999999999999991e-01,1.959553669048368363e-01,-6.634915636430961661e-02,1.026928019499056821e-01
6.250000000000000000e-01,1.772660229567664114e-01,-1.052143990081410574e-01,1.484666059820624884e-01
6.260000000000000009e-01,1.431190062100557159e-01,-1.424687677506253913e-01,1.602970047666855691e-01
6.270000000000000018e-01,8.676762679529345657e-02,-1.685151008007856888e-01,1.672067711883582497e-01
6.280000000000000027e-01,4.525634477902221869e-02,-1.708084580953211917e-01,1.544486874953215905e-01
6.290000000000000036e-01,-8.588075782234921504e-04,-2.127598044732441074e-01,1.532811908723080707e-01
6.300000000000000044e-01,-4.032597292318234466e-02,-2.060554702693194462e-01,1.480639709251570513e-01
6.310000000000000053e-01,-1.064494185606379983e-01,-2.068968125990557627e-01,1.309232976518873159e-01
6.320000000000000062e-01,-1.193299687437706369e-01,-2.195741825618955922e-01,1.143689676357347029e-01
6.330000000000000071e-01,-1.548177782900624633e-01,-1.772351408035646447e-01,1.102497042530379973e-01
6.340000000000000080e-01,-2.372182157182136375e-01,-1.547749997218202667e-01,4.264817691468406752e-02
6.350000000000000089e-01,-2.472077448170260094e-01,-1.192968324409111186e-01,5.774463759851045791e-02
6.360000000000000098e-01,-2.424315707380610141e-01,-9.848106623877142529e-02,1.186666092713312311e-02
6.370000000000000107e-01,-2.681725557406680061e-01,-6.982058354435027869e-02,-7.075639180457112681e-03
6.380000000000000115e-01,-2.699563463245969186e-01,-5.951624544212413132e-02,-6.169620178155464651e-02
6.390000000000000124e-01,-2.661631153039107911e-01,1.128220397413177457e-02,-8.263847936336975175e-02
6.400000000000000133e-01,-2.598619774020645701e-01,5.475865441079287577e-03,-1.127051291082568768e-01
6.410000000000000142e-01,-2.164989823056179541e-01,4.410537167492967203e-02,-1.321270632459539129e-01
6.420000000000000151e-01,-1.628904624824860370e-01,1.087062555969443567e-01,-1.206615547237744890e-01
6.430000000000000160e-01,-1.355954777774724673e-01,1.325263885980118572e-01,-1.441500012042627732e-01
6.440000000000000169e-01,-1.344124231224124166e-01,1.668753145954544603e-01,-1.426502561851621664e-01
6.450000000000000178e-01,-2.770246347077875981e-02,1.938602822056424424e-01,-1.557881123138024348e-01
6.460000000000000187e-01,-2.907587223472438143e-02,2.306938093522446775e-01,-1.757753773597090785e-01
6.470000000000000195e-01,3.929543106685801784e-02,1.961632190797641673e-01,-1.563293808495868353e-01
6.480000000000000204e-01,9.927406125108512169e-02,2.303408068793632579e-01,-1.272655047497942837e-01
6.490000000000000213e-01,1.171443643792422773e-01,1.777033765208176630e-01,-1.229351722856626694e-01
6.500000000000000222e-01,1.640950364366547121e-01,1.865961149148658016e-01,-9.927569718768289309e-02
6.510000000000000231e-01,2.136460797401955047e-01,1.471722719320380235e-01,-9.651281650033831372e-02
6.520000000000000240e-01,2.416803371730661121e-01,1.337163558655750650e-01,-3.863247952526631390e-02
6.530000000000000249e-01,2.558625110515458378e-01,1.304996693026573007e-01,-2.382096970077321116e-02
6.540000000000000258e-01,2.608086381642567009e-01,9.014383003109592563e-02,2.803454273254478088e-02
6.550000000000000266e-01,2.497905197438927416e-01,3.375212940971279024e-02,2.224598511541408044e-02
6.560000000000000275e-01,2.648388663047981373e-01,1.930861950856473802e-02,6.798956763020280736e-02
6.570000000000000284e-01,2.395073675134074542e-01,-6.174969886503655497e-02,1.044741296102449507e-01
6.580000000000000293e-01,2.345997236365699457e-01,-6.299083276301284395e-02,1.157221508324886017e-01
6.590000000000000302e-01,1.993798132342615714e-01,-1.158689178572893802e-01,1.160840615927015429e-01
6.600000000000000311e-01,1.856086294977038753e-01,-1.585645813465601794e-01,1.278012496256256403e-01
6.610000000000000320e-01,1.059636701933492769e-01,-1.828704037808248917e-01,1.251707274032694273e-01
6.620000000000000329e-01,8.711007970713587067e-02,-2.088542787776424270e-01,1.523446492710884836e-01
6.630000000000000338e-01,1.965721866488561159e-03,-1.893633530596606496e-01,1.552429342651525379e-01
6.640000000000000346e-01,-2.202934549145096552e-02,-2.198554677430293591e-01,1.343243163216042424e-01
6.650000000000000355e-01,-8.436094561547886894e-02,-2.026058617852169175e-01,1.570324422296560385e-01
6.660000000000000364e-01,-1.336476705552936961e-01,-1.879854708821435683e-01,1.032601953486262103e-01
6.670000000000000373e-01,-1.505919481296396634e-01,-1.805819209469857745e-01,9.416737915563773431e-02
6.680000000000000382e-01,-1.970272999428542837e-01,-1.733563325430779734e-01,8.006321037152343278e-02
6.690000000000000391e-01,-2.202961718452222384e-01,-1.570656947337294440e-01,5.649719178820081233e-02
6.700000000000000400e-01,-2.603995159987602115e-01,-1.186989993045057534e-01,2.866815582697487472e-02
6.710000000000000409e-01,-2.706179190875268592e-01,-7.566776897970217686e-02,4.332174676671105701e-03
6.720000000000000417e-01,-2.485445896738793237e-01,-3.025029504676372480e-02,-4.265261942823415225e-02
6.730000000000000426e-01,-2.546960362734455585e-01,1.970475739527666539e-02,-5.725753336617731004e-02
6.740000000000000435e-01,-2.391736304122810408e-01,2.614145939078653391e-02,-7.916248654267289686e-02
6.750000000000000444e-01,-2.132849398288167442e-01,6.416391952827368850e-02,-1.058538552172939851e-01
6.760000000000000453e-01,-2.114971684451293077e-01,1.161665773395887669e-01,-1.113411291482902243e-01
6.770000000000000462e-01,-1.231694854821406560e-01,1.349970760683535664e-01,-1.301486992231772888e-01
6.780000000000000471e-01,-1.078042072906949811e-01,1.523048231268285535e-01,-1.713436372900825067e-01
6.790000000000000480e-01,-7.705457653152864017e-02,1.758566430326185259e-01,-1.409944816579531690e-01
6.800000000000000488e-01,-7.342336258278671542e-03,2.173172232987454211e-01,-1.309154165656130353e-01
6.810000000000000497e-01,2.757660239382160594e-02,1.703523280784206284e-01,-1.439513116693378336e-01
6.820000000000000506e-01,4.980582938805349497e-02,2.147335480397006002e-01,-1.642869388830451582e-01
6.830000000000000515e-01,1.176604707611172973e-01,1.885490213023141848e-01,-1.056453782618195086e-01
6.840000000000000524e-01,1.664782906936849161e-01,1.807698169807044064e-01,-1.178029819836853981e-01
6.850000000000000533e-01,1.677527853346021391e-01,1.804497081103944578e-01,-9.673649092959481222e-02
6.860000000000000542e-01,2.131491054770763838e-01,1.421184967915982422e-01,-4.593334839518001950e-02
6.870000000000000551e-01,2.275898563617919368e-01,1.167012692729722106e-01,-4.523057961194888732e-02
6.879999999999999449e-01,2.558193305621453417e-01,9.501632145599224477e-02,-2.125261259864517742e-03
6.889999999999999458e-01,2.579889643002133415e-01,7.018159262708373314e-02,5.977498201553047182e-03
6.899999999999999467e-01,2.571378497106863725e-01,-3.905384538061963499e-03,3.551730145856108606e-02
6.909999999999999476e-01,2.770233425902793312e-01,-4.517255379125154763e-02,7.281101525707311950e-02
6.919999999999999485e-01,2.162989102574878753e-01,-7.664398178940567963e-02,9.329406416618356290e-02
6.929999999999999494e-01,2.207888002091845936e-01,-1.027627842818532450e-01,1.029545173090244264e-01
6.939999999999999503e-01,1.546638706060382562e-01,-1.215491636158664707e-01,1.248873694007932439e-01
6.949999999999999512e-01,1.372796073334922873e-01,-1.507082143552022635e-01,1.597901427869463098e-01
6.959999999999999520e-01,8.673410339632439681e-02,-2.027294041043037065e-01,1.369059308002643638e-01
6.969999999999999529e-01,5.794777748203980977e-02,-2.114097438503085846e-01,1.460054810260352498e-01
6.979999999999999538e-01,2.936860488676534472e-03,-2.017487650847959169e-01,1.543233667089680405e-01
6.989999999999999547e-01,-4.855655418100172233e-02,-2.294391804915153210e-01,1.305208789577462503e-01
6.999999999999999556e-01,-1.079086442208815472e-01,-1.817362123737119028e-01,1.120779426650651694e-01
7.009999999999999565e-01,-1.332503305752783807e-01,-1.920182800560781000e-01,1.291821653822040894e-01
7.019999999999999574e-01,-1.642010265905231581e-01,-1.675980261231032054e-01,9.547774619369132909e-02
7.029999999999999583e-01,-2.097225456491793871e-01,-1.503579366526123784e-01,7.455061445333872883e-02
7.039999999999999591e-01,-2.277062409939007437e-01,-1.215324837959802090e-01,5.262551614701273250e-02
7.049999999999999600e-01,-2.503619293154031866e-01,-8.633950511054963584e-02,8.272769171070266589e-03
7.059999999999999609e-01,-2.653291181066455007e-01,-4.736213185831810585e-02,-5.749383604634742718e-03
7.069999999999999618e-01,-2.683349737431660054e-01,-1.251383332191246395e-02,-2.717381093263657871e-02
7.079999999999999627e-01,-2.353129785887138892e-01,6.989258087238678363e-02,-4.959626272011601056e-02
7.089999999999999636e-01,-2.136313753433265739e-01,6.519164282643667707e-02,-8.754168868565995187e-02
7.099999999999999645e-01,-2.057893600371344389e-01,1.193176227645090515e-01,-1.024852038254239761e-01
7.109999999999999654e-01,-1.859700290038861781e-01,1.409631215318327135e-01,-1.249126058434946729e-01
7.119999999999999662e-01,-1.846654602973059889e-01,1.484647227856599749e-01,-1.535533845724277036e-01
7.129999999999999671e-01,-9.742113394371812451e-02,1.729633396150003499e-01,-1.537191016194509041e-01
7.139999999999999680e-01,-3.921774977075174334e-02,2.210719444890649477e-01,-1.559163791066231208e-01
7.149999999999999689e-01,1.632144415867054204e-03,1.987171199370962038e-01,-1.451948474787147503e-01
7.159999999999999698e-01,6.361882990802400495e-02,2.045569878834614941e-01,-1.507436079568035547e-01
7.169999999999999707e-01,8.888903192570286882e-02,2.136342264700157034e-01,-1.426653984830363597e-01
7.179999999999999716e-01,1.311129581329543992e-01,1.919512105913105393e-01,-1.392195675562410417e-01
7.189999999999999725e-01,1.984151847427566839e-01,2.005853556729503273e-01,-1.256666355889621278e-01
7.199999999999999734e-01,2.038626810439891635e-01,1.750035036412852241e-01,-1.028037288030706348e-01
7.209999999999999742e-01,2.168919962295226267e-01,1.119462579091439619e-01,-1.062810881580120437e-01
7.219999999999999751e-01,2.301623080417171952e-01,1.081247927944820053e-01,-2.932465271256740752e-02
7.229999999999999760e-01,2.642011375068369916e-01,6.409509720747187667e-02,1.946809472705499392e-03
7.239999999999999769e-01,2.649280382927533539e-01,1.101431177409955935e-02,4.621829508546138054e-02
7.249999999999999778e-01,2.658895511699050362e-01,-2.901424063267693185e-02,2.542616120650256425e-02
7.259999999999999787e-01,2.663389751986989240e-01,-6.060011237571533149e-02,8.996062078760884428e-02
7.269999999999999796e-01,2.329661048097483866e-01,-1.043563119326918753e-01,1.102014209420448115e-01
7.279999999999999805e-01,1.955022457821440629e-01,-1.667858185099672097e-01,1.276603235958134741e-01
7.289999999999999813e-01,1.840899792876216357e-01,-1.451124932270092538e-01,1.360669077238179092e-01
7.299999999999999822e-01,8.030916056171163997e-02,-1.736027414831677607e-01,1.463867556597526487e-01
7.309999999999999831e-01,9.100311743772022954e-02,-1.949011290434188304e-01,1.799983458793956714e-01
7.319999999999999840e-01,7.636933834891508621e-03,-2.022360439297353207e-01,1.454061839007417811e-01
7.329999999999999849e-01,-1.562567851800229085e-02,-1.944789464486777475e-01,1.601651611235872241e-01
7.339999999999999858e-01,-9.988896834392461954e-02,-2.025909410852808901e-01,1.475423904866670077e-01
7.349999999999999867e-01,-1.298737603922935080e-01,-1.517862708216888012e-01,1.504172465313135532e-01
7.359999999999999876e-01,-1.883406042588237350e-01,-1.784298737651918432e-01,9.729683059643752518e-02
7.369999999999999885e-01,-1.944266916613969498e-01,-1.592535949803816631e-01,8.208591323253844330e-02
7.379999999999999893e-01,-2.475161798408097025e-01,-1.255723656180057490e-01,1.012880293970238876e-01
7.389999999999999902e-01,-2.433548175315516926e-01,-1.043638234541024723e-01,4.527723413085603388e-02
7.399999999999999911e-01,-2.750964185768364767e-01,-1.901396691525198204e-02,5.500974876028775357e-02
7.409999999999999920e-01,-2.527122535735647491e-01,1.239560948759628467e-02,-1.751463641957824377e-02
7.419999999999999929e-01,-2.413385947408280552e-01,3.535490128618855310e-02,-2.775129446501398492e-02
7.429999999999999938e-01,-2.743510203135520187e-01,6.637808008758479261e-02,-8.693337459238908993e-02
7.439999999999999947e-01,-2.340978732652675975e-01,9.324657350647319598e-02,-7.516470741224856589e-02
7.449999999999999956e-01,-1.916615392034404786e-01,1.333544379440308181e-01,-1.018908021548236564e-01
7.459999999999999964e-01,-1.552327725266826330e-01,1.674379635037759606e-01,-1.350905397369719374e-01
7.469999999999999973e-01,-1.029501259786348294e-01,1.713289448958160710e-01,-1.344493980046398973e-01
7.479999999999999982e-01,-7.818701155596133323e-02,1.785560282263668197e-01,-1.300342312428626190e-01
7.489999999999999991e-01,-2.926217515225752741e-02,2.185374029311917543e-01,-1.358469256751981269e-01
7.500000000000000000e-01,-5.579119036191733209e-03,1.926538069321507285e-01,-1.595547910885878329e-01
7.510000000000000009e-01,5.160643766267721672e-02,1.823148161674433276e-01,-1.333271101303551420e-01
7.520000000000000018e-01,1.191201493452045124e-01,1.809709816060928456e-01,-1.640976424473130635e-01
7.530000000000000027e-01,1.780802265658227856e-01,1.833336954412301545e-01,-1.093347836608989515e-01
7.540000000000000036e-01,1.738639600505343386e-01,1.672788922014156743e-01,-1.279681923393942988e-01
7.550000000000000044e-01,2.042972247290529564e-01,1.374273766793525364e-01,-8.253445825535286884e-02
7.560000000000000053e-01,2.470012202939016466e-01,8.295839112800698634e-02,-4.675600333353013144e-02
7.570000000000000062e-01,2.589979739098320910e-01,6.056984999524010760e-02,-3.119160578031126771e-02
7.580000000000000071e-01,2.639393161085715200e-01,1.045557133003312440e-02,-1.206432670192454822e-03
7.590000000000000080e-01,2.842811440511162635e-01,-4.049256049027721155e-02,3.525788531654491798e-02
7.600000000000000089e-01,2.772960872149188849e-01,-4.736369324130687564e-02,5.383259664776075815e-02
7.610000000000000098e-01,2.355072661801438927e-01,-1.270921243973362202e-01,7.321388284888007136e-02
7.620000000000000107e-01,1.974793062388870146e-01,-1.325276239536495315e-01,9.427363639909364101e-02
7.630000000000000115e-01,1.713081516448122510e-01,-1.372268336233079533e-01,1.320921827172653329e-01
7.640000000000000124e-01,1.072630985340109200e-01,-1.657452731764176845e-01,1.515376690135569748e-01
7.650000000000000133e-01,9.597601991584749082e-02,-2.157090986465399485e-01,1.286217178816012607e-01
7.660000000000000142e-01,3.655078745829060810e-02,-2.283155609702718358e-01,1.544918336094923128e-01
7.670000000000000151e-01,-1.873400192790516255e-02,-2.142482873436986623e-01,1.636402980824500086e-01
7.680000000000000160e-01,-6.989317687395217582e-02,-1.985407396526213952e-01,1.800724165564216994e-01
7.690000000000000169e-01,-1.095179166972487655e-01,-1.865439921919099797e-01,1.431397127569796202e-01
7.700000000000000178e-01,-1.451531155723052025e-01,-2.080449869963016396e-01,1.503372699974388216e-01
7.710000000000000187e-01,-1.694792581914927876e-01,-1.791868549921454001e-01,1.398648748432090583e-01
7.720000000000000195e-01,-2.029936081476217680e-01,-1.081846345830920070e-01,8.950480220017555111e-02
7.730000000000000204e-01,-2.158170595770297906e-01,-9.669881307445725438e-02,6.580254183224996944e-02
7.740000000000000213e-01,-2.468225309112678234e-01,-6.527697479390442981e-02,5.194631610771235919e-02
7.750000000000000222e-01,-2.702711175561642309e-01,-1.697048901349873865e-02,-1.079090017461893126e-02
7.760000000000000231e-01,-2.670499151161163098e-01,9.365345239849333717e-03,-1.155777386319649554e-02
7.770000000000000240e-01,-2.791215361649627136e-01,6.691900298449533768e-02,-3.308426305647885202e-02
7.780000000000000249e-01,-2.405010095101251522e-01,9.041759187968689826e-02,-5.041928621567826063e-02
7.790000000000000258e-01,-2.122276358123031115e-01,1.296176399195375084e-01,-1.090459137328614742e-01
7.800000000000000266e-01,-2.129778695303668201e-01,1.749100580421939499e-01,-1.047746672890381009e-01
7.810000000000000275e-01,-1.383423124705641105e-01,1.896819369030272595e-01,-1.355262297876435595e-01
7.820000000000000284e-01,-9.857144335250772604e-02,1.859473072011719741e-01,-1.618478170683469164e-01
7.830000000000000293e-01,-4.268627045034901341e-02,2.098909963132050138e-01,-1.563911663943573505e-01
7.840000000000000302e-01,3.379331529625623047e-03,2.372669580119015353e-01,-1.548327803257867619e-01
7.850000000000000311e-01,6.216920143436753532e-02,2.205595004491034683e-01,-1.488878360634676712e-01
7.860000000000000320e-01,8.453102731093337097e-02,2.201197330137078245e-01,-1.625930322873306300e-01
7.870000000000000329e-01,1.594627428024656124e-01,1.695864292893060343e-01,-1.310323193817622967e-01
7.880000000000000338e-01,1.768429726452369899e-01,1.548866521316457634e-01,-1.349742873321803371e-01
7.890000000000000346e-01,2.118136571985245187e-01,1.301995032873859703e-01,-9.423396570642823822e-02
7.900000000000000355e-01,2.410509915603117059e-01,1.190913985095021360e-01,-8.965171531051523146e-02
7.910000000000000364e-01,2.362589367316128008e-01,5.768689692639785566e-02,-6.225306913665334257e-02
7.920000000000000373e-01,2.698429894526588879e-01,-1.625662679225793822e-03,-2.816375388389359344e-02
7.930000000000000382e-01,2.819382577513696031e-01,-1.848433635981439060e-02,-1.913133263719906524e-02
7.940000000000000391e-01,2.562556460854923390e-01,-7.447786233870848371e-02,2.014808480129769847e-02
7.950000000000000400e-01,2.651986558593098509e-01,-8.794231420972473123e-02,6.864372267232209113e-02
7.960000000000000409e-01,2.373946655165330988e-01,-1.201593161801361304e-01,7.198630470461965525e-02
7.970000000000000417e-01,1.847186121468717690e-01,-1.545005103219849740e-01,1.140225943649721269e-01
7.980000000000000426e-01,1.499134987936607821e-01,-1.758101637991586474e-01,1.178568314475690326e-01
7.990000000000000435e-01,1.184015483118149303e-01,-2.080325925819515864e-01,1.313031953982699840e-01
8.000000000000000444e-01,5.233641621521541165e-02,-1.758718350338381864e-01,1.803247721991934061e-01
8.010000000000000453e-01,-9.703418617534986367e-04,-2.078767036594333650e-01,1.615573740447828754e-01
8.020000000000000462e-01,-4.229932932800514050e-02,-2.131626280390337691e-01,1.714789339398048174e-01
8.030000000000000471e-01,-8.708075907193897625e-02,-2.093281759134617281e-01,1.636341335174143208e-01
8.040000000000000480e-01,-1.160830622680623925e-01,-2.130647208998074915e-01,1.385578345460546645e-01
8.050000000000000488e-01,-1.632137807782051697e-01,-1.483615576592822727e-01,1.455012737033536674e-01
8.060000000000000497e-01,-1.738808020092051099e-01,-1.515316899310220899e-01,1.307055738225970654e-01
8.070000000000000506e-01,-2.508707613960489691e-01,-9.999854324673708439e-02,8.775006709650955139e-02
8.080000000000000515e-01,-2.666572522478154461e-01,-5.228167538496216599e-02,7.196342640644889932e-02
8.090000000000000524e-01,-2.913039020364142084e-01,-5.490427090725471387e-03,2.430982964161174445e-02
8.100000000000000533e-01,-2.736252878943795652e-01,1.847805656510808497e-02,1.169972531435241499e-02
8.110000000000000542e-01,-2.640918836877713671e-01,6.480753866880636926e-02,-1.403416733223000409e-02
8.120000000000000551e-01,-2.433441765499760601e-01,9.319092197013183199e-02,-3.356376705119142739e-02
8.129999999999999449e-01,-2.209478834466210573e-01,1.126795198345447030e-01,-5.829826494824053018e-02
8.139999999999999458e-01,-2.023612144832014903e-01,1.475663365734179722e-01,-1.065678019823632500e-01
8.149999999999999467e-01,-1.816048434168108516e-01,1.883872874578417789e-01,-1.073108422393633382e-01
8.159999999999999476e-01,-1.326008825938416735e-01,2.267975889088522101e-01,-1.446407296328314773e-01
8.169999999999999485e-01,-6.577208080619940944e-02,2.048243139022146442e-01,-1.340460504193396185e-01
8.179999999999999494e-01,-3.342061197238076209e-02,2.183154469593321378e-01,-1.703790086996351261e-01
8.189999999999999503e-01,4.467881795195210309e-02,2.109041556666256256e-01,-1.814304232669216588e-01
8.199999999999999512e-01,5.039870895137140566e-02,1.993538572725361002e-01,-1.578641162140214660e-01
8.209999999999999520e-01,9.399295409730730466e-02,1.778200097921412148e-01,-1.389367892813453687e-01
8.219999999999999529e-01,1.572999085433721966e-01,1.599245240946419733e-01,-1.383395510740958734e-01
8.229999999999999538e-01,2.081745087560081531e-01,1.666448057723679266e-01,-1.525727820601100460e-01
8.239999999999999547e-01,2.124357926228895854e-01,1.046027715921063195e-01,-9.594004646923838531e-02
8.249999999999999556e-01,2.537543472200613492e-01,3.053243580109596747e-02,-8.181784305051464923e-02
8.259999999999999565e-01,2.621341027653738553e-01,4.771110481812178283e-02,-4.215896674731576393e-02
8.269999999999999574e-01,2.782105554783057544e-01,-1.685524611763017377e-02,-1.872779572824093131e-02
8.279999999999999583e-01,2.441638752988170291e-01,-2.812290818288558022e-02,2.161819826281457906e-03
8.289999999999999591e-01,2.575420657249342660e-01,-7.915151158799491049e-02,2.857111090691829766e-02
8.299999999999999600e-01,2.485465226348128609e-01,-9.820683946925481966e-02,6.419123575308048613e-02
8.309999999999999609e-01,2.275054761563615469e-01,-1.518992346275631622e-01,8.173795355342641789e-02
8.319999999999999618e-01,2.042292438903378637e-01,-1.651612094785963880e-01,1.125349241174385950e-01
8.329999999999999627e-01,1.467234144383811056e-01,-1.911366614298929956e-01,1.297610696114520623e-01
8.339999999999999636e-01,1.059051486553743426e-01,-2.160603887978625182e-01,1.514533389478917857e-01
8.349999999999999645e-01,4.867731179600680302e-02,-1.852678005002719452e-01,1.458223592650086109e-01
8.359999999999999654e-01,-1.846563536037276049e-02,-2.001351618961186019e-01,1.947418194731369290e-01
8.369999999999999662e-01,-8.130976654500747525e-02,-2.072170563207441085e-01,1.709325570185664667e-01
8.379999999999999671e-01,-8.920113307842909844e-02,-1.844328782554080226e-01,1.543837307628564415e-01
8.389999999999999680e-01,-1.503329965092683462e-01,-1.535809650522473591e-01,1.621081717022500035e-01
8.399999999999999689e-01,-1.992259813817167657e-01,-1.385757104430207498e-01,1.113171378836997488e-01
8.409999999999999698e-01,-2.079341867169670621e-01,-1.259571657342591355e-01,1.265228792635559596e-01
8.419999999999999707e-01,-2.340129681530187244e-01,-5.605572998236869192e-02,9.996935845613842686e-02
8.429999999999999716e-01,-2.318543366050947463e-01,-4.155971902646114075e-02,6.237953262717180203e-02
8.439999999999999725e-01,-2.754479621631376607e-01,-1.965589290267476946e-03,2.318034104891150346e-02
8.449999999999999734e-01,-2.468163248857795089e-01,3.046640522786904851e-02,2.683187490302008267e-03
8.459999999999999742e-01,-2.422741419681638253e-01,1.039803544178768552e-01,-4.056496797747662086e-02
8.469999999999999751e-01,-2.294877592506140984e-01,1.046688801419357190e-01,-7.672735527683019474e-02
8.479999999999999760e-01,-2.177917950769717170e-01,1.657852646377563910e-01,-7.421423466086106424e-02
8.489999999999999769e-01,-1.689725880936961411e-01,1.724885625164422620e-01,-8.594877187932767337e-02
8.499999999999999778e-01,-1.166576488100098813e-01,1.881782307343282390e-01,-1.068497813778276906e-01
8.509999999999999787e-01,-9.639633593428378888e-02,2.058946885416942374e-01,-1.536165421641850215e-01
8.519999999999999796e-01,-6.088388985812285409e-02,2.078899485484078102e-01,-1.461487018006939753e-01
8.529999999999999805e-01,1.748586447714505984e-02,1.976420197037074000e-01,-1.733854011898332270e-01
8.539999999999999813e-01,4.275605211235668918e-02,2.176426868436539264e-01,-1.531478981128046868e-01
8.549999999999999822e-01,8.120305816738036808e-02,1.933498773807851012e-01,-1.467446610100329729e-01
8.559999999999999831e-01,1.361465342712599169e-01,1.694904254630130447e-01,-1.259985781072288091e-01
8.569999999999999840e-01,1.923091775030598694e-01,1.546319169871636368e-01,-1.238169681788922893e-01
8.579999999999999849e-01,1.936516174523284228e-01,9.655301215718326002e-02,-1.103355455020223475e-01
8.589999999999999858e-01,2.223586892621925715e-01,7.134289942783689220e-02,-8.930489011372300112e-02
8.599999999999999867e-01,2.381114006897513125e-01,5.449689868192193060e-02,-7.332440440514950697e-02
8.609999999999999876e-01,2.847528676965348504e-01,7.423394757328990144e-03,-4.424982581231273054e-02
8.619999999999999885e-01,2.513573169254478823e-01,-3.938139279392047221e-02,-1.603155166774893406e-02
8.629999999999999893e-01,2.619669044883099485e-01,-8.151562528307808309e-02,1.773142466778012891e-02
8.639999999999999902e-01,2.677119781631205342e-01,-1.172587250818699772e-01,5.723125479307743929e-02
8.649999999999999911e-01,2.224567383689196598e-01,-1.681728980074720659e-01,7.656831018005963441e-02
8.659999999999999920e-01,1.739352557189607074e-01,-1.641247025943357585e-01,9.405878738428637142e-02
8.669999999999999929e-01,1.705837589947554467e-01,-1.967395848404127900e-01,1.091811136338312338e-01
8.679999999999999938e-01,1.045558797520010075e-01,-2.022118316977292440e-01,9.087766670487673615e-02
8.689999999999999947e-01,8.414504364462752073e-02,-2.162225089518785281e-01,1.609386413744829658e-01
8.699999999999999956e-01,3.185342467933291455e-02,-2.083256669841075381e-01,1.468975888451537759e-01
8.709999999999999964e-01,-3.417030773596584775e-02,-1.646000293956048632e-01,1.544209565917958327e-01
8.719999999999999973e-01,-8.913403123917706949e-02,-2.061322641451185100e-01,1.470677209308986211e-01
8.729999999999999982e-01,-1.230507060586472218e-01,-1.496503665571639330e-01,1.540810199782822743e-01
8.739999999999999991e-01,-1.175821016895900462e-01,-1.514475125995335403e-01,1.383324768140462013e-01
8.750000000000000000e-01,-1.982633593408651695e-01,-8.847915898088525022e-02,1.339508280288939368e-01
8.760000000000000009e-01,-2.421836088056795455e-01,-7.735326974370758391e-02,1.032542527844454439e-01
8.770000000000000018e-01,-2.480679348764278647e-01,-5.333405597338407994e-02,1.006772089430206241e-01
8.780000000000000027e-01,-2.960646629369486083e-01,1.800033950041970152e-03,6.504039916699065615e-02
8.790000000000000036e-01,-2.662560383768919903e-01,3.655060952569290367e-02,3.178054190743376944e-02
8.800000000000000044e-01,-2.613910231004309415e-01,8.101804577641101568e-02,-1.820365575590977662e-03
8.810000000000000053e-01,-2.332601565862910120e-01,9.855561227813014469e-02,-3.725345741010269857e-02
8.820000000000000062e-01,-2.257498969345175799e-01,1.539088598373039019e-01,-4.890532176446523577e-02
8.830000000000000071e-01,-1.977525009068777095e-01,1.828290968369362945e-01,-7.718486362994476935e-02
8.840000000000000080e-01,-1.770650534453913905e-01,1.712355829841746835e-01,-9.811815771745335812e-02
8.850000000000000089e-01,-8.356603869094494930e-02,2.126489613928722322e-01,-1.368644116967932256e-01
8.860000000000000098e-01,-6.586061713027065168e-02,2.065046053779352742e-01,-1.400259775359545267e-01
8.870000000000000107e-01,-4.600064126824685018e-02,2.187390739798855677e-01,-1.489713128598457170e-01
8.880000000000000115e-01,3.657433699183101905e-02,2.001812742073751372e-01,-1.426966600550144959e-01
8.890000000000000124e-01,7.044696852056823999e-02,2.089596315615836475e-01,-1.606240962034759523e-01
8.900000000000000133e-01,1.042325890003498595e-01,1.715239442041662232e-01,-1.343392493048763403e-01
8.910000000000000142e-01,1.385315517248949246e-01,1.468426616985901711e-01,-1.655588060194192745e-01
8.920000000000000151e-01,1.669351805686009327e-01,1.284083720093898984e-01,-1.251660881565477001e-01
8.930000000000000160e-01,2.566007308410328536e-01,5.515322083432333544e-02,-1.138314422644929741e-01
8.940000000000000169e-01,2.349651468706136503e-01,3.277707461981940740e-02,-7.884542860658717844e-02
8.950000000000000178e-01,2.535271664531368319e-01,-1.421333802888513805e-02,-4.706221682861946171e-02
8.960000000000000187e-01,2.761604405154874931e-01,-6.021484359440343326e-02,-6.202694180925691358e-02
8.970000000000000195e-01,2.684055779584004764e-01,-8.405419436456205984e-02,2.930851141670669062e-03
8.980000000000000204e-01,2.414219283045552222e-01,-1.139959880893982036e-01,6.997187158861063391e-03
8.990000000000000213e-01,2.324037156053091746e-01,-1.329414458069891614e-01,5.718310760183072106e-02
9.000000000000000222e-01,1.907060025530028236e-01,-1.629793764800756550e-01,5.905923414795261062e-02
9.010000000000000231e-01,1.795845546798395809e-01,-1.795593917379162130e-01,9.746206037651501675e-02
9.020000000000000240e-01,1.548529924832356408e-01,-2.219354933602759594e-01,1.208710996653334507e-01
9.030000000000000249e-01,7.863552418017466517e-02,-2.191239395063127315e-01,1.441642523000702114e-01
9.040000000000000258e-01,5.310211250545322087e-02,-2.163814584065103797e-01,1.532710102644528616e-01
9.050000000000000266e-01,-1.404350311402309363e-02,-1.904387255682199187e-01,1.563424762465565332e-01
9.060000000000000275e-01,-5.441751488343544302e-02,-1.890506180452942719e-01,1.475106628793094177e-01
9.070000000000000284e-01,-9.569546609350144950e-02,-1.620369521970196347e-01,1.545992851392962997e-01
9.080000000000000293e-01,-1.249330379126722540e-01,-1.553253100509539297e-01,1.537973095670995272e-01
9.090000000000000302e-01,-1.836060034835107768e-01,-1.161379982706050307e-01,1.368999560178502661e-01
9.100000000000000311e-01,-2.162616918142557798e-01,-7.899129753911912633e-02,1.299755366134878465e-01
9.110000000000000320e-01,-2.606589576995495539e-01,-4.121130155567028636e-02,1.042852610593131696e-01
9.120000000000000329e-01,-2.549929908845081639e-01,-1.129839354844757934e-02,5.893481312413353240e-02
9.130000000000000338e-01,-2.308274839886160501e-01,3.642042900816765821e-02,6.247216255415101449e-02
9.140000000000000346e-01,-2.618954979055216348e-01,7.506156190554499896e-02,3.247562298024682381e-02
9.150000000000000355e-01,-2.623754259546094980e-01,9.136552576076002741e-02,2.302865703773491340e-02
9.160000000000000364e-01,-2.512281841576363695e-01,1.523303915835747813e-01,-6.168196456678836162e-03
9.170000000000000373e-01,-2.122076451268526676e-01,1.398035235970561396e-01,-5.215611892457985149e-02
9.180000000000000382e-01,-1.824352430602205477e-01,1.743111341986676999e-01,-6.847292161988979831e-02
9.190000000000000391e-01,-1.627462232015344790e-01,2.305649181557677119e-01,-1.163265927318823806e-01
9.200000000000000400e-01,-1.128247622463926098e-01,2.108642029430064235e-01,-1.353214634840275432e-01
9.210000000000000409e-01,-7.371939472258108583e-02,2.225991049308177483e-01,-1.342882222902028189e-01
9.220000000000000417e-01,-1.455590205405843038e-02,2.310432815232382475e-01,-1.370743402450276260e-01
9.230000000000000426e-01,4.276113526158949879e-02,1.913265963949821180e-01,-1.465212695376924001e-01
9.240000000000000435e-01,8.381595089798120346e-02,1.446068890330398371e-01,-1.728121424336512835e-01
9.250000000000000444e-01,1.478784779680561157e-01,1.413882098105131158e-01,-1.652381688526352865e-01
9.260000000000000453e-01,1.551413206325822358e-01,9.985371570558959631e-02,-1.407642288629491478e-01
9.270000000000000462e-01,2.159976419289786065e-01,1.061039235271743347e-01,-1.433360162117980063e-01
9.280000000000000471e-01,2.504657683029377635e-01,4.010456022501233259e-02,-1.262183247202587622e-01
9.290000000000000480e-01,2.367127213952061882e-01,-6.820913657144922308e-03,-7.746061346831357997e-02
9.300000000000000488e-01,2.301534824264717671e-01,-4.304348676657732825e-02,-8.006357430638670614e-02
9.310000000000000497e-01,2.807583298424873863e-01,-6.846929428360339076e-02,-6.867333117910465190e-02
9.320000000000000506e-01,2.625645751638072123e-01,-9.635739739621500266e-02,-3.126852367970751889e-02
9.330000000000000515e-01,2.326665915507217519e-01,-1.387267065847733183e-01,2.307190313784061517e-02
9.340000000000000524e-01,2.189443249422267923e-01,-1.518523302129013708e-01,6.192715127403781994e-02
9.350000000000000533e-01,1.835349579690571664e-01,-1.926452983283462594e-01,7.115102001505821394e-02
9.360000000000000542e-01,1.305552699122317917e-01,-2.135042538229910136e-01,1.100193041505797276e-01
9.370000000000000551e-01,1.051579081541194061e-01,-2.003011352486119556e-01,1.248043363157547020e-01
9.379999999999999449e-01,9.569612397546099769e-02,-2.011205247429449228e-01,1.534862788282611856e-01
9.389999999999999458e-01,2.359995981670242812e-02,-2.043203788328405712e-01,1.714007672460431397e-01
9.399999999999999467e-01,-5.170839880135645779e-03,-1.848408151010206557e-01,1.672855763535759099e-01
9.409999999999999476e-01,-6.111276042847265527e-02,-1.589057898657514900e-01,1.517442082856501895e-01
9.419999999999999485e-01,-1.248682737854537456e-01,-1.481941732253339028e-01,1.111808122391311909e-01
9.429999999999999494e-01,-1.720898784528760439e-01,-9.574849496141929484e-02,1.637927584872704845e-01
9.439999999999999503e-01,-1.915071092477286796e-01,-6.609103870646412804e-02,1.314254429360853516e-01
9.449999999999999512e-01,-2.165803820267151736e-01,-4.472544210351038496e-02,1.262896151311422022e-01
9.459999999999999520e-01,-2.577475014589860058e-01,3.375795133363964848e-03,9.762444082971405424e-02
9.469999999999999529e-01,-2.620017750590717398e-01,9.905126160890559764e-03,7.904209646053249327e-02
9.479999999999999538e-01,-2.767053972768098724e-01,6.787794261193477729e-02,3.467126761915675232e-02
9.489999999999999547e-01,-2.692707226536641407e-01,1.069052545789056508e-01,3.969059488579989442e-02
9.499999999999999556e-01,-2.630874222453022382e-01,1.182401140545250723e-01,-2.811833305902603614e-04
9.509999999999999565e-01,-2.180793157830726303e-01,1.274376543071206735e-01,-4.432317317975092985e-02
9.519999999999999574e-01,-2.057855174556208477e-01,1.763192857365349087e-01,-7.232552574872916362e-02
9.529999999999999583e-01,-1.540323523502805103e-01,1.824259433676713171e-01,-1.112173656966145979e-01
9.539999999999999591e-01,-1.585897977599361464e-01,2.204750683169302283e-01,-9.842437857265536050e-02
9.549999999999999600e-01,-7.064166800162328952e-02,2.235213931068173177e-01,-1.444569466151832127e-01
9.559999999999999609e-01,-3.614900853909333578e-02,1.958458348216065015e-01,-1.707022196295180372e-01
9.569999999999999618e-01,1.589610579349007291e-02,1.953118387982976656e-01,-1.673580258485686256e-01
9.579999999999999627e-01,9.768929427115821684e-02,1.957703336733791211e-01,-1.707662940557775622e-01
9.589999999999999636e-01,1.301316494157938319e-01,1.805151766387129986e-01,-1.618505527135390698e-01
9.599999999999999645e-01,1.782344972491410606e-01,1.379190171977695001e-01,-1.537824930608240881e-01
9.609999999999999654e-01,1.820471519582854136e-01,1.126414690756610132e-01,-1.395948770324647870e-01
9.619999999999999662e-01,2.176031908743174814e-01,3.158768238650757482e-02,-1.551391496886215804e-01
9.629999999999999671e-01,2.310335707199225042e-01,4.477264374129471397e-02,-1.095427377685297549e-01
9.639999999999999680e-01,2.669154170257318492e-01,-2.417466069767004039e-02,-9.029087756572164170e-02
9.649999999999999689e-01,2.717736106745372027e-01,-7.423756549166646290e-02,-4.800802490822073110e-02
9.659999999999999698e-01,2.826208916364090218e-01,-1.187102832004799519e-01,-3.729189575890956565e-02
9.669999999999999707e-01,2.653294403526076373e-01,-1.354431949366185772e-01,5.297527688621725406e-03
9.679999999999999716e-01,2.361194000679194827e-01,-1.746704495321631800e-01,3.353657787020104114e-02
9.689999999999999725e-01,1.887028099888369836e-01,-1.799719005370286062e-01,4.499243356511661157e-02
9.699999999999999734e-01,1.932207617091901697e-01,-1.845127254055746457e-01,6.570748704128802353e-02
9.709999999999999742e-01,1.353409505684082803e-01,-1.866023505774864200e-01,7.111813785546418354e-02
9.719999999999999751e-01,7.874998089400271628e-02,-2.120219747757572382e-01,1.107597809203420963e-01
9.729999999999999760e-01,4.554312260259728989e-02,-2.121604697593447164e-01,1.276468095361816824e-01
9.739999999999999769e-01,-1.278326487221438743e-03,-1.834823522846424915e-01,1.493793574719352035e-01
9.749999999999999778e-01,-6.425825915589981896e-02,-1.788158686014659493e-01,1.635437087299081993e-01
9.759999999999999787e-01,-1.166865878948516871e-01,-1.620875395081540216e-01,1.447035104075456713e-01
9.769999999999999796e-01,-1.335521995549423246e-01,-1.245296583412854180e-01,1.488677839158718541e-01
9.779999999999999805e-01,-1.890409369875574452e-01,-1.142934887207751327e-01,1.617253607892275014e-01
9.789999999999999813e-01,-2.182847722437105398e-01,-6.967780584391261578e-02,1.387195639998826113e-01
9.799999999999999822e-01,-2.216762781175014574e-01,-2.610734930846058191e-03,1.026026944681789205e-01
9.809999999999999831e-01,-2.627832714611658682e-01,1.978663811627166466e-02,1.191335603535720183e-01
9.819999999999999840e-01,-2.789407361288779308e-01,6.828876715496678962e-02,7.050922490592749503e-02
9.829999999999999849e-01,-2.780992612712452905e-01,1.060798077345616042e-01,3.058280517915010210e-02
9.839999999999999858e-01,-2.600068635074611056e-01,1.130162629117729273e-01,1.480263674081533018e-02
9.849999999999999867e-01,-2.303464643848085469e-01,1.404331181312899746e-01,2.194419158348792989e-02
9.859999999999999876e-01,-2.226658969352011130e-01,1.857877193920589309e-01,-2.785182588782777677e-02
9.869999999999999885e-01,-1.888375385173315657e-01,1.856920974182314499e-01,-6.326420081183786737e-02
9.879999999999999893e-01,-1.298344877477858872e-01,2.199867960907695708e-01,-9.893023022409645761e-02
9.889999999999999902e-01,-8.391325107595778987e-02,2.060635826499652434e-01,-9.765485010681367040e-02
9.899999999999999911e-01,-2.328786808542973943e-02,2.343970226024712777e-01,-1.094040210464026219e-01
9.909999999999999920e-01,-2.448164659053247982e-02,2.201915248591519714e-01,-1.218686781730584368e-01
9.919999999999999929e-01,5.263835994603357354e-02,1.885325320383695880e-01,-1.367651288819249356e-01
9.929999999999999938e-01,9.120814338073758576e-02,1.412885812196686963e-01,-1.387667153383999041e-01
9.939999999999999947e-01,1.125699392923158876e-01,1.417718703070489639e-01,-1.816038770752213538e-01
9.949999999999999956e-01,1.680777952121361163e-01,9.532606676148241975e-02,-1.528307570196970055e-01
9.959999999999999964e-01,2.187318135851207268e-01,8.419292368642787572e-02,-1.097028632360082107e-01
9.969999999999999973e-01,2.336072776671512530e-01,2.707442397085420283e-02,-1.104828675513242486e-01
9.979999999999999982e-01,2.587034175383567947e-01,-3.866178152896918930e-04,-8.437075490441890702e-02
9.989999999999999991e-01,2.704242641301090599e-01,-4.988311467126257254e-02,-8.800079473638328098e-02
1.000000000000000000e+00,2.775779643731083324e-01,-1.066644933997756839e-01,-4.242328021353144324e-02
1.000999999999999890e+00,2.526462814076961272e-01,-1.104294854420036637e-01,-1.318567054971823797e-02
1.002000000000000002e+00,2.613450365477543724e-01,-1.657498141199541530e-01,-3.190238213027533909e-02
1.002999999999999892e+00,2.010755334706660624e-01,-1.914942800229597897e-01,2.025722293877628075e-02
1.004000000000000004e+00,1.663905785704191120e-01,-2.003067065369635857e-01,6.907657066175011684e-02
1.004999999999999893e+00,1.334139998139763361e-01,-2.015765363889083783e-01,8.630619106896693371e-02
1.006000000000000005e+00,1.068808802039812877e-01,-2.268568986399427112e-01,1.124504794158336513e-01
1.006999999999999895e+00,7.759282364747779881e-02,-2.282033913883254606e-01,1.312461746627737458e-01
1.008000000000000007e+00,2.494747553636176077e-02,-2.043938521111380024e-01,1.323609758760282140e-01
1.008999999999999897e+00,-2.840493403771831085e-02,-1.798804811391028491e-01,1.270864679270757025e-01
1.010000000000000009e+00,-8.643581359515999096e-02,-1.555932401594789516e-01,1.507798377549008362e-01
1.010999999999999899e+00,-9.632439575437412582e-02,-1.333997854845797026e-01,1.444270512012701124e-01
1.012000000000000011e+00,-1.543269494648484841e-01,-6.226562633706883565e-02,1.576388837980635671e-01
1.012999999999999901e+00,-1.862202997737910926e-01,-7.193585817811387617e-02,1.611984214965593298e-01
1.014000000000000012e+00,-2.271766376112749064e-01,-1.542915416256751722e-02,1.254780340548072026e-01
1.014999999999999902e+00,-2.671410356126701080e-01,2.819396206205542280e-02,1.126557261044130870e-01
1.016000000000000014e+00,-2.502802354014969088e-01,4.785412484174435960e-02,8.345737225794132297e-02
1.016999999999999904e+00,-2.599742548259607045e-01,8.956192168850107826e-02,5.081832593153001731e-02
1.018000000000000016e+00,-2.469608055938231073e-01,1.520190139701328436e-01,1.517528543150145626e-02
1.018999999999999906e+00,-2.735965632556400795e-01,1.546431273945027829e-01,8.363505764575779669e-03
1.020000000000000018e+00,-2.303479157219983919e-01,1.764346525292474488e-01,-2.658338948721191558e-03
1.020999999999999908e+00,-2.286671792577198714e-01,2.027415111908536793e-01,-5.771031328273630752e-03
1.022000000000000020e+00,-1.642756796919556672e-01,2.138391918711999296e-01,-6.529044727024355121e-02
1.022999999999999909e+00,-1.336620942217889851e-01,2.026817681319953990e-01,-1.175709548704866741e-01
1.024000000000000021e+00,-6.811368150701112290e-02,2.079720735422448397e-01,-1.035707202648393915e-01
1.024999999999999911e+00,-2.649720940947575612e-02,2.079500851512235682e-01,-1.317016994633857241e-01
1.026000000000000023e+00,1.848788867059266913e-02,1.538054888074526227e-01,-1.582294847269760663e-01
1.026999999999999913e+00,6.785616405518717087e-02,1.611985157152736603e-01,-1.439480034897666627e-01
1.028000000000000025e+00,9.096535052222320950e-02,1.488691675506888246e-01,-1.783443387607966946e-01
1.028999999999999915e+00,1.609384009093344781e-01,8.907338069931437785e-02,-1.730086180291406095e-01
1.030000000000000027e+00,1.921651566000979472e-01,7.609163374352234666e-02,-1.561548733386530496e-01
1.030999999999999917e+00,2.026190590085732435e-01,1.105033342414417016e-02,-1.401579307986508538e-01
1.032000000000000028e+00,2.229311790092365075e-01,-2.416288818340441361e-02,-1.209497891071762282e-01
1.032999999999999918e+00,2.539623589173068963e-01,-8.058035398947500927e-02,-7.752047158504289659e-02
1.034000000000000030e+00,2.725804509406092868e-01,-1.131650066908431729e-01,-4.774670691672940059e-02
1.034999999999999920e+00,2.576601789236457329e-01,-1.595118366185833692e-01,-3.242367242604612260e-02
1.036000000000000032e+00,2.490153961166086116e-01,-1.593888853867196087e-01,-2.290477042519098796e-02
1.036999999999999922e+00,2.227578194812741830e-01,-1.632559215466393709e-01,-3.094341953227300671e-02
1.038000000000000034e+00,1.978457643887155115e-01,-1.994642458133003282e-01,4.200926388024932984e-02
1.038999999999999924e+00,1.776542016862626139e-01,-2.064193913873035024e-01,5.293911890761471284e-02
1.040000000000000036e+00,1.405325975870643784e-01,-2.038842386198452816e-01,6.901555137610221324e-02
1.040999999999999925e+00,9.813024196673704458e-02,-1.977102601561525064e-01,1.072694154457063814e-01
1.042000000000000037e+00,4.549093721994051237e-02,-1.928690748487093265e-01,1.340350643003582198e-01
1.042999999999999927e+00,-4.462854299855615638e-03,-1.753735638806042385e-01,1.348353200238789906e-01
1.044000000000000039e+00,-5.798336614823697971e-02,-1.651824468377834920e-01,1.755478333566057592e-01
1.044999999999999929e+00,-7.655965308120117607e-02,-1.305090202223026519e-01,1.800904919360416523e-01
1.046000000000000041e+00,-1.707100691223476241e-01,-6.752930745094748444e-02,1.611556043220049583e-01
1.046999999999999931e+00,-1.928590636831372662e-01,-7.181197057907838521e-02,1.571297903289008147e-01
1.048000000000000043e+00,-2.221549786435944307e-01,-1.903768218225295253e-02,1.524766024852970137e-01
1.048999999999999932e+00,-2.465467187829765150e-01,2.821167897936637664e-02,1.381282120090308319e-01
1.050000000000000044e+00,-2.574279881691984295e-01,4.678049713769845408e-02,1.448665395457751359e-01
1.050999999999999934e+00,-2.622968979141902524e-01,1.043553767369685276e-01,8.107081536183693982e-02
1.052000000000000046e+00,-2.844565734668343393e-01,1.254183803869824421e-01,5.586798142808618167e-02
1.052999999999999936e+00,-2.594352722494762120e-01,1.522895477871527292e-01,5.014334867203205232e-02
1.054000000000000048e+00,-2.315421964679244549e-01,1.503709573461914639e-01,2.863742158123658548e-04
1.054999999999999938e+00,-2.305813939226641629e-01,1.926280042702318007e-01,-1.956585650263463830e-02
1.056000000000000050e+00,-1.831644392486234951e-01,2.057674733643629905e-01,-3.795806804650835725e-02
1.056999999999999940e+00,-1.297196101181833094e-01,2.197577377056765258e-01,-7.830373761567062385e-02
1.058000000000000052e+00,-9.937897124519104453e-02,1.937205978361151992e-01,-1.113628534892308203e-01
1.058999999999999941e+00,-5.641552022229281288e-02,1.778006770306263251e-01,-1.237352253531832091e-01
1.060000000000000053e+00,4.085851398680930002e-02,1.792621566886218321e-01,-1.489475571192448167e-01
1.060999999999999943e+00,3.382692682808128432e-02,1.625857388633520917e-01,-1.440063489208472380e-01
1.062000000000000055e+00,1.028178188953778049e-01,1.521181423722706982e-01,-1.625867998928534341e-01
1.062999999999999945e+00,1.264297095386169301e-01,9.019975646433933680e-02,-1.689153932873871389e-01
1.064000000000000057e+00,1.669407280983861430e-01,7.157141200240228762e-02,-1.609491090190653118e-01
1.064999999999999947e+00,1.924486935526777132e-01,1.015040060992281924e-02,-1.529328746266259975e-01
1.066000000000000059e+00,2.663866499947084576e-01,-3.263149726435302794e-02,-1.458115099205437859e-01
1.066999999999999948e+00,2.704729339497899399e-01,-4.894798639738178608e-02,-1.219321478599403041e-01
1.068000000000000060e+00,2.575715578256304594e-01,-6.594718775236782515e-02,-9.787601844380072746e-02
1.068999999999999950e+00,2.633263698769591210e-01,-9.014118697763325028e-02,-8.430424770904740295e-02
1.070000000000000062e+00,2.686862347027046960e-01,-1.357948926931449307e-01,-2.250951365127600370e-02
1.070999999999999952e+00,2.300305796432383920e-01,-1.711510245836606880e-01,-7.125512303928487924e-03
1.072000000000000064e+00,2.200849986765565647e-01,-1.732551534253765901e-01,-3.453009577883617417e-04
1.072999999999999954e+00,1.700902357963792744e-01,-1.866388014959489972e-01,4.760026302019424588e-02
1.074000000000000066e+00,1.409500253376329004e-01,-2.187793082282623869e-01,9.097632958180774942e-02
1.074999999999999956e+00,1.114523538500426236e-01,-2.064057765746752926e-01,8.884425485231164932e-02
1.076000000000000068e+00,7.857234374397273347e-02,-2.222062662427500557e-01,1.293704887662960878e-01
1.076999999999999957e+00,2.321373435272588298e-02,-1.909030173253995211e-01,1.612893836900929356e-01
1.078000000000000069e+00,-4.293988851972951187e-02,-1.538173958411737374e-01,1.311747486466687540e-01
1.078999999999999959e+00,-8.140007223149516025e-02,-1.525110973235976053e-01,1.575022634289266477e-01
1.080000000000000071e+00,-1.270246503371015023e-01,-1.044572305037920479e-01,1.488367407880005766e-01
1.080999999999999961e+00,-1.751055650209811798e-01,-6.921196180214690685e-02,1.747785628221300014e-01
1.082000000000000073e+00,-2.010991108027708474e-01,-4.875924640462341031e-02,1.676622478130404270e-01
1.082999999999999963e+00,-2.445542750849114266e-01,4.574803654628041560e-02,1.566592022694203168e-01
1.084000000000000075e+00,-2.519533941766311513e-01,4.365139220498616413e-02,1.251789577548555465e-01
1.084999999999999964e+00,-2.595793463278834867e-01,8.265261578621509175e-02,9.936374894228747201e-02
1.086000000000000076e+00,-2.459693775768254931e-01,1.062550169216448098e-01,7.867551519720512865e-02
1.086999999999999966e+00,-2.622054476528070110e-01,1.260954557558662537e-01,5.313486002122792123e-02
1.088000000000000078e+00,-2.459138477973405457e-01,1.955914171966472159e-01,4.706294897368550750e-02
1.088999999999999968e+00,-2.208379923751780938e-01,2.040257449084052210e-01,1.404987553909846539e-02
1.090000000000000080e+00,-1.831976266200635028e-01,2.031928284460978729e-01,-2.471095212835062657e-02
1.090999999999999970e+00,-1.503959209497104932e-01,2.092998147948984811e-01,-7.203430638033729572e-02
1.092000000000000082e+00,-8.534354601962536313e-02,2.150216172145711091e-01,-8.890329234190975927e-02
1.092999999999999972e+00,-7.817421031374140183e-02,1.913431460099618842e-01,-1.173049575198406858e-01
1.094000000000000083e+00,-4.798580575741560189e-02,1.882653323832660375e-01,-1.092583008040940717e-01
1.094999999999999973e+00,2.361140655947452371e-02,1.496563003192410701e-01,-1.469585366654818093e-01
1.096000000000000085e+00,9.626849992428451741e-02,1.344751896504187971e-01,-1.448281627182643194e-01
1.096999999999999975e+00,1.046646964113560618e-01,1.036181580342347558e-01,-1.692931290699376534e-01
1.098000000000000087e+00,1.721148349513770826e-01,4.646175961811254557e-02,-1.857715581670656424e-01
1.098999999999999977e+00,1.909578445525244583e-01,8.558361563108511649e-03,-1.495574442930729109e-01
1.100000000000000089e+00,2.325469994672876295e-01,-4.417441306833485085e-03,-1.608394535914558499e-01
1.100999999999999979e+00,2.333927202910110188e-01,-5.388464106982289448e-02,-1.280312590728460709e-01
1.102000000000000091e+00,2.955739165669974411e-01,-7.385525864197205193e-02,-9.208300175516664909e-02
1.102999999999999980e+00,2.849832674219362483e-01,-1.277561004667064626e-01,-9.838430467473129049e-02
1.104000000000000092e+00,2.529466920758391413e-01,-1.550797967418747758e-01,-6.059581399423194514e-02
1.104999999999999982e+00,2.463942031362411633e-01,-1.548240595162901079e-01,-6.650880280504048447e-02
1.106000000000000094e+00,2.366708650725044272e-01,-1.767747884597904717e-01,-7.456768125216659861e-03
1.106999999999999984e+00,1.799001823669529598e-01,-2.225395593608254785e-01,-5.683164483844049125e-03
1.108000000000000096e+00,1.666996220310367205e-01,-2.008778182008227609e-01,5.232089281006793713e-02
1.108999999999999986e+00,1.118509690962169595e-01,-2.105393683371616920e-01,5.155076646808188362e-02
1.110000000000000098e+00,8.291822286205477455e-02,-2.005244601208935884e-01,1.039844840522759911e-01
1.110999999999999988e+00,5.631420704647761843e-02,-1.909793342018981099e-01,1.331248102875844386e-01
1.112000000000000099e+00,-1.381082259740345347e-02,-1.809584087567158717e-01,1.299051530138722044e-01
1.112999999999999989e+00,-6.685407700908818640e-02,-1.574654411426066047e-01,1.410347243967881026e-01
1.114000000000000101e+00,-1.025950811551935155e-01,-1.036835420488665116e-01,1.641980537702357190e-01
1.114999999999999991e+00,-1.441277932040972432e-01,-6.070009983502411277e-02,1.452090253565041789e-01
1.116000000000000103e+00,-1.990627062013464177e-01,-3.643874721546867118e-02,1.629738885503837775e-01
1.116999999999999993e+00,-2.035881334536253362e-01,-1.373723829324180121e-02,1.680177360802990738e-01
1.118000000000000105e+00,-2.458459532265584724e-01,3.278707963639784090e-02,1.384022464128857877e-01
1.118999999999999995e+00,-2.535559870023311735e-01,8.378066458648332493e-02,1.212041396087741585e-01
1.120000000000000107e+00,-2.438928035117426396e-01,1.048869725064250080e-01,1.061062942677456211e-01
1.120999999999999996e+00,-2.639577205570118879e-01,1.869521044420412448e-01,7.678695352951663000e-02
1.122000000000000108e+00,-2.575299233969190471e-01,1.463692160459195701e-01,5.230217230271218265e-02
1.122999999999999998e+00,-2.154283862380032832e-01,1.891960180081082021e-01,3.693097631578727558e-02
1.124000000000000110e+00,-2.132447417783366883e-01,2.272079811712705011e-01,8.434160093537038799e-03
1.125000000000000000e+00,-1.828361788974646740e-01,2.093041672936841735e-01,-2.577950025551052887e-03
1.125999999999999890e+00,-1.500880487104858663e-01,2.256472126237540621e-01,-6.422689060344199952e-02
1.127000000000000002e+00,-1.038604396873548663e-01,2.011205619953186086e-01,-1.047355525618077765e-01
1.127999999999999892e+00,-4.880416126762492091e-02,1.762870110970891357e-01,-8.597930798099313876e-02
1.129000000000000004e+00,2.023680140345026843e-02,1.682930469904383719e-01,-1.504140234172178792e-01
1.129999999999999893e+00,5.038201608703932188e-02,1.585383284978663099e-01,-1.087160067418380255e-01
1.131000000000000005e+00,9.038889668653854459e-02,1.008564649828319615e-01,-1.431892012657124125e-01
1.131999999999999895e+00,1.581300642551214386e-01,8.450270485851994751e-02,-1.902182000785249960e-01
1.133000000000000007e+00,1.661358676495788000e-01,7.962608094773292178e-02,-1.472922652686407818e-01
1.133999999999999897e+00,2.078466405626181457e-01,-1.368224765849850554e-02,-1.469258356810428379e-01
1.135000000000000009e+00,2.205139010096003604e-01,-3.137335319671997330e-02,-1.754129209812045620e-01
1.135999999999999899e+00,2.689763532688640435e-01,-7.802281060847987559e-02,-1.264056227022407608e-01
1.137000000000000011e+00,2.821444037776373315e-01,-1.033012953299258518e-01,-1.302364377209207780e-01
1.137999999999999901e+00,2.647903266459948890e-01,-1.600706389040645050e-01,-1.053440520935993718e-01
1.139000000000000012e+00,2.517331095857855416e-01,-1.692097782914555593e-01,-6.413004855317414044e-02
1.139999999999999902e+00,2.403810354619547174e-01,-1.899857095952241226e-01,-5.504612612151846968e-02
1.141000000000000014e+00,2.256425877600971297e-01,-1.939728036131140865e-01,-1.096178529715586929e-02
1.141999999999999904e+00,1.850284203768180757e-01,-2.055254043648443163e-01,3.526744265327119016e-02
1.143000000000000016e+00,1.571576030812811275e-01,-2.283875730803714144e-01,6.990008767787203592e-02
1.143999999999999906e+00,9.431382384760254867e-02,-2.215123700833976361e-01,4.788466330405224264e-02
1.145000000000000018e+00,4.598372727703906038e-02,-1.918192664097423117e-01,7.248634035450240987e-02
1.145999999999999908e+00,1.527448373456489344e-02,-1.822022025632454578e-01,1.362455785385149332e-01
1.147000000000000020e+00,-6.042225529064273321e-02,-1.467646397067033370e-01,1.697738690549500939e-01
1.147999999999999909e+00,-7.639273966302642660e-02,-1.004924970043185317e-01,1.355765283201199323e-01
1.149000000000000021e+00,-1.144258736164769225e-01,-4.655672408344566776e-02,1.558455606023545770e-01
1.149999999999999911e+00,-1.514290950360998589e-01,-2.216151103574934972e-02,1.642896552771594965e-01
1.151000000000000023e+00,-2.376451123711334212e-01,-3.700053993806410452e-03,1.612489828734336161e-01
1.151999999999999913e+00,-2.193358397464578446e-01,1.088062642065408710e-02,1.566346147425382029e-01
1.153000000000000025e+00,-2.267166512365862974e-01,6.957660768727072509e-02,1.191720753081211420e-01
1.153999999999999915e+00,-2.548992742830069047e-01,1.027939550364589533e-01,1.394587189704295793e-01
1.155000000000000027e+00,-2.620384950460538653e-01,1.652716635876467222e-01,1.234543761057338429e-01
1.155999999999999917e+00,-2.689777676742867163e-01,1.681397319343740648e-01,5.003740635981083346e-02
1.157000000000000028e+00,-2.135858068702884416e-01,2.157928710698080732e-01,5.050935047283073437e-02
1.157999999999999918e+00,-2.162810769752786244e-01,2.121167469605961531e-01,1.735012898397297887e-02
1.159000000000000030e+00,-2.233704412287706165e-01,2.095629566235069352e-01,-1.100087726827543230e-02
1.159999999999999920e+00,-1.544482168850864479e-01,2.243771146912763026e-01,-3.602381833153021906e-02
1.161000000000000032e+00,-1.300350836510676678e-01,1.911243363175491317e-01,-6.338760862223297154e-02
1.161999999999999922e+00,-9.314219170756232735e-02,1.856854623159188422e-01,-1.003457244475747662e-01
1.163000000000000034e+00,-1.569613580006333498e-02,1.862746779689669896e-01,-9.495437711283936932e-02
1.163999999999999924e+00,2.042640110944851997e-02,1.349203500885272355e-01,-1.183533244661119366e-01
1.165000000000000036e+00,7.746212733326454658e-02,1.255587402757624427e-01,-1.630163837851062447e-01
1.165999999999999925e+00,1.099708983500922166e-01,6.166351474243351311e-02,-1.556328703189797380e-01
1.167000000000000037e+00,1.474829442931404611e-01,3.160949420754501082e-02,-1.674662821169075888e-01
1.167999999999999927e+00,1.943507308306786363e-01,1.434998508770261427e-03,-1.523903061646367796e-01
1.169000000000000039e+00,2.304032765144096717e-01,-3.081601140636424166e-02,-1.623791561096496194e-01
1.169999999999999929e+00,2.587936107672915154e-01,-7.774205357214399037e-02,-1.538961929064232570e-01
1.171000000000000041e+00,2.719771448669311975e-01,-1.296102095924842601e-01,-1.363666539338795614e-01
1.171999999999999931e+00,2.801737098708749762e-01,-1.461558291934629272e-01,-9.719353463475767507e-02
1.173000000000000043e+00,2.705437132638960351e-01,-1.454050664274902371e-01,-1.069290359705223625e-01
1.173999999999999932e+00,2.421530844432838447e-01,-1.858385376954574952e-01,-8.293574066802752998e-02
1.175000000000000044e+00,2.280551425367063345e-01,-2.076647164012316027e-01,-2.124619512580947292e-02
1.175999999999999934e+00,1.995936849650742639e-01,-2.080498025926137140e-01,9.377140967901960791e-03
1.177000000000000046e+00,1.675329215260784599e-01,-1.955189579146917045e-01,1.976796410267885745e-02
1.177999999999999936e+00,1.340623368636932045e-01,-2.249539022956100476e-01,3.869351706622968512e-02
1.179000000000000048e+00,8.512630409921191632e-02,-1.728078078862695932e-01,8.571291555298683751e-02
1.179999999999999938e+00,3.184210791100493959e-02,-1.944328101996720681e-01,9.112448367497438806e-02
1.181000000000000050e+00,-1.155145889156666827e-02,-1.404680775160752626e-01,1.217020748867910784e-01
