time,acc_x,acc_y,acc_z
0.000000000000000000e+00,2.053401034249174029e-01,3.803565347852895795e-01,4.351989133117032706e-03
1.000000000000000021e-03,2.931490634530801165e-01,3.894315680547840719e-01,6.919926735533099560e-02
2.000000000000000042e-03,2.074938256809569503e-01,2.912483532855298374e-01,1.187858575085583290e-03
3.000000000000000062e-03,6.595643142769765099e-02,1.404162920986586627e-01,-7.090452727135318489e-02
4.000000000000000083e-03,1.821231569145405349e-02,3.900877843100639120e-02,-1.034321162498165331e-01
5.000000000000000104e-03,1.283715094467255680e-01,1.661992972675270519e-01,-1.897295675976883381e-02
6.000000000000000125e-03,3.761544913527662959e-01,2.874692774344436152e-01,1.331494228913253086e-01
7.000000000000000146e-03,5.762676893770669606e-01,4.236922101940766572e-01,3.131145989457932433e-01
8.000000000000000167e-03,6.191178614369159394e-01,3.864931793929117787e-01,3.749079610203426838e-01
8.999999999999999320e-03,4.760596014321184510e-01,1.794978205174319330e-01,3.314936996303003980e-01
1.000000000000000021e-02,1.712706421259847511e-01,-4.635513782001856459e-02,1.901747402924714170e-01
1.099999999999999936e-02,-8.732724195496248398e-02,-2.836647409707109824e-01,7.399125873493757333e-02
1.200000000000000025e-02,-1.552947193757515387e-01,-3.005984753086040628e-01,2.333569104671489106e-03
1.299999999999999940e-02,-1.153057336044793768e-01,-1.953254025042095721e-01,5.763421763704474482e-02
1.400000000000000029e-02,5.251081334551392643e-02,-6.595929163367005021e-02,1.360016441761237316e-01
1.499999999999999944e-02,9.751117664014079256e-02,-4.986568767342387798e-03,2.087592979554278305e-01
1.600000000000000033e-02,-2.754779707298957159e-02,-1.739240357274978166e-01,1.244913824221659526e-01
1.700000000000000122e-02,-3.090259013129075250e-01,-3.434751351269356712e-01,-1.693755187044780272e-02
1.799999999999999864e-02,-5.670115157611652634e-01,-4.850109603895961241e-01,-2.149398075094419991e-01
1.899999999999999953e-02,-6.750146900725165766e-01,-4.704926517932651042e-01,-3.257447738112056457e-01
2.000000000000000042e-02,-5.212747839323417232e-01,-2.982614848472144864e-01,-3.308348192194254245e-01
2.100000000000000130e-02,-2.531961108626795132e-01,-7.519432769329910914e-03,-2.227453862336665757e-01
2.199999999999999872e-02,-2.688523155899425615e-02,1.869732873805720341e-01,-1.001964383160100364e-01
2.299999999999999961e-02,5.855400498880326127e-02,1.756396792791720951e-01,-2.880644005681611344e-02
2.400000000000000050e-02,-5.100899858025812611e-02,8.682664904738114642e-02,-1.056565856431705142e-01
2.500000000000000139e-02,-1.962633599150349906e-01,-4.562640714346118467e-03,-1.894337632967262319e-01
2.599999999999999881e-02,-2.645234199584584611e-01,-1.197022617066383077e-02,-2.765882272000201314e-01
2.699999999999999969e-02,-8.946196785573418131e-02,1.050781251763339141e-01,-2.422819346329697365e-01
2.800000000000000058e-02,2.149277720104487699e-01,3.628835068958310428e-01,-9.057265494515746862e-02
2.900000000000000147e-02,4.858407572088153659e-01,5.036095963989589697e-01,1.083514333096122079e-01
2.999999999999999889e-02,6.347107657859328844e-01,4.812116847371656347e-01,2.515746592348158117e-01
3.099999999999999978e-02,5.333850816257726946e-01,3.005166585642238264e-01,2.768670653309909246e-01
3.200000000000000067e-02,3.143236954213038392e-01,1.061983360715314378e-01,1.866927788090844420e-01
3.300000000000000155e-02,8.592324750422739021e-02,-8.100262380628789338e-02,7.444768187488580435e-02
3.400000000000000244e-02,5.051016404428911033e-02,-7.891423406874753521e-02,3.901054894150849522e-02
3.500000000000000333e-02,1.369027295254759136e-01,2.332654132673851050e-02,1.009247840697758969e-01
3.599999999999999728e-02,3.219628827175917696e-01,1.366868428742714081e-01,2.152416734303221613e-01
3.699999999999999817e-02,3.409057928828061468e-01,1.113735235095290182e-01,3.509138215881525968e-01
3.799999999999999906e-02,2.513462513242585850e-01,-7.498773686386525639e-02,3.403135006903784121e-01
3.899999999999999994e-02,-4.516774794405734733e-02,-3.276511046431939134e-01,2.130636745311484115e-01
4.000000000000000083e-02,-3.710276877093825476e-01,-4.872667126496349477e-01,1.597456551898422325e-02
4.100000000000000172e-02,-5.356070339532875701e-01,-4.987207109800952942e-01,-1.508087789949531521e-01
4.200000000000000261e-02,-4.862890454189961464e-01,-3.424363552180312853e-01,-2.216846161728792119e-01
4.299999999999999656e-02,-3.185168927050957000e-01,-1.352220989290542352e-01,-1.440948333261713454e-01
4.399999999999999745e-02,-1.219774038071863298e-01,-4.261690547814092969e-03,-4.746242741797025017e-02
4.499999999999999833e-02,-1.084075137267660055e-01,-3.109518369588740172e-02,-2.400240478130688526e-02
4.599999999999999922e-02,-2.466627567870761095e-01,-1.502632492124561236e-01,-5.462205855445457364e-02
4.700000000000000011e-02,-4.359595055815330134e-01,-2.285213598171028371e-01,-1.914644791859515249e-01
4.800000000000000100e-02,-5.199609511392151440e-01,-1.926554769367375408e-01,-3.536925473016788168e-01
4.900000000000000189e-02,-3.954433170711509349e-01,-1.002668186780055740e-04,-3.669797654470363657e-01
5.000000000000000278e-02,-8.563690780369813405e-02,2.570894624011337837e-01,-2.802527727997469742e-01
5.099999999999999672e-02,2.155721276487491123e-01,4.274549696731727577e-01,-1.125875419222402973e-01
5.199999999999999761e-02,4.224498916839700136e-01,4.459737750351879249e-01,3.793647934566099500e-02
5.299999999999999850e-02,3.794322396494031469e-01,3.202395841192628989e-01,1.005738410062297222e-01
5.399999999999999939e-02,2.091740182820341909e-01,1.450418198724682528e-01,6.434611556605758509e-02
5.500000000000000028e-02,7.782749022596331667e-02,7.719525249966330271e-02,2.957955686566308973e-03
5.600000000000000117e-02,9.014667045881183394e-02,1.216241006000781388e-01,-4.179458945079250060e-02
5.700000000000000205e-02,2.624037567616047117e-01,2.432527516074593221e-01,1.297279491250096298e-02
5.800000000000000294e-02,4.792037667138502322e-01,3.309798190083568237e-01,1.652010879093399887e-01
5.899999999999999689e-02,5.959010943718836550e-01,3.156105960607152316e-01,3.012568962346640622e-01
5.999999999999999778e-02,5.018826840304201342e-01,1.134173770598929515e-01,3.936623024666825454e-01
6.099999999999999867e-02,2.728241364771733513e-01,-1.609715322907203927e-01,3.416944271486548335e-01
6.199999999999999956e-02,-5.467235400662414507e-02,-3.473515945859228515e-01,1.971714822644032028e-01
6.300000000000000044e-02,-2.674353792206130009e-01,-3.846158647911219752e-01,2.930935377638101483e-02
6.400000000000000133e-02,-2.599216815243869938e-01,-2.753715132018434431e-01,-3.572925701086324124e-02
6.500000000000000222e-02,-1.396942957073905867e-01,-9.711905269136271446e-02,-2.667293459294813734e-02
6.600000000000000311e-02,-3.811691177749159873e-03,-3.622775303128050045e-02,4.857794125298806748e-02
6.700000000000000400e-02,2.386097587933914965e-02,-1.588638003118728881e-01,1.155327298786278933e-01
6.800000000000000488e-02,-2.090709776126102037e-01,-3.241314747080558667e-01,7.750814720804122260e-02
6.900000000000000577e-02,-4.704562740863074688e-01,-4.241279518913292357e-01,-8.397408499972501550e-02
7.000000000000000666e-02,-6.300535768905298761e-01,-3.912290906126548728e-01,-2.821702544282458369e-01
7.099999999999999367e-02,-5.931687036678285896e-01,-1.978428688176993022e-01,-3.856554081781899956e-01
7.199999999999999456e-02,-3.623110024706143184e-01,6.575725382224169302e-02,-3.452752331731157587e-01
7.299999999999999545e-02,-6.606533008004299157e-02,2.592132999184595388e-01,-2.490480483648488397e-01
7.399999999999999634e-02,1.088048671028829101e-01,3.056499212947845212e-01,-8.643757639805901838e-02
7.499999999999999722e-02,1.186705084358235102e-01,1.857136361033608907e-01,-1.139194411143852788e-02
7.599999999999999811e-02,1.981084849226634123e-02,5.345316275237279452e-02,-3.775346708578193600e-02
7.699999999999999900e-02,-1.361245787467748602e-01,4.102565203782304604e-02,-1.178268966034466819e-01
7.799999999999999989e-02,-1.076538981894132468e-01,1.479891324629806493e-01,-2.056089929687623941e-01
7.900000000000000078e-02,1.147731290002910742e-01,3.429989813813407729e-01,-1.591297531590667169e-01
8.000000000000000167e-02,4.139253586728242618e-01,5.199102057286824063e-01,-2.188667961110727159e-02
8.100000000000000255e-02,6.138901573503604547e-01,4.641519480153706856e-01,1.682812488792046479e-01
8.200000000000000344e-02,6.350668296645267663e-01,2.563818921107797744e-01,3.259587397592147995e-01
8.300000000000000433e-02,4.402885047145214670e-01,2.440685291216447561e-02,3.035964411251658168e-01
8.400000000000000522e-02,1.819647511580068100e-01,-1.677167328243635014e-01,2.638939501915519847e-01
8.500000000000000611e-02,-1.483164752622667670e-02,-1.632799256266128929e-01,1.511347183465878430e-01
8.599999999999999312e-02,-2.803015929972484110e-02,-7.399992940201285951e-02,3.165455643468294278e-02
8.699999999999999400e-02,1.458439771257723228e-01,4.505731472248441366e-02,6.551147138941813830e-02
8.799999999999999489e-02,2.535376083538693481e-01,2.011506065075885016e-02,1.812573079343773041e-01
8.899999999999999578e-02,2.146377135808480163e-01,-1.216321342144310452e-01,2.714593105593615108e-01
8.999999999999999667e-02,6.937926059161234581e-03,-3.405022782352787880e-01,2.896636374270368797e-01
9.099999999999999756e-02,-2.892995561314197772e-01,-5.052415405511965218e-01,1.539937475410826928e-01
9.199999999999999845e-02,-5.498283243351141936e-01,-4.898866349314868196e-01,-5.712682155990400634e-02
9.299999999999999933e-02,-5.968471628027331999e-01,-3.450251318677515777e-01,-2.078996933005981262e-01
9.400000000000000022e-02,-4.636605511517695177e-01,-1.233773668136837059e-01,-2.677300752610413115e-01
9.500000000000000111e-02,-2.088142295641166046e-01,4.995920220538228179e-02,-2.204709090495878820e-01
9.600000000000000200e-02,-7.742651319762355877e-02,5.869485634265098756e-02,-9.243881083892407924e-02
9.700000000000000289e-02,-1.009781940041498682e-01,-5.363976882047429007e-02,-3.190962950400880876e-02
9.800000000000000377e-02,-2.272861622542122206e-01,-1.525110924497637688e-01,-5.164682824004145772e-02
9.900000000000000466e-02,-3.870185834503467870e-01,-1.158565119176473007e-01,-1.801065794626607597e-01
1.000000000000000056e-01,-3.823628061344060969e-01,6.279579520415967675e-02,-3.030490151275441191e-01
1.010000000000000064e-01,-1.695246046403643125e-01,2.998220621596994206e-01,-3.236289885982666092e-01
1.019999999999999934e-01,1.514410597314389817e-01,4.802524934911226451e-01,-2.412135269615737487e-01
1.029999999999999943e-01,4.123742449878557981e-01,4.883317722753969248e-01,-6.185662094752441414e-02
1.039999999999999952e-01,5.373945170080426381e-01,3.283441519989588886e-01,1.087092175213722617e-01
1.049999999999999961e-01,4.158518225367712207e-01,1.471085516979584451e-01,1.852287545818671055e-01
1.059999999999999970e-01,2.310613084824008068e-01,2.558344963940005490e-02,1.907168216632514346e-01
1.069999999999999979e-01,9.338430304445698160e-02,5.130533775346399900e-02,6.729200102597969468e-02
1.079999999999999988e-01,1.474823054951682200e-01,1.946175353498232341e-01,2.477916159382529890e-02
1.089999999999999997e-01,2.936172506611161581e-01,3.050250751918726633e-01,4.164687610437555615e-02
1.100000000000000006e-01,5.050276754975204785e-01,2.124862693729915319e-01,1.701809306886485906e-01
1.110000000000000014e-01,5.115657187211871681e-01,2.275844715009791089e-02,3.144662233825539777e-01
1.120000000000000023e-01,3.141042062382507494e-01,-2.500152845075095387e-01,3.992286716319951023e-01
1.130000000000000032e-01,1.048904538100210899e-02,-4.234105617309434355e-01,3.168229714491145876e-01
1.140000000000000041e-01,-3.006881990103323909e-01,-4.397724962872819887e-01,1.519975556273676087e-01
1.150000000000000050e-01,-3.648584507854826242e-01,-3.137957193825453017e-01,-1.377958495185308690e-02
1.160000000000000059e-01,-3.263416267241173729e-01,-1.404582839460078725e-01,-1.036675639837938423e-01
1.170000000000000068e-01,-1.555176569599361902e-01,-7.977803176755657311e-02,-7.949878852795787265e-02
1.179999999999999938e-01,-4.898085435623261708e-02,-1.157704748674823481e-01,-1.527448420073797448e-02
1.189999999999999947e-01,-1.292682679636727727e-01,-2.543604965149154351e-01,5.315392330508991736e-02
1.199999999999999956e-01,-3.176572380293171682e-01,-3.530168652552890807e-01,1.054186848746264255e-02
1.209999999999999964e-01,-5.457362348293298693e-01,-3.292986158341384417e-01,-9.719056734895728522e-02
1.219999999999999973e-01,-6.149823743632643058e-01,-1.112920311811007174e-01,-2.926253891619752801e-01
1.229999999999999982e-01,-4.353242739159053354e-01,1.167307818533938474e-01,-3.631349056617712567e-01
1.239999999999999991e-01,-1.676285586774409198e-01,3.403267396979599013e-01,-3.805281752514467208e-01
1.250000000000000000e-01,1.490178838547571993e-01,3.679471853330541498e-01,-2.377409915803669060e-01
1.260000000000000009e-01,2.574832048214040214e-01,2.532462421578572376e-01,-7.724120009362910044e-02
1.270000000000000018e-01,1.978899352449616234e-01,1.122125351372380425e-01,2.700481735302746877e-02
1.280000000000000027e-01,2.841778924207969889e-02,6.372397640038184041e-02,6.044743025236919316e-03
1.290000000000000036e-01,-2.769903718103557469e-02,1.432355893728413931e-01,-5.153846552117657964e-02
1.300000000000000044e-01,4.719915509204448273e-02,3.222566073314724888e-01,-1.520667973670285777e-01
1.310000000000000053e-01,3.199241819049405411e-01,4.564521409835055055e-01,-9.786859915811656208e-02
1.320000000000000062e-01,5.579574204110527846e-01,4.032311600951294372e-01,-9.725410305295874823e-04
1.330000000000000071e-01,6.465345573406702240e-01,2.186071695567878836e-01,2.166681660669021459e-01
1.340000000000000080e-01,5.519058202317244088e-01,-1.902299243567371831e-02,3.372080269439155509e-01
1.350000000000000089e-01,2.615786773624634298e-01,-2.324520528377093942e-01,3.466343362734297662e-01
1.360000000000000098e-01,-1.933974008923036031e-02,-2.686138944975481890e-01,2.695852622976709356e-01
1.370000000000000107e-01,-1.192550877020322475e-01,-1.441779557817175483e-01,1.271069695178970449e-01
1.380000000000000115e-01,-7.379316222018508786e-02,-3.006825261818908343e-02,1.859383928241369749e-02
1.390000000000000124e-01,6.282492429233260678e-02,-4.403987056820182072e-02,3.791090602231551171e-02
1.400000000000000133e-01,1.561781807511647691e-01,-1.578654314245873935e-01,1.075398729718471114e-01
1.409999999999999865e-01,4.172332862495775618e-02,-3.537434137011007951e-01,1.943661809849026034e-01
1.419999999999999873e-01,-2.151437407624052500e-01,-4.922527841577563068e-01,2.089676327127875655e-01
1.429999999999999882e-01,-4.890980604741809734e-01,-4.694301122679463423e-01,9.580943236994601819e-02
1.439999999999999891e-01,-6.422812001902650225e-01,-2.790445801744307897e-01,-1.006246097675973505e-01
1.449999999999999900e-01,-5.692049115985290397e-01,-2.896608155780214244e-02,-2.631506118691592233e-01
1.459999999999999909e-01,-3.641377029852011504e-01,1.241578417725837657e-01,-3.147844742763928894e-01
1.469999999999999918e-01,-8.222153673675790253e-02,1.559384447266879414e-01,-2.487402165736192217e-01
1.479999999999999927e-01,9.005720436845447013e-03,4.091828611548979644e-02,-1.598847596714884911e-01
1.489999999999999936e-01,-5.523266880015137437e-02,-6.594684375816751987e-02,-5.580840228191680241e-02
1.499999999999999944e-01,-2.142812115183744537e-01,-5.455865208796121385e-02,-8.905078437283502069e-02
1.509999999999999953e-01,-2.989162650572974589e-01,1.191849860476079104e-01,-1.733906742585581418e-01
1.519999999999999962e-01,-1.790693251424173016e-01,3.466495756313678900e-01,-2.644803918176593105e-01
1.529999999999999971e-01,7.475281487067916841e-02,5.029263188243301430e-01,-2.952702305260574422e-01
1.539999999999999980e-01,3.825164053806487940e-01,4.791414525064300878e-01,-2.049723292077365588e-01
1.549999999999999989e-01,5.599394731195128649e-01,3.318329578081666287e-01,-2.070356728015013484e-02
1.559999999999999998e-01,5.335698225737498523e-01,1.157510317720751580e-01,1.488858267500750565e-01
1.570000000000000007e-01,3.481597795501390480e-01,-3.863918899378794569e-02,2.425459843358984402e-01
1.580000000000000016e-01,1.415164994386992892e-01,-2.497373274044690714e-02,2.340399075144569407e-01
1.590000000000000024e-01,6.970963892510698146e-02,6.688964260987882715e-02,1.224044752731140301e-01
1.600000000000000033e-01,1.331598960113445085e-01,1.513211936171225402e-01,4.427796288203184050e-02
1.610000000000000042e-01,3.253415662846252943e-01,1.161791891629530976e-01,5.389577415998254156e-02
1.620000000000000051e-01,4.209525994840871421e-01,-5.563763145533638654e-02,1.574001749354445312e-01
1.630000000000000060e-01,3.605870312373383180e-01,-2.649818231845679217e-01,2.940309106012322649e-01
1.640000000000000069e-01,1.158170801630579727e-01,-4.684822642601569331e-01,3.479852645372801256e-01
1.650000000000000078e-01,-2.606724237780282394e-01,-4.879475309231454117e-01,2.804410673380874353e-01
1.660000000000000087e-01,-4.590429434001335185e-01,-3.221683992001731500e-01,1.297993204769702924e-01
1.670000000000000095e-01,-4.741003505389217443e-01,-1.442790594920615732e-01,-7.695016556770742366e-02
1.680000000000000104e-01,-3.481786461379705044e-01,-4.858186125837992558e-02,-1.598154778552317024e-01
1.690000000000000113e-01,-1.655397792822007330e-01,-6.434738205986885451e-02,-1.852764057128464814e-01
1.700000000000000122e-01,-8.959609121323074132e-02,-1.886744783082784371e-01,-9.109277027235054836e-02
1.710000000000000131e-01,-2.148042099581735642e-01,-2.942673716547119511e-01,-1.926474332191638328e-02
1.719999999999999862e-01,-4.323586219138738640e-01,-2.334632003415824109e-01,-3.013625151029886151e-02
1.729999999999999871e-01,-5.334364834596129201e-01,-4.293404402527901953e-02,-1.359003449583412737e-01
1.739999999999999880e-01,-4.957074959493188993e-01,2.426592770516448061e-01,-2.828845103120906646e-01
1.749999999999999889e-01,-2.116438278327155698e-01,4.233142962661859965e-01,-4.007944212538541162e-01
1.759999999999999898e-01,8.477341473729148313e-02,4.314801975059047168e-01,-3.536540319959181056e-01
1.769999999999999907e-01,3.221087840067810015e-01,2.893007369886785862e-01,-2.047083615785921240e-01
1.779999999999999916e-01,3.668461669982761020e-01,1.361908034954442959e-01,-4.077346834219706950e-02
1.789999999999999925e-01,2.352231359833095448e-01,6.300734368291971421e-02,9.220935714481204304e-02
1.799999999999999933e-01,7.328686435891858253e-02,1.166284679212910014e-01,7.748703677902862852e-02
1.809999999999999942e-01,4.916287227439922192e-02,2.804299004352476810e-01,1.982223752555659427e-02
1.819999999999999951e-01,1.623326069413934536e-01,3.949458597915942448e-01,-7.249703802689083654e-02
1.829999999999999960e-01,4.312832425275053283e-01,3.633878786091980229e-01,-6.959717939957492383e-02
1.839999999999999969e-01,6.237567087210573735e-01,1.375415527401659399e-01,6.744692493043487336e-02
1.849999999999999978e-01,5.822065102362680156e-01,-1.100318880766228830e-01,2.321484014299666221e-01
1.859999999999999987e-01,3.529658377865784180e-01,-3.204142338987970851e-01,3.682466700872154552e-01
1.869999999999999996e-01,5.627356757447785074e-02,-3.727025333528227180e-01,4.077205362810022438e-01
1.880000000000000004e-01,-1.700378519979151570e-01,-2.457866159736275535e-01,2.781910643108261305e-01
1.890000000000000013e-01,-2.097472116682917997e-01,-1.057618706889090904e-01,1.307696902370399372e-01
1.900000000000000022e-01,-1.199140427853152419e-01,-5.824590952383525144e-02,-2.992280472691774117e-03
1.910000000000000031e-01,2.184020529681205552e-02,-1.571160268249411351e-01,-9.823093064351516926e-03
1.920000000000000040e-01,4.201764312580106436e-02,-3.392652100246264513e-01,4.693257325855147710e-02
1.930000000000000049e-01,-1.471451408791030480e-01,-4.473709067689600194e-01,1.594576916077415085e-01
1.940000000000000058e-01,-3.864174809106444841e-01,-4.347194893235893365e-01,1.425682775825086457e-01
1.950000000000000067e-01,-5.991967322400544305e-01,-2.158477575531996817e-01,1.526184513128024667e-02
1.960000000000000075e-01,-6.372272034013111153e-01,2.308918739343844562e-02,-1.439365334446658096e-01
1.970000000000000084e-01,-4.554729609519768130e-01,2.268356804072995669e-01,-2.979238507256459778e-01
1.980000000000000093e-01,-1.713581463675070138e-01,2.462427130797995023e-01,-3.899847673414575389e-01
1.990000000000000102e-01,3.310999354142226542e-02,1.481039821918891386e-01,-3.048791367302984279e-01
2.000000000000000111e-01,1.042696970402517270e-01,3.444914692391259914e-02,-1.842754714240462666e-01
2.010000000000000120e-01,-1.179912142980481422e-02,2.761299669617549302e-02,-8.083440445686898568e-02
2.020000000000000129e-01,-1.666652395091191563e-01,1.544704036728795360e-01,-2.744475786510226778e-02
2.030000000000000138e-01,-1.768697290372119868e-01,3.540649767018792526e-01,-1.222736958722027562e-01
2.039999999999999869e-01,2.073147886495824155e-02,5.029529006901708454e-01,-2.265807605820590598e-01
2.049999999999999878e-01,3.283963705481206530e-01,4.942517788851098492e-01,-2.324913265250466987e-01
2.059999999999999887e-01,5.456784217974997020e-01,2.800127087813767957e-01,-1.377369301694554848e-01
2.069999999999999896e-01,6.373811334685318686e-01,6.197644581267874875e-02,2.234296274085618636e-02
2.079999999999999905e-01,4.850893310016023419e-01,-1.094883286616843560e-01,2.238949301958230165e-01
2.089999999999999913e-01,2.290951535012034079e-01,-1.418578774655603614e-01,3.154520532737295491e-01
2.099999999999999922e-01,5.857794185380567342e-02,2.030961599121717392e-02,2.739512819166939894e-01
2.109999999999999931e-01,1.330154340313019663e-02,7.876329294040569640e-02,1.650459114088496382e-01
2.119999999999999940e-01,1.344057243954261405e-01,6.953675012500300234e-02,6.222030748624172297e-02
2.129999999999999949e-01,2.739761567911780382e-01,-9.236898957064539062e-02,3.237922231970510184e-02
2.139999999999999958e-01,3.113443967588285233e-01,-3.397562103621923901e-01,1.256050131807857906e-01
2.149999999999999967e-01,1.165887147980102512e-01,-5.046505789402275788e-01,2.422140507552803801e-01
2.159999999999999976e-01,-1.796078462727255520e-01,-5.015969558388414518e-01,3.270156122060129400e-01
2.169999999999999984e-01,-4.449476572883583891e-01,-3.225963338066470953e-01,2.635282292257256631e-01
2.179999999999999993e-01,-5.642306606573771477e-01,-1.239393481339979980e-01,1.031847307307809103e-01
2.190000000000000002e-01,-4.926683471696874927e-01,-1.069003501118276182e-02,-1.145440105445394430e-01
2.200000000000000011e-01,-2.673467411531182392e-01,-8.771276774906995935e-03,-2.312274896606144048e-01
2.210000000000000020e-01,-9.202234048585464232e-02,-9.307160912896907112e-02,-2.638431573671155550e-01
2.220000000000000029e-01,-7.569473246524312249e-02,-1.824433895551693940e-01,-1.449183569920334536e-01
2.230000000000000038e-01,-2.390430443279010220e-01,-1.675969732115599464e-01,-6.406317136750168395e-02
2.240000000000000047e-01,-4.140994722631774483e-01,-1.081656037135290786e-03,-2.039286035425746588e-02
2.250000000000000056e-01,-4.522351260576608079e-01,2.864044705532368118e-01,-1.267051884743875256e-01
2.260000000000000064e-01,-3.013567475962464215e-01,4.584911679657358019e-01,-2.777497449925855344e-01
2.270000000000000073e-01,3.491195735721256549e-02,4.651609351096047118e-01,-3.770846534035304787e-01
2.280000000000000082e-01,3.006401292372396505e-01,3.392277919664924979e-01,-3.362099515216741552e-01
2.290000000000000091e-01,4.636519473681438019e-01,1.524344863442661513e-01,-1.861286616497070667e-01
2.300000000000000100e-01,4.276779880630667274e-01,5.132802747264294391e-02,-2.065466611185904494e-02
2.310000000000000109e-01,2.427946412266914211e-01,8.763292659471762225e-02,1.512231852331367143e-01
2.320000000000000118e-01,9.503292600319782069e-02,2.060394059954634427e-01,1.730324501667483972e-01
2.330000000000000127e-01,1.005171737707491603e-01,2.927344005635291735e-01,7.371347858780444295e-02
2.340000000000000135e-01,2.854082856880784114e-01,2.565121067255762277e-01,2.954082118065784815e-03
2.349999999999999867e-01,4.998030783257116916e-01,4.967816622733812332e-02,-1.936097113184173657e-02
2.359999999999999876e-01,5.580555953359576105e-01,-2.020422926716645140e-01,9.378890886698357243e-02
2.369999999999999885e-01,4.381414998494962965e-01,-3.754223461307397147e-01,2.599093659448538651e-01
2.379999999999999893e-01,1.272501324636025610e-01,-3.915286135587652816e-01,3.575999570737501410e-01
2.389999999999999902e-01,-1.714644486137259227e-01,-2.945267257678256256e-01,3.774835375235446877e-01
2.399999999999999911e-01,-3.481660364866623891e-01,-1.185642325876354874e-01,2.867893255641250638e-01
2.409999999999999920e-01,-2.893918686285789632e-01,-5.008553421978683556e-02,1.013686770140876103e-01
2.419999999999999929e-01,-1.549423932627022604e-01,-1.546010463594964246e-01,-5.817559142174501957e-02
2.429999999999999938e-01,-1.101343748009898406e-02,-2.868608065578385213e-01,-7.504925334984198504e-02
2.439999999999999947e-01,-6.537425652668288345e-02,-4.135815346905218348e-01,-1.435935668070018739e-02
2.449999999999999956e-01,-2.671187811184367877e-01,-3.838827666916416192e-01,7.078597710906581186e-02
2.459999999999999964e-01,-5.159842834942529599e-01,-1.482748059589346912e-01,6.908396806278792324e-02
2.469999999999999973e-01,-6.486856535502130150e-01,8.834266143073730981e-02,-4.756901543754173643e-03
2.479999999999999982e-01,-5.159364241963181330e-01,2.986800712036781769e-01,-1.622519050712072364e-01
2.489999999999999991e-01,-2.910440079832170013e-01,3.135476805825663238e-01,-3.416064397989262980e-01
2.500000000000000000e-01,4.526443714510670902e-02,2.289534175199817445e-01,-3.942255927437945395e-01
2.510000000000000009e-01,1.854775806310332009e-01,7.491640604462770914e-02,-3.281480954391463034e-01
2.520000000000000018e-01,1.602005599616556919e-01,7.030828253995029253e-02,-1.780699771484514360e-01
2.530000000000000027e-01,3.410286262152447539e-02,1.633918189177817892e-01,-3.778963042388108068e-02
2.540000000000000036e-01,-8.531789262666102103e-02,3.370642188935714656e-01,7.746192248848992462e-03
2.550000000000000044e-01,-1.579828510034942887e-02,4.871124062773996566e-01,-3.528431587327330449e-02
2.560000000000000053e-01,2.100448052068885074e-01,4.326392372522024354e-01,-1.404882487811933700e-01
2.570000000000000062e-01,4.959319330019893446e-01,2.304330883223855431e-01,-1.599582272186343690e-01
2.580000000000000071e-01,6.402537589253811667e-01,-9.489821348339146437e-03,-8.851276340990718583e-02
2.590000000000000080e-01,6.071427634023486286e-01,-1.876298135889348240e-01,8.816065812170813254e-02
2.600000000000000089e-01,3.489849841469636615e-01,-2.134535915926418226e-01,2.606972050184106493e-01
2.610000000000000098e-01,8.818740708464116451e-02,-9.672007693175341259e-02,3.581969141817907265e-01
2.620000000000000107e-01,-5.826705336442939559e-02,-2.118890213000754544e-02,3.439448325319205968e-01
2.630000000000000115e-01,-2.374531389643264739e-02,-9.358609292615189396e-03,1.868577107913966806e-01
2.640000000000000124e-01,8.568027609364514685e-02,-1.021719072996169070e-01,8.344074063096335037e-02
2.650000000000000133e-01,1.800195432279792784e-01,-3.582375786819859687e-01,4.427856930171232552e-02
2.660000000000000142e-01,1.358019559489010708e-01,-5.060787330918384841e-01,9.550092972092072419e-02
2.670000000000000151e-01,-1.162295473614975844e-01,-4.871155051248877710e-01,1.946504532598609394e-01
2.680000000000000160e-01,-3.981447456940206409e-01,-3.149297619914094293e-01,2.454503165143748500e-01
2.690000000000000169e-01,-6.023546048500406647e-01,-5.034663335180029203e-02,1.866546408291901160e-01
2.700000000000000178e-01,-6.022852348097075259e-01,1.074578443919733395e-01,3.228384661059119365e-02
2.710000000000000187e-01,-4.165222137712850103e-01,9.586543270440464615e-02,-1.762898428232587411e-01
2.720000000000000195e-01,-1.656370593929357149e-01,1.194809835927104422e-02,-2.982652164232198477e-01
2.730000000000000204e-01,-2.721665439353429181e-02,-9.248489154116155964e-02,-2.744731056208708497e-01
2.740000000000000213e-01,-6.377744443945247699e-02,-8.906863556483197997e-02,-1.988933931304987246e-01
2.750000000000000222e-01,-2.306033018573065974e-01,1.053104102444969714e-01,-9.216954127202847680e-02
2.760000000000000231e-01,-3.590145382258715379e-01,3.439149406604883885e-01,-3.938795471150155492e-02
2.770000000000000240e-01,-2.948506097016376226e-01,5.245784533486845813e-01,-1.155801404598360976e-01
2.780000000000000249e-01,-3.774946932499236713e-02,4.933195543692924789e-01,-2.245896483016538436e-01
2.790000000000000258e-01,2.913167894828480042e-01,3.398078535527588317e-01,-3.078646127267560817e-01
2.800000000000000266e-01,5.303673833668919313e-01,1.199122895779494713e-01,-2.945012371030932274e-01
2.810000000000000275e-01,5.379684469766619070e-01,-4.911403992931078454e-03,-1.416176172970165237e-01
2.819999999999999729e-01,3.771931080012989046e-01,2.787003586823180029e-02,5.395436456663046249e-02
2.829999999999999738e-01,1.928458236924019686e-01,1.086183631516700054e-01,2.110215737199046537e-01
2.839999999999999747e-01,7.142749440750620349e-02,2.055170883286526751e-01,2.511584742753780186e-01
2.849999999999999756e-01,1.364190492006684408e-01,1.847012959694386280e-01,1.658856146044896673e-01
2.859999999999999765e-01,3.588788485554411656e-01,-2.199861079009813106e-02,5.576027269922865376e-02
2.869999999999999774e-01,4.655110690680386298e-01,-2.734982803952325514e-01,2.900199051017942134e-02
2.879999999999999782e-01,4.315595433425170047e-01,-4.546437194086575539e-01,7.408438737364936300e-02
2.889999999999999791e-01,1.725572756890835779e-01,-4.634604353833183255e-01,2.101072246525575449e-01
2.899999999999999800e-01,-1.085111548341002596e-01,-3.602018617641357667e-01,3.462975428729047622e-01
2.909999999999999809e-01,-3.790137903919243989e-01,-1.618556217889369486e-01,3.682393620604821893e-01
2.919999999999999818e-01,-4.484114951479019062e-01,-5.894380776562444663e-02,2.280966855584370956e-01
2.929999999999999827e-01,-3.223227988124793830e-01,-6.920970682122691564e-02,6.255688432147599176e-02
2.939999999999999836e-01,-1.273665274624559696e-01,-2.161192745675176718e-01,-8.236350606910085304e-02
2.949999999999999845e-01,-7.693210370324593539e-02,-3.388591906860759506e-01,-1.203469018145741642e-01
2.959999999999999853e-01,-1.694034288278792599e-01,-3.009057997030521459e-01,-8.530696189735209600e-02
2.969999999999999862e-01,-3.834644742756964653e-01,-5.637947539239520495e-02,-3.171455615520343829e-02
2.979999999999999871e-01,-5.564100394208799649e-01,1.880815570496041367e-01,2.192578394490169585e-02
2.989999999999999880e-01,-5.293575365262677135e-01,3.836263639873551679e-01,-3.795244350983269926e-02
2.999999999999999889e-01,-3.458663416326580031e-01,4.025762977006082655e-01,-1.767770052317614027e-01
3.009999999999999898e-01,-1.166495165785674457e-02,2.846211392650395688e-01,-3.604725289851997694e-01
3.019999999999999907e-01,2.148595124736502326e-01,1.220940758287839406e-01,-3.742871453568220597e-01
3.029999999999999916e-01,3.314586784973877487e-01,6.549353615009705087e-02,-3.205566021317398651e-01
3.039999999999999925e-01,2.126931461613233432e-01,1.375748999329906297e-01,-1.481496293329556124e-01
3.049999999999999933e-01,6.194757722542313522e-02,3.031503079822032709e-01,-2.161156851106934423e-02
3.059999999999999942e-01,1.734113365866174613e-03,4.091075731532229920e-01,5.094397839740713585e-02
3.069999999999999951e-01,1.280417532871185593e-01,3.715774205371417671e-01,2.810593391174654593e-02
3.079999999999999960e-01,3.586778454785555792e-01,2.152971570803301482e-01,-6.698454888745287994e-02
3.089999999999999969e-01,5.904196970300827907e-01,-6.330883495574388120e-02,-1.018634558788877459e-01
3.099999999999999978e-01,6.195352047019098141e-01,-2.779399493501405471e-01,-2.932122468579412278e-02
3.109999999999999987e-01,4.722577918233541450e-01,-2.925338354486906600e-01,1.113546166494025907e-01
3.119999999999999996e-01,1.652511848691076146e-01,-2.031590503910882251e-01,2.879435290445791495e-01
3.130000000000000004e-01,-8.702781274662846345e-02,-6.557145424859384120e-02,3.735565464318802431e-01
3.140000000000000013e-01,-1.862582008418152413e-01,-1.800836236059715281e-02,3.475449357455001054e-01
3.150000000000000022e-01,-1.081956410209106156e-01,-1.534101871804914308e-01,2.229389778697293267e-01
3.160000000000000031e-01,4.274783978557232522e-02,-3.361434434821197748e-01,8.125089982124532317e-02
3.170000000000000040e-01,7.618301324517931516e-02,-4.872313201418173589e-01,5.834355106579663768e-03
3.180000000000000049e-01,-4.116314641191643614e-02,-4.537918669057110499e-01,3.805677175748398144e-02
3.190000000000000058e-01,-3.024063995268502225e-01,-2.499841457170439707e-01,1.421826233429264730e-01
3.200000000000000067e-01,-5.610968094846886522e-01,-1.417484901966827721e-02,2.016812535179842991e-01
3.210000000000000075e-01,-6.620382864250795585e-01,1.671997415710720636e-01,1.437013944495404427e-01
3.220000000000000084e-01,-5.407756664306535566e-01,1.696123575894050439e-01,-4.315484795239984614e-03
3.230000000000000093e-01,-2.485741173436290530e-01,9.656632045601998282e-02,-2.360136039966140575e-01
3.240000000000000102e-01,-1.106953533916077946e-02,-3.383881372548527833e-02,-3.566823267935262387e-01
3.250000000000000111e-01,8.654690847380382135e-02,-3.645123934288802686e-02,-3.520265519429774392e-01
3.260000000000000120e-01,-5.058939619361019907e-02,1.182379742484600399e-01,-2.252448959175628040e-01
3.270000000000000129e-01,-1.860209240378137840e-01,3.580700720665649928e-01,-1.136374348812337204e-01
3.280000000000000138e-01,-2.095975849677387814e-01,5.271401152322655603e-01,-7.004413189539998585e-02
3.290000000000000147e-01,-1.022020566742927461e-01,4.853481542263382575e-01,-8.170989107631113080e-02
3.300000000000000155e-01,1.864061171921053695e-01,3.212875852446975822e-01,-1.952893874194912283e-01
3.310000000000000164e-01,4.786381586543379529e-01,7.359626133451585561e-02,-2.670841583618541182e-01
3.320000000000000173e-01,6.084637502482658222e-01,-5.294053861145033707e-02,-2.358451135433257406e-01
3.330000000000000182e-01,5.290449641550495352e-01,-8.486575799166280742e-02,-7.700129593592359989e-02
3.340000000000000191e-01,3.064740039635489577e-01,2.212549632122802132e-02,8.776117231801462693e-02
3.350000000000000200e-01,8.988917858290103313e-02,1.117250588900977198e-01,2.847830032857374682e-01
3.360000000000000209e-01,5.195986185294221987e-02,1.157549374389003211e-01,2.773013949059270900e-01
3.370000000000000218e-01,1.399106369782840420e-01,-7.766391143155104704e-02,2.344966965143273074e-01
3.380000000000000226e-01,2.922601680305046967e-01,-3.194210597654150163e-01,9.554924838314271529e-02
3.390000000000000235e-01,3.796335160646933660e-01,-4.775526603481076715e-01,2.229926517457144278e-02
3.400000000000000244e-01,2.305407626544824784e-01,-4.900715396400122104e-01,1.050023641931545487e-01
3.410000000000000253e-01,-4.477078488608658008e-02,-3.626514843724927828e-01,1.837423998167070915e-01
3.420000000000000262e-01,-3.506712416430193269e-01,-1.296051958016559424e-01,3.108900122786054099e-01
3.430000000000000271e-01,-5.251552357115485403e-01,2.968239268388368941e-03,2.935075465472426481e-01
3.439999999999999725e-01,-4.849004212477690534e-01,-2.515536672931926315e-02,2.222488530680380436e-01
3.449999999999999734e-01,-3.166428512331450618e-01,-1.328041170557877626e-01,2.303200902188609275e-02
3.459999999999999742e-01,-1.256347524137345628e-01,-2.232529018390707887e-01,-1.356528106579766302e-01
3.469999999999999751e-01,-6.929322496234582851e-02,-1.973999892355624286e-01,-2.112037091274339140e-01
3.479999999999999760e-01,-2.422536915312273609e-01,8.054409254462342044e-03,-1.455647385104995306e-01
3.489999999999999769e-01,-3.928028111647068332e-01,2.336037456003060009e-01,-6.351767796694714197e-02
3.499999999999999778e-01,-4.965709149125068778e-01,4.402194390778591537e-01,-6.644046674056781551e-03
3.509999999999999787e-01,-3.932298774414966780e-01,4.781386256248271738e-01,-4.473907083957161246e-02
3.519999999999999796e-01,-1.112502042457293033e-01,3.305979739514671722e-01,-1.855005073935350191e-01
3.529999999999999805e-01,2.346547554739031316e-01,1.578872196371876868e-01,-3.365560692752796457e-01
3.539999999999999813e-01,4.028296413293515066e-01,4.892972931983099322e-02,-3.667892717037919414e-01
3.549999999999999822e-01,4.235461998971512543e-01,9.556765858019790338e-02,-2.781681451793056592e-01
3.559999999999999831e-01,2.490811759887838761e-01,2.245737277152328459e-01,-1.128666998219421819e-01
3.569999999999999840e-01,8.607515804034626683e-02,3.449842490096587388e-01,4.852039890600828159e-02
3.579999999999999849e-01,8.066546551969437651e-02,2.916528585485724245e-01,1.245941909554751093e-01
3.589999999999999858e-01,2.430475766769129020e-01,9.591446801663244814e-02,1.075752512816905426e-01
3.599999999999999867e-01,4.594523072490551696e-01,-1.552333394320247195e-01,3.209271809081984395e-02
3.609999999999999876e-01,5.863589244500411191e-01,-3.327193655528790650e-01,-1.822979675416254094e-02
3.619999999999999885e-01,4.916741067807283150e-01,-3.948466208755589957e-01,-2.996389283223092892e-03
3.629999999999999893e-01,2.591302431167490372e-01,-2.715108710068970255e-01,1.397398190160042131e-01
3.639999999999999902e-01,-3.755845695104299137e-02,-1.317712265093167190e-01,2.895877810237105776e-01
3.649999999999999911e-01,-2.523539810455859289e-01,-4.103098189254773126e-02,3.776013055124910478e-01
3.659999999999999920e-01,-2.711534047717519269e-01,-1.551375839793294742e-01,3.488399954313467499e-01
3.669999999999999929e-01,-1.322665949978676925e-01,-3.155162055324468584e-01,1.997134775031759180e-01
3.679999999999999938e-01,5.795205840651134095e-03,-4.398133356394710036e-01,5.434973316965558549e-02
3.689999999999999947e-01,-7.394258283942281920e-03,-4.229578618293514669e-01,-3.091332858664958341e-02
3.699999999999999956e-01,-2.063903792068129961e-01,-2.151496542180512117e-01,-1.190306943131416891e-02
3.709999999999999964e-01,-4.795131641988373272e-01,7.324098523472018230e-02,7.740652035927060581e-02
3.719999999999999973e-01,-6.397495062602837068e-01,2.710965022600581587e-01,9.708288539267158346e-02
3.729999999999999982e-01,-5.794708688837922894e-01,2.929185859038178075e-01,6.473182081180132996e-02
3.739999999999999991e-01,-3.456119123104422486e-01,2.074803560640450795e-01,-7.323396748025609582e-02
3.750000000000000000e-01,-7.677943349584893939e-02,4.998885324198976826e-02,-2.574775689920405508e-01
3.760000000000000009e-01,1.166086595577289359e-01,2.813906794581371926e-02,-3.802476038122597490e-01
3.770000000000000018e-01,1.446679309006560499e-01,1.563875388782977327e-01,-3.651642041172891151e-01
3.780000000000000027e-01,3.496244585969109087e-03,3.587554423290107986e-01,-2.392914736038261048e-01
3.790000000000000036e-01,-1.037401462632157184e-01,4.697326078706705044e-01,-1.159611630798029897e-01
3.800000000000000044e-01,-1.037657603459812422e-01,4.547011096344881209e-01,-1.444542769947808510e-02
3.810000000000000053e-01,1.180104198767022161e-01,2.818904321342710628e-01,-3.811688828602730061e-02
3.820000000000000062e-01,4.143895468044652697e-01,2.472470383847298614e-02,-1.150974208695356299e-01
3.830000000000000071e-01,6.188568348515215423e-01,-1.474977515878840295e-01,-2.005558721232018893e-01
3.840000000000000080e-01,6.288341810204699511e-01,-1.597427352671090262e-01,-1.702568257851517497e-01
3.850000000000000089e-01,4.390968300925427448e-01,-9.986982394731791501e-02,-2.964691331977329508e-02
3.860000000000000098e-01,1.810509117358278797e-01,2.643439710680321741e-02,1.471493475049298061e-01
3.870000000000000107e-01,-2.531838257861458025e-02,2.842730015249078993e-02,2.983732667319584086e-01
3.880000000000000115e-01,-2.734469002556436448e-02,-1.017592497831537879e-01,3.324027195853507255e-01
3.890000000000000124e-01,1.202026706273310597e-01,-3.557546663932869002e-01,2.472897501054363567e-01
3.900000000000000133e-01,2.600598409783662079e-01,-5.116516721268390411e-01,1.098529529438659891e-01
3.910000000000000142e-01,2.065010310192869347e-01,-5.105544814758599115e-01,2.165653093721636377e-02
3.920000000000000151e-01,-2.712901612653509289e-03,-3.114882233458440841e-01,6.396735037677726832e-02
3.930000000000000160e-01,-3.008332473220938774e-01,-1.150488733358370624e-01,1.728535964987313045e-01
3.940000000000000169e-01,-5.303216044061982437e-01,5.829494354211289808e-02,2.576621309857413666e-01
3.950000000000000178e-01,-6.021494278680830092e-01,5.500259145406245775e-02,2.750460052721291904e-01
3.960000000000000187e-01,-4.792081427955666162e-01,-6.958436061821403340e-02,1.680128266001582882e-01
3.970000000000000195e-01,-2.273169766787376256e-01,-1.499841834231593340e-01,-3.463730556900561364e-02
3.980000000000000204e-01,-5.517171055385332312e-02,-1.102580042203929883e-01,-1.986982792353692295e-01
3.990000000000000213e-01,-9.976598231230758562e-02,6.701857450506956693e-02,-2.802630538854124498e-01
4.000000000000000222e-01,-2.274587008365651086e-01,3.169883269088567546e-01,-2.271896177950090689e-01
4.010000000000000231e-01,-3.593723157933746970e-01,4.720923575484732848e-01,-1.088345276953848612e-01
4.020000000000000240e-01,-3.731729762877562528e-01,5.061038008340866812e-01,-5.225770818443488397e-02
4.030000000000000249e-01,-1.631050927105602566e-01,3.749571399065965149e-01,-9.106308480426947294e-02
4.040000000000000258e-01,1.523728671948531566e-01,1.533430299148339504e-01,-1.928323575740101270e-01
4.050000000000000266e-01,4.306522210843441445e-01,1.093674751903408147e-02,-3.030817494936210998e-01
4.060000000000000275e-01,5.361424462648187728e-01,2.562880601122330751e-02,-3.501838059803309977e-01
4.069999999999999729e-01,3.991667851056652783e-01,1.760842711241821790e-01,-2.599360243839055062e-01
4.079999999999999738e-01,2.317293054675744757e-01,2.486200414246990675e-01,-7.668744627523814417e-02
4.089999999999999747e-01,1.065655004801252387e-01,2.227956719021971232e-01,1.280818244103563708e-01
4.099999999999999756e-01,1.322822648128434975e-01,2.921092808264745197e-02,2.054616973829993809e-01
4.109999999999999765e-01,3.094657142445575437e-01,-2.111047128321106858e-01,1.687467575328155112e-01
4.119999999999999774e-01,4.968505921337245668e-01,-4.059154756234247818e-01,7.687612707559332570e-02
4.129999999999999782e-01,4.862182646650710649e-01,-4.275840872120720282e-01,2.712098175004784215e-02
4.139999999999999791e-01,3.355134561404470861e-01,-3.416847676434530690e-01,5.939185805428035675e-02
4.149999999999999800e-01,2.048547625637528458e-02,-1.360990135672304757e-01,1.339996143403261175e-01
4.159999999999999809e-01,-2.806521258128433782e-01,-6.989184274877860426e-02,2.871384792870419478e-01
4.169999999999999818e-01,-4.360716632211791288e-01,-1.050126643745664945e-01,3.781307005315308611e-01
4.179999999999999827e-01,-3.538100209233320803e-01,-2.775240371668541983e-01,3.351808679945459390e-01
4.189999999999999836e-01,-1.716157044555171873e-01,-3.427144123988968283e-01,1.991824276551673323e-01
4.199999999999999845e-01,-5.416509989441380124e-02,-3.214699030604568075e-01,-6.182166719059236856e-03
4.209999999999999853e-01,-1.200898942234143868e-01,-1.216801603844591267e-01,-1.049450263423391816e-01
4.219999999999999862e-01,-3.322673127627777112e-01,1.283999978374986417e-01,-1.190808355367191096e-01
4.229999999999999871e-01,-5.281970114616696410e-01,3.441047774970102391e-01,-2.528444842230366876e-02
4.239999999999999880e-01,-6.001266217732803554e-01,3.471540439116669319e-01,3.517995088702405987e-02
4.249999999999999889e-01,-4.338652363761363873e-01,2.746091419518920107e-01,3.073210443766030003e-02
4.259999999999999898e-01,-1.578021977631512973e-01,9.788895526393673330e-02,-1.196563079361282478e-01
4.269999999999999907e-01,1.130259967335480037e-01,7.481727209348218444e-02,-2.684415574668784221e-01
4.279999999999999916e-01,2.610486976033013495e-01,1.404642612698836224e-01,-3.652367755480884215e-01
4.289999999999999925e-01,2.101507519906668786e-01,3.436518905279241087e-01,-3.711261860329646556e-01
4.299999999999999933e-01,5.691618587455492956e-02,4.414188611789680583e-01,-2.403243774105395247e-01
4.309999999999999942e-01,-2.687650988001607025e-02,3.918275804275587748e-01,-1.088308623610610842e-01
4.319999999999999951e-01,5.307599526887393088e-02,2.108781826145008920e-01,3.979857172090872641e-02
4.329999999999999960e-01,2.743097253915408040e-01,-2.407224878337287793e-02,3.073791255444943693e-02
4.339999999999999969e-01,5.284410727149376763e-01,-2.261367019643640563e-01,-5.318190967935022134e-02
4.349999999999999978e-01,6.765008204412578108e-01,-2.549317710300856854e-01,-1.309516431350151722e-01
4.359999999999999987e-01,5.601700358422975201e-01,-1.594100372237402530e-01,-9.291661509612272885e-02
4.369999999999999996e-01,2.604470550683941621e-01,-5.093029797426745775e-02,6.181224830630012608e-03
4.380000000000000004e-01,-2.986456226563045241e-02,-3.591234118344938109e-02,2.090423963810251473e-01
4.390000000000000013e-01,-1.389350436084731411e-01,-1.493305007661547834e-01,3.480859145739413352e-01
4.400000000000000022e-01,-6.487924417286541900e-02,-3.581516384995787061e-01,3.854619246939270938e-01
4.410000000000000031e-01,5.876015058673531716e-02,-5.162582048543469249e-01,3.010059034762350705e-01
4.420000000000000040e-01,1.335360988026420559e-01,-4.635424229439632504e-01,1.566867294056347171e-01
4.430000000000000049e-01,3.894810624125927961e-02,-2.678223951733446073e-01,4.576652524901932140e-02
4.440000000000000058e-01,-2.107248146538254485e-01,-5.968966135471263923e-02,5.027656806318923921e-02
4.450000000000000067e-01,-4.869040725236087885e-01,1.067088990842659513e-01,9.752286615491505273e-02
4.460000000000000075e-01,-6.671207361567020877e-01,1.625566879750603710e-01,2.044271980534885791e-01
4.470000000000000084e-01,-5.799098678602240264e-01,5.611596830366608057e-02,2.083799257681862582e-01
4.480000000000000093e-01,-3.506657536616926696e-01,-5.430066601521080227e-02,9.109655595940308048e-02
4.490000000000000102e-01,-1.024039315610001805e-01,-3.801626665837212066e-02,-1.027647413383085268e-01
4.500000000000000111e-01,4.568604682765438352e-03,1.151776573084200145e-01,-2.679638814910605960e-01
4.510000000000000120e-01,-3.982214471429901259e-02,3.335292790623581860e-01,-3.175456182710696407e-01
4.520000000000000129e-01,-2.105628293044027322e-01,5.081604807469027874e-01,-2.738122668110751223e-01
4.530000000000000138e-01,-2.702236004324790608e-01,5.036964820880139859e-01,-1.685591001923448518e-01
4.540000000000000147e-01,-2.028202970746481315e-01,3.469726320519996854e-01,-5.556338246417302090e-02
4.550000000000000155e-01,8.804173275026867806e-02,1.058411054223667158e-01,-5.569016223828131273e-02
4.560000000000000164e-01,3.872997848123830300e-01,-2.066794966906597766e-02,-1.291807382500042567e-01
4.570000000000000173e-01,5.766791749772531839e-01,-5.204478798514652199e-02,-2.360391240447819727e-01
4.580000000000000182e-01,5.384937758162633425e-01,7.428864117066472095e-02,-2.900462520216081086e-01
4.590000000000000191e-01,3.982134255050387428e-01,1.660927803366389066e-01,-1.968784172695707546e-01
4.600000000000000200e-01,1.600133110381411761e-01,1.472709717954746034e-01,-2.002121513784519552e-02
4.610000000000000209e-01,4.104794536153954371e-02,-1.999092704520787772e-02,1.682940714279383965e-01
4.620000000000000218e-01,1.467211536882145062e-01,-2.992309452847633500e-01,2.836965708432724886e-01
4.630000000000000226e-01,3.039147882641040077e-01,-4.737800919769650232e-01,2.195143511224837418e-01
4.640000000000000235e-01,4.252245299655953437e-01,-4.839167724382264502e-01,1.291323997250514444e-01
4.650000000000000244e-01,3.428619179595547850e-01,-3.525117614035808700e-01,6.577751639017945240e-02
4.660000000000000253e-01,7.334609852220780324e-02,-1.322547701530323860e-01,6.243052576351777044e-02
4.670000000000000262e-01,-2.505836774999449790e-01,-1.571281547091207473e-02,1.373504538797815366e-01
4.680000000000000271e-01,-4.834465589914081485e-01,-4.116697591062112166e-02,2.638250554251898028e-01
4.689999999999999725e-01,-4.664754837829753753e-01,-1.787584265627027436e-01,3.542824913029833378e-01
4.699999999999999734e-01,-3.274623254737447642e-01,-3.041277991557848059e-01,2.811465697235346339e-01
4.709999999999999742e-01,-1.579073961352558952e-01,-2.312231401644674056e-01,1.432214529729177177e-01
4.719999999999999751e-01,-1.035652263980300219e-01,-3.941738493886127320e-02,-7.360827769898731221e-02
4.729999999999999760e-01,-1.997439452940572013e-01,1.993805189635543540e-01,-1.529016478129902046e-01
4.739999999999999769e-01,-4.003700936447595615e-01,3.978862966633893716e-01,-1.677100625192858574e-01
4.749999999999999778e-01,-5.326898517915303888e-01,4.325328527583592320e-01,-8.491092967135323299e-02
4.759999999999999787e-01,-4.726889695155908622e-01,3.222556918834809103e-01,-3.196592039802607227e-02
4.769999999999999796e-01,-2.083962333333934103e-01,1.316353202421259305e-01,-1.406906538448780310e-02
4.779999999999999805e-01,1.045248694539493983e-01,6.161097376741177245e-02,-7.639562822456666402e-02
4.789999999999999813e-01,3.284442931985213643e-01,1.116653837678253380e-01,-2.553020178762883119e-01
4.799999999999999822e-01,3.792613905161831278e-01,2.437484931293655288e-01,-3.703221425325129434e-01
4.809999999999999831e-01,2.423585605190585190e-01,3.746457832037070612e-01,-3.703959308080820301e-01
4.819999999999999840e-01,6.064472929066588164e-02,3.458368092055867926e-01,-2.236563339891182445e-01
4.829999999999999849e-01,2.403020293843383462e-02,1.185768342916961315e-01,-5.553652533583858242e-02
4.839999999999999858e-01,1.782737171873984561e-01,-1.148872493996843241e-01,7.992562956649933159e-02
4.849999999999999867e-01,4.134887768248057816e-01,-3.220527847634807039e-01,1.069994864913026839e-01
4.859999999999999876e-01,5.885705779904931711e-01,-3.751342339104777324e-01,2.221570434976829350e-02
4.869999999999999885e-01,5.851155803859158233e-01,-2.632319084744684234e-01,-1.297297177955914795e-02
4.879999999999999893e-01,3.700084933668010279e-01,-9.579713076279026962e-02,-6.582779443432959510e-02
4.889999999999999902e-01,6.629440873959188685e-02,-4.907977758659591572e-02,3.814379612392482938e-02
4.899999999999999911e-01,-1.860132899097528547e-01,-1.534148752507505931e-01,2.137968545367212314e-01
4.909999999999999920e-01,-2.082104565605668867e-01,-3.241381463788471362e-01,3.434273357015584782e-01
4.919999999999999929e-01,-1.325148809521116133e-01,-4.370534204728803718e-01,3.923298078100039277e-01
4.929999999999999938e-01,9.047938808335842867e-03,-4.050105737014882967e-01,2.894188324821163061e-01
4.939999999999999947e-01,5.096767378839377888e-02,-2.400518891759914064e-01,1.316627124818591232e-01
4.949999999999999956e-01,-1.493336814413611102e-01,2.509321705987501913e-02,1.116136432361579910e-03
4.959999999999999964e-01,-3.755307993819496648e-01,2.158486254252074965e-01,-3.070839760859199116e-02
4.969999999999999973e-01,-6.278742474861118694e-01,2.529315559716638351e-01,4.405297236476603956e-02
4.979999999999999982e-01,-6.381632939285915018e-01,1.857848015337992265e-01,1.353871235824505026e-01
4.989999999999999991e-01,-4.721512913806615308e-01,4.171681730747665851e-02,1.281469514337983950e-01
5.000000000000000000e-01,-1.840297678997512565e-01,1.003041876270862470e-02,5.777993498557643798e-02
5.010000000000000009e-01,4.589183222107875992e-02,1.461704628188468802e-01,-1.265407646937584674e-01
5.020000000000000018e-01,1.060329476308748409e-01,3.690974330429498962e-01,-2.621016076678890916e-01
5.030000000000000027e-01,-9.980578163465987640e-03,4.997704756894441602e-01,-3.531002627631282809e-01
5.040000000000000036e-01,-1.862192480144428952e-01,4.629321856802341983e-01,-3.121879029063186484e-01
5.050000000000000044e-01,-1.610919591179583721e-01,3.077941553279968656e-01,-1.868962169638608006e-01
5.060000000000000053e-01,3.278312096673095810e-02,4.966771614798774770e-02,-4.640013762294708383e-02
5.070000000000000062e-01,2.951783780706198068e-01,-1.117946261343366193e-01,-1.176386321521722365e-02
5.080000000000000071e-01,5.600225605584994160e-01,-1.255251744932353586e-01,-8.553217605720200845e-02
5.090000000000000080e-01,6.381021224071780074e-01,-3.295137253071417360e-02,-1.866401856558345673e-01
5.100000000000000089e-01,5.140886401284296969e-01,8.195572812976648081e-02,-2.383533208056105857e-01
5.110000000000000098e-01,2.474969865876675834e-01,6.050699448977452793e-02,-1.489073853259516578e-01
5.120000000000000107e-01,3.712394931446046098e-02,-1.017595749728780613e-01,4.101544666587907118e-02
5.130000000000000115e-01,1.217918930439471602e-02,-3.317840854360205038e-01,1.977298104684450386e-01
5.140000000000000124e-01,1.290878802200616515e-01,-5.053766774180091792e-01,3.065841458779626771e-01
5.150000000000000133e-01,2.790723853036355950e-01,-5.220754231024926639e-01,2.885667715862269556e-01
5.160000000000000142e-01,3.073618317403144506e-01,-3.482982811876654816e-01,1.763635295550753657e-01
5.170000000000000151e-01,1.048585231650075028e-01,-1.072501751178997209e-01,7.007221772400892834e-02
5.180000000000000160e-01,-1.936941133503627954e-01,2.294899977236328908e-02,6.030693659274658641e-02
5.190000000000000169e-01,-4.501160796438031797e-01,3.643827220213114587e-02,1.198234094240616526e-01
5.200000000000000178e-01,-5.867404641382201191e-01,-6.492805599119555460e-02,2.368388111368349425e-01
5.210000000000000187e-01,-5.099183348853607578e-01,-1.796754575299196188e-01,2.872153821313103150e-01
5.220000000000000195e-01,-2.756987794772922107e-01,-1.412720196146853013e-01,2.467390484426438824e-01
5.230000000000000204e-01,-7.377813963991648738e-02,2.936898076566202970e-02,8.050467629440014039e-02
5.240000000000000213e-01,-1.009397595893919558e-01,2.995345641127350467e-01,-1.045341879265870577e-01
5.250000000000000222e-01,-2.124520310740135309e-01,4.838393758538289124e-01,-2.289831363246793983e-01
5.260000000000000231e-01,-3.790480330630746630e-01,4.640385214704654260e-01,-2.387300665283736134e-01
5.270000000000000240e-01,-4.505384419837199506e-01,3.262204724597467798e-01,-1.594850901582078040e-01
5.280000000000000249e-01,-2.614217569090414028e-01,1.568965561352990701e-01,-6.840997516899247066e-02
5.290000000000000258e-01,2.994951371177390076e-02,2.253480566171544089e-02,-5.206096370607547763e-02
5.300000000000000266e-01,3.301275639288269170e-01,8.166995159658187176e-02,-1.101424465042859652e-01
5.310000000000000275e-01,4.631457314952070470e-01,2.171103280818031389e-01,-2.310367478306381284e-01
5.320000000000000284e-01,4.426306240729528385e-01,2.752183687778074206e-01,-3.409184318577088701e-01
5.330000000000000293e-01,2.508000824862595124e-01,2.755480591325271678e-01,-3.275531497668288106e-01
5.340000000000000302e-01,7.026688890182562763e-02,8.273060171049206879e-02,-2.135549362144451568e-01
5.350000000000000311e-01,8.779417104670740601e-02,-2.236322159914891916e-01,-1.412979050004976520e-02
5.360000000000000320e-01,2.751490491245655035e-01,-4.185292883681964171e-01,1.306563665263138774e-01
5.370000000000000329e-01,4.830011860462310458e-01,-4.111073447394399949e-01,1.455647527437055611e-01
5.380000000000000338e-01,5.520831631883404977e-01,-3.082416004801794562e-01,1.107582460246206157e-01
5.390000000000000346e-01,4.099340579419426533e-01,-1.277285468670962265e-01,-2.468001573819097322e-03
5.400000000000000355e-01,1.304651940887480710e-01,-4.871174672148179813e-02,5.621774175676112068e-03
5.410000000000000364e-01,-1.909822676291570431e-01,-1.416611179197632409e-01,8.641166197956406947e-02
5.420000000000000373e-01,-3.719737206606781310e-01,-2.702876796248860902e-01,2.526507742487882902e-01
5.430000000000000382e-01,-2.928912183576545814e-01,-4.004092293432737204e-01,3.658965831329677454e-01
5.440000000000000391e-01,-1.613923995856952065e-01,-3.466945970218019979e-01,4.060139990511287822e-01
5.450000000000000400e-01,-2.460272533162845970e-02,-1.667123936817307972e-01,2.769118722106515551e-01
5.460000000000000409e-01,-8.953062109343798425e-02,1.042927691541512408e-01,1.143980639356360490e-01
5.470000000000000417e-01,-2.795880879810208053e-01,3.073442534233258860e-01,-1.794646727574769965e-02
5.480000000000000426e-01,-5.212149260731041567e-01,3.335075063679363572e-01,-7.914508263737203564e-02
5.490000000000000435e-01,-6.403115869486162293e-01,2.338132426585241286e-01,-4.554993679651529043e-02
5.500000000000000444e-01,-5.274778581874003391e-01,9.420716862793804269e-02,1.700701317443949548e-02
5.510000000000000453e-01,-2.582155416729963737e-01,6.083710538490968295e-02,6.016469356493090587e-02
5.520000000000000462e-01,3.257998434153218381e-02,1.583054878753364370e-01,1.323283306552002631e-02
5.530000000000000471e-01,2.077833894499229728e-01,3.085593458895849461e-01,-1.470427774372791430e-01
5.540000000000000480e-01,1.890295506468895603e-01,4.693502326780925604e-01,-3.164592625091604550e-01
5.550000000000000488e-01,2.394650514511344197e-02,4.400921824677399563e-01,-3.913711194746737898e-01
5.560000000000000497e-01,-5.891797214274983180e-02,2.423802749825929859e-01,-3.375741840457106568e-01
5.570000000000000506e-01,-1.360893882452065412e-02,3.763126228884885321e-03,-1.801756419456005121e-01
5.580000000000000515e-01,2.036552674823546294e-01,-1.911511915652074345e-01,-1.120760149254908418e-02
5.590000000000000524e-01,5.000304601573558605e-01,-2.233219147922740899e-01,3.839030728974378043e-03
5.600000000000000533e-01,6.554574098563480389e-01,-1.355326522592003868e-01,-1.584912087649612694e-02
5.610000000000000542e-01,5.741814293613253239e-01,-2.389596062319008368e-02,-1.039764004982900863e-01
5.620000000000000551e-01,3.505785729387717597e-01,-3.839590709889521229e-03,-1.579636818467441417e-01
5.629999999999999449e-01,5.909501134709679859e-02,-1.679841253896880715e-01,-1.120603187206764273e-01
5.639999999999999458e-01,-8.357499321473714493e-02,-3.544557236690222268e-01,7.177073042943099557e-02
5.649999999999999467e-01,-4.592396643812055035e-02,-5.109836738629015551e-01,2.512944584433910999e-01
5.659999999999999476e-01,7.580824181429174358e-02,-4.776596040725145098e-01,3.533572551309438481e-01
5.669999999999999485e-01,2.066008474747178247e-01,-3.188729629363716844e-01,3.358067281079026856e-01
5.679999999999999494e-01,1.668379603284112223e-01,-6.557851855779994743e-02,2.058730018678248397e-01
5.689999999999999503e-01,-9.171260819720669644e-02,8.804156019213874029e-02,9.442592789641643392e-02
5.699999999999999512e-01,-4.267719978358648913e-01,1.040569586530572660e-01,3.080250283254858459e-02
5.709999999999999520e-01,-6.313678847451872356e-01,7.303129516924054127e-03,8.555737925355129392e-02
5.719999999999999529e-01,-6.085996575451867452e-01,-1.146246944146348534e-01,1.938424793330673079e-01
5.729999999999999538e-01,-4.423080125122171302e-01,-8.170007818886386441e-02,2.458528422084688136e-01
5.739999999999999547e-01,-1.645243977907201727e-01,9.452767688785079780e-02,2.079410017502132391e-01
5.749999999999999556e-01,-2.389213520184885892e-02,3.162707243596639128e-01,6.186320043300037180e-02
5.759999999999999565e-01,-5.947915918773784283e-02,4.921668302909096848e-01,-1.522769673896132991e-01
5.769999999999999574e-01,-2.171954786691861206e-01,4.929826460047061487e-01,-2.880394432213008726e-01
5.779999999999999583e-01,-3.358895569745843912e-01,3.438856281324093045e-01,-3.092862738649857501e-01
5.789999999999999591e-01,-2.964209165289743986e-01,1.143162058978641205e-01,-2.327753183062954423e-01
5.799999999999999600e-01,-4.778484467411759501e-02,3.690206454832527998e-04,-9.360280094828093977e-02
5.809999999999999609e-01,2.824164818921072739e-01,-1.615455156180423818e-02,-3.544893718025891871e-02
5.819999999999999618e-01,5.227954316828242742e-01,7.975758718873775244e-02,-9.839978084816181081e-02
5.829999999999999627e-01,5.520729800736989823e-01,2.143835098845458254e-01,-2.181456611073054053e-01
5.839999999999999636e-01,3.991382754377996167e-01,1.555151034854465042e-01,-2.981634262123450396e-01
5.849999999999999645e-01,2.142219144916678308e-01,9.059538782676789925e-04,-2.987835059288884154e-01
5.859999999999999654e-01,5.035044691256008315e-02,-2.682004331680545861e-01,-1.648407999580428496e-01
5.869999999999999662e-01,1.547533434934235952e-01,-4.614306657719126070e-01,4.615351543701400050e-02
5.879999999999999671e-01,3.083876903067933606e-01,-4.745195934613674615e-01,1.924014671088901118e-01
5.889999999999999680e-01,4.464638838107384267e-01,-3.380491201410165125e-01,2.436549200508910107e-01
5.899999999999999689e-01,4.330225662005809939e-01,-1.664817386582345404e-01,1.847549946774207918e-01
5.909999999999999698e-01,1.882744383902728580e-01,-4.552519582438132456e-02,7.799833023226328266e-02
5.919999999999999707e-01,-1.028086320079013155e-01,-7.353034627934838807e-02,4.342904122156810570e-02
5.929999999999999716e-01,-3.988318537902240113e-01,-2.280325812949279551e-01,1.111430620744581349e-01
5.939999999999999725e-01,-4.567349994251373446e-01,-3.147160666899078141e-01,2.309214042805704525e-01
5.949999999999999734e-01,-3.428439539348126508e-01,-2.695289377750810234e-01,3.227054837793249531e-01
5.959999999999999742e-01,-1.626063582348528380e-01,-7.828438695450005980e-02,3.841464065603703570e-01
5.969999999999999751e-01,-7.004750177585415682e-02,1.940758044893149681e-01,2.485035358800607441e-01
5.979999999999999760e-01,-1.412163972695505976e-01,3.686124849275808635e-01,6.656537726269204369e-02
5.989999999999999769e-01,-3.700834507375250215e-01,4.087530693182193087e-01,-1.074268159583597476e-01
5.999999999999999778e-01,-5.425440101562005735e-01,2.734535753115110435e-01,-1.819685452171733719e-01
6.009999999999999787e-01,-5.597418721926451513e-01,1.313434007957032246e-01,-9.748565472192002868e-02
6.019999999999999796e-01,-3.449407209826790832e-01,7.352314746358890041e-02,-1.688053375768742981e-02
6.029999999999999805e-01,-3.453493801234887306e-02,1.460853860634261092e-01,3.325958488848573119e-02
6.039999999999999813e-01,2.635968117787446108e-01,3.071545388706764523e-01,-4.971226151616023325e-02
6.049999999999999822e-01,3.453145887347597864e-01,4.284512639343750484e-01,-1.870437381824993084e-01
6.059999999999999831e-01,2.589726495427598363e-01,3.442544366162183511e-01,-3.524106433208396005e-01
6.069999999999999840e-01,7.421912437754925318e-02,1.830028292755415398e-01,-4.156393285205885468e-01
6.079999999999999849e-01,1.061068283130312678e-02,-8.555625545028808232e-02,-3.086168522951786009e-01
6.089999999999999858e-01,1.061310761819959786e-01,-2.912444384842668987e-01,-1.370725308631890460e-01
6.099999999999999867e-01,3.476553280318553929e-01,-3.078409581741281542e-01,-1.082821644504150180e-02
6.109999999999999876e-01,5.849078600637086511e-01,-2.222135224985229418e-01,8.074028538373427544e-02
6.119999999999999885e-01,6.132069229743721817e-01,-8.006848272357630636e-02,4.308766604448146381e-02
6.129999999999999893e-01,4.614566046594192894e-01,-4.584512715110211634e-02,-5.062939384338076970e-02
6.139999999999999902e-01,1.414608941326950808e-01,-1.519780580689975291e-01,-6.756245499850843661e-02
6.149999999999999911e-01,-1.139801614559089044e-01,-3.527317876892017701e-01,-4.508459719651192188e-02
6.159999999999999920e-01,-1.900548038079468982e-01,-4.741946059135200842e-01,1.066948501772511243e-01
6.169999999999999929e-01,-1.080024214593099940e-01,-4.496974986363920235e-01,3.002103916464744504e-01
6.179999999999999938e-01,4.698767713440540200e-02,-2.691201634319342895e-01,3.564401392678580582e-01
6.189999999999999947e-01,8.148910129191069829e-02,-3.515234908202827940e-02,3.739642386247108430e-01
6.199999999999999956e-01,-4.959476518057951561e-02,1.542740582997537691e-01,2.169493010905635955e-01
6.209999999999999964e-01,-3.214444629144158072e-01,1.894656719342113771e-01,7.425909587980374094e-02
6.219999999999999973e-01,-5.806374002871032003e-01,1.026789771150510844e-01,2.978346364020681425e-03
6.229999999999999982e-01,-6.595882189610201563e-01,-1.137090884958172170e-02,3.897804782650225036e-02
6.239999999999999991e-01,-5.511372754089588488e-01,-1.087204343922527558e-02,1.192880631566717864e-01
6.250000000000000000e-01,-2.614094373076417122e-01,1.450568910614916385e-01,1.717797263772588845e-01
6.260000000000000009e-01,-2.492997668039617296e-02,3.363621007462274104e-01,1.563400827808720250e-01
6.270000000000000018e-01,8.026387338813267824e-02,4.968027644699843370e-01,-8.605534154744218928e-03
6.280000000000000027e-01,-1.325964223519495930e-02,5.024911618012722903e-01,-1.952576152548396726e-01
6.290000000000000036e-01,-1.534977531777916016e-01,3.301710282478457215e-01,-3.441056086626979593e-01
6.300000000000000044e-01,-2.086266545458458077e-01,7.386194396620399116e-02,-3.525043976505550791e-01
6.310000000000000053e-01,-8.698351501187664980e-02,-7.309041398722980476e-02,-2.245263073067431114e-01
6.320000000000000062e-01,1.965071052680048003e-01,-1.130444754634345461e-01,-1.278345721208410946e-01
6.330000000000000071e-01,4.597519826099839002e-01,1.347256472563967793e-02,-3.947395326777391328e-02
6.340000000000000080e-01,6.272097687447349967e-01,1.018613822958840259e-01,-5.766635708782371500e-02
6.350000000000000089e-01,5.466132769975065031e-01,9.290788822705839389e-02,-1.589118407395941346e-01
6.360000000000000098e-01,3.254064598465367109e-01,-6.762130332031571212e-02,-2.621796597338235113e-01
6.370000000000000107e-01,1.126495524626522499e-01,-3.208973637752807195e-01,-2.291315401827143661e-01
6.380000000000000115e-01,3.738222317143340134e-02,-5.034197504002171364e-01,-7.515115293254466533e-02
6.390000000000000124e-01,1.330946189104448840e-01,-5.122788498191838125e-01,1.083773981685294541e-01
6.400000000000000133e-01,2.943365356397609767e-01,-3.397587675035629307e-01,2.400147484667061459e-01
6.410000000000000142e-01,3.435457488998343023e-01,-1.526805208766177924e-01,3.034368794301046668e-01
6.420000000000000151e-01,2.397197495311138293e-01,4.478003954056581498e-03,2.398676870425744123e-01
6.430000000000000160e-01,-4.327551477274072661e-02,8.065670730934038383e-04,1.042891799654692836e-01
6.440000000000000169e-01,-3.831215512614057350e-01,-1.325531068522020073e-01,1.761753664376602968e-02
6.450000000000000178e-01,-5.375714292798386973e-01,-1.697928287883896936e-01,7.228090177636800617e-02
6.460000000000000187e-01,-4.716158202840014524e-01,-1.974264000692440013e-01,1.963373334458288211e-01
6.470000000000000195e-01,-3.040674441239812342e-01,6.057665847252094275e-03,3.207897426034900246e-01
6.480000000000000204e-01,-1.143701654197735590e-01,2.533566390864679385e-01,2.996779831898913615e-01
6.490000000000000213e-01,-7.482231605009190267e-02,4.554953296648064920e-01,2.077922816813176921e-01
6.500000000000000222e-01,-2.390224944724324840e-01,4.710555531197745949e-01,2.464343519604812391e-02
6.510000000000000231e-01,-4.080272967712029186e-01,3.556757900837800856e-01,-1.558659646479188254e-01
6.520000000000000240e-01,-5.006155063962628438e-01,1.343950263323851757e-01,-2.323106507236742668e-01
6.530000000000000249e-01,-3.848184734843221877e-01,6.218926536449236736e-02,-1.652618636389471540e-01
6.540000000000000258e-01,-1.110111091255114452e-01,1.056034238752626281e-01,-1.010963030493286924e-01
6.550000000000000266e-01,2.207106804264093447e-01,2.206965537329532434e-01,-6.858829922490869424e-02
6.560000000000000275e-01,4.440588343199369792e-01,3.409642124268765229e-01,-4.945454558267790846e-02
6.570000000000000284e-01,4.398345592305704099e-01,3.000790523987341696e-01,-1.911245138019599943e-01
6.580000000000000293e-01,2.598306463719961545e-01,1.208330022269305110e-01,-3.002415809464525354e-01
6.590000000000000302e-01,8.918693362191894292e-02,-1.689520391625912721e-01,-3.572196156101485887e-01
6.600000000000000311e-01,7.812247844757297388e-02,-3.395788748104931476e-01,-2.754291187235758942e-01
6.610000000000000320e-01,2.160955141958416925e-01,-4.004333383913580291e-01,-1.144819007325770244e-01
6.620000000000000329e-01,4.583494559070012131e-01,-2.841473870427106418e-01,4.302803290455063656e-02
6.630000000000000338e-01,5.800770686800298392e-01,-1.332374708658728424e-01,1.495424663994939229e-01
6.640000000000000346e-01,5.094095792146665636e-01,-6.184535956019585751e-02,1.182137517890843176e-01
6.650000000000000355e-01,2.658233528455707373e-01,-1.458630245036593442e-01,3.536432687667911273e-02
6.660000000000000364e-01,-6.834003408546308889e-02,-3.109192999475156038e-01,-4.087098112551638962e-02
6.670000000000000373e-01,-2.720745459047560488e-01,-4.069619459482245460e-01,-3.294500965984917609e-03
6.680000000000000382e-01,-2.907628002533864109e-01,-3.996806847004309993e-01,1.427688329226719233e-01
6.690000000000000391e-01,-1.812154942877622354e-01,-2.024279884981898259e-01,3.016735907622056234e-01
6.700000000000000400e-01,-2.804339861148438112e-02,6.377584293548636818e-02,4.025815172010598353e-01
6.710000000000000409e-01,-3.727185032184694713e-02,2.557805287866476429e-01,3.702975603461018395e-01
6.720000000000000417e-01,-2.198443979704020890e-01,3.021718564225154280e-01,2.137847036305560722e-01
6.730000000000000426e-01,-4.689297063060360871e-01,2.073665152353596497e-01,1.714226068499585462e-02
6.740000000000000435e-01,-6.355940619809040681e-01,7.261871039072652356e-02,-5.800667301765106282e-02
6.750000000000000444e-01,-5.890662096351074739e-01,3.881428170373907305e-02,-5.293118922827347306e-02
6.760000000000000453e-01,-3.702734337021517108e-01,1.603933831531700049e-01,4.239511578535999636e-02
6.770000000000000462e-01,-6.880442375652587317e-02,3.479224323459096380e-01,9.625455459518872381e-02
6.780000000000000471e-01,1.223175176019964533e-01,4.815630760514595932e-01,5.679102995789383351e-02
6.790000000000000480e-01,1.672703149640779596e-01,4.797767591137663823e-01,-7.036587569517802065e-02
6.800000000000000488e-01,1.830144991366230989e-02,2.755000700569351091e-01,-2.441992134045716800e-01
6.810000000000000497e-01,-9.073587853447998008e-02,1.947145613282752138e-02,-3.767033790226736456e-01
6.820000000000000506e-01,-8.315160973218857499e-02,-1.569754259768272597e-01,-3.807406480015465555e-01
6.830000000000000515e-01,1.023062707396113769e-01,-2.019352123446049585e-01,-2.694949398627603521e-01
6.840000000000000524e-01,4.269462475433483117e-01,-9.052186157664213195e-02,-1.203600135777254804e-01
6.850000000000000533e-01,6.033043068206678239e-01,-1.968452363176843509e-03,9.321526645025427285e-03
6.860000000000000542e-01,6.309017668561611725e-01,3.656503827886103258e-02,-1.223673782725807381e-02
6.870000000000000551e-01,4.309518843847019998e-01,-1.272273202772946366e-01,-1.019501678372965042e-01
6.879999999999999449e-01,1.747049157158227228e-01,-3.314881148428822644e-01,-1.737442155410667821e-01
6.889999999999999458e-01,-1.252089764524664042e-02,-5.183900341514767751e-01,-1.599663459770644391e-01
6.899999999999999467e-01,-2.817913869396966586e-02,-4.932454818949991160e-01,-6.123513267137896399e-02
6.909999999999999476e-01,1.002864612938714345e-01,-3.271242538634718255e-01,1.543651480874551341e-01
6.919999999999999485e-01,2.467199716300691459e-01,-1.108100661991354985e-01,3.198902057019717415e-01
6.929999999999999494e-01,2.256673999090541283e-01,4.832912597290350137e-02,3.480449138929138098e-01
6.939999999999999503e-01,1.749053237254430057e-02,7.277210870629080564e-02,2.771288846559454289e-01
6.949999999999999512e-01,-3.020715850931798840e-01,-3.069340600292230423e-02,1.383075057796203655e-01
6.959999999999999520e-01,-5.412696066381527116e-01,-1.386073839778742267e-01,2.684937421030402296e-02
6.969999999999999529e-01,-6.222357928610880995e-01,-1.163053414672838293e-01,5.680340804103002628e-02
6.979999999999999538e-01,-4.681805763308102830e-01,5.664220470963741288e-02,1.255600738667430050e-01
6.989999999999999547e-01,-2.150951332394380189e-01,3.130333386586178768e-01,2.587336952492522157e-01
6.999999999999999556e-01,-5.038423423402079576e-02,4.864399577668843122e-01,2.761240472081296082e-01
7.009999999999999565e-01,-7.469051217657489417e-02,4.775947865920726620e-01,1.576814940593239123e-01
7.019999999999999574e-01,-2.115219793148299388e-01,3.510192582433599995e-01,-2.913799001346504061e-02
7.029999999999999583e-01,-3.702577514654514790e-01,1.463043360059394227e-01,-1.898769798140207687e-01
7.039999999999999591e-01,-3.673183958633539636e-01,1.284599080051745251e-02,-2.837007706215359804e-01
7.049999999999999600e-01,-1.540826125671092839e-01,1.187499846104712355e-02,-2.403757421091198276e-01
7.059999999999999609e-01,1.593892744118795834e-01,1.466230929298734109e-01,-1.285541071102176136e-01
7.069999999999999618e-01,4.517951081760815946e-01,2.380792990582470958e-01,-6.632240664493607718e-02
7.079999999999999627e-01,5.556781433948617677e-01,2.212582496635464024e-01,-4.458323810456916308e-02
7.089999999999999636e-01,4.385236659348774602e-01,2.732933925357381583e-02,-1.567878201858711462e-01
7.099999999999999645e-01,2.325215715453138321e-01,-2.318997829416122869e-01,-3.200791991825178151e-01
7.109999999999999654e-01,1.039181418954435582e-01,-4.391577370893829380e-01,-3.175349163594525237e-01
7.119999999999999662e-01,1.345230925548641931e-01,-4.436508873007838916e-01,-2.913473402282485414e-01
7.129999999999999671e-01,2.725743980724824045e-01,-3.382344021567725290e-01,-1.040715618010544519e-01
7.139999999999999680e-01,4.732824458495578646e-01,-1.294320516477539817e-01,1.154834133003164037e-01
7.149999999999999689e-01,5.078680564111719420e-01,-8.125229319044249832e-02,2.081661637821786981e-01
7.159999999999999698e-01,2.904428403315835738e-01,-7.771330477970428419e-02,1.824779971822877156e-01
7.169999999999999707e-01,-1.436355472391455217e-02,-2.483846668235116795e-01,7.881292975315309923e-02
7.179999999999999716e-01,-2.989067439263720094e-01,-3.519471960374287445e-01,1.094689837458554665e-02
7.189999999999999725e-01,-4.135785573224189382e-01,-3.304145448904646232e-01,2.251985811245499694e-02
7.199999999999999734e-01,-3.313301442249004247e-01,-1.189145205530556249e-01,1.604140139798473919e-01
7.209999999999999742e-01,-1.819918598675662469e-01,1.654399638868849221e-01,3.091966755835671155e-01
7.219999999999999751e-01,-6.158877966650995461e-02,3.498727578114800840e-01,3.727269664137684013e-01
7.229999999999999760e-01,-1.138578882617763133e-01,3.693253033763171378e-01,3.500483355523382745e-01
7.239999999999999769e-01,-3.059089172017684932e-01,2.859534021075853527e-01,1.908298898652174558e-01
7.249999999999999778e-01,-5.391725231631622206e-01,1.284428064143029735e-01,3.336892554330105759e-02
7.259999999999999787e-01,-5.955439767802378492e-01,5.822460696410714648e-02,-9.527729712521483540e-02
7.269999999999999796e-01,-4.493368581531729800e-01,1.480024613717849657e-01,-1.155903660925588355e-01
7.279999999999999805e-01,-1.443935297825825470e-01,3.132069436028065978e-01,-4.332217471720523072e-02
7.289999999999999813e-01,1.448520536172826778e-01,4.222449075022959852e-01,1.978937128804527171e-02
7.299999999999999822e-01,2.453482382067490031e-01,4.120154714263373763e-01,2.705591081495697936e-02
7.309999999999999831e-01,2.456583937978743526e-01,2.301976340252818165e-01,-8.297433402428970595e-02
7.319999999999999840e-01,9.110740942269730802e-02,-3.481939452334529422e-02,-2.777641234608371756e-01
7.329999999999999849e-01,1.413672236906306570e-03,-2.493492308731668772e-01,-3.272277352540509665e-01
7.339999999999999858e-01,4.758137215266729919e-02,-3.000703960278395255e-01,-3.789050953152631740e-01
7.349999999999999867e-01,2.963437687819239774e-01,-1.639215020015588331e-01,-2.478286940827155449e-01
7.359999999999999876e-01,5.203737236778626096e-01,-3.395958493589761040e-02,-8.291907925335922913e-02
7.369999999999999885e-01,6.586311681015961650e-01,-1.954629415603862524e-02,2.075335261779263918e-02
7.379999999999999893e-01,5.474406017356678866e-01,-1.353692238815414339e-01,2.078534747845451475e-02
7.389999999999999902e-01,2.642401925665537887e-01,-3.649435374404672583e-01,-3.532241424423529508e-02
7.399999999999999911e-01,2.067479672905225829e-02,-4.730784427525279168e-01,-1.217007941117351916e-01
7.409999999999999920e-01,-1.168900003610594401e-01,-4.987671339186283692e-01,-9.861675764219343665e-02
7.419999999999999929e-01,-1.080296690385387504e-01,-2.789116593311759540e-01,-1.818847284757196814e-02
7.429999999999999938e-01,5.942618115255565020e-02,-4.202680209671937756e-02,1.575018577235821338e-01
7.439999999999999947e-01,1.694336293524137393e-01,1.300986694592118909e-01,3.321828549686406951e-01
7.449999999999999956e-01,2.650995428111328767e-02,1.598853689513499432e-01,3.899946437813712752e-01
7.459999999999999964e-01,-2.125345742732687448e-01,7.937126074205631820e-02,2.759034431754346928e-01
7.469999999999999973e-01,-4.961054736983321334e-01,-2.844926511618944831e-02,1.565870804396118920e-01
7.479999999999999982e-01,-6.388197734309303266e-01,-5.522917891466335577e-02,4.750795751661383848e-02
7.489999999999999991e-01,-6.021829413694760325e-01,1.217305734889359697e-01,4.281040299131926019e-02
7.500000000000000000e-01,-3.577591554775798044e-01,3.367246019448876804e-01,1.044118933029303947e-01
7.510000000000000009e-01,-7.974216112814924706e-02,4.979617001088145756e-01,1.974818851826630473e-01
7.520000000000000018e-01,-1.837480048017955557e-03,4.955361254267000581e-01,1.873510087724193085e-01
7.530000000000000027e-01,-4.347834078774513028e-02,3.584994646423831366e-01,1.021872918674884556e-01
7.540000000000000036e-01,-1.675454323330932971e-01,1.093496134960149357e-01,-7.232621933682739646e-02
7.550000000000000044e-01,-2.585750825533896791e-01,-4.247402842365785580e-02,-2.562220990501058449e-01
7.560000000000000053e-01,-2.006333409214908770e-01,-2.505648982607391537e-02,-3.167976050736154292e-01
7.570000000000000062e-01,1.018434325793088069e-01,5.910137809117083085e-02,-2.971084107404041719e-01
7.580000000000000071e-01,4.079684985965290611e-01,1.691159455232060793e-01,-1.822454313338335852e-01
7.590000000000000080e-01,5.666571181727425577e-01,1.404660475088557181e-01,-4.579580741256621124e-02
7.600000000000000089e-01,5.580639228625940973e-01,-5.254240160499114298e-02,-4.506448254169028583e-02
7.610000000000000098e-01,3.920915078147309552e-01,-2.719082995822613147e-01,-1.197074211214330525e-01
7.620000000000000107e-01,1.500374190995303891e-01,-4.771445986323615829e-01,-2.497541028492550330e-01
7.630000000000000115e-01,8.330989380968001345e-02,-4.973647456606015149e-01,-2.667629666988973747e-01
7.640000000000000124e-01,1.280721716630203455e-01,-3.400306241361215065e-01,-2.221776685935696050e-01
7.650000000000000133e-01,3.064799451615459747e-01,-1.463525590840305812e-01,-3.587620502097420977e-02
7.660000000000000142e-01,4.117562775261306429e-01,-2.160055765932223162e-02,1.495414758982258896e-01
7.670000000000000151e-01,3.248734723258660528e-01,-3.318986248833389469e-02,2.667829104247249616e-01
7.680000000000000160e-01,7.132241523707086306e-02,-1.584746276821244193e-01,2.530956497863550703e-01
7.690000000000000169e-01,-2.714514855805268412e-01,-2.744738018001425806e-01,1.488993225554287314e-01
7.700000000000000178e-01,-4.874638205184416151e-01,-2.338216277453008252e-01,8.114889870846395126e-02
7.710000000000000187e-01,-4.962715590074371907e-01,-4.181093767003435380e-02,5.526549772790597531e-02
7.720000000000000195e-01,-3.119371003566648870e-01,2.122014476509370140e-01,1.447916653380903751e-01
7.730000000000000204e-01,-1.628424619203888146e-01,4.197925988748070769e-01,2.843082020214960925e-01
7.740000000000000213e-01,-6.586243426518581523e-02,4.527571073603949281e-01,3.424619449281436356e-01
7.750000000000000222e-01,-1.934190208254031040e-01,3.349957995835496916e-01,3.116335585753113313e-01
7.760000000000000231e-01,-3.783095526184833135e-01,1.499752106306953825e-01,1.181716715362316761e-01
7.770000000000000240e-01,-5.244236752977374794e-01,5.763726538035737063e-02,-1.781937051878320841e-02
7.780000000000000249e-01,-5.028842247729314874e-01,1.116487339752386260e-01,-1.740675220527241052e-01
7.790000000000000258e-01,-2.283541405906756305e-01,2.539740605489684278e-01,-1.627354963804115429e-01
7.800000000000000266e-01,1.099707989540859437e-01,3.806396148839794047e-01,-1.316246982656840148e-01
7.810000000000000275e-01,3.427466974586922399e-01,3.115062908518299034e-01,-2.318591100254296239e-02
7.820000000000000284e-01,3.663753846017512306e-01,1.616125811843724946e-01,-4.050488598394073186e-02
7.830000000000000293e-01,2.568493922578033994e-01,-1.324137263485647142e-01,-9.384436483822937436e-02
7.840000000000000302e-01,1.171241728141505650e-01,-3.422737705359672478e-01,-2.750861163121611774e-01
7.850000000000000311e-01,3.817192069154251577e-02,-3.647742083934130131e-01,-3.532565868661583508e-01
7.860000000000000320e-01,1.742067620941550321e-01,-2.703932225841724768e-01,-3.585841678872171978e-01
7.870000000000000329e-01,4.063022382005337385e-01,-1.208927305585809353e-01,-2.475285402361253329e-01
7.880000000000000338e-01,6.123073417601710977e-01,-7.428949860691565210e-02,-6.560603560605804407e-02
7.890000000000000346e-01,5.775677082990179345e-01,-1.401429436627951164e-01,9.398998072654353442e-02
7.900000000000000355e-01,3.800253363402983364e-01,-3.271373639949048950e-01,1.062820844538382020e-01
7.910000000000000364e-01,3.539164826246461032e-02,-4.553318703144724200e-01,4.809074819280501761e-02
7.920000000000000373e-01,-2.036796511812657695e-01,-4.101760979407992891e-01,-5.510049740679583141e-02
7.930000000000000382e-01,-2.323795714878832963e-01,-2.367123032695314655e-01,-6.235505552381580968e-02
7.940000000000000391e-01,-1.284513130746286202e-01,2.048030520183493838e-02,5.678996745012294955e-02
7.950000000000000400e-01,1.115777078714424823e-03,2.390600489584985000e-01,2.106076369278643834e-01
7.960000000000000409e-01,6.672008412302321556e-02,2.519052454354297477e-01,3.694336322221138391e-01
7.970000000000000417e-01,-1.190937911301165053e-01,1.450813271054890441e-01,3.810764443356849940e-01
7.980000000000000426e-01,-4.011699367898631241e-01,5.619354474424469170e-02,2.986255259917157123e-01
7.990000000000000435e-01,-6.106451575146263355e-01,3.710683676309842888e-02,1.506917318606333933e-01
8.000000000000000444e-01,-6.126503487373030632e-01,1.304563839743727305e-01,3.638813681115001669e-02
8.010000000000000453e-01,-4.536802790938533891e-01,3.168858508594418755e-01,-3.623971011266442083e-02
8.020000000000000462e-01,-1.685525688290893387e-01,4.862872882268851615e-01,2.649064066240929341e-02
8.030000000000000471e-01,7.305053754152091017e-02,5.042159273612368819e-01,1.118143672330335348e-01
8.040000000000000480e-01,1.186614460430630708e-01,2.906943615347418741e-01,1.564148079778186762e-01
8.050000000000000488e-01,3.275655393615192756e-02,3.357567827006938121e-02,4.055847785420855361e-02
8.060000000000000497e-01,-1.346589247054820193e-01,-1.051740688486512698e-01,-9.512713449693455114e-02
8.070000000000000506e-01,-1.701401785736623429e-01,-1.405104237045884941e-01,-2.955963495010928144e-01
8.080000000000000515e-01,2.228749090174803743e-02,-2.035423759409987418e-02,-3.824665611070910964e-01
8.090000000000000524e-01,3.169334455863750954e-01,6.067317814401266413e-02,-3.296966403293584147e-01
8.100000000000000533e-01,5.697282654871340668e-01,7.186572136260209465e-02,-1.770873865461606023e-01
8.110000000000000542e-01,6.532210143990611062e-01,-1.089277498009788292e-01,-5.376285630067999255e-02
8.120000000000000551e-01,5.031128681210512710e-01,-3.442722125595040761e-01,-2.151395561531256606e-02
8.129999999999999449e-01,2.713923419888071287e-01,-5.021051202294559701e-01,-7.561291494741077812e-02
8.139999999999999458e-01,5.442551175810669828e-02,-4.998419004195958637e-01,-1.763013873320634362e-01
8.149999999999999467e-01,-2.422299513030556125e-03,-3.655568486619966695e-01,-2.391187721292661328e-01
8.159999999999999476e-01,1.282026062243905862e-01,-1.056063357527049773e-01,-1.588776659673959979e-01
8.169999999999999485e-01,2.709396613023733469e-01,2.964533506094813378e-02,1.801587064119901035e-02
8.179999999999999494e-01,2.906419113742603755e-01,2.663070404303932021e-02,2.083481224549325606e-01
8.189999999999999503e-01,1.236833323106639876e-01,-5.034900090893879715e-02,3.317385210312964738e-01
8.199999999999999512e-01,-1.858293450961845117e-01,-1.698400177300539715e-01,2.938238200531450572e-01
8.209999999999999520e-01,-4.858789681291358908e-01,-1.586389231899798802e-01,2.246904098888767298e-01
8.219999999999999529e-01,-6.124728278975575257e-01,5.721276072218102124e-03,7.010719453059317818e-02
8.229999999999999538e-01,-4.958617390458001095e-01,2.804306714352572949e-01,3.829224710223399358e-02
8.239999999999999547e-01,-2.591327384144468393e-01,4.671264328934960353e-01,1.182611928902921050e-01
8.249999999999999556e-01,-1.060764135730337260e-01,4.780727131674400998e-01,2.173513814335114869e-01
8.259999999999999565e-01,-6.512699962154154532e-02,3.551063200429270261e-01,2.799480486386846101e-01
8.269999999999999574e-01,-2.247052406558045778e-01,1.767634139467589571e-01,2.775256278901927498e-01
8.279999999999999583e-01,-3.926774038614628259e-01,3.246966355423905326e-02,9.584343349276537583e-02
8.289999999999999591e-01,-4.427657339640678202e-01,6.021174709843347961e-02,-1.171511951716863315e-01
8.299999999999999600e-01,-2.832421757170747734e-01,1.752724567390993582e-01,-2.245639822001470609e-01
8.309999999999999609e-01,5.210724431743064822e-02,2.598319549090754577e-01,-2.469435989970478751e-01
8.319999999999999618e-01,3.256025964330481193e-01,2.525351407849479868e-01,-1.618216842924468934e-01
8.329999999999999627e-01,4.711523153530645103e-01,5.640229613525882257e-02,-9.164903689721910773e-02
8.339999999999999636e-01,4.320385683368124230e-01,-2.029583727204367360e-01,-6.121338354406614946e-02
8.349999999999999645e-01,2.528842469005244675e-01,-3.959705428969661489e-01,-1.199507864490165915e-01
8.359999999999999654e-01,1.018252188789671164e-01,-4.366201965284597919e-01,-2.413928658713331843e-01
8.369999999999999662e-01,1.058832174102828649e-01,-3.118145320148121291e-01,-3.770212646167750425e-01
8.379999999999999671e-01,2.396412778925116616e-01,-1.314252536524776194e-01,-3.024575874007393028e-01
8.389999999999999680e-01,4.529144726458106951e-01,-8.884031164618642895e-02,-2.053142099253963404e-01
8.399999999999999689e-01,5.368034652892381686e-01,-1.143091496330151113e-01,-2.696417255703337928e-02
8.409999999999999698e-01,4.029139999293940844e-01,-2.647739576387179161e-01,1.443178718187198006e-01
8.419999999999999707e-01,1.096336813957037165e-01,-4.111888806723107415e-01,1.773466951996189866e-01
8.429999999999999716e-01,-1.718150136800461469e-01,-3.713868312428253438e-01,1.183503662587072347e-01
8.439999999999999725e-01,-3.494136339524396284e-01,-1.793700621459438371e-01,8.436329283056046707e-03
8.449999999999999734e-01,-3.443360718732607073e-01,9.723041692915815326e-02,4.466330854487460950e-03
8.459999999999999742e-01,-1.644413156990404135e-01,2.923841622675476537e-01,6.809292393644228447e-02
8.469999999999999751e-01,-2.998460967908719507e-02,3.457027356453776235e-01,2.197404168618918852e-01
8.479999999999999760e-01,-8.343963433585022127e-02,2.434406672095751067e-01,3.584149896583882500e-01
8.489999999999999769e-01,-2.615243755153122129e-01,1.085354483273320431e-01,3.886237660082943468e-01
8.499999999999999778e-01,-4.892548790465102160e-01,3.761693236217663466e-02,3.053970570721052935e-01
8.509999999999999787e-01,-6.185971261640899055e-01,1.494715675535767674e-01,1.161143252541401161e-01
8.519999999999999796e-01,-5.516000737568068635e-01,3.317040000783139653e-01,-4.919306254443261972e-02
8.529999999999999805e-01,-2.526794838720793357e-01,4.693067529193828968e-01,-9.224617131959465810e-02
8.539999999999999813e-01,3.365450317960746313e-02,4.437209728616340332e-01,-4.799393521703954058e-02
8.549999999999999822e-01,1.999520882326222548e-01,2.543414184870223527e-01,1.921206011820237800e-02
8.559999999999999831e-01,2.077679922760137798e-01,-1.154410792963153284e-02,6.390490868130495328e-02
8.569999999999999840e-01,7.278319202100060059e-02,-1.984706523711753379e-01,8.557858470691070973e-03
8.579999999999999849e-01,-4.132971719019625650e-02,-2.527186175332961637e-01,-1.554799238707466336e-01
8.589999999999999858e-01,-1.068187420525448968e-02,-1.647436964111239632e-01,-3.274231958659612474e-01
8.599999999999999867e-01,1.824072291874984098e-01,-6.183377674435026373e-03,-4.087654162310571104e-01
8.609999999999999876e-01,4.732369599986369080e-01,-1.930209644370832825e-02,-3.408483729928551975e-01
8.619999999999999885e-01,6.722556509900776689e-01,-1.339719799432992908e-01,-2.134048095139556844e-01
8.629999999999999893e-01,5.958564612196890486e-01,-3.341595259764961190e-01,-2.321007415395652529e-02
8.639999999999999902e-01,3.621958669325294755e-01,-4.836615225350293645e-01,8.303490918470131724e-03
8.649999999999999911e-01,7.648898464828683685e-02,-4.837933767901959059e-01,-2.950111483024526679e-02
8.659999999999999920e-01,-9.025111374305781753e-02,-3.056060661526611710e-01,-9.131313593348529267e-02
8.669999999999999929e-01,-9.064635846159156685e-02,-8.364589743864207783e-02,-1.392368284124525790e-01
8.679999999999999938e-01,8.539939899392655354e-02,1.139860396899297079e-01,-1.079342727055516843e-01
8.689999999999999947e-01,1.959930121679774317e-01,1.339803956028221554e-01,8.752811374018309998e-02
8.699999999999999956e-01,1.147863579803931194e-01,3.390187440545135156e-02,2.556772521326844405e-01
8.709999999999999964e-01,-1.110835700870004134e-01,-9.596597932617959015e-02,3.577500030126143926e-01
8.719999999999999973e-01,-3.880008460566222728e-01,-7.585197403764518120e-02,3.266011005536657574e-01
8.729999999999999982e-01,-5.997569332273868792e-01,1.074078680118380064e-01,2.350987366805280532e-01
8.739999999999999991e-01,-6.212067877474547473e-01,3.155335438754388044e-01,8.057875506696915435e-02
8.750000000000000000e-01,-4.165936156279297919e-01,4.630428753714160295e-01,4.680092212965805860e-03
8.760000000000000009e-01,-1.746569499800535163e-01,4.869963740518575279e-01,7.655505016245713057e-02
8.770000000000000018e-01,-1.514345342998035283e-02,3.347950558291152845e-01,1.731985075887911840e-01
8.780000000000000027e-01,-7.895040183730163419e-02,1.461373851672777002e-01,2.335523135813556972e-01
8.790000000000000036e-01,-1.853201636269942720e-01,-1.600272386613524420e-03,1.876047811010142230e-01
8.800000000000000044e-01,-3.265630690029699967e-01,-1.536835948179506549e-02,2.774512643696708594e-02
8.810000000000000053e-01,-2.863572130637233593e-01,1.125757377546278554e-01,-1.320906226041692610e-01
8.820000000000000062e-01,-4.361008397281017357e-02,1.949394495237010971e-01,-2.986121312151553409e-01
8.830000000000000071e-01,2.967808989522369156e-01,1.703564595202947396e-01,-3.465524535614861179e-01
8.840000000000000080e-01,5.169481448068813378e-01,-7.750495628229861836e-03,-2.057959338484492140e-01
8.850000000000000089e-01,5.571049125091167564e-01,-2.622215207980798102e-01,-1.266518413142802280e-01
8.860000000000000098e-01,3.999989082776133631e-01,-4.599251115075174701e-01,-4.793524084369255034e-02
8.870000000000000107e-01,2.009301794143907305e-01,-4.729844863543786748e-01,-1.025166796856115253e-01
8.880000000000000115e-01,8.247452745929685636e-02,-3.254996739072708589e-01,-2.168789201542864475e-01
8.890000000000000124e-01,1.239455588718927775e-01,-1.524931581455739871e-01,-3.133653677131191806e-01
8.900000000000000133e-01,2.881736866334562719e-01,-4.669699291855292783e-02,-2.998246718475270911e-01
8.910000000000000142e-01,4.419099085758147472e-01,-9.652266259755246103e-02,-1.395503231585483173e-01
8.920000000000000151e-01,4.200011049077125858e-01,-1.984584029549298911e-01,4.067471908653493007e-02
8.930000000000000160e-01,2.086273425869822062e-01,-3.338782583084093369e-01,2.125303072520306202e-01
8.940000000000000169e-01,-1.376800311169353030e-01,-2.781672182796630644e-01,2.566517336570216523e-01
8.950000000000000178e-01,-3.939529452306890778e-01,-1.029321223368029614e-01,1.831904715051568544e-01
8.960000000000000187e-01,-4.582781613036679969e-01,1.602439096624563297e-01,1.008850999042813362e-01
8.970000000000000195e-01,-3.601653094559891799e-01,3.684890987997054279e-01,2.113082832080499796e-02
8.980000000000000204e-01,-1.594109620445556263e-01,4.106105028062516649e-01,8.135024104434132597e-02
8.990000000000000213e-01,-9.856355780134641587e-02,3.123899495913547986e-01,2.105644071540677675e-01
9.000000000000000222e-01,-1.554635580198465428e-01,1.443786593705271570e-01,3.301851472809024801e-01
9.010000000000000231e-01,-3.570373318213455605e-01,7.010355324092197582e-02,3.835271888057932843e-01
9.020000000000000240e-01,-5.441006083682152772e-01,1.306618232569597138e-01,2.730993018954514517e-01
9.030000000000000249e-01,-5.380172590851428627e-01,2.767000914353521801e-01,7.446462235945118524e-02
9.040000000000000258e-01,-3.076447880100596777e-01,3.931335409809953996e-01,-8.455841941591439592e-02
9.050000000000000266e-01,-1.470625498690474563e-02,3.725170929165114164e-01,-1.564090241362229572e-01
9.060000000000000275e-01,2.545139882649493646e-01,1.645676013920743253e-01,-1.216090473950762196e-01
9.070000000000000284e-01,3.363034615603882616e-01,-7.249946827723796616e-02,-1.177522381868238016e-02
9.080000000000000293e-01,2.412053782469745777e-01,-2.808680257817910420e-01,3.906056901796506331e-02
9.090000000000000302e-01,8.159618527049838921e-02,-3.366744283659118819e-01,-1.880302944389872222e-02
9.100000000000000311e-01,5.371726165247303966e-03,-2.283368611925676583e-01,-1.551799749310718013e-01
9.110000000000000320e-01,1.514022180117582939e-01,-1.181835535057264991e-01,-3.280521389469168714e-01
9.120000000000000329e-01,3.483888827757340989e-01,-4.564187827578582851e-02,-3.832105330427005296e-01
9.130000000000000338e-01,5.606530754107974523e-01,-1.312036831293005856e-01,-3.293659323793769467e-01
9.140000000000000346e-01,6.300636379336075343e-01,-3.142826876810884129e-01,-1.734034639113403720e-01
9.150000000000000355e-01,4.650344206218247067e-01,-4.661252112634691747e-01,7.061918452851143231e-03
9.160000000000000364e-01,1.554366119973075167e-01,-4.400342269663907180e-01,8.733494393273484591e-02
9.170000000000000373e-01,-8.668207798215443738e-02,-2.768007596141253690e-01,4.317148172906668663e-02
9.180000000000000382e-01,-2.128694362132201590e-01,-1.637127187025244623e-02,-2.091733299064128110e-02
9.190000000000000391e-01,-1.151161422368028875e-01,1.852535450643496007e-01,-1.002727884917767737e-01
9.200000000000000400e-01,1.266941160510208150e-02,2.220925717025963309e-01,-3.461349355654537441e-02
9.210000000000000409e-01,8.067750445831407824e-02,1.417621572158025978e-01,1.067275299023601881e-01
9.220000000000000417e-01,-2.031141751802845521e-02,1.396822405790770424e-02,3.047049415105401171e-01
9.230000000000000426e-01,-3.119800341716935654e-01,-2.774861719234202051e-02,3.953454067733795374e-01
9.240000000000000435e-01,-5.742729923420581972e-01,1.234193766210823773e-01,3.642166697144656462e-01
9.250000000000000444e-01,-6.761545472898373710e-01,3.191627974810253288e-01,2.411500423355685541e-01
9.260000000000000453e-01,-5.405155318432836031e-01,4.895321203050209125e-01,9.310638776794712135e-02
9.270000000000000462e-01,-2.881591987500374819e-01,4.811318584623932582e-01,-2.298256347110651937e-02
9.280000000000000471e-01,1.355742240896421359e-03,3.189443054344844319e-01,2.740660533409576896e-02
9.290000000000000480e-01,6.244104967918982785e-02,8.784808930935757154e-02,9.387885601127031465e-02
9.300000000000000488e-01,-2.259479952376631726e-02,-7.784185573058118035e-02,1.845155737523005990e-01
9.310000000000000497e-01,-1.493194528190491810e-01,-1.179402162237415952e-01,1.408943636390444509e-01
9.320000000000000506e-01,-1.867094352423984693e-01,4.733149576543590510e-03,-7.806280579976466669e-03
9.330000000000000515e-01,-1.003456666458821533e-01,1.170854805027612411e-01,-1.760928082720166210e-01
9.340000000000000524e-01,2.150128013983013120e-01,9.422704084759951637e-02,-3.267676524661526916e-01
9.350000000000000533e-01,4.995085962497233800e-01,-6.950775722366561715e-02,-3.697421083910376050e-01
9.360000000000000542e-01,6.135962600723501303e-01,-3.222232117187490141e-01,-2.614964668881932242e-01
9.370000000000000551e-01,5.537745687965556218e-01,-5.062490786033883028e-01,-1.124931356494698748e-01
9.379999999999999449e-01,3.359302137285490319e-01,-5.234494404778172738e-01,-4.364986560111189240e-02
9.389999999999999458e-01,9.194163330446200599e-02,-3.788587458550962683e-01,-7.375308928591246815e-02
9.399999999999999467e-01,3.676517619038135315e-02,-1.488813769155665212e-01,-1.767269355840332956e-01
9.409999999999999476e-01,1.107646628664437360e-01,2.986105752214716262e-04,-2.487092323301281493e-01
9.419999999999999485e-01,2.714433137404052010e-01,-1.878665836430920555e-02,-2.398708421677471780e-01
9.429999999999999494e-01,3.437983026021464994e-01,-8.020072040259124124e-02,-1.222064733121602520e-01
9.439999999999999503e-01,2.385669070137733661e-01,-2.239523299345519136e-01,1.036548401871229264e-01
9.449999999999999512e-01,-5.733760765453470992e-02,-1.841037782338390827e-01,2.241684979394317212e-01
9.459999999999999520e-01,-3.613912201410841574e-01,-7.243244978311406089e-03,3.327934973030780008e-01
9.469999999999999529e-01,-5.535888607464096722e-01,2.700674751910785432e-01,2.396037471800240015e-01
9.479999999999999538e-01,-5.186602426739747029e-01,4.292167070610061197e-01,1.414828793410795593e-01
9.489999999999999547e-01,-3.412810080911152788e-01,4.788943482587084688e-01,5.893286290651682940e-02
9.499999999999999556e-01,-1.297756751448872203e-01,3.241017743321422673e-01,7.713574359204684872e-02
9.509999999999999565e-01,-8.224645858253193387e-02,1.768049054987065050e-01,1.727988345846409590e-01
9.519999999999999574e-01,-2.019044274894767343e-01,4.392637414368153609e-02,3.048270780910057876e-01
9.529999999999999583e-01,-3.924323880522453956e-01,7.469460274702154068e-02,3.218258827645580356e-01
9.539999999999999591e-01,-4.629002547841261084e-01,2.256621942278483617e-01,2.436833193233075845e-01
9.549999999999999600e-01,-3.896499683555883498e-01,3.281738909927091608e-01,5.203939335792309023e-02
9.559999999999999609e-01,-9.103663098176464907e-02,2.968776961279090965e-01,-1.571564032572669023e-01
9.569999999999999618e-01,2.031127108834477335e-01,1.036977107246578739e-01,-2.358257224211386949e-01
9.579999999999999627e-01,4.416758355431470440e-01,-1.580665085780500190e-01,-2.035185129794290226e-01
9.589999999999999636e-01,4.151693116786229210e-01,-3.601828906720342394e-01,-9.703219841534022061e-02
9.599999999999999645e-01,2.762572361952465583e-01,-4.010001599914128079e-01,-3.789204881222993371e-02
9.609999999999999654e-01,8.564970171771620067e-02,-3.208253776473085628e-01,-5.931343872764863190e-02
9.619999999999999662e-01,8.763190980067454838e-02,-1.449593273398644411e-01,-1.730053229472629239e-01
9.629999999999999671e-01,2.256067148192974769e-01,-3.809465247444865366e-02,-3.274236104203898101e-01
9.639999999999999680e-01,4.221522318991188238e-01,-1.362339159014688272e-01,-3.840642997859698426e-01
9.649999999999999689e-01,5.863071283385111743e-01,-3.014431731008100912e-01,-3.170333249265587239e-01
9.659999999999999698e-01,4.936678512050634016e-01,-4.231815491686544695e-01,-1.455428795541970077e-01
9.669999999999999707e-01,2.571671350903672049e-01,-3.928548637589833747e-01,5.530915795411225910e-02
9.679999999999999716e-01,-7.119633186633106403e-02,-2.071411133124299031e-01,1.440081644563893648e-01
9.689999999999999725e-01,-2.767996102125477864e-01,9.048033523258483535e-02,1.286165946274635541e-01
9.699999999999999734e-01,-2.907215963710316209e-01,2.536811540178025570e-01,6.775844311300353862e-02
9.709999999999999742e-01,-1.462348665521012447e-01,2.883135472168750768e-01,-2.234939068381177132e-02
9.719999999999999751e-01,-5.477750703633268298e-02,1.950017335811461694e-01,1.655571086829883687e-02
9.729999999999999760e-01,-3.258904102046586426e-02,7.826416921556431094e-02,1.213360447111612034e-01
9.739999999999999769e-01,-1.919209654184914349e-01,5.175598536127000437e-02,2.739245852118465940e-01
9.749999999999999778e-01,-4.693673498662462307e-01,1.615213193190343510e-01,3.940182575228142747e-01
9.759999999999999787e-01,-6.072724213732213494e-01,3.453289113473495542e-01,3.617598064423591109e-01
9.769999999999999796e-01,-5.932431014015103754e-01,4.608034901641427927e-01,2.282039360967413610e-01
9.779999999999999805e-01,-3.671726761616954660e-01,4.719139959177718335e-01,3.645563213972571881e-02
9.789999999999999813e-01,-5.661141802315922816e-02,2.784412441122778303e-01,-6.758174509005772379e-02
9.799999999999999822e-01,1.497609811716919814e-01,5.060373025909058881e-02,-5.000119248652033083e-02
9.809999999999999831e-01,1.838307365622911527e-01,-1.468257409361854449e-01,3.122826576736871529e-02
9.819999999999999840e-01,3.651189985631158458e-02,-1.820320698848314767e-01,9.846258417477726788e-02
9.829999999999999849e-01,-8.864344956362879557e-02,-1.008099149661443594e-01,8.547327916952329740e-02
9.839999999999999858e-01,-7.050079246357877916e-02,1.160241028952607376e-02,-5.393394895040970471e-02
9.849999999999999867e-01,1.152243078939877152e-01,3.939450857879567280e-02,-2.068695706100902032e-01
9.859999999999999876e-01,3.888886213955118909e-01,-1.311549060846294579e-01,-3.790815309658603915e-01
9.869999999999999885e-01,6.217833610515285381e-01,-3.137835912228739699e-01,-3.676807759995334157e-01
9.879999999999999893e-01,6.172052366077511731e-01,-4.822435256095105593e-01,-2.702271254861031147e-01
9.889999999999999902e-01,4.191127515276917848e-01,-4.904910525452011449e-01,-1.180079376928371282e-01
9.899999999999999911e-01,1.717783559944335015e-01,-3.231629369880616998e-01,-1.539279597604704258e-02
9.909999999999999920e-01,-3.101803622025142010e-02,-1.241188477302063164e-01,4.157537540655651320e-04
9.919999999999999929e-01,-4.299685260745957083e-02,7.467842061097036688e-02,-9.181567891373457191e-02
9.929999999999999938e-01,1.139865814854140735e-01,9.414617434876551560e-02,-1.684109944982101204e-01
9.939999999999999947e-01,2.185455897906624367e-01,-1.094131261345021762e-02,-1.979232959606053999e-01
9.949999999999999956e-01,2.139934933441512699e-01,-1.411142090613514422e-01,-4.352909516235741599e-02
9.959999999999999964e-01,2.111384734121536655e-02,-9.727730442602874894e-02,1.351787326758663033e-01
9.969999999999999973e-01,-3.042426572816448460e-01,6.737324631710268907e-02,2.637809285099286805e-01
9.979999999999999982e-01,-5.508825007243876026e-01,2.865748321299250723e-01,3.669803216219424957e-01
9.989999999999999991e-01,-6.174499163477426000e-01,4.867034759150175027e-01,2.884035508383933077e-01
1.000000000000000000e+00,-4.677394295411627656e-01,5.185999838131087891e-01,1.560131153163456519e-01
1.000999999999999890e+00,-2.216378908192579988e-01,3.548718715353273989e-01,4.690186613909696350e-02
1.002000000000000002e+00,-5.615957776147606495e-02,1.839487514856841255e-01,6.603697924630247407e-02
1.002999999999999892e+00,-3.413637339305505142e-02,4.147588073429178332e-03,1.511113886289401076e-01
1.004000000000000004e+00,-2.180914150472850477e-01,4.402934540097604849e-02,2.632009764644075989e-01
1.004999999999999893e+00,-3.471614686117401871e-01,1.152477104900555688e-01,2.755109911264996825e-01
1.006000000000000005e+00,-3.529043827771016217e-01,2.500008657409038548e-01,1.840897686502850905e-01
1.006999999999999895e+00,-1.364507881544549661e-01,2.232402000454594415e-01,-3.537019022787143280e-02
1.008000000000000007e+00,1.677247491124823631e-01,1.935718369458163182e-02,-2.088623093643720285e-01
1.008999999999999897e+00,4.682853899997128089e-01,-2.225537464264718823e-01,-2.999151166987981121e-01
1.010000000000000009e+00,5.422443326316199741e-01,-4.423198477218509006e-01,-2.458408501841464200e-01
1.010999999999999899e+00,4.275377989606533591e-01,-4.699619188167665773e-01,-1.270967294826008398e-01
1.012000000000000011e+00,2.223707113257351597e-01,-3.292098330674241291e-01,-5.519426294143182921e-02
1.012999999999999901e+00,6.903017994106661059e-02,-1.662326773619451081e-01,-6.535286151838588797e-02
1.014000000000000012e+00,1.253816199733627790e-01,-6.190248857718409076e-02,-1.805126403130410118e-01
1.014999999999999902e+00,2.907410473249621430e-01,-1.014237802603990962e-01,-2.676605533874370502e-01
1.016000000000000014e+00,4.533457481911645770e-01,-2.428342867092068147e-01,-3.310089364492012076e-01
1.016999999999999904e+00,5.025229809916180734e-01,-3.630833419961752573e-01,-2.634981062007819008e-01
1.018000000000000016e+00,3.052572748501723443e-01,-3.292635641563448345e-01,-7.825001558195612827e-02
1.018999999999999906e+00,-2.539078200738206087e-02,-1.262374025911463804e-01,1.125370121455505912e-01
1.020000000000000018e+00,-2.970040549823967924e-01,1.305642363568028930e-01,2.146744821218761201e-01
1.020999999999999908e+00,-4.293811892291606314e-01,3.274487135941803739e-01,1.910997266437812758e-01
1.022000000000000020e+00,-3.601467503768450706e-01,3.890396780283278955e-01,1.137948958270003502e-01
1.022999999999999909e+00,-1.771066214541944517e-01,2.791013642182823551e-01,6.694048740434793698e-02
1.024000000000000021e+00,-6.598158306548784768e-02,1.383438975587627240e-01,2.840058557213826287e-02
1.024999999999999911e+00,-1.151625201980021607e-01,6.160665246451836607e-02,1.465791494228274316e-01
1.026000000000000023e+00,-2.970852432528252596e-01,1.519679587714125313e-01,2.774329799922228279e-01
1.026999999999999913e+00,-5.359941607251506035e-01,3.001185510468259987e-01,3.752230684778809500e-01
1.028000000000000025e+00,-5.632009889993045970e-01,4.244692082767353436e-01,3.328372816902859244e-01
1.028999999999999915e+00,-4.542746489567648371e-01,4.035106168249395497e-01,1.821359050695609827e-01
1.030000000000000027e+00,-1.398737274762595628e-01,2.118863515913534390e-01,4.579556460029398507e-03
1.030999999999999917e+00,1.678745686659522673e-01,-2.974167053207273786e-02,-1.096542321745871268e-01
1.032000000000000028e+00,2.920496345253132953e-01,-2.346103058193849122e-01,-1.243328305098745645e-01
1.032999999999999918e+00,2.152036780872311483e-01,-2.915805632334428354e-01,-3.333108785763878867e-02
1.034000000000000030e+00,8.253353710964009271e-02,-2.075197429649486003e-01,5.016081570065544087e-02
1.034999999999999920e+00,-2.535595221102657573e-02,-6.722231042831192105e-02,4.514275791052006076e-02
1.036000000000000032e+00,6.618996155865264353e-02,-3.262145191573954939e-02,-6.890818087005413928e-02
1.036999999999999922e+00,2.750751026407282640e-01,-1.272059696994000677e-01,-2.343583535732078338e-01
1.038000000000000034e+00,5.330012556472123464e-01,-3.242479010794120931e-01,-3.727048721193807479e-01
1.038999999999999924e+00,6.315393737186839607e-01,-4.502820583278125399e-01,-3.611760017054664318e-01
1.040000000000000036e+00,5.307707951491499321e-01,-4.707088133102636518e-01,-2.676981941699665968e-01
1.040999999999999925e+00,2.554417020688881657e-01,-3.151532940953902795e-01,-7.374275521175335801e-02
1.042000000000000037e+00,-2.225857049835726006e-02,-6.177397169106867841e-02,1.698041330738446833e-02
1.042999999999999927e+00,-1.297030249911347022e-01,1.552898447181378649e-01,4.456183341599270070e-02
1.044000000000000039e+00,-1.095431490594138968e-01,1.785457170587486653e-01,-4.709665096202909906e-02
1.044999999999999929e+00,3.323805973197286462e-02,5.178508447902922113e-02,-9.670725857403998649e-02
1.046000000000000041e+00,1.155503776249503650e-01,-3.169343816493960103e-02,-1.143463716191278901e-01
1.046999999999999931e+00,3.964011673588014456e-02,-4.206395993552720231e-02,-5.942718763655129195e-03
1.048000000000000043e+00,-2.084393370395032641e-01,7.820211918233115067e-02,1.739896040785829101e-01
1.048999999999999932e+00,-4.904816240435860841e-01,3.233925746955328973e-01,3.394720087647088436e-01
1.050000000000000044e+00,-6.532525911306424904e-01,4.883492507721899356e-01,3.696946389053255011e-01
1.050999999999999934e+00,-5.770046671057342813e-01,5.015297420705157050e-01,3.095578579170374378e-01
1.052000000000000046e+00,-3.607496055085676612e-01,3.707650728712427735e-01,1.599065752202760982e-01
1.052999999999999936e+00,-9.375024460816851202e-02,1.154260123920640840e-01,3.929700143146865055e-02
1.054000000000000048e+00,5.788066834142007767e-03,-2.332439143061999093e-02,1.290026145317673713e-02
1.054999999999999938e+00,-2.314602247614094138e-02,-7.834843009494060762e-02,5.805040433056224414e-02
1.056000000000000050e+00,-1.719132411854167319e-01,4.859374564711535505e-02,1.847013842780355630e-01
1.056999999999999940e+00,-2.563369593641999789e-01,1.623097354623189437e-01,2.030998266218348725e-01
1.058000000000000052e+00,-1.623448334315082953e-01,1.334088933026089108e-01,7.593524185369472657e-02
1.058999999999999941e+00,9.803074642539262584e-02,-2.000317880008674679e-02,-6.556300219545375951e-02
1.060000000000000053e+00,4.189163227381117460e-01,-2.938907753804779754e-01,-2.548658801889132075e-01
1.060999999999999943e+00,6.065589983861509049e-01,-4.483991187150356272e-01,-3.186998148050110835e-01
1.062000000000000055e+00,5.865417915720065878e-01,-4.790924620325857641e-01,-2.954479458796352986e-01
1.062999999999999945e+00,3.798548123070303317e-01,-3.714854935870638419e-01,-1.904694079743624868e-01
1.064000000000000057e+00,1.474794996482107490e-01,-1.700622553561018935e-01,-8.071716233628978276e-02
1.064999999999999947e+00,6.163908656261027352e-02,-2.311653866244403957e-02,-4.452045402492298132e-02
1.066000000000000059e+00,1.191316426619297569e-01,-4.114716630592068353e-02,-1.074900098064153486e-01
1.066999999999999948e+00,2.935377081177317216e-01,-1.405257665745122120e-01,-2.234056549309319240e-01
1.068000000000000060e+00,4.246768651697683250e-01,-2.439490087506265559e-01,-2.738482259235371918e-01
1.068999999999999950e+00,3.084208768452283422e-01,-2.590867201209574588e-01,-1.944745404735399585e-01
1.070000000000000062e+00,7.125712809158964156e-02,-1.569320907083672154e-02,-6.476066300107018170e-02
1.070999999999999952e+00,-2.723374401188650706e-01,2.279220587210830373e-01,1.323939980737935673e-01
1.072000000000000064e+00,-4.888625543019274322e-01,4.214708148099000073e-01,2.719920759825661949e-01
1.072999999999999954e+00,-5.198612289098201167e-01,4.531538634508917585e-01,2.631964240607385097e-01
1.074000000000000066e+00,-3.512722738049499083e-01,3.428844754735754230e-01,1.597352471946209551e-01
1.074999999999999956e+00,-1.636274559110416915e-01,1.522974676786541526e-01,6.309441327672886402e-02
1.076000000000000068e+00,-7.534429149435142858e-02,6.773135986664063912e-02,7.262798546063670146e-02
1.076999999999999957e+00,-1.727541286422045463e-01,1.121042331917151968e-01,1.325854369026297774e-01
1.078000000000000069e+00,-3.551887961057852983e-01,2.491270295790849187e-01,2.634253862032404081e-01
1.078999999999999959e+00,-5.294985213463208051e-01,3.769865414565247153e-01,3.521359099196783027e-01
1.080000000000000071e+00,-4.618375583632457482e-01,3.444056943588552633e-01,2.915523460520820787e-01
1.080999999999999961e+00,-2.333228446003942358e-01,1.110897322341721644e-01,1.575546416312744724e-01
1.082000000000000073e+00,1.036443365059995653e-01,-1.020836955854635408e-01,-4.045249077179082636e-02
1.082999999999999963e+00,3.882970786841517530e-01,-3.239597440984918197e-01,-1.600940296602886281e-01
1.084000000000000075e+00,4.059803923901859624e-01,-3.754019185313261509e-01,-1.829036839662079583e-01
1.084999999999999964e+00,2.874094401681699384e-01,-2.749221080717836885e-01,-1.165739033980778550e-01
1.086000000000000076e+00,7.478312413849476370e-02,-1.400707973826516850e-01,-2.334117793102056040e-02
1.086999999999999966e+00,5.778114777862328882e-02,-3.973079040774266102e-02,-1.621951588552512230e-02
1.088000000000000078e+00,1.706408761827407083e-01,-1.520489671198472503e-01,-9.678178967219534801e-02
1.088999999999999968e+00,4.135721403217288428e-01,-3.241781753958031254e-01,-2.411105293078142364e-01
1.090000000000000080e+00,6.039418134707241759e-01,-4.607504928234586461e-01,-3.638698663716123938e-01
1.090999999999999970e+00,5.713440169586009310e-01,-4.238532590910648601e-01,-3.743411007011618330e-01
1.092000000000000082e+00,3.501736021574077817e-01,-2.450170611578739166e-01,-2.410687449287632900e-01
1.092999999999999972e+00,4.174304900203956725e-02,2.732216973074301156e-02,-5.490213941457137981e-02
1.094000000000000083e+00,-2.037232945268218076e-01,2.215099139318529309e-01,7.211690367922650446e-02
1.094999999999999973e+00,-2.455878779905710241e-01,2.756183627665052538e-01,1.126663581250168106e-01
1.096000000000000085e+00,-1.501642586087253151e-01,1.862912554084973360e-01,2.924278464977362116e-02
1.096999999999999975e+00,3.019035669530014320e-04,6.192183864208512800e-02,-2.979523707031069002e-02
1.098000000000000087e+00,1.280442316819786590e-02,1.148945718588482295e-02,-7.591423457902474192e-02
1.098999999999999977e+00,-1.207059360716038754e-01,1.275435466742581847e-01,4.098031877678794122e-02
1.100000000000000089e+00,-3.827993099227902651e-01,3.444221041106578229e-01,1.746365818751026144e-01
1.100999999999999979e+00,-6.167526454097487232e-01,4.790886563827218003e-01,3.652793295091050219e-01
1.102000000000000091e+00,-6.314555447691080348e-01,4.717547435204973438e-01,3.753732716951078685e-01
1.102999999999999980e+00,-4.451585881465019434e-01,3.122116077305328030e-01,3.095968273359798739e-01
1.104000000000000092e+00,-1.658426987580818024e-01,4.602479707154650407e-02,1.396203830023903247e-01
1.104999999999999982e+00,6.820922116350809639e-02,-1.119886514850653436e-01,-5.127522852804193391e-03
1.106000000000000094e+00,1.012745354277628379e-01,-1.470518043916370088e-01,-1.989665171371408914e-02
1.106999999999999984e+00,1.076008578489251639e-02,-5.777238782091736330e-02,4.374439015821706550e-02
1.108000000000000096e+00,-9.906975371573366329e-02,6.635092853747834307e-02,1.039496447335347684e-01
1.108999999999999986e+00,-1.358141291013244822e-01,5.838110349163798396e-02,1.347624412286434759e-01
1.110000000000000098e+00,3.758243604743055633e-02,-7.213234036808664762e-02,4.233306141878429019e-02
1.110999999999999988e+00,3.426728886805829322e-01,-3.258721731709702807e-01,-9.604740165644067018e-02
1.112000000000000099e+00,5.233114869565907989e-01,-4.979861381275796361e-01,-2.968742968988879460e-01
1.112999999999999989e+00,6.200000489104382506e-01,-5.293940167854506162e-01,-3.765282863937894908e-01
1.114000000000000101e+00,5.322472371167049632e-01,-3.390297754457182178e-01,-3.381106598845167177e-01
1.114999999999999991e+00,2.406275216499166592e-01,-1.501587692463110246e-01,-2.033313008300300651e-01
1.116000000000000103e+00,4.247752905249085192e-02,5.476876286073513456e-02,-7.898131656220010177e-02
1.116999999999999993e+00,-2.155397639169939067e-02,2.231905409725918471e-02,-1.830204915485435582e-02
1.118000000000000105e+00,9.754749729319826812e-02,-7.148887689148805680e-02,-8.048012922326813756e-02
1.118999999999999995e+00,2.510950922758537485e-01,-1.619866083436566906e-01,-1.710435109251894348e-01
1.120000000000000107e+00,2.728349931352846980e-01,-1.437246310783440173e-01,-2.024804947810596445e-01
1.120999999999999996e+00,1.262879753606521438e-01,1.394017507519596313e-02,-1.589618231603981136e-01
1.122000000000000108e+00,-1.735520913269879284e-01,2.594545380389818301e-01,3.050386097826882775e-02
1.122999999999999998e+00,-4.875126575710165278e-01,4.675243550544833093e-01,1.848559270757776929e-01
1.124000000000000110e+00,-5.763507765470601285e-01,5.218844078301850820e-01,2.832316189572081644e-01
1.125000000000000000e+00,-4.942735329083340901e-01,3.389918695107102531e-01,3.109974242931475841e-01
1.125999999999999890e+00,-3.004940032485461932e-01,1.434685418222735875e-01,1.965811469605779349e-01
1.127000000000000002e+00,-1.102148797635214145e-01,3.271546021524074366e-02,8.086609724871735017e-02
1.127999999999999892e+00,-8.729744924903710956e-02,5.786046636351351719e-02,2.308089403458057562e-02
1.129000000000000004e+00,-1.977497873875078971e-01,1.764897645328471210e-01,1.075174345815063243e-01
1.129999999999999893e+00,-3.547112904246903509e-01,2.749163964384654935e-01,2.234532968752110937e-01
1.131000000000000005e+00,-4.377875664673785971e-01,2.600336369866867448e-01,2.812493537301256064e-01
1.131999999999999895e+00,-2.591724761680191946e-01,6.051178373921866499e-02,2.798827757550789164e-01
1.133000000000000007e+00,3.922598284494465543e-02,-1.993629906852212030e-01,9.031675792268802072e-02
1.133999999999999897e+00,3.379027062611705268e-01,-3.861424252937849522e-01,-8.507428919439787018e-02
1.135000000000000009e+00,4.851987586641723360e-01,-4.437415096969948292e-01,-2.186518825526599097e-01
1.135999999999999899e+00,4.480937733281616375e-01,-3.120717843291374582e-01,-2.698464097240475534e-01
1.137000000000000011e+00,2.652180475580090957e-01,-1.495777327842474358e-01,-1.809374180668870957e-01
1.137999999999999901e+00,1.134673059176899285e-01,-6.499748831396892634e-02,-6.359350187174606095e-02
1.139000000000000012e+00,1.011821328517789886e-01,-1.276493952491153383e-01,-5.929714087225477354e-02
1.139999999999999902e+00,2.589562039920402237e-01,-2.594960475246634868e-01,-1.168681650336340083e-01
1.141000000000000014e+00,4.516048301518389430e-01,-3.823910047383321520e-01,-2.308478650662449394e-01
1.141999999999999904e+00,5.375559034172228134e-01,-3.541137899629260843e-01,-3.280479014073317545e-01
1.143000000000000016e+00,4.241383311453201799e-01,-1.494730134844514391e-01,-3.340871226816942707e-01
1.143999999999999906e+00,1.127040714797077486e-01,8.341275549001639367e-02,-2.093399749070641025e-01
1.145000000000000018e+00,-1.853485649327455131e-01,3.081117490776069112e-01,-3.151571712657810082e-02
1.145999999999999908e+00,-3.685645165207727114e-01,3.570668065706516514e-01,1.217791035994631038e-01
1.147000000000000020e+00,-3.253683471611189537e-01,2.639791650424340719e-01,1.777179657239186805e-01
1.147999999999999909e+00,-1.831731533497520659e-01,1.112125093402526049e-01,1.467475358420378406e-01
1.149000000000000021e+00,-4.644417875929146566e-02,6.737014213425575326e-02,3.048057995057188579e-02
1.149999999999999911e+00,-5.947572298260576235e-02,1.296534946639002206e-01,7.414563614753906517e-03
1.151000000000000023e+00,-2.771939795516094041e-01,3.167341061499487354e-01,7.400630511133843292e-02
1.151999999999999913e+00,-5.223538945254294630e-01,4.566459311515812525e-01,1.946776053314941968e-01
1.153000000000000025e+00,-6.252468445099983452e-01,4.377255234817864493e-01,3.529301056686411919e-01
1.153999999999999915e+00,-5.071242054939786303e-01,2.671092805351088506e-01,3.676027505576794918e-01
1.155000000000000027e+00,-2.426114472458666960e-01,-1.014411535291024138e-02,2.895557687513124479e-01
1.155999999999999917e+00,4.931538669254276891e-02,-1.964266809989443641e-01,1.135547420864831542e-01
1.157000000000000028e+00,2.380147149261518380e-01,-2.505472078222868992e-01,-5.095197567377197923e-02
1.157999999999999918e+00,1.945629268106166543e-01,-1.437069604024270864e-01,-9.116409753579926556e-02
1.159000000000000030e+00,8.422590097507186291e-02,-3.982515580328724325e-02,-2.688794954589512898e-02
1.159999999999999920e+00,-3.797952053397014860e-02,-7.860214011508624482e-04,3.433338834127016431e-02
1.161000000000000032e+00,1.097069649150696213e-02,-1.504180302298809280e-01,6.040099745263804304e-02
1.161999999999999922e+00,2.237028698413997818e-01,-3.287447582796472201e-01,8.467976722377236476e-03
1.163000000000000034e+00,4.722808795199931464e-01,-5.051555417016930782e-01,-1.403881858229552582e-01
1.163999999999999924e+00,6.255214447707365677e-01,-5.081020030265541720e-01,-3.208087844606274386e-01
1.165000000000000036e+00,6.140160942980689152e-01,-3.162633373559744498e-01,-4.042195885454775706e-01
1.165999999999999925e+00,3.680388163272978463e-01,-1.093510910112290568e-01,-3.714373934396859589e-01
1.167000000000000037e+00,7.530290924289274879e-02,9.947393168263617136e-02,-2.004120174483536576e-01
1.167999999999999927e+00,-9.159016031116841428e-02,1.416836969399965784e-01,-6.392716364979676713e-02
1.169000000000000039e+00,-8.284440529516437501e-02,8.368683339875138474e-03,3.129343768872705489e-02
1.169999999999999929e+00,6.470456919309056087e-02,-6.867790424121557324e-02,-6.971443125427682908e-03
1.171000000000000041e+00,1.756798995248736728e-01,-6.885681392213965912e-02,-9.473052875594094313e-02
1.171999999999999931e+00,1.438030537313676194e-01,8.267365250985808656e-02,-1.738866767685775805e-01
1.173000000000000043e+00,-1.375235301545059963e-01,3.316443469675940947e-01,-1.045540227258855009e-01
1.173999999999999932e+00,-4.299599942082756310e-01,4.729844693375170883e-01,6.216943583756522063e-02
1.175000000000000044e+00,-6.031324558876579589e-01,5.246310847010380307e-01,2.282072857765943263e-01
1.175999999999999934e+00,-6.119814456089351928e-01,3.268529608816876930e-01,3.521448641382491362e-01
1.177000000000000046e+00,-4.291553059574943485e-01,1.230717998397983376e-01,3.346998143777860646e-01
1.177999999999999936e+00,-1.712899763163415190e-01,2.120936436958047178e-02,2.483645856733512625e-01
1.179000000000000048e+00,-1.895759150258358519e-02,-3.810383707318083790e-02,8.966635809119631595e-02
1.179999999999999938e+00,-4.196176996542791415e-02,4.856143886803825777e-02,2.636672826454230026e-02
1.181000000000000050e+00,-1.888421337839434611e-01,1.781917542783564845e-01,5.828762080960223080e-02
