time,acc_x,acc_y,acc_z
0.000000000000000000e+00,-3.698014492455115737e-02,2.799488157723766663e-02,-1.059064212344548173e-01
1.000000000000000021e-03,1.347941821970153990e-02,1.016792167440590533e-01,-4.589987395751990440e-02
2.000000000000000042e-03,1.686003764940624261e-01,1.221651640910165343e-01,5.014315067204777598e-02
3.000000000000000062e-03,2.045947126078354605e-01,9.220865699862668130e-02,6.874956192654781140e-02
4.000000000000000083e-03,7.709655717828536869e-02,1.780729305175846391e-02,7.250848539307908069e-02
5.000000000000000104e-03,-2.927192047198933292e-02,-8.878853439679521009e-02,4.277367403041616029e-02
6.000000000000000125e-03,-1.650395897614055640e-01,-1.469295478852474524e-01,-2.577151377889895165e-02
7.000000000000000146e-03,-1.632816044676652090e-01,-7.725640277481433948e-02,-8.701929040654608760e-02
8.000000000000000167e-03,-1.195166437439447726e-01,-3.709231541572973606e-02,-1.279272481792471383e-01
8.999999999999999320e-03,8.520562346967630596e-03,6.828556297236940131e-02,-5.135115035110075776e-02
1.000000000000000021e-02,8.143868608770003792e-02,9.466452938126412864e-02,1.519288243074219322e-02
1.099999999999999936e-02,1.554796922697657402e-01,1.258908453489138712e-01,3.427351509964331189e-02
1.200000000000000025e-02,1.517071760667332847e-01,1.759765960471287079e-03,8.423112000817579992e-02
1.299999999999999940e-02,4.274929216119715408e-02,-4.990957638151962555e-02,8.123576585610098322e-02
1.400000000000000029e-02,-3.915919064928072985e-02,-1.173668324460136331e-01,6.736818471781479654e-03
1.499999999999999944e-02,-1.844415757095488606e-01,-1.683766261974390110e-01,-9.007159018045006460e-02
1.600000000000000033e-02,-1.345173349303076804e-01,-1.617730189132806848e-02,-1.045060075874482824e-01
1.700000000000000122e-02,-2.494232174722823409e-02,3.352034612355431903e-02,-8.714855744629679268e-02
1.799999999999999864e-02,8.905034529029474955e-02,1.121027056936709371e-01,-1.523220221647723915e-02
1.899999999999999953e-02,1.195713253998542253e-01,9.230151226424142263e-02,1.403230030912767760e-02
2.000000000000000042e-02,1.416852863881249147e-01,9.801124652660736514e-02,1.509129546696340030e-01
2.100000000000000130e-02,9.014408999162450142e-02,-2.978932266250287897e-02,6.500372255954331435e-02
2.199999999999999872e-02,-7.281723681509802426e-02,-1.202670380076448359e-01,2.517546773545088420e-02
2.299999999999999961e-02,-1.670154351875438037e-01,-1.562879667670353800e-01,-3.575789632430816274e-03
2.400000000000000050e-02,-1.396437467221692263e-01,-7.693182109944718405e-02,-3.460261644014269583e-02
2.500000000000000139e-02,-8.276471185277704812e-02,3.635291640680020364e-02,-6.706388293622045360e-02
2.599999999999999881e-02,3.414577364759139450e-02,1.025264741493272097e-01,-4.417194037216461838e-02
2.699999999999999969e-02,1.156896447569294994e-01,9.855101703245484901e-02,3.374497588878124649e-02
2.800000000000000058e-02,1.514160498619494810e-01,8.389132007156567539e-02,4.836088274804339199e-02
2.900000000000000147e-02,1.026719939613669336e-01,2.661035692450056025e-03,1.439784546627709827e-01
2.999999999999999889e-02,3.234734620771474722e-02,-8.233665738645326582e-02,6.696924884445880355e-02
3.099999999999999978e-02,-1.029952961387138044e-01,-1.026239980792688772e-01,1.450299270455485297e-02
3.200000000000000067e-02,-1.412829576687768818e-01,-1.278412472337556172e-01,-8.232830489771814086e-02
3.300000000000000155e-02,-1.798943281772797387e-01,-3.866473879407154174e-02,-1.092767582949903393e-01
3.400000000000000244e-02,-1.801304453686921117e-02,6.860205210020628441e-02,-8.691928898432259298e-02
3.500000000000000333e-02,6.240365963953699302e-02,1.690468988533858075e-01,-1.603886483914408441e-03
3.599999999999999728e-02,1.290549398269411063e-01,1.581496455562658443e-01,8.213023888027446567e-03
3.699999999999999817e-02,1.578963566662235085e-01,1.623371240263406234e-02,7.694747874468217674e-02
3.799999999999999906e-02,5.681857311686124012e-02,-6.687921992181077024e-02,9.008074587409875544e-02
3.899999999999999994e-02,-5.258827002134362771e-02,-1.183146662733765425e-01,3.130116406365652387e-02
4.000000000000000083e-02,-1.668308541484394281e-01,-1.228260664644203748e-01,-1.608125367464547512e-02
4.100000000000000172e-02,-1.664376431820069613e-01,-3.216281738421193637e-02,-7.260372502232509406e-02
4.200000000000000261e-02,-8.545129688783295596e-02,3.484296294032040303e-02,-1.226138759859427413e-01
4.299999999999999656e-02,5.469454060744664836e-02,1.472120513479055204e-01,-7.923762814967499901e-02
4.399999999999999745e-02,1.466296811995317362e-01,1.391889212677248910e-01,3.511879667693895701e-02
4.499999999999999833e-02,1.461281803443811311e-01,5.722478411974062096e-02,5.960254296617793074e-02
4.599999999999999922e-02,1.162355540435083268e-01,-2.131430614291724562e-02,1.060984220291650570e-01
4.700000000000000011e-02,-4.466009100189277659e-02,-1.209410957453521812e-01,8.938747891401227497e-02
4.800000000000000100e-02,-1.308360917189611561e-01,-9.755480919233673609e-02,-1.225844578754447601e-03
4.900000000000000189e-02,-1.696920276845999553e-01,-5.852547994513100649e-02,-4.582030056031535098e-02
5.000000000000000278e-02,-1.235989280029663601e-01,1.674961239388210107e-02,-1.325622156115575379e-01
5.099999999999999672e-02,1.669274660657116618e-02,9.981123073411132807e-02,-9.081383230785407268e-02
5.199999999999999761e-02,1.292875029669093012e-01,1.322387185709520407e-01,-2.411236974739390526e-02
5.299999999999999850e-02,1.631259956240538600e-01,6.104452950312172499e-02,3.106136355544067765e-02
5.399999999999999939e-02,1.425802558145605192e-01,1.021466113194943043e-02,7.775763021666545760e-02
5.500000000000000028e-02,1.327947625601034326e-02,-7.768772916667000816e-02,8.530994623687315759e-02
5.600000000000000117e-02,-9.311678944426848847e-02,-1.192301690003041981e-01,6.727929782708165496e-02
5.700000000000000205e-02,-1.354902199815381236e-01,-6.870467978614087923e-02,-6.015192429298671373e-02
5.800000000000000294e-02,-1.487845639835009837e-01,1.117165735453900730e-02,-1.168287134259644033e-01
5.899999999999999689e-02,-4.793998564279255276e-02,3.329550698054239283e-02,-9.997158643943092338e-02
5.999999999999999778e-02,1.075821018340639840e-01,1.391751793289832118e-01,-6.017576515539261456e-02
6.099999999999999867e-02,1.877432720728844096e-01,1.154297564875843701e-01,3.216092513896846861e-02
6.199999999999999956e-02,1.359501930833857952e-01,5.551897914612826529e-02,6.645188976095464661e-02
6.300000000000000044e-02,1.189852761076080623e-01,-6.724920449535742861e-02,1.139945016583719523e-01
6.400000000000000133e-02,-2.850908001711931899e-02,-1.252464261520410682e-01,5.129869183444746988e-02
6.500000000000000222e-02,-1.496100022757475279e-01,-1.018948294883024186e-01,-2.113628438192077449e-02
6.600000000000000311e-02,-1.674019996285726619e-01,-1.887302121335130214e-02,-7.842023954045013179e-02
6.700000000000000400e-02,-7.584051468460870082e-02,4.099751214965997870e-02,-1.245528481694165579e-01
6.800000000000000488e-02,-1.061094547595644276e-02,1.144028760047343801e-01,-1.025481764717775524e-01
6.900000000000000577e-02,1.490108865763459245e-01,1.195940494197740983e-01,-1.161490037457066143e-03
7.000000000000000666e-02,1.610244551423556381e-01,5.303876296151391334e-02,1.003153580155808147e-02
7.099999999999999367e-02,7.181189684820320218e-02,-4.017243054455628404e-02,9.716093831054027630e-02
7.199999999999999456e-02,-2.119085023862088760e-02,-1.382094058318258656e-01,7.852652842878234118e-02
7.299999999999999545e-02,-1.219755716263005163e-01,-1.190140070625597818e-01,4.173672317075610011e-02
7.399999999999999634e-02,-1.750740770002796598e-01,-6.012898962207279679e-02,-4.985091095269007788e-02
7.499999999999999722e-02,-1.525856002729475136e-01,9.498061259027168121e-03,-6.974606970035687747e-02
7.599999999999999811e-02,-5.060436414147488626e-02,1.075222505009371804e-01,-8.952686241607990536e-02
7.699999999999999900e-02,6.983476137959762631e-02,1.502719360663663517e-01,-5.069941269062500089e-02
7.799999999999999989e-02,1.372831292186308949e-01,3.098955494515786765e-02,6.340486810165875571e-03
7.900000000000000078e-02,1.536445855386865955e-01,-3.760145423653409730e-02,8.527025228233649223e-02
8.000000000000000167e-02,7.094358710225679744e-03,-9.476740810076594856e-02,7.667148372720303251e-02
8.100000000000000255e-02,-7.229053374406323174e-02,-1.324966946943988977e-01,5.899816634088819733e-02
8.200000000000000344e-02,-1.340532847109750236e-01,-9.888002790355995830e-02,-1.528285690021390780e-02
8.300000000000000433e-02,-1.627985962104971651e-01,1.883803650357150639e-02,-8.755317598183287586e-02
8.400000000000000522e-02,-6.227462509267240459e-02,7.802299850375203627e-02,-1.026744420358415427e-01
8.500000000000000611e-02,7.462218293171307693e-02,1.255611969210861101e-01,-5.291280475186439791e-02
8.599999999999999312e-02,1.636542571422439363e-01,1.137714720363891818e-01,-9.226321122728954605e-03
8.699999999999999400e-02,1.851181765669145662e-01,4.209148056689158805e-03,6.750244426756198124e-02
8.799999999999999489e-02,7.958919995939207903e-02,-6.708758998372976734e-02,7.871380914992448519e-02
8.899999999999999578e-02,-1.548961676546589498e-02,-1.492562400988011739e-01,7.281358284536358638e-02
8.999999999999999667e-02,-1.343757297675715612e-01,-1.045215706225496727e-01,4.567077347552524896e-02
9.099999999999999756e-02,-1.541640887554687200e-01,-4.883084765526446436e-02,-3.791610805971742937e-02
9.199999999999999845e-02,-8.468199087936759129e-02,7.271076148887969937e-02,-1.190385696373111035e-01
9.299999999999999933e-02,-3.680515296931233249e-02,1.459143449567568140e-01,-8.669421007670971568e-02
9.400000000000000022e-02,1.083238273683099495e-01,1.337034036127203174e-01,-6.171612376831500657e-02
9.500000000000000111e-02,1.596372364374773478e-01,2.940063666620623337e-02,2.247926268793400822e-02
9.600000000000000200e-02,9.407142019720025894e-02,-5.157580102122232696e-02,9.691254404707649872e-02
9.700000000000000289e-02,3.562148858551826558e-02,-1.252280267155840565e-01,7.031323375461848157e-02
9.800000000000000377e-02,-8.868380847109597065e-02,-1.021379237667006945e-01,3.364445638097798841e-02
9.900000000000000466e-02,-1.603445306571637807e-01,-7.815393321927940895e-02,-3.522695907548713951e-02
1.000000000000000056e-01,-1.449947017719947773e-01,3.826139407112500584e-02,-6.201003873029318353e-02
1.010000000000000064e-01,-2.193648715214088080e-02,1.521666952302542508e-01,-1.241638479880140811e-01
1.019999999999999934e-01,7.608566292840808487e-02,1.364210888621111561e-01,-7.355273163399377034e-02
1.029999999999999943e-01,9.641892875993460232e-02,7.306261489425397437e-02,-4.436464236141697548e-02
1.039999999999999952e-01,1.750768460332157439e-01,-1.635723389019161714e-02,7.856813906125571789e-02
1.049999999999999961e-01,5.205688540031566669e-02,-1.059479830072079382e-01,1.008786877324323594e-01
1.059999999999999970e-01,-6.920455208624093357e-02,-1.002069578356941520e-01,1.102142018247155297e-01
1.069999999999999979e-01,-1.540746565175387106e-01,-1.299781672022231327e-01,4.020971651648898998e-02
1.079999999999999988e-01,-1.493596956436676337e-01,1.832362493657741995e-02,-1.008256665710773915e-02
1.089999999999999997e-01,-7.039968339083969850e-02,1.124496101173099727e-01,-1.065605768514892027e-01
1.100000000000000006e-01,1.323266164762046913e-02,1.794765611052509258e-01,-1.029105561971507404e-01
1.110000000000000014e-01,1.122043898794905931e-01,7.650109140478580927e-02,-5.712032764618119735e-02
1.120000000000000023e-01,1.783976651444777461e-01,3.113450892641035552e-03,2.803343914841849652e-02
1.130000000000000032e-01,8.668947497294368643e-02,-7.629835926970054971e-02,5.674719640118945641e-02
1.140000000000000041e-01,-1.966410930812663091e-02,-1.518118892525352759e-01,1.070325218429146880e-01
1.150000000000000050e-01,-9.557121832454629207e-02,-1.175138965365897237e-01,7.220836873809755030e-02
1.160000000000000059e-01,-1.707871525231106913e-01,-1.168216121446735874e-02,-2.783970233536072619e-02
1.170000000000000068e-01,-1.122344925045940245e-01,6.816692603312524135e-02,-8.280485740752116519e-02
1.179999999999999938e-01,-2.896854323724026500e-02,1.156690627723014481e-01,-1.021149567882592146e-01
1.189999999999999947e-01,7.987239527558102903e-02,1.173859691888136936e-01,-5.331605794608047788e-02
1.199999999999999956e-01,1.501531642651741938e-01,6.720581404235466405e-02,1.334302224467987311e-02
1.209999999999999964e-01,1.511186359749866204e-01,-7.488897390138124499e-02,3.998717307759715178e-02
1.219999999999999973e-01,3.652294976706397384e-02,-1.126581980918255343e-01,1.033405999996583613e-01
1.229999999999999982e-01,-4.519984431152081206e-02,-8.725302387052186193e-02,1.230596289783195685e-01
1.239999999999999991e-01,-1.297458113656641543e-01,-5.926813623036610718e-02,4.709892050803592828e-02
1.250000000000000000e-01,-1.668975305923654506e-01,4.993381788224603851e-02,-4.613520765091530529e-02
1.260000000000000009e-01,-4.943924204264490974e-02,1.341925219237307121e-01,-8.530738742814163167e-02
1.270000000000000018e-01,6.799749572672424136e-02,1.259648712405520843e-01,-1.011715624233069377e-01
1.280000000000000027e-01,1.696779570852476327e-01,6.917995944667064412e-02,-5.079333430217018719e-02
1.290000000000000036e-01,1.732282900408051995e-01,-5.965973805102721406e-02,3.972850247158911385e-02
1.300000000000000044e-01,4.863404862418698599e-02,-1.184245608923248233e-01,6.972596183158114025e-02
1.310000000000000053e-01,-4.840015041199126344e-02,-1.694581654543308447e-01,1.005103055566728271e-01
1.320000000000000062e-01,-1.250791875916721918e-01,-7.450137744346904678e-02,4.155877993233672574e-02
1.330000000000000071e-01,-1.384689944796891337e-01,1.418983761441970463e-02,-9.808593147304398713e-03
1.340000000000000080e-01,-1.410342335938264136e-01,9.309729982268033499e-02,-5.607816139091250512e-02
1.350000000000000089e-01,4.630050282815483843e-03,1.180122397616711616e-01,-8.247409115078369046e-02
1.360000000000000098e-01,1.188872089245140706e-01,8.683612340973308197e-02,-4.953618082405330386e-02
1.370000000000000107e-01,1.516957358285288548e-01,-1.493663351432691910e-02,-1.050083477896302658e-02
1.380000000000000115e-01,1.016317542324680773e-01,-7.620770515289729263e-02,5.442980766889652516e-02
1.390000000000000124e-01,-8.240041009383573811e-03,-1.610938001029520172e-01,7.796486763995910674e-02
1.400000000000000133e-01,-6.379004872151075589e-02,-1.137068928893613662e-01,1.235665637002628103e-01
1.409999999999999865e-01,-1.529465953821926294e-01,2.557783932530427982e-03,2.949601483702112351e-02
1.419999999999999873e-01,-1.318634223771855130e-01,7.207155450436666944e-02,-5.554447436640270325e-02
1.429999999999999882e-01,-9.056463898334489449e-02,1.363529803548179931e-01,-9.826151103919494867e-02
1.439999999999999891e-01,6.891370149102911402e-02,7.951859604675218240e-02,-6.584844258050520649e-02
1.449999999999999900e-01,1.924697631417690014e-01,2.141543708021538539e-02,-4.167439141139652609e-02
1.459999999999999909e-01,1.336370499642136889e-01,-7.734678386299292940e-02,5.719266606454848079e-02
1.469999999999999918e-01,6.867743775364075487e-02,-1.283610221473708568e-01,7.888938892314407980e-02
1.479999999999999927e-01,-8.900171932312915535e-02,-1.211152948621696812e-01,9.042488371515246259e-02
1.489999999999999936e-01,-1.514870466174118580e-01,-5.151063573023317160e-02,4.908840233117910123e-02
1.499999999999999944e-01,-1.268702013897587688e-01,4.290016537179086598e-02,-4.428790963311024856e-03
1.509999999999999953e-01,-6.711864672092901496e-02,1.135012951559273287e-01,-8.569995329837419573e-02
1.519999999999999962e-01,5.364736531721110702e-02,1.154510570983767609e-01,-8.074210061967559970e-02
1.529999999999999971e-01,1.389341866393531688e-01,7.476640607772642999e-02,-6.584366316177524270e-02
1.539999999999999980e-01,1.801626209006016999e-01,-1.501773801224011960e-02,-1.261712072214802617e-02
1.549999999999999989e-01,6.345540657822534847e-02,-1.451945144658708109e-01,9.318252346009366083e-02
1.559999999999999998e-01,2.106123492124900923e-02,-1.276822564753596345e-01,9.823408764742896926e-02
1.570000000000000007e-01,-1.169175796140063117e-01,-6.772575602400723871e-02,8.711234415182519952e-02
1.580000000000000016e-01,-1.874024364193724590e-01,5.564029306367863220e-02,4.864834723157955565e-02
1.590000000000000024e-01,-1.103048244437613568e-01,9.036074024851221964e-02,-7.947371468536675032e-02
1.600000000000000033e-01,-1.918927736226371319e-02,1.248102785216767541e-01,-9.219753755785313476e-02
1.610000000000000042e-01,1.161178252670626021e-01,1.243645042531545675e-01,-9.418643490249493933e-02
1.620000000000000051e-01,1.441938784877184743e-01,-2.444753029693072510e-02,-3.351888655802750389e-02
1.630000000000000060e-01,1.264368236873580076e-01,-7.561221893710177999e-02,1.807688103952721434e-02
1.640000000000000069e-01,3.080645696505248873e-02,-1.413381710406891034e-01,9.790377171070135942e-02
1.650000000000000078e-01,-8.829078132142768875e-02,-1.314822221399591928e-01,1.063156763758379281e-01
1.660000000000000087e-01,-1.652599556370279998e-01,-2.305085900982016198e-02,4.973405916404703003e-02
1.670000000000000095e-01,-1.639243369245721171e-01,7.371174139023640992e-02,-5.636412549815251333e-02
1.680000000000000104e-01,-4.250426407680515939e-02,1.440365077282098061e-01,-1.020818083673927651e-01
1.690000000000000113e-01,5.052010923893096583e-02,1.149086339344854435e-01,-8.433434425022946768e-02
1.700000000000000122e-01,1.492351600709881099e-01,9.275362993409025716e-03,-6.421723716467185594e-02
1.710000000000000131e-01,1.313965514065309204e-01,-6.365225830341167401e-02,2.850388188612865917e-03
1.719999999999999862e-01,8.445891154152579405e-02,-1.312316103301650327e-01,6.152400860406307542e-02
1.729999999999999871e-01,-3.177243302381561191e-02,-9.882135304689428079e-02,1.036274935453045248e-01
1.739999999999999880e-01,-1.436769685455377421e-01,-4.389511880600734800e-02,9.628254509847898601e-02
1.749999999999999889e-01,-1.402027404647720465e-01,3.959022036896802516e-02,6.100230157515105014e-03
1.759999999999999898e-01,-9.328335753305266875e-02,1.205097019906079675e-01,-3.955402467471463152e-02
1.769999999999999907e-01,-1.442850951454133744e-02,1.450114426251932764e-01,-7.484650560641385730e-02
1.779999999999999916e-01,1.239664201603275923e-01,3.894002491991522402e-02,-8.458536201461944182e-02
1.789999999999999925e-01,1.656910690435624001e-01,-4.606775773372472071e-02,-2.371922551901753037e-02
1.799999999999999933e-01,1.157914785046762624e-01,-1.316163369848934173e-01,4.732244138321727023e-02
1.809999999999999942e-01,2.396467470952887494e-02,-1.156243164571641446e-01,8.186744371854087765e-02
1.819999999999999951e-01,-9.774191447243586739e-02,-7.950983135340115859e-02,8.941404504477667992e-02
1.829999999999999960e-01,-1.684678170300763500e-01,2.742774242476483243e-02,3.225947497379735157e-02
1.839999999999999969e-01,-1.544408200333375891e-01,7.461010660073391643e-02,-2.276247478676076980e-03
1.849999999999999978e-01,-2.865882224868716854e-02,1.264149186390448876e-01,-8.215896132849663525e-02
1.859999999999999987e-01,3.723809284958466692e-02,1.144618150843753207e-01,-1.277820765621460186e-01
1.869999999999999996e-01,1.795365627739491099e-01,-2.794792792224822658e-02,-3.637359310301210152e-02
1.880000000000000004e-01,1.480022652943394634e-01,-9.652020585353660032e-02,2.635120163911591762e-02
1.890000000000000013e-01,4.100821071676667706e-02,-1.206513013633737363e-01,4.537439697900408353e-02
1.900000000000000022e-01,-9.873480037027397571e-02,-9.027075523864469542e-02,1.042989911400090397e-01
1.910000000000000031e-01,-1.471663029506941056e-01,8.226076405179067949e-03,1.021502226606228747e-01
1.920000000000000040e-01,-1.436908191921007494e-01,6.234762928844619911e-02,-2.833312195489010032e-02
1.930000000000000049e-01,-1.000341551221913955e-01,1.451445708089422748e-01,-6.151187661331662671e-02
1.940000000000000058e-01,4.770835927775790575e-02,8.657762756504336354e-02,-9.227657232845269675e-02
1.950000000000000067e-01,1.085916834299624489e-01,1.008005613095884663e-02,-7.827840440135308553e-02
1.960000000000000075e-01,1.715523295136676396e-01,-6.759956500845216987e-02,-1.473619816589556882e-02
1.970000000000000084e-01,1.163566803339632499e-01,-1.236498224362269777e-01,3.659971501209399736e-02
1.980000000000000093e-01,-2.396823986831578962e-02,-8.406047357930930553e-02,9.460144506353648786e-02
1.990000000000000102e-01,-1.072085164324231843e-01,-5.010396494529868044e-02,8.943904835934167463e-02
2.000000000000000111e-01,-1.606181508749177089e-01,6.763296853303811529e-02,6.465045898829875626e-02
2.010000000000000120e-01,-9.037968951164936093e-02,1.059308622095484903e-01,-2.806505798408690661e-02
2.020000000000000129e-01,-3.634575612295061486e-02,1.103372972728743490e-01,-7.530542104507027823e-02
2.030000000000000138e-01,1.079087136400158770e-01,1.958764362724652389e-02,-9.661019323540888382e-02
2.039999999999999869e-01,1.720238092507455907e-01,-5.448560775469413892e-02,-8.429307469622072946e-02
2.049999999999999878e-01,9.239399472299884841e-02,-8.544044907747946893e-02,-1.872477936085688559e-03
2.059999999999999887e-01,-2.068454266594596178e-03,-1.296024213179836904e-01,2.340862349714723303e-02
2.069999999999999896e-01,-8.137648269448810590e-02,-5.602259796786774465e-02,1.128662829523034289e-01
2.079999999999999905e-01,-1.670908664065031968e-01,1.526455630189669892e-02,5.644732113390813627e-02
2.089999999999999913e-01,-1.397007460727941464e-01,6.318281176310647229e-02,1.655137378816117985e-02
2.099999999999999922e-01,-6.552753166776105476e-02,1.348720912567840380e-01,-8.751789108619485724e-02
2.109999999999999931e-01,2.579416432674626683e-02,5.238957563971378267e-02,-6.696580938798236959e-02
2.119999999999999940e-01,1.388718573048451921e-01,-1.416632537395479639e-02,-1.005193565551539964e-01
2.129999999999999949e-01,1.819435892923813025e-01,-8.317530798483058208e-02,-2.788381356333715852e-02
2.139999999999999958e-01,9.040313885377912473e-02,-1.236737613162928323e-01,4.426589305717072709e-02
2.149999999999999967e-01,-1.145775585642127073e-02,-8.009679104586053811e-02,1.160107345901038728e-01
2.159999999999999976e-01,-1.599983780358072427e-01,-2.795623655541221858e-02,9.910611543762513909e-02
2.169999999999999984e-01,-1.954589909272276549e-01,7.360902483696915577e-02,3.376510998730563456e-02
2.179999999999999993e-01,-1.084971250538516591e-01,1.276379367363815742e-01,-2.482998392297086632e-02
2.190000000000000002e-01,2.900058804183551844e-02,8.602356689421908342e-02,-7.118686695543580134e-02
2.200000000000000011e-01,9.928167227439765874e-02,6.033082436565709306e-03,-1.027289824459103329e-01
2.210000000000000020e-01,1.491466129053496681e-01,-6.850366196052326551e-02,-5.496441814687504090e-02
2.220000000000000029e-01,8.966692482100817319e-02,-1.806010733087986264e-01,-6.412853532543140271e-03
2.230000000000000038e-01,3.156312320137352745e-02,-7.512753153603971001e-02,9.666348891033420265e-02
2.240000000000000047e-01,-6.783185104631021811e-02,-2.971425035731547690e-02,1.039975257272013204e-01
2.250000000000000056e-01,-1.998982086877759412e-01,3.984866771856694634e-02,7.354639773373933265e-02
2.260000000000000064e-01,-1.307994276339205231e-01,1.376666932075986671e-01,2.589267966722550579e-02
2.270000000000000073e-01,-1.310916300730709250e-02,1.253563320316572749e-01,-7.648321179146884419e-02
2.280000000000000082e-01,6.525447150990859591e-02,3.497886869055037706e-02,-9.969326524891075625e-02
2.290000000000000091e-01,1.654883267240045142e-01,-4.402622690760750468e-02,-1.183974079953229730e-01
2.300000000000000100e-01,1.513608975972058346e-01,-1.202101102264571814e-01,-2.832810009042177266e-02
2.310000000000000109e-01,3.452810613651262350e-02,-1.288623395014506789e-01,-9.230706709148633893e-04
2.320000000000000118e-01,-7.198556985969617461e-02,-6.103105899864334077e-02,9.308279555678448947e-02
2.330000000000000127e-01,-1.255761170871704802e-01,3.780566681108366717e-02,9.066139915525320281e-02
2.340000000000000135e-01,-1.484086314780858340e-01,1.267069500251055691e-01,1.028891153839973059e-02
2.349999999999999867e-01,-6.599434378064661377e-02,1.204010159252497381e-01,4.133825405378861381e-03
2.359999999999999876e-01,7.774294504994064964e-04,6.566125313773642225e-02,-6.937069008366571199e-02
2.369999999999999885e-01,1.176517883237799267e-01,-3.588627209824059999e-02,-1.048224850523667567e-01
2.379999999999999893e-01,1.695468884755507166e-01,-1.347335328706714130e-01,-8.920057073903189804e-02
2.389999999999999902e-01,8.749409733239327247e-02,-1.308051034466749807e-01,1.222133869112307716e-02
2.399999999999999911e-01,7.776808232559279631e-03,-8.633732301655924757e-02,7.807240722920680276e-02
2.409999999999999920e-01,-1.062604668888083026e-01,2.948987947312606619e-02,1.025143940106171686e-01
2.419999999999999929e-01,-1.489431265885038935e-01,9.051638148125761008e-02,6.950979644545651759e-02
2.429999999999999938e-01,-1.431531716121419995e-01,1.178693290219323675e-01,-8.419989998240952692e-03
2.439999999999999947e-01,-3.576665241387932959e-02,7.047792500117669445e-02,-8.298461044507370044e-02
2.449999999999999956e-01,9.875903668249938483e-02,5.579529994020861194e-02,-6.618855476346284517e-02
2.459999999999999964e-01,9.820539271498265887e-02,-1.018369815251405214e-01,-7.482822664883623243e-02
2.469999999999999973e-01,1.319199507654145176e-01,-1.327261873830043459e-01,-1.917255467455305368e-02
2.479999999999999982e-01,2.819108260288077233e-02,-8.527732831269348168e-02,3.791313002548591521e-02
2.489999999999999991e-01,-9.011799255954483501e-02,-2.112900645098765573e-02,9.039970189795136501e-02
2.500000000000000000e-01,-1.504897110696968021e-01,1.034719010933099620e-01,5.636332750914410661e-02
2.510000000000000009e-01,-1.560484753510452127e-01,9.864889381792307788e-02,7.783250493059000116e-03
2.520000000000000018e-01,-5.141552777532265583e-02,1.052252253622926181e-01,-3.203609178014741460e-02
2.530000000000000027e-01,7.273667477955685079e-02,5.761506196480448844e-02,-7.755514091942605770e-02
2.540000000000000036e-01,1.190190641453136716e-01,-5.893176467315291989e-02,-9.131818389992345242e-02
2.550000000000000044e-01,1.621070549862355104e-01,-1.017644950714620827e-01,-1.754608572778065811e-02
2.560000000000000053e-01,4.458239184570874508e-02,-1.455087080034722646e-01,-1.815824078245835069e-02
2.570000000000000062e-01,-4.886869682720294122e-02,-5.792536871772993590e-02,5.603810736846750323e-02
2.580000000000000071e-01,-1.299596182979793069e-01,8.298169254023034236e-02,1.033984697001464892e-01
2.590000000000000080e-01,-1.853272906406816245e-01,1.527799739958108083e-01,4.963633529299296687e-02
2.600000000000000089e-01,-8.299451192720189163e-02,1.453068053803760751e-01,1.302164666204748411e-02
2.610000000000000098e-01,5.268557649502603885e-02,7.866950812860719344e-02,-5.817070925101736761e-02
2.620000000000000107e-01,1.389749838823947370e-01,-6.910913754145910082e-02,-8.647041745360890819e-02
2.630000000000000115e-01,1.700180479872212269e-01,-8.922896643421845964e-02,-9.297053199372540266e-02
2.640000000000000124e-01,1.221161930565793780e-01,-1.357047843105131935e-01,-1.051976241586987867e-03
2.650000000000000133e-01,-5.455847547681642873e-03,-9.456727076054857739e-02,3.158091035024847282e-02
2.660000000000000142e-01,-1.474708861078873889e-01,8.065622190532341362e-03,7.836318095647952509e-02
2.670000000000000151e-01,-1.836292381372305049e-01,1.352350299423900892e-01,7.914098113195336404e-02
2.680000000000000160e-01,-1.088421039887252501e-01,1.174661564569288025e-01,3.442369787920544766e-02
2.690000000000000169e-01,-2.978234174038239118e-02,9.638114971620383165e-02,-2.323864577346647017e-02
2.700000000000000178e-01,6.541851586203756286e-02,-2.728219584635642805e-02,-1.220051773342349793e-01
2.710000000000000187e-01,1.496094696250855893e-01,-7.065004574352556910e-02,-1.152706386725244198e-01
2.720000000000000195e-01,1.689978895262163883e-01,-1.273501073537806616e-01,-3.322544736326778908e-02
2.730000000000000204e-01,6.281913628267661587e-02,-1.262004725129896587e-01,-1.441900356125148767e-03
2.740000000000000213e-01,-4.992923550037660363e-02,-1.314455154359948745e-02,5.713174519751561958e-02
2.750000000000000222e-01,-1.180612029003453856e-01,1.359443358048577355e-01,7.843185267190634635e-02
2.760000000000000231e-01,-1.563494060230051774e-01,1.274224853693568249e-01,1.697657262110036092e-02
2.770000000000000240e-01,-7.052621127081645791e-02,1.266028482336349348e-01,1.459594009010497379e-02
2.780000000000000249e-01,4.294133477585570374e-03,4.568492333022845103e-02,-8.542737875251739388e-02
2.790000000000000258e-01,1.343855881805854635e-01,-5.362767563623418304e-02,-9.405507490456258002e-02
2.800000000000000266e-01,1.346900823861823249e-01,-1.143985769834360428e-01,-8.348728377991446181e-02
2.810000000000000275e-01,1.196857083425555829e-01,-1.450832086002523391e-01,-4.492185614170379759e-02
2.819999999999999729e-01,6.890685476228912767e-03,-5.780807675734987716e-02,3.695271170141121997e-02
2.829999999999999738e-01,-1.459641304777236082e-01,5.922959196256293024e-02,1.191229048609350194e-01
2.839999999999999747e-01,-1.850333483386383537e-01,1.315713714504804510e-01,9.266659752209227552e-02
2.849999999999999756e-01,-8.968814948336870096e-02,1.137929131012223871e-01,4.012339409906697657e-02
2.859999999999999765e-01,-1.412864169187637124e-02,4.884362428537513540e-02,-3.536801049246297846e-02
2.869999999999999774e-01,1.019687794258823665e-01,-3.873116225164180415e-02,-1.209293409616721271e-01
2.879999999999999782e-01,1.061844365991798239e-01,-1.040892618184927343e-01,-7.312492030520625907e-02
2.889999999999999791e-01,9.325442677038901784e-02,-1.274199557924764192e-01,-1.887655632233686820e-02
2.899999999999999800e-01,4.411654834125616070e-02,-7.424206013678393001e-02,3.374787866829154215e-02
2.909999999999999809e-01,-6.969742748327778514e-02,3.709200062591577057e-02,8.108824636274672426e-02
2.919999999999999818e-01,-1.454093102364144852e-01,1.010032041101114747e-01,1.095892319287431194e-01
2.929999999999999827e-01,-1.325967652421395360e-01,1.200105826302151207e-01,4.297915140464025202e-02
2.939999999999999836e-01,-7.569590460706357438e-02,9.148684627935277369e-02,-6.841466123793244793e-03
2.949999999999999845e-01,4.976417845862922407e-02,1.749307138686521240e-02,-3.674048661797222476e-02
2.959999999999999853e-01,1.358710295165794779e-01,-6.778614179978652288e-02,-1.243745559975609483e-01
2.969999999999999862e-01,1.551419571878668302e-01,-1.462128673036012239e-01,-1.082265738477501404e-01
2.979999999999999871e-01,8.430855404571031830e-02,-8.468673251303719673e-02,-1.756992289328154766e-02
2.989999999999999880e-01,-4.726260009152361691e-02,-5.686419647070116955e-03,7.349875645395789747e-02
2.999999999999999889e-01,-1.381283199063830791e-01,8.107102922031458880e-02,1.183361380781359218e-01
3.009999999999999898e-01,-1.908681821053536121e-01,1.397842766098836287e-01,6.024338756971597125e-02
3.019999999999999907e-01,-9.660574564606043413e-02,1.099771944764167397e-01,5.405893711393621598e-02
3.029999999999999916e-01,1.116397736231657459e-02,4.915221077481277817e-02,-1.730816544220465172e-02
3.039999999999999925e-01,1.545823904416146199e-01,-7.002657808256264327e-02,-6.268795566558962862e-02
3.049999999999999933e-01,1.903551602389330910e-01,-1.110612552914672368e-01,-9.241766049264303617e-02
3.059999999999999942e-01,1.476012094006501074e-01,-1.174557703728183883e-01,-6.823748949563000765e-02
3.069999999999999951e-01,-2.177441016084010958e-02,-5.999964110540655787e-02,3.466353068062180687e-02
3.079999999999999960e-01,-1.177555278641328196e-01,5.866185067475225556e-02,7.835563904643191857e-02
3.089999999999999969e-01,-1.803036391378028958e-01,8.877963001786497166e-02,1.006555730150490297e-01
3.099999999999999978e-01,-9.583318703291864027e-02,1.228748279226801882e-01,7.320797145631367797e-02
3.109999999999999987e-01,-3.049771018697786454e-02,5.348291398069408148e-02,-2.615848135723430543e-02
3.119999999999999996e-01,7.159619575962967997e-02,-4.195118885711920237e-02,-8.528477359861597051e-02
3.130000000000000004e-01,1.690731167039988270e-01,-1.222004507013488006e-01,-1.055069991935675966e-01
3.140000000000000013e-01,1.626727172114082465e-01,-1.493182990729983173e-01,-6.655596654575129945e-02
3.150000000000000022e-01,4.267880275230100107e-02,-8.851327393485633466e-02,-1.758623386803575064e-02
3.160000000000000031e-01,-7.381053251481944910e-02,6.191711509365246252e-02,5.763872083045158690e-02
3.170000000000000040e-01,-1.498164216443539087e-01,1.278773872111104992e-01,6.805915609811355460e-02
3.180000000000000049e-01,-1.578331810794503798e-01,1.483770157501649312e-01,9.680846515221616655e-02
3.190000000000000058e-01,-8.710361088064232093e-02,6.173285803225628948e-02,2.937613286124150097e-02
3.200000000000000067e-01,2.158965091459177574e-02,-3.948682397233183039e-02,-3.193867462889565106e-02
3.210000000000000075e-01,1.436534580371820191e-01,-8.325208804820777297e-02,-9.618618016343422061e-02
3.220000000000000084e-01,1.876147055248875151e-01,-1.547675502252717217e-01,-8.256693074178514391e-02
3.230000000000000093e-01,8.829609818550894496e-02,-1.054218830019168912e-01,-5.793348019577829189e-02
3.240000000000000102e-01,8.566701197671817633e-03,4.823359966931777204e-04,2.231750982022208396e-02
3.250000000000000111e-01,-1.285810073308669144e-01,8.725248195598363232e-02,1.019058784111896709e-01
3.260000000000000120e-01,-1.345040167773567941e-01,1.173888542274874880e-01,1.343861923258543589e-01
3.270000000000000129e-01,-1.076822180530717793e-01,1.289618237907244336e-01,3.899564749583633166e-02
3.280000000000000138e-01,-3.030625851223920850e-02,4.714393037793527738e-03,-1.376204925769057216e-02
3.290000000000000147e-01,1.093941954594265242e-01,-5.035056879369571164e-02,-5.923777634575980860e-02
3.300000000000000155e-01,1.780182581068914527e-01,-1.437647934763715829e-01,-9.889496050909031555e-02
3.310000000000000164e-01,1.257755373599148685e-01,-1.203499850404361193e-01,-5.372403528564190234e-02
3.320000000000000173e-01,-1.141475081879214822e-02,-2.270379783512431818e-02,3.157071668853183438e-02
3.330000000000000182e-01,-7.891371571621738634e-02,8.881618163412766109e-02,8.148674148853216059e-02
3.340000000000000191e-01,-1.844127415812962523e-01,1.047323160370603190e-01,1.471906371545096404e-01
3.350000000000000200e-01,-1.547258559756041763e-01,1.201376161111140373e-01,9.773021196696525525e-02
3.360000000000000209e-01,-4.573583169402817977e-02,5.728034313493916840e-02,3.824707603330376043e-02
3.370000000000000218e-01,6.992090217181778922e-02,-5.188782477765689627e-02,-6.268631452848462404e-02
3.380000000000000226e-01,1.767737328345074521e-01,-1.322909802126418233e-01,-1.056624121206067718e-01
3.390000000000000235e-01,1.271304185811536758e-01,-1.093992890485412234e-01,-1.083328689293875380e-01
3.400000000000000244e-01,6.360616909828481491e-02,-8.457183107971275038e-02,-4.075492629097852287e-02
3.410000000000000253e-01,-6.307899042521576682e-02,3.634294140083228764e-02,4.599594761395926767e-02
3.420000000000000262e-01,-1.582692728259113835e-01,9.676765580191361293e-02,9.851157009998942615e-02
3.430000000000000271e-01,-1.740780046235783918e-01,1.389571110324741288e-01,1.096325047783522078e-01
3.439999999999999725e-01,-8.957658391383788166e-02,9.293563095048221201e-02,7.778621384831574392e-02
3.449999999999999734e-01,9.944810557755824273e-03,-4.912987217780484528e-02,-3.417997891412341560e-02
3.459999999999999742e-01,1.100761512120129182e-01,-1.114672097382951310e-01,-7.952327462312933082e-02
3.469999999999999751e-01,1.561391445375432396e-01,-1.516636584611764926e-01,-1.231671340667003234e-01
3.479999999999999760e-01,1.115936898983247300e-01,-8.219536027840704251e-02,-3.958423232315542994e-02
3.489999999999999769e-01,1.359278591225137993e-02,-3.390853026524780905e-02,2.243864833225280367e-02
3.499999999999999778e-01,-1.127500534628970014e-01,8.017513664098424586e-02,4.581125386754902190e-02
3.509999999999999787e-01,-1.716145013196197777e-01,1.262622458816252957e-01,8.396002425498140520e-02
3.519999999999999796e-01,-1.070076584798900637e-01,1.084829110381425321e-01,7.072604164762469336e-02
3.529999999999999805e-01,-4.720098927130197963e-02,-1.072626706848542159e-02,-1.843024694830573684e-04
3.539999999999999813e-01,9.786782707579939899e-02,-8.809464111795153873e-02,-3.057746682527869020e-02
3.549999999999999822e-01,1.686890406885651894e-01,-1.714205998416008792e-01,-9.512543074546471467e-02
3.559999999999999831e-01,1.426891743528234946e-01,-9.328134048107245002e-02,-1.457911342000502430e-01
3.569999999999999840e-01,5.177716866193959877e-02,-4.674333095081758399e-02,-3.116520137177887159e-02
3.579999999999999849e-01,-4.074267580107713421e-02,3.630605513674175361e-02,1.440427159405770034e-02
3.589999999999999858e-01,-1.433057632825482375e-01,1.450843594186449759e-01,8.128334883366578056e-02
3.599999999999999867e-01,-1.849821692877745838e-01,1.173152979847071342e-01,1.074325982329803614e-01
3.609999999999999876e-01,-9.707383006634218159e-02,4.099104389209436150e-02,5.591359758917500977e-02
3.619999999999999885e-01,5.195000108974644204e-02,-7.561655580597122228e-02,2.586546343233421183e-03
3.629999999999999893e-01,1.718107739125148137e-01,-1.325445418253342611e-01,-9.529449916919310870e-02
3.639999999999999902e-01,1.601843482849003852e-01,-1.180837018673057681e-01,-6.095756263969179245e-02
3.649999999999999911e-01,1.152741652257426863e-01,-7.432013463920301988e-02,-1.071032911088682649e-01
3.659999999999999920e-01,-4.565338027707519647e-02,6.097611672237082669e-02,-3.074856025260387996e-02
3.669999999999999929e-01,-8.440495614911362743e-02,9.156436540801683732e-02,1.174209644196639590e-01
3.679999999999999938e-01,-1.381555091307644367e-01,1.184110255865607753e-01,6.455657358184942185e-02
3.689999999999999947e-01,-1.174493814507878431e-01,9.815228931395011958e-02,9.390707157072097910e-02
3.699999999999999956e-01,-1.711611119606168754e-02,7.890899452284208179e-03,9.058180955750231439e-03
3.709999999999999964e-01,1.534339759490415955e-01,-1.338882116283540424e-01,-6.466545392795179648e-02
3.719999999999999973e-01,1.577681068780902029e-01,-1.112385268869991450e-01,-1.084552549611752792e-01
3.729999999999999982e-01,1.112420072897767342e-01,-1.098362082410238999e-01,-8.221749706952409531e-02
3.739999999999999991e-01,1.160692787536535611e-02,2.413772676876031059e-02,-4.223957141158454082e-02
3.750000000000000000e-01,-1.030826467267031282e-01,7.786091556175006589e-02,2.879982574715579668e-02
3.760000000000000009e-01,-1.756033130145503718e-01,1.142191900634471208e-01,1.269171932584685636e-01
3.770000000000000018e-01,-1.218561523201606989e-01,1.120001419114960706e-01,1.336788198918827109e-01
3.780000000000000027e-01,-8.913003331917493388e-02,1.861589733883457776e-02,6.610493575479688133e-02
3.790000000000000036e-01,8.420115644937116450e-02,-1.006244469310137862e-01,-4.866372577408168559e-02
3.800000000000000044e-01,1.713600880286603179e-01,-1.011455778384186682e-01,-5.636564531788929716e-02
3.810000000000000053e-01,1.188626662345643042e-01,-1.048582877693381016e-01,-9.955290166993700784e-02
3.820000000000000062e-01,6.935657616948480431e-02,-4.230274505994714024e-02,-7.304812132126260737e-02
3.830000000000000071e-01,-1.621601538033567861e-03,7.605366440966521147e-02,4.248814844249277495e-02
3.840000000000000080e-01,-1.599775801677811027e-01,1.223529803662456450e-01,7.923424170797772892e-02
3.850000000000000089e-01,-1.393207965410351579e-01,1.495109418602288409e-01,1.363911789157884746e-01
3.860000000000000098e-01,-8.951702694553127782e-02,7.097426754494516599e-02,6.603372402235002658e-02
3.870000000000000107e-01,4.853049102372714724e-02,-4.117765103229546059e-02,2.464759718094236204e-02
3.880000000000000115e-01,1.323435187518501033e-01,-1.321871165722386943e-01,-3.860155169259984337e-02
3.890000000000000124e-01,1.708660579080004960e-01,-1.234579297753802540e-01,-7.976166046391049147e-02
3.900000000000000133e-01,1.275187102273924178e-01,-5.682800052487117781e-02,-8.684453202822835227e-02
3.910000000000000142e-01,2.306110318216877952e-02,5.961066998861196814e-02,-3.902156071684464989e-02
3.920000000000000151e-01,-1.168264276217178543e-01,9.326958999757586910e-02,1.639696318985007020e-02
3.930000000000000160e-01,-1.464959259516034062e-01,1.364659464784706011e-01,7.136347127273851010e-02
3.940000000000000169e-01,-1.170210432447338217e-01,6.262374399757394960e-02,8.495515926318410183e-02
3.950000000000000178e-01,1.392350023690238497e-02,-2.035628635965861660e-02,6.671957543524728584e-02
3.960000000000000187e-01,9.591883247067801987e-02,-1.062665870943744761e-01,-5.452616447966703028e-02
3.970000000000000195e-01,1.749268074907372461e-01,-1.378685417880671782e-01,-6.128512012096688777e-02
3.980000000000000204e-01,1.516190210305639885e-01,-6.501758437475078922e-02,-9.679395274971250296e-02
3.990000000000000213e-01,2.824333108084913294e-02,5.984510776504905344e-02,-6.482022002890794332e-02
4.000000000000000222e-01,-6.383882524651186829e-02,1.123407246291249356e-01,-1.711530417665812348e-02
4.010000000000000231e-01,-1.436584294192196076e-01,1.824446440502369982e-01,7.688159133261156242e-02
4.020000000000000240e-01,-1.590457915476277406e-01,7.486210556719764819e-02,1.202849622005890406e-01
4.030000000000000249e-01,-1.110267444608150911e-01,-1.028939730962710394e-02,1.020064140023320548e-01
4.040000000000000258e-01,1.826773803536903273e-02,-9.750829996403587163e-02,-2.704251494819187758e-03
4.050000000000000266e-01,1.260291463038568649e-01,-1.579858899502556702e-01,-4.337622518848108233e-02
4.060000000000000275e-01,1.478247434332056465e-01,-1.440646415502926381e-01,-7.338414184890634795e-02
4.069999999999999729e-01,7.720430505670329568e-02,-9.356855201006295669e-03,-9.333806347273355952e-02
4.079999999999999738e-01,-2.820687886138429842e-02,1.072765725935638237e-01,1.102992017270680667e-03
4.089999999999999747e-01,-1.010538047391663363e-01,1.344579479009599954e-01,4.251193884003770518e-02
4.099999999999999756e-01,-1.945370138134915050e-01,1.136091501735770753e-01,1.028887314244746470e-01
4.109999999999999765e-01,-9.401046277321968569e-02,4.973121652265925785e-02,8.312885505457075219e-02
4.119999999999999774e-01,2.198012077263555419e-03,-8.442744705335433753e-02,5.499398273270530990e-02
4.129999999999999782e-01,9.965408071121849287e-02,-1.158309677439798985e-01,-3.451209636784473983e-02
4.139999999999999791e-01,1.753561116380421003e-01,-1.240904932748414097e-01,-8.994812796788184683e-02
4.149999999999999800e-01,8.892948381277308856e-02,-3.817452087750646678e-02,-1.128774620929056532e-01
4.159999999999999809e-01,7.441675126340250787e-03,4.136703390185299950e-02,-7.404405102497925439e-02
4.169999999999999818e-01,-8.160353265789624388e-02,1.236442806241920267e-01,6.840279638779251173e-03
4.179999999999999827e-01,-1.686849693914810044e-01,1.352856288653255523e-01,1.089391445187983393e-01
4.189999999999999836e-01,-1.105295896316451504e-01,1.470470969628025204e-02,1.020001382358809716e-01
4.199999999999999845e-01,-6.078021309303947156e-02,-5.178460280770528362e-02,8.271220895822896380e-02
4.209999999999999853e-01,6.844550912929837916e-02,-1.258727609335733300e-01,4.967846124493751486e-02
4.219999999999999862e-01,1.688479977097762375e-01,-1.329697776579085999e-01,-4.460549298728469503e-02
4.229999999999999871e-01,1.737248489705487120e-01,-6.926680484839614627e-02,-1.097951289074199366e-01
4.239999999999999880e-01,8.896817185944264073e-02,-2.449251165033059213e-03,-9.271428472045675773e-02
4.249999999999999889e-01,-8.312967093777200167e-02,1.277604803255497357e-01,-3.134074470208626784e-02
4.259999999999999898e-01,-1.450684074871935458e-01,1.319968227201800404e-01,5.338573684869639402e-02
4.269999999999999907e-01,-1.272685350593088516e-01,9.797195680176676302e-02,1.055546192837712866e-01
4.279999999999999916e-01,-7.837366542757771837e-02,-1.285738006285959932e-02,1.055658286051708028e-01
4.289999999999999925e-01,6.892254736540336102e-02,-1.121559709346520578e-01,2.769710142964134161e-02
4.299999999999999933e-01,1.178692594247506692e-01,-1.106237251701593927e-01,-4.075102466273566176e-02
4.309999999999999942e-01,1.809268070333191480e-01,-8.910892954745035233e-02,-7.435685291686698617e-02
4.319999999999999951e-01,1.309915422547087149e-01,-7.334423431602594447e-03,-1.031369501881285872e-01
4.329999999999999960e-01,7.762611318879043820e-03,9.272087319760299873e-02,-4.739256113499249606e-02
4.339999999999999969e-01,-9.831331514033232744e-02,1.099251417214986010e-01,3.475142330496102522e-02
4.349999999999999978e-01,-1.797180894007729124e-01,1.083490947096594631e-01,6.200061833765842939e-02
4.359999999999999987e-01,-1.109535184500030636e-01,3.726527639443571755e-03,1.288378025545424133e-01
4.369999999999999996e-01,-4.714999692770677729e-03,-4.641386375030773920e-02,8.360639339080144783e-02
4.380000000000000004e-01,8.251184404546155204e-02,-8.936491953928270282e-02,1.051417651031832413e-03
4.390000000000000013e-01,1.312719729952303016e-01,-1.253045735648148640e-01,-3.921954756320267244e-02
4.400000000000000022e-01,1.944495439278853544e-01,-3.187595770543764223e-02,-9.337033462093902170e-02
4.410000000000000031e-01,3.218435225652623716e-02,5.550958837652460176e-02,-7.866423931369932732e-02
4.420000000000000040e-01,-3.867259912554341095e-02,1.103598270035979073e-01,-1.616302960785625728e-02
4.430000000000000049e-01,-1.642182710877315155e-01,1.458336103081062929e-01,5.446859652339579305e-02
4.440000000000000058e-01,-1.556559932498211563e-01,4.885049044290971226e-02,9.127912751602930419e-02
4.450000000000000067e-01,-8.408117419361609002e-02,-4.300446078372496816e-02,7.911820330843227778e-02
4.460000000000000075e-01,7.406980339658958412e-02,-9.315315218522345064e-02,5.104237233965574355e-02
4.470000000000000084e-01,1.639468864130466663e-01,-1.322726942593275001e-01,-5.215395405409974094e-02
4.480000000000000093e-01,1.758722682665287140e-01,-6.547996587559359871e-02,-6.874149472624170587e-02
4.490000000000000102e-01,9.715980895313511279e-02,1.876655648606190274e-02,-9.894103720191896323e-02
4.500000000000000111e-01,-5.322526703567011935e-02,1.160107480483263814e-01,-6.064479892592610638e-02
4.510000000000000120e-01,-1.588221967129180845e-01,1.523991110920308312e-01,3.251384220373335077e-02
4.520000000000000129e-01,-1.826223037987411979e-01,8.743269720369330200e-02,9.374623080871015424e-02
4.530000000000000138e-01,-1.207076860410518787e-01,7.365408925722048000e-03,1.099978161170655361e-01
4.540000000000000147e-01,1.552491578998687824e-02,-1.049883210293284380e-01,4.640620439675938180e-02
4.550000000000000155e-01,8.176862173396387545e-02,-1.253124815692681915e-01,1.367597828418351709e-02
4.560000000000000164e-01,1.693677137614574280e-01,-1.026691744960464836e-01,-7.086772008686699487e-02
4.570000000000000173e-01,1.345864270756579328e-01,-4.650224186374119807e-03,-6.820603580664745536e-02
4.580000000000000182e-01,1.330254970083911623e-02,8.076836894029944258e-02,-8.119995910057412059e-02
4.590000000000000191e-01,-1.130662088641495033e-01,1.032401247728871457e-01,1.365710942318710749e-02
4.600000000000000200e-01,-1.641990903402020530e-01,1.573095938338086031e-01,6.172842850873722781e-02
4.610000000000000209e-01,-1.166259122130754444e-01,3.141194605868036227e-02,9.402692187421497760e-02
4.620000000000000218e-01,-6.660844071555251100e-02,-8.403267478585205175e-02,6.497377050004343735e-02
4.630000000000000226e-01,6.783727141146515816e-02,-1.481341378188510693e-01,-1.291615817709687759e-02
4.640000000000000235e-01,1.219360071495196457e-01,-1.114274990958746270e-01,-4.332975300751187170e-02
4.650000000000000244e-01,1.669896926395753600e-01,-3.200576557084403029e-02,-4.698456114149481000e-02
4.660000000000000253e-01,4.113898297368185492e-02,3.217761177152544255e-02,-1.426960808903643685e-01
4.670000000000000262e-01,-4.656444916855900784e-02,1.342671500724711975e-01,-1.481134415284816354e-02
4.680000000000000271e-01,-1.134109365645124823e-01,1.159638310223743973e-01,3.852517503084514766e-02
4.689999999999999725e-01,-1.592490159643923653e-01,3.882898854687105022e-02,9.816353600597647888e-02
4.699999999999999734e-01,-8.609823139585486007e-02,-5.634768670741355234e-02,8.979141890845791785e-02
4.709999999999999742e-01,7.206332137386108061e-02,-1.218339833359029095e-01,6.718896125674964082e-02
4.719999999999999751e-01,8.906652629682121347e-02,-1.275676030902957170e-01,1.125609242238141509e-02
4.729999999999999760e-01,1.801752269210998569e-01,-5.434215246016851214e-02,-7.457902250580056291e-02
4.739999999999999769e-01,9.728322153143792450e-02,3.169413186290176432e-02,-9.964749715374920935e-02
4.749999999999999778e-01,-2.151249065955337242e-02,1.407733617047800811e-01,-7.708749831756389614e-02
4.759999999999999787e-01,-1.065573455952190524e-01,1.509499296919138700e-01,-1.158650634851080561e-03
4.769999999999999796e-01,-1.782592538525573644e-01,8.770460213095918056e-02,5.323558923356251638e-02
4.779999999999999805e-01,-1.170012219285286731e-01,-1.267727536496124525e-02,8.375362383235389341e-02
4.789999999999999813e-01,-2.989985769926001638e-02,-1.513347347832494361e-01,1.107092566532745237e-01
4.799999999999999822e-01,1.106671038113479777e-01,-1.038424776085569851e-01,3.777253148684209250e-02
4.809999999999999831e-01,1.351314602210531846e-01,-6.386889814271680399e-02,-4.542360634495335586e-02
4.819999999999999840e-01,1.300737365843478155e-01,-4.177911583908562425e-03,-6.756221519377514362e-02
4.829999999999999849e-01,-4.902442353491999472e-03,1.084589718707834605e-01,-9.554220842198130059e-02
4.839999999999999858e-01,-9.391222075582876527e-02,1.221234826598193712e-01,-6.545627215160756962e-02
4.849999999999999867e-01,-1.782199303291983616e-01,4.433060324827518134e-02,1.494887467688319795e-02
4.859999999999999876e-01,-1.671856860953587209e-01,3.088196989244247279e-02,7.322403517482554969e-02
4.869999999999999885e-01,-7.675050554537041214e-02,-6.055262144606569918e-02,1.331706467986815967e-01
4.879999999999999893e-01,7.976680199953702088e-02,-1.647075946800658497e-01,6.381711765105016476e-02
4.889999999999999902e-01,1.062875348974672562e-01,-1.222429727324552684e-01,-3.507100304501441831e-03
4.899999999999999911e-01,1.229626679042102322e-01,-3.205790373391536469e-02,-3.449320730303583743e-02
4.909999999999999920e-01,1.098865969477461901e-01,8.395365981249297560e-02,-9.722737370827348735e-02
4.919999999999999929e-01,-3.605908005297871893e-02,1.246161601243452322e-01,-1.097511966945769746e-01
4.929999999999999938e-01,-1.352822716973913209e-01,1.129576758452804225e-01,-5.183200693006665555e-02
4.939999999999999947e-01,-1.807794429946758263e-01,3.253804407810024363e-02,2.992471759007332699e-02
4.949999999999999956e-01,-8.004388723118230353e-02,-5.894895812477975346e-03,8.705795518723856430e-02
4.959999999999999964e-01,-2.531597974451633981e-03,-1.175088323832213788e-01,8.433350956333161841e-02
4.969999999999999973e-01,1.110940802401071542e-01,-9.578971442485265109e-02,6.567727730484113069e-02
4.979999999999999982e-01,1.677538263126640838e-01,-4.811056778920680399e-02,-4.913634723089966433e-02
4.989999999999999991e-01,1.209649852768363287e-01,3.435722085110970436e-02,-1.081732204731578467e-01
5.000000000000000000e-01,8.146116627923616002e-04,1.152597109598528374e-01,-1.054482765663811161e-01
5.010000000000000009e-01,-1.000108464922964124e-01,1.411589774499812378e-01,-3.756223635945661610e-02
5.020000000000000018e-01,-1.622485149579278862e-01,7.813604856240027874e-02,2.412195943340621207e-02
5.030000000000000027e-01,-1.106379391735148598e-01,4.792144314212772038e-03,6.748340068625009736e-02
5.040000000000000036e-01,-5.890330380144168793e-02,-1.063897437678688329e-01,8.287201881557548777e-02
5.050000000000000044e-01,8.952714462548846952e-02,-1.323514102845968488e-01,8.827585230214785028e-02
5.060000000000000053e-01,1.478073255070049552e-01,-2.644369484696448142e-02,-1.171320229108173058e-02
5.070000000000000062e-01,1.285554468566320052e-01,-4.953359362883669355e-03,-4.944527509126007969e-02
5.080000000000000071e-01,7.013681415288490484e-02,1.002574805843924471e-01,-8.603707975262528396e-02
5.090000000000000080e-01,-6.642196855032642122e-02,1.066865241249372043e-01,-6.648101401374499619e-02
5.100000000000000089e-01,-1.784981054714337156e-01,8.700807822821363113e-02,-7.220419605734446598e-03
5.110000000000000098e-01,-1.732693694737437728e-01,-1.097673213167224548e-02,4.407139559725146288e-02
5.120000000000000107e-01,-4.778780607601153252e-02,-1.189013787473418571e-01,9.009113266312955559e-02
5.130000000000000115e-01,5.112019309197426975e-02,-1.490830687140351218e-01,1.087667209126539636e-01
5.140000000000000124e-01,1.217101665701813135e-01,-1.058913475042282115e-01,3.141901255581232288e-02
5.150000000000000133e-01,1.751997512733447782e-01,-3.982910944423843913e-03,-4.419388847995016356e-02
5.160000000000000142e-01,1.121969495254766525e-01,1.110703061703021133e-01,-1.166889754198077167e-01
5.170000000000000151e-01,3.473807955583522317e-02,1.232448112199286266e-01,-1.018184166945828029e-01
5.180000000000000160e-01,-1.086275641237161721e-01,1.125542981680427573e-01,-3.872046149311230562e-02
5.190000000000000169e-01,-1.895478464794420337e-01,4.431397585406183365e-02,-5.514059051929014015e-03
5.200000000000000178e-01,-1.192446837449992469e-01,-6.632157903414225009e-02,8.943023371922502462e-02
5.210000000000000187e-01,4.279987004587827021e-02,-1.152905260688220079e-01,9.314842174403921427e-02
5.220000000000000195e-01,1.203942092845246281e-01,-8.964305845663605998e-02,6.647236543424019095e-02
5.230000000000000204e-01,1.867681823284889076e-01,-2.815459473331497625e-02,-3.044166104370969825e-03
5.240000000000000213e-01,1.169443649354706682e-01,6.406779220635346050e-02,-5.031935932302931958e-02
5.250000000000000222e-01,6.523212721058277430e-02,9.564860530678868933e-02,-1.056642873761530904e-01
5.260000000000000231e-01,-8.648966242811965965e-02,1.109133180969496674e-01,-7.731646482750603733e-02
5.270000000000000240e-01,-1.378777894019154737e-01,5.787797129826439957e-02,-1.224798491797172116e-02
5.280000000000000249e-01,-1.498196536145194602e-01,-5.320076971598003412e-02,5.076594585856243624e-02
5.290000000000000258e-01,-5.149531328659397861e-02,-9.474762164619578153e-02,9.349839009903089526e-02
5.300000000000000266e-01,3.893846941635158848e-02,-1.293674677087538749e-01,8.239967446455058464e-02
5.310000000000000275e-01,1.203062000044963359e-01,-6.698178697966410133e-02,2.106229002319718810e-02
5.320000000000000284e-01,1.564954574404230914e-01,4.470087409393720679e-02,-5.363517164478556754e-02
5.330000000000000293e-01,6.858998347904712856e-02,1.283484971129023045e-01,-7.952270060485436276e-02
5.340000000000000302e-01,-5.586425072822445714e-02,1.599965791428538398e-01,-1.016498554201918508e-01
5.350000000000000311e-01,-1.320716735531419772e-01,9.432603039569333048e-02,-3.536258344797396647e-02
5.360000000000000320e-01,-1.902622120926863447e-01,3.430784491035609313e-02,8.350732601702870938e-04
5.370000000000000329e-01,-8.328292017485246224e-02,-1.074087872168767444e-01,6.196114967136438084e-02
5.380000000000000338e-01,-3.025936685402138594e-03,-1.386939679397111991e-01,8.574164266780039123e-02
5.390000000000000346e-01,1.115856793325196022e-01,-8.384810832115002777e-02,4.322777939048821211e-02
5.400000000000000355e-01,1.420376539269312122e-01,-3.508050370645829971e-03,-7.139742884551390388e-04
5.410000000000000364e-01,1.313722474438795140e-01,7.834180001807601601e-02,-6.989219836993761092e-02
5.420000000000000373e-01,-9.360965763178255572e-03,1.280859724838834535e-01,-1.257738983677054445e-01
5.430000000000000382e-01,-7.894592523579020693e-02,1.176112877628000680e-01,-1.100988161836301965e-01
5.440000000000000391e-01,-1.710828803479512716e-01,-1.054199204963980705e-03,6.582517217332675696e-03
5.450000000000000400e-01,-1.817546810079649633e-01,-8.003947339107468639e-02,7.069292469454888095e-02
5.460000000000000409e-01,-6.405383651560687952e-02,-1.363899813216826185e-01,9.466593865038171185e-02
5.470000000000000417e-01,4.610486607809494153e-02,-8.889571472662527452e-02,9.313669680319908162e-02
5.480000000000000426e-01,1.961838192958750560e-01,-2.896655432608858868e-02,4.070509281712080679e-02
5.490000000000000435e-01,1.734864496803138478e-01,7.111197494976498334e-02,-2.399759518055945631e-02
5.500000000000000444e-01,4.944584473561117188e-02,1.579500394622738169e-01,-8.663089863680470404e-02
5.510000000000000453e-01,-8.142981151509014193e-02,1.391071356856036501e-01,-1.020507670883995383e-01
5.520000000000000462e-01,-1.686385327881533280e-01,8.686889861501950749e-02,-3.200562699971722103e-02
5.530000000000000471e-01,-1.826555783024427781e-01,-6.462396461000918801e-02,2.229407661482169303e-02
5.540000000000000480e-01,-6.948340475724075482e-02,-1.048129226278632087e-01,7.509911745377896575e-02
5.550000000000000488e-01,3.033322422066417334e-02,-1.034800726721493980e-01,8.761193438878465967e-02
5.560000000000000497e-01,1.055892756622932860e-01,-5.772619357153273290e-02,4.300453918913631907e-02
5.570000000000000506e-01,1.593360877548585242e-01,3.061718226319657538e-02,-2.847688832476549803e-02
5.580000000000000515e-01,7.344545861252650687e-02,1.275461997745540588e-01,-6.809127819416183058e-02
5.590000000000000524e-01,-2.137751661875215980e-02,1.451177860325440216e-01,-8.092151199141106588e-02
5.600000000000000533e-01,-1.126723981423288778e-01,7.532482079363810035e-02,-5.557716591259048711e-02
5.610000000000000542e-01,-1.626316530535434346e-01,9.288655141714174945e-03,-1.825586977135873479e-02
5.620000000000000551e-01,-1.023545391933807919e-01,-7.719731932894904891e-02,5.513412688232121467e-02
5.629999999999999449e-01,-6.963679982341476615e-02,-1.596087461249764416e-01,9.788974556889359913e-02
5.639999999999999458e-01,1.267376535735055820e-01,-1.006266671615738961e-01,8.072179275980777280e-02
5.649999999999999467e-01,1.375883680894675609e-01,-3.982863468076177499e-02,5.190806995717372335e-02
5.659999999999999476e-01,1.133795606878040263e-01,9.100780848688981572e-02,-5.073163828957739235e-02
5.669999999999999485e-01,2.854406524181422183e-02,9.702554223235941577e-02,-6.951572433543315443e-02
5.679999999999999494e-01,-8.853330898922270875e-02,8.189458459671102031e-02,-1.026446111856582910e-01
5.689999999999999503e-01,-1.612136643373017764e-01,4.867025760156454273e-02,-5.994476612487708439e-02
5.699999999999999512e-01,-1.194812167157172506e-01,-1.212942214086190768e-01,3.196370702893885918e-02
5.709999999999999520e-01,-5.554506888071477494e-02,-1.280370029218928229e-01,1.119265966317727207e-01
5.719999999999999529e-01,6.366699565713168640e-02,-9.671928714687579032e-02,9.770408374022716835e-02
5.729999999999999538e-01,1.487348490176654547e-01,-3.057694243777142606e-02,9.411634160269338745e-02
5.739999999999999547e-01,1.691383128649236733e-01,8.263639924986238006e-02,-9.686232183542271140e-03
5.749999999999999556e-01,8.975698943129206686e-02,1.355607529059679461e-01,-7.419250383366886303e-02
5.759999999999999565e-01,-3.282267430551787796e-02,1.585726628100057045e-01,-9.510008246585791025e-02
5.769999999999999574e-01,-1.217084317745087269e-01,3.608122909147616630e-02,-7.787242733480236045e-02
5.779999999999999583e-01,-1.408933131994616061e-01,-4.807294114987668843e-02,-7.556449734740540783e-03
5.789999999999999591e-01,-7.330367169192650301e-02,-9.965509905047964523e-02,2.879880511945264246e-02
5.799999999999999600e-01,2.977646604265066915e-02,-1.224726656319525681e-01,9.227023550096713489e-02
5.809999999999999609e-01,9.749785326945023534e-02,-3.988470604032475636e-02,6.663989760723823541e-02
5.819999999999999618e-01,1.741228583732730151e-01,5.436723259990767360e-02,2.638317007195190717e-02
5.829999999999999627e-01,1.371208766640641397e-01,1.130362381149008916e-01,-5.606917929872169692e-02
5.839999999999999636e-01,9.775732139343325591e-03,1.441545712793255440e-01,-1.218631596444410409e-01
5.849999999999999645e-01,-1.080699050533207861e-01,5.617836960702225074e-02,-7.827528712200812477e-02
5.859999999999999654e-01,-1.863626273896328012e-01,-1.420966121534446118e-02,-2.499471684551114389e-02
5.869999999999999662e-01,-1.184144037342533401e-01,-1.057698859734380881e-01,2.009842013132189312e-02
5.879999999999999671e-01,-7.653516742135406913e-03,-1.353843048739837018e-01,6.959282315888640214e-02
5.889999999999999680e-01,6.508027297921357979e-02,-6.808018365858371779e-02,7.416062651177490750e-02
5.899999999999999689e-01,1.654226667577437804e-01,2.203412632592205087e-02,4.717454919981505651e-02
5.909999999999999698e-01,1.337970886671468462e-01,8.667651053888172918e-02,-3.883876941405082356e-02
5.919999999999999707e-01,7.983219084080653283e-02,1.288958772355391358e-01,-7.075127430498165393e-02
5.929999999999999716e-01,-4.849299555125861916e-02,7.556485813282698416e-02,-6.781855433043475212e-02
5.939999999999999725e-01,-1.309013277854970680e-01,3.139509900688775001e-02,-4.620500125536906172e-02
5.949999999999999734e-01,-1.373621720366004495e-01,-6.183947221182264226e-02,2.614330106153168673e-02
5.959999999999999742e-01,-3.706151643416563668e-02,-1.441606454842996321e-01,5.246657809378638820e-02
5.969999999999999751e-01,3.342525909703217973e-02,-1.299296665630910730e-01,7.753339753306985604e-02
5.979999999999999760e-01,1.149151177692407655e-01,-4.362138795771342697e-03,8.886259520858125205e-02
5.989999999999999769e-01,1.679545611636761859e-01,6.581246924650893670e-02,2.479277737898933839e-02
5.999999999999999778e-01,2.627895398785058331e-02,1.187277652955907037e-01,-2.430693676567011186e-02
6.009999999999999787e-01,6.433167453773588201e-03,1.255350288529418212e-01,-9.581298059796304611e-02
6.019999999999999796e-01,-1.349320217378611464e-01,3.126599676937374256e-02,-7.728884524095755437e-02
6.029999999999999805e-01,-1.416876386028276813e-01,-7.031238918664518833e-02,-4.549292208055639303e-02
6.039999999999999813e-01,-1.159210167327015678e-01,-1.059477072781920409e-01,6.484864151601743565e-02
6.049999999999999822e-01,-2.821276378230021600e-02,-1.317335988333200869e-01,1.056844796870926445e-01
6.059999999999999831e-01,1.141763344948288211e-01,-4.649516229863053657e-02,7.534774837550654858e-02
6.069999999999999840e-01,1.717357488756646733e-01,2.741812366181976823e-02,4.396298868782393815e-02
6.079999999999999849e-01,1.496525908520142112e-01,1.406589132549358745e-01,-3.742033974365436416e-02
6.089999999999999858e-01,1.743614187452139502e-02,1.285344479431690112e-01,-7.325353573825391096e-02
6.099999999999999867e-01,-8.675388104772441267e-02,7.797577213046572031e-02,-9.593342783126504458e-02
6.109999999999999876e-01,-1.464422675873409685e-01,-4.930968781369993170e-02,-2.458355795175442161e-03
6.119999999999999885e-01,-1.264666360576669757e-01,-8.696256351315932720e-02,5.313228033421229027e-03
6.129999999999999893e-01,-2.343023723145216605e-02,-1.270945086338696739e-01,8.427347404636974237e-02
6.139999999999999902e-01,6.612266998619484304e-02,-6.728900273639817908e-02,8.202591554144676722e-02
6.149999999999999911e-01,1.402530707679005839e-01,5.434221687334388901e-02,8.353350983664493967e-02
6.159999999999999920e-01,1.241636756818678272e-01,9.406770339235681622e-02,1.085851955878135676e-02
6.169999999999999929e-01,1.065816480020561619e-01,1.516523649116545136e-01,-6.162581370233540662e-02
6.179999999999999938e-01,-5.140904189814111264e-02,7.114906792759946585e-02,-6.780235935394805791e-02
6.189999999999999947e-01,-1.324124099864088799e-01,1.672744954501612091e-02,-4.694936217988618377e-02
6.199999999999999956e-01,-1.339535870919367488e-01,-1.411837926745316274e-01,-3.126196845656192824e-02
6.209999999999999964e-01,-1.034015904425353710e-01,-1.414163129396869001e-01,9.148066142623785535e-02
6.219999999999999973e-01,1.850651385266708152e-02,-8.611285719344993761e-02,7.101987640395118762e-02
6.229999999999999982e-01,1.219115709016420912e-01,-4.059324994383237128e-02,6.272518642911566189e-02
6.239999999999999991e-01,1.747354906093595006e-01,7.110714725493053057e-02,5.443798756463893301e-02
6.250000000000000000e-01,1.198792350541306034e-01,1.501068563896372221e-01,-8.116831699839859374e-03
6.260000000000000009e-01,-5.974402200252057309e-03,9.347239913734421701e-02,-9.117441631237277466e-02
6.270000000000000018e-01,-1.379182159249920658e-01,3.470138133937659963e-02,-1.364434728671773400e-01
6.280000000000000027e-01,-1.500124902980763397e-01,-7.046346515602526506e-02,-3.454329296887252709e-02
6.290000000000000036e-01,-1.221719670141713232e-01,-1.132616347074771601e-01,1.432461196751034019e-02
6.300000000000000044e-01,-6.234096299515624884e-02,-1.026994984002699562e-01,7.164277372804800370e-02
6.310000000000000053e-01,9.905818719268380534e-02,-4.795950076762070524e-02,9.899733087914754093e-02
6.320000000000000062e-01,1.897271972980603960e-01,5.968725873096709239e-02,6.951257998999159360e-02
6.330000000000000071e-01,1.711867818289067589e-01,1.303838423387431444e-01,3.260137821966616056e-02
6.340000000000000080e-01,5.377937137097059395e-02,9.814302440938969807e-02,-8.701953474781157216e-02
6.350000000000000089e-01,-6.301740062138565246e-02,6.954030041082251423e-02,-1.085256992549618604e-01
6.360000000000000098e-01,-1.623026017510861285e-01,-2.538698496739686186e-02,-1.165453372685449629e-01
6.370000000000000107e-01,-1.360205300096674619e-01,-9.909362191495475758e-02,1.006053420722492417e-02
6.380000000000000115e-01,-5.512045587054258816e-02,-1.435963830468648395e-01,5.325048064049698465e-02
6.390000000000000124e-01,5.329444413788272938e-02,-1.044217708269848388e-01,6.928829003671305165e-02
6.400000000000000133e-01,1.416343717727450990e-01,-5.643384508046012799e-03,8.792227296848462159e-02
6.410000000000000142e-01,1.768291802168975857e-01,7.849039454915665570e-02,1.665257449573255208e-02
6.420000000000000151e-01,3.614511215183505849e-02,1.416815890613971896e-01,-4.085637056247185678e-02
6.430000000000000160e-01,-4.682767872277812660e-02,8.824847368764536515e-02,-9.445750097566053827e-02
6.440000000000000169e-01,-1.308161084791880646e-01,-1.029979383109250581e-03,-1.199270093498569778e-01
6.450000000000000178e-01,-1.294452328546468467e-01,-8.059297064967153867e-02,-1.827871724221108787e-02
6.460000000000000187e-01,-1.368892921726047041e-01,-1.018116325761332930e-01,1.794180439511181349e-02
6.470000000000000195e-01,-1.669181987380351229e-02,-7.153642299148736672e-02,8.367164764491308304e-02
6.480000000000000204e-01,1.095930050042382697e-01,-4.793057294452379019e-02,1.129488848960369107e-01
6.490000000000000213e-01,1.470245882126866299e-01,6.060327394518375682e-02,4.527784145732234589e-02
6.500000000000000222e-01,1.334612386952443996e-01,1.123938215106854710e-01,-3.054908555884739123e-03
6.510000000000000231e-01,1.406042854525384189e-02,9.753525719937820859e-02,-4.082723374011227452e-02
6.520000000000000240e-01,-1.166275165036757128e-01,4.086853520453403305e-02,-1.036373857412690030e-01
6.530000000000000249e-01,-1.371554438873149873e-01,-8.592149956752290207e-02,-1.049167044122439746e-01
6.540000000000000258e-01,-1.097000065614076175e-01,-1.331600411146797447e-01,-2.946517846685012265e-02
6.550000000000000266e-01,-5.713726838319569540e-02,-1.065405305291280275e-01,2.143974305517332840e-02
6.560000000000000275e-01,7.792154944045819043e-02,-4.012292458664298844e-02,7.968561022237666269e-02
6.570000000000000284e-01,1.582877919287570823e-01,5.727143988094821753e-02,9.040597046728381103e-02
6.580000000000000293e-01,1.194738944141310599e-01,1.161584309512231766e-01,4.539083908828559638e-02
6.590000000000000302e-01,6.019055984785565833e-02,1.034332670708311835e-01,-3.022589438774441958e-02
6.600000000000000311e-01,-6.441514519634916613e-02,6.215707299289517651e-02,-8.188244327676620637e-02
6.610000000000000320e-01,-1.376816158725111816e-01,-3.994088235504646145e-02,-7.304539181458277741e-02
6.620000000000000329e-01,-1.908081183946937764e-01,-9.130189690873828645e-02,-5.160229251572886339e-02
6.630000000000000338e-01,-1.042269612777667193e-01,-1.053034611421026084e-01,-3.889689586262878081e-03
6.640000000000000346e-01,1.354046433388535892e-02,-7.301628906145943287e-02,6.636323285682127482e-02
6.650000000000000355e-01,1.548988777151488194e-01,3.280539237321112439e-02,8.526941707281791849e-02
6.660000000000000364e-01,1.935853187672753883e-01,1.005802822797727952e-01,7.484317472566300034e-02
6.670000000000000373e-01,1.245275740933329267e-01,1.063113127789728773e-01,8.598796870594487690e-03
6.680000000000000382e-01,-5.150902569698422723e-04,6.634344666255538592e-02,-9.329405530103357380e-02
6.690000000000000391e-01,-1.111931781489236132e-01,-1.492048863560087313e-02,-1.179890448546059012e-01
6.700000000000000400e-01,-1.551523765894438633e-01,-1.054990777931761325e-01,-1.173867387422576763e-01
6.710000000000000409e-01,-1.340640782069703607e-01,-1.143992425100914534e-01,-8.676525873616891538e-03
6.720000000000000417e-01,6.033850205412574427e-03,-1.082190302364361284e-01,4.662306974553964006e-02
6.730000000000000426e-01,9.135011739230601557e-02,7.453882995103190169e-03,7.817924805542982025e-02
6.740000000000000435e-01,1.746128290691484619e-01,1.133524966417069485e-01,8.179049462173219875e-02
6.750000000000000444e-01,1.229020029033166123e-01,1.541065838668885524e-01,6.059497222486358303e-02
6.760000000000000453e-01,4.680029152001231874e-02,1.214628031117183371e-01,-4.965231794100036927e-02
6.770000000000000462e-01,-9.092875863978740203e-02,9.037792230182851300e-03,-8.680027179563952477e-02
6.780000000000000471e-01,-1.470759607055642515e-01,-9.253733961329989322e-02,-1.191055204748256574e-01
6.790000000000000480e-01,-1.572754114282711169e-01,-1.118095188551585378e-01,-1.589568277098872898e-02
6.800000000000000488e-01,-8.297626699279850304e-02,-1.286514994568852821e-01,3.056964226920860089e-02
6.810000000000000497e-01,2.524953900188963221e-02,-5.677365175774945483e-02,1.052556173144650192e-01
6.820000000000000506e-01,1.755345920422432537e-01,4.000553228009489509e-02,1.426464263595738358e-01
6.830000000000000515e-01,1.640597332706679456e-01,1.423524659016428828e-01,6.865477595372279640e-02
6.840000000000000524e-01,5.566379058589480261e-02,1.346534242702166484e-01,1.944006268402088608e-02
6.850000000000000533e-01,-1.142611039051354832e-02,1.648893977040269757e-02,-8.576516301955282306e-02
6.860000000000000542e-01,-1.210514925059260893e-01,-2.656659650486296875e-02,-6.691811247594996181e-02
6.870000000000000551e-01,-1.853233190923652962e-01,-9.104315914242543106e-02,-6.438508627245155547e-02
6.879999999999999449e-01,-1.196892758527108719e-01,-9.622176610294203014e-02,-4.017185548073516632e-02
6.889999999999999458e-01,6.484900283958929326e-03,-8.425196039492272027e-02,5.700777449090130983e-02
6.899999999999999467e-01,1.027619220534749939e-01,3.242159001344775693e-02,1.198826613654366408e-01
6.909999999999999476e-01,1.570836136892807267e-01,9.762383631412521745e-02,1.019934457573792447e-01
6.919999999999999485e-01,9.538804911208501047e-02,1.081040988886467491e-01,-2.936357233399912794e-03
6.929999999999999494e-01,3.263956843665612347e-03,5.676713174809647211e-02,2.092505034173761189e-03
6.939999999999999503e-01,-8.624849236876848402e-02,-2.763860539266041472e-02,-1.019250154134268560e-01
6.949999999999999512e-01,-1.210443490226742053e-01,-1.078056741890987269e-01,-8.961675732415827489e-02
6.959999999999999520e-01,-1.162373469115345198e-01,-1.286746824280586843e-01,-2.672387447445913333e-02
6.969999999999999529e-01,-3.541345080027610837e-02,-6.075863151622196145e-02,1.150170690903386424e-02
6.979999999999999538e-01,5.320533477315682325e-02,-1.360020044637268340e-02,7.124942983270640684e-02
6.989999999999999547e-01,1.898285927923258620e-01,7.938737080402973045e-02,1.146620055912417613e-01
6.999999999999999556e-01,1.568783528958571927e-01,1.608350649969365609e-01,8.953915206726169307e-02
7.009999999999999565e-01,7.707645481991898251e-02,7.609851053010592559e-02,-8.304541965750795660e-03
7.019999999999999574e-01,-6.005333886656188253e-02,1.298832731690737971e-02,-8.683964844719344045e-02
7.029999999999999583e-01,-1.388566032109132264e-01,-1.045146781877214492e-01,-1.180085474826363945e-01
7.039999999999999591e-01,-2.010127760393327911e-01,-1.310515343283411016e-01,-5.329466806196824641e-02
7.049999999999999600e-01,-1.116337950510846166e-01,-1.198946589435429255e-01,2.184860024430898898e-02
7.059999999999999609e-01,3.262261013815449806e-02,-1.315308021824751483e-02,6.766229289565042770e-02
7.069999999999999618e-01,1.193064729629362136e-01,7.396442926166296727e-02,9.693942283196893550e-02
7.079999999999999627e-01,1.892136477050010979e-01,1.438448076518887564e-01,7.279310685773010547e-02
7.089999999999999636e-01,8.567228894915554505e-02,1.449189383266111797e-01,-1.669812060903888605e-04
7.099999999999999645e-01,-1.076424703603221997e-02,3.823514213964839675e-02,-5.579059585059915893e-02
7.109999999999999654e-01,-1.491131679802232546e-01,-6.943150034307389584e-02,-1.017693027111501031e-01
7.119999999999999662e-01,-1.487546704587411062e-01,-1.146301396062250760e-01,-6.119297737667586667e-02
7.129999999999999671e-01,-8.918190235619631590e-02,-9.272379250931082895e-02,-4.575975545921071724e-02
7.139999999999999680e-01,-1.073618165819468541e-02,-7.191861115081658873e-02,-1.056003560176782367e-02
7.149999999999999689e-01,1.053580348188682819e-01,1.323814467765373508e-03,8.414362779892198274e-02
7.159999999999999698e-01,1.715553646917760133e-01,8.804553265896260250e-02,4.591179491358923087e-02
7.169999999999999707e-01,1.481754608649220595e-01,1.375343466622418465e-01,5.372344342922634464e-02
7.179999999999999716e-01,4.492561926344992157e-02,5.707684937814364035e-02,-2.903220957850977460e-02
7.189999999999999725e-01,-4.141805081099024510e-02,-7.128086244845964307e-03,-8.651161954705520463e-02
7.199999999999999734e-01,-1.577383254014203262e-01,-1.273985636600602211e-01,-1.162724577437454221e-01
7.209999999999999742e-01,-1.277426226889510075e-01,-1.125601675948343788e-01,-5.459404306963246828e-02
7.219999999999999751e-01,-8.017863725223890736e-02,-7.310057839419713266e-02,1.145643016646383412e-02
7.229999999999999760e-01,2.373921975138451254e-02,2.259979212662775912e-03,6.900591121984854526e-02
7.239999999999999769e-01,1.405093105806784759e-01,1.028589476692125665e-01,1.215430100184077405e-01
7.249999999999999778e-01,1.749142232578088096e-01,1.750036489851774790e-01,7.849547260263987913e-02
7.259999999999999787e-01,1.160935273003686347e-01,1.038399259650888834e-01,5.699043042808145908e-03
7.269999999999999796e-01,-2.771252460961519740e-02,3.322200534415616080e-02,-3.434367037244445003e-02
7.279999999999999805e-01,-1.401482611129283851e-01,-8.463913656402166641e-02,-8.019228019328793200e-02
7.289999999999999813e-01,-1.779974120506928881e-01,-1.705694355233284276e-01,-1.103434395336187757e-01
7.299999999999999822e-01,-1.313982413966705010e-01,-1.144013553555712492e-01,-6.060840352509476447e-02
7.309999999999999831e-01,-3.132235168402269787e-02,-1.071860150588668098e-02,3.441050923304311837e-02
7.319999999999999840e-01,9.967156594471292264e-02,8.191206323656524679e-02,6.836978697566892249e-02
7.329999999999999849e-01,1.740662998318814603e-01,1.594760144460524165e-01,9.212767558431211867e-02
7.339999999999999858e-01,1.313248929733453474e-01,1.301513490644936877e-01,2.484068311820469485e-02
7.349999999999999867e-01,2.140670278953198460e-02,2.864739583638605674e-02,4.644083816830352728e-03
7.359999999999999876e-01,-1.197830507742107115e-01,-7.226255742017237416e-02,-8.713387940007946697e-02
7.369999999999999885e-01,-1.526709965730659313e-01,-1.499857716765669591e-01,-7.972936950928828648e-02
7.379999999999999893e-01,-9.754146382152049932e-02,-1.192748802163081517e-01,-5.352379743984674032e-02
7.389999999999999902e-01,-7.219668419340936893e-02,-4.347725099282586519e-02,2.427708366410153296e-03
7.399999999999999911e-01,7.207390081531694914e-02,3.670557098243763111e-02,3.442288287421701315e-02
7.409999999999999920e-01,1.465534745348786305e-01,1.548715051876472515e-01,1.157824819502247110e-01
7.419999999999999929e-01,1.164281776981824085e-01,1.168483740369262586e-01,7.365842211087338109e-02
7.429999999999999938e-01,6.332372716768946974e-02,3.924617321303566081e-02,-1.041860232307814139e-02
7.439999999999999947e-01,-4.673418399108836274e-02,-1.344268113372982729e-02,-4.446617398373637828e-03
7.449999999999999956e-01,-1.803551563264536584e-01,-1.591439047298243425e-01,-7.766640207803793272e-02
7.459999999999999964e-01,-1.716355911368528664e-01,-9.114586889916766188e-02,-4.083347306600339927e-02
7.469999999999999973e-01,-5.731927852174675819e-02,-7.546948509048105602e-02,3.987245969798057336e-03
7.479999999999999982e-01,7.165928976643960724e-02,-3.821923109819351169e-03,2.739688853077942854e-02
7.489999999999999991e-01,1.382685677250568845e-01,7.956900629289345717e-02,9.843008232231953425e-02
7.500000000000000000e-01,1.568316700265978136e-01,1.255831639739041772e-01,1.231943633713747932e-01
7.510000000000000009e-01,8.606287842261056698e-02,1.027769557012177676e-01,4.438791893165005414e-02
7.520000000000000018e-01,-1.071437545576000780e-02,1.019320060112970973e-02,-2.131960453484499710e-02
7.530000000000000027e-01,-1.440269459829323917e-01,-8.742392618934645421e-02,-7.207731793346940086e-02
7.540000000000000036e-01,-2.081834501884669841e-01,-1.666689283534691923e-01,-9.987005790656108828e-02
7.550000000000000044e-01,-1.013213112929821219e-01,-9.180672904043757354e-02,-8.297502149970037433e-02
7.560000000000000053e-01,-1.358311622632368994e-02,6.752413809939155319e-03,-1.861765014493461587e-02
7.570000000000000062e-01,1.078629150982470253e-01,9.690901573043016193e-02,1.037234395780465002e-01
7.580000000000000071e-01,1.713069738590420055e-01,1.147371624824605751e-01,1.143410827124430457e-01
7.590000000000000080e-01,1.558571270456624025e-01,1.030607348726762518e-01,7.323503144051878022e-02
7.600000000000000089e-01,1.572475727631269041e-02,3.891046178596500177e-02,8.980454721956063202e-03
7.610000000000000098e-01,-4.973613696305614895e-02,-6.671696018527875638e-02,-4.117752161496952834e-02
7.620000000000000107e-01,-1.817446051593140932e-01,-1.242765261373514202e-01,-7.606036436780008736e-02
7.630000000000000115e-01,-1.705788044431615080e-01,-1.191992954529361437e-01,-1.004729742069581933e-01
7.640000000000000124e-01,-7.377013084195827020e-02,1.977415558658020961e-02,-1.520100361347356127e-02
7.650000000000000133e-01,1.676545486455572817e-02,3.719987224270922266e-02,5.018642628756771196e-02
7.660000000000000142e-01,1.827203897454056092e-01,1.358253535487795594e-01,1.018619301900931251e-01
7.670000000000000151e-01,1.691613542002534942e-01,9.320048087328298980e-02,8.882892233905095858e-02
7.680000000000000160e-01,1.088633279557273265e-01,4.997353018939042213e-02,7.199924812956753906e-02
7.690000000000000169e-01,-1.266162979940694232e-02,-8.988338785144394175e-03,6.527043218672899183e-04
7.700000000000000178e-01,-1.341259440006780379e-01,-9.818209820278223088e-02,-1.119644406484700261e-01
7.710000000000000187e-01,-1.584274863444617987e-01,-1.207786216987075389e-01,-8.567689696045364955e-02
7.720000000000000195e-01,-1.179177672996583465e-01,-1.059149804784175336e-01,-8.644752277271193497e-02
7.730000000000000204e-01,-3.542358134599358794e-03,7.325179779852421247e-02,1.773888794389167842e-02
7.740000000000000213e-01,1.186971224650741064e-01,1.185450025776545874e-01,9.140738028305257779e-02
7.750000000000000222e-01,1.946205324763251587e-01,1.357098238921512767e-01,6.670308832678176203e-02
7.760000000000000231e-01,1.279709725631111850e-01,6.240394591150674047e-02,8.417020724329594972e-02
7.770000000000000240e-01,3.518914869682148502e-03,-1.185409273850218485e-02,2.014034960239199229e-02
7.780000000000000249e-01,-1.070760016421231225e-01,-9.458315379684241464e-02,-7.116263643959518104e-02
7.790000000000000258e-01,-1.568548082147240563e-01,-1.249632322922821642e-01,-1.156697393193386048e-01
7.800000000000000266e-01,-1.361780291340130011e-01,-6.279662319823181571e-02,-8.178394040939582221e-02
7.810000000000000275e-01,-3.675935055488836062e-02,-2.529164433644608481e-02,-6.922594799734875515e-02
7.820000000000000284e-01,4.123873004120272995e-02,1.132299891907173756e-01,7.516825149998522526e-02
7.830000000000000293e-01,1.454070212533323803e-01,1.533632729491254398e-01,6.796728038593088939e-02
7.840000000000000302e-01,1.628673020911854119e-01,1.063345746877147613e-01,5.424826934436294268e-02
7.850000000000000311e-01,5.753050775270156930e-02,2.570478517900224788e-02,4.672072086522997131e-02
7.860000000000000320e-01,-7.477626686579215420e-02,-7.413165356774110981e-02,-1.178012795422964348e-04
7.870000000000000329e-01,-1.903728431923658593e-01,-1.276053173107865313e-01,-9.348251633740835287e-02
7.880000000000000338e-01,-1.532098247395367874e-01,-9.559502381228462964e-02,-7.812407662125429864e-02
7.890000000000000346e-01,-1.054624095324314947e-01,1.184241170575581550e-02,-6.509063312142333857e-02
7.900000000000000355e-01,1.007131695642199398e-01,4.978919783177916669e-02,2.757962702158714072e-03
7.910000000000000364e-01,1.304421485151618376e-01,1.009219303399164769e-01,6.351869115351316264e-02
7.920000000000000373e-01,1.548045452795534238e-01,1.338256565585276003e-01,1.048207903572278138e-01
7.930000000000000382e-01,8.124613111030590251e-02,6.042841090692756267e-02,6.381924186782075847e-02
7.940000000000000391e-01,-2.033041319912980496e-02,-3.029608336279212416e-02,-1.286710342803830572e-02
7.950000000000000400e-01,-1.031533532628825106e-01,-9.585249953450016014e-02,-4.340787813324890193e-02
7.960000000000000409e-01,-1.501948782614059563e-01,-1.163218193005817330e-01,-1.006487393148643716e-01
7.970000000000000417e-01,-1.103175544489353871e-01,-3.931130342139390471e-02,-6.831020315704293411e-02
7.980000000000000426e-01,-1.415128878376666413e-02,-6.969215243639761102e-03,-6.837386484839719225e-02
7.990000000000000435e-01,9.919633782211749462e-02,8.771058037454411427e-02,2.822319699011122812e-02
8.000000000000000444e-01,1.395597681607217977e-01,1.338409944914161209e-01,7.110029257927369395e-02
8.010000000000000453e-01,1.357109694754715379e-01,1.009851751696471955e-01,1.159435844994716053e-01
8.020000000000000462e-01,3.930090407742566766e-02,-2.516683117091956037e-02,5.294952749652525464e-02
8.030000000000000471e-01,-7.001441655019099986e-02,-8.637239969507848336e-02,2.585737631724147403e-02
8.040000000000000480e-01,-1.468592497646197537e-01,-1.403542817658539055e-01,-7.385441604627504542e-02
8.050000000000000488e-01,-1.545240308168888965e-01,-9.437412066197935212e-02,-9.588554338597118920e-02
8.060000000000000497e-01,-5.061717040060492723e-02,1.630865744110436902e-02,-7.085255447630547931e-02
8.070000000000000506e-01,3.894340651350774313e-02,9.455060390951963711e-02,-2.028653331030845497e-02
8.080000000000000515e-01,1.557662736001116932e-01,1.450076624268756831e-01,2.607360471779703037e-02
8.090000000000000524e-01,1.557347831848346631e-01,1.126135101730113552e-01,1.256010332613803349e-01
8.100000000000000533e-01,8.388396051598055736e-02,3.514122100982396222e-03,6.868201465567656816e-02
8.110000000000000542e-01,-5.397433403504989236e-02,-9.211062883703852178e-02,-8.623720898860749370e-03
8.120000000000000551e-01,-1.112603883263862531e-01,-9.637501640910306477e-02,-8.515959625669980437e-02
8.129999999999999449e-01,-1.664229614523146383e-01,-1.299213414028107527e-01,-7.285384143178698368e-02
8.139999999999999458e-01,-1.040416114663750835e-01,-1.500022255036143580e-02,-6.097010594250954624e-02
8.149999999999999467e-01,3.398764421703005106e-02,7.386181839352699841e-02,-1.257125933177996027e-03
8.159999999999999476e-01,1.399328168226508240e-01,1.170985622623893080e-01,5.410547312912252632e-02
8.169999999999999485e-01,1.644246441608020748e-01,1.107152029498547907e-01,6.039381898690365097e-02
8.179999999999999494e-01,1.502678994731818096e-01,2.074329986976442691e-02,1.445705219025252841e-01
8.189999999999999503e-01,9.756326485499551213e-03,-3.215438178694141752e-02,5.327966838622638646e-02
8.199999999999999512e-01,-9.557378470461039277e-02,-1.431719598655687431e-01,-7.036376107753257447e-02
8.209999999999999520e-01,-1.871684844703904449e-01,-1.509082780514126310e-01,-9.050076570790414887e-02
8.219999999999999529e-01,-1.320282283000429879e-01,-1.905363170771031539e-02,-9.139055937109243077e-02
8.229999999999999538e-01,-2.986479848265340825e-02,4.679392228871289555e-02,-5.706544687991539633e-02
8.239999999999999547e-01,1.157611211729378253e-01,1.067136196882582932e-01,3.114031094714287198e-02
8.249999999999999556e-01,1.573515652456475289e-01,1.427049219881222075e-01,5.859978378190813103e-02
8.259999999999999565e-01,1.301618757959567274e-01,7.221566085987561612e-02,1.127366767827023969e-01
8.269999999999999574e-01,7.559511692669176885e-02,-2.239076331970332040e-02,4.758450675332227819e-02
8.279999999999999583e-01,-4.448789050201906736e-02,-1.014750594882265072e-01,3.228924774263920543e-03
8.289999999999999591e-01,-1.407181387249065163e-01,-1.283799763507705582e-01,-6.939981377635509596e-02
8.299999999999999600e-01,-1.478438506473526981e-01,-9.315818808361979453e-02,-1.478454830027964850e-01
8.309999999999999609e-01,-9.625854172300800371e-02,-1.609630464070180853e-03,-8.715691614685683319e-02
8.319999999999999618e-01,4.043515571846324069e-02,8.928633681747534523e-02,-7.183251908307668188e-02
8.329999999999999627e-01,1.180219269987150543e-01,1.255138343764594100e-01,5.874583366180900074e-02
8.339999999999999636e-01,1.413400515347499609e-01,7.845013690322615030e-02,1.049587472147877482e-01
8.349999999999999645e-01,7.804621952723125866e-02,-7.836644449089113368e-03,1.326654254716401471e-01
8.359999999999999654e-01,-3.295652298361346350e-02,-7.545592723617056130e-02,4.074576042715561536e-02
8.369999999999999662e-01,-1.064904334229171412e-01,-1.270945346111639063e-01,-4.196252663798165361e-02
8.379999999999999671e-01,-1.392002045747069428e-01,-7.703247067497656642e-02,-8.762119014157260244e-02
8.389999999999999680e-01,-1.393095921011587301e-01,-2.879192959121738490e-02,-8.549202219292345584e-02
8.399999999999999689e-01,1.030652821172933602e-02,6.053071461411877602e-02,-6.751903718838771218e-02
8.409999999999999698e-01,1.091167207279734042e-01,1.583640002051616702e-01,-2.290680557596077443e-02
8.419999999999999707e-01,2.069785849165539371e-01,1.336914838756420310e-01,6.339380794685030296e-02
8.429999999999999716e-01,1.471746409634219210e-01,1.780803271615722522e-02,9.264858615707773082e-02
8.439999999999999725e-01,-9.868021548123025470e-05,-6.135017429162716723e-02,5.746258599968999403e-02
8.449999999999999734e-01,-6.945692678684134425e-02,-1.225225479312034293e-01,2.353417505406521851e-02
8.459999999999999742e-01,-1.737844951487132750e-01,-1.076728559895725745e-01,-7.038529538464939617e-02
8.469999999999999751e-01,-1.510504872461320980e-01,-4.763786068663226902e-02,-8.515501525455926313e-02
8.479999999999999760e-01,-6.763208988160429591e-02,6.246057673924761133e-02,-8.709064408093539211e-02
8.489999999999999769e-01,5.343301965717853902e-02,1.238912769617901977e-01,-2.051467713125457084e-03
8.499999999999999778e-01,1.454335994811037924e-01,1.290430172925721430e-01,6.602285471767162239e-02
8.509999999999999787e-01,1.626554893004104330e-01,8.968595444215481105e-02,7.849554650189589922e-02
8.519999999999999796e-01,7.862958611746312387e-02,-3.146919772545730271e-02,7.611034039731712220e-02
8.529999999999999805e-01,-1.751063635780648539e-02,-1.200728173598649695e-01,2.153225084886334351e-02
8.539999999999999813e-01,-1.229374273930996103e-01,-1.137629956034602041e-01,2.813502593053538847e-03
8.549999999999999822e-01,-1.500326539821944805e-01,-5.206517394125274867e-02,-9.510532725395352827e-02
8.559999999999999831e-01,-1.122396619387293487e-01,1.917883771350289285e-02,-1.132113135907251988e-01
8.569999999999999840e-01,3.765777702737690275e-02,1.007854072583012905e-01,-6.650031182208593350e-02
8.579999999999999849e-01,1.639417013066837014e-01,1.393601334960746507e-01,1.211169196409388193e-02
8.589999999999999858e-01,1.332220758327806731e-01,8.292038889781873368e-02,6.069836954098030424e-02
8.599999999999999867e-01,1.561490777266181240e-01,-6.148149296277017131e-03,7.387553746706573832e-02
8.609999999999999876e-01,1.911848222659291024e-03,-4.405398926594426834e-02,1.045317912113191972e-01
8.619999999999999885e-01,-9.992004329026514531e-02,-1.412128142416049503e-01,1.937703293726020324e-03
8.629999999999999893e-01,-1.541827294980854801e-01,-1.330935372040635278e-01,-3.781924933817267659e-02
8.639999999999999902e-01,-1.316355837216703351e-01,-4.322915317578945871e-02,-1.027246593646359285e-01
8.649999999999999911e-01,-1.098293452098167769e-02,4.991611835934210012e-02,-5.847533432512422302e-02
8.659999999999999920e-01,9.826764904354193253e-02,1.340858326891933849e-01,-9.643015072503520121e-03
8.669999999999999929e-01,1.515584638060032685e-01,1.234026372760462370e-01,7.409733034170513932e-02
8.679999999999999938e-01,1.550220732921376576e-01,2.498807376139894690e-02,7.017653364418401096e-02
8.689999999999999947e-01,6.931467618936316966e-02,-5.999231924367975227e-02,1.019831920346080945e-01
8.699999999999999956e-01,-7.008848020123317757e-02,-1.240101936725198639e-01,2.986049710243055336e-02
8.709999999999999964e-01,-1.519420122867970180e-01,-1.040433713804286425e-01,-4.254991385977526658e-02
8.719999999999999973e-01,-1.645196861119645748e-01,-5.004535997478753301e-02,-9.479628941157665356e-02
8.729999999999999982e-01,-6.461077746237171848e-02,2.103492123749871323e-02,-9.929804246204716744e-02
8.739999999999999991e-01,9.871121317821732188e-02,1.324327482826654634e-01,-1.749510842290586538e-02
8.750000000000000000e-01,1.302339117497939291e-01,9.595336681615375396e-02,-1.657607654734801622e-02
8.760000000000000009e-01,1.535120362970523455e-01,3.027772655277244027e-02,7.065666195446308750e-02
8.770000000000000018e-01,1.037497772185444062e-01,-1.657699731536566370e-02,1.031023818338951126e-01
8.780000000000000027e-01,-1.440133957844056886e-02,-1.021057246206231311e-01,4.034276194001915061e-02
8.790000000000000036e-01,-1.820136819334838008e-01,-1.733276609613928765e-01,-3.548242585176010488e-02
8.800000000000000044e-01,-1.246172559276970265e-01,-7.461302672414781012e-02,-5.422312299621225712e-02
8.810000000000000053e-01,-1.089420438538261787e-01,4.322602291746887454e-02,-8.768462013657858656e-02
8.820000000000000062e-01,1.146997000327125600e-02,1.154943256259090140e-01,-1.086126149645927907e-01
8.830000000000000071e-01,1.009815397810219090e-01,1.583526087699395346e-01,1.578752905459039884e-03
8.840000000000000080e-01,1.833002880721226469e-01,9.570715224646664243e-02,7.197618707678277161e-02
8.850000000000000089e-01,1.420047095702837991e-01,-1.680526727136472109e-02,1.105694289271109826e-01
8.860000000000000098e-01,3.008839654925878071e-02,-7.767027732951567454e-02,8.259565207221525318e-02
8.870000000000000107e-01,-1.230583219254521160e-01,-1.120625816541822584e-01,4.190951452025527130e-02
8.880000000000000115e-01,-1.954456960757737227e-01,-8.736166904464591487e-02,-3.390002167170007991e-02
8.890000000000000124e-01,-1.355524575835396484e-01,-2.282874853420276476e-02,-4.737996091055022424e-02
8.900000000000000133e-01,-4.088119629783745074e-02,8.821681636134080795e-02,-1.009310384945764777e-01
8.910000000000000142e-01,8.879228904553174151e-02,1.310361231522078063e-01,-8.456159867751114612e-02
8.920000000000000151e-01,1.517832243532575842e-01,9.932332298637072676e-02,2.864741111858247827e-02
8.930000000000000160e-01,1.492041005676675858e-01,-4.148299989359019555e-04,7.997253296819128998e-02
8.940000000000000169e-01,5.865401327470479154e-02,-8.722727488007264718e-02,8.373429069080041975e-02
8.950000000000000178e-01,-2.698397272271919195e-02,-9.821385923006788199e-02,6.463941428529253186e-02
8.960000000000000187e-01,-1.454650332609229435e-01,-1.348491135238694405e-01,2.476733867552728327e-02
8.970000000000000195e-01,-1.784486842222557657e-01,-5.970577607124193109e-02,-7.022456722258364759e-02
8.980000000000000204e-01,-9.173265707602129559e-02,5.646695025895542841e-02,-6.802224793296574035e-02
8.990000000000000213e-01,2.313574393514129801e-02,1.189706013618894581e-01,-7.499641103119294994e-02
9.000000000000000222e-01,1.152393078169914875e-01,1.509005339884564312e-01,2.905850758192447120e-02
9.010000000000000231e-01,1.751679912240962089e-01,3.033561471985285127e-02,5.556422758306399368e-02
9.020000000000000240e-01,1.294042666238879313e-01,-1.967317097728515929e-02,7.775889831147778097e-02
9.030000000000000249e-01,4.946879962410385967e-02,-9.143952702311546055e-02,9.999536870050071413e-02
9.040000000000000258e-01,-1.024146454581193466e-01,-1.296469291322061290e-01,-8.585141559047289057e-04
9.050000000000000266e-01,-1.587656857103258157e-01,-4.824226507608833647e-02,-5.081988200434111452e-02
9.060000000000000275e-01,-1.352055726569357796e-01,2.141071540153249853e-02,-2.292686390605440383e-02
9.070000000000000284e-01,-3.040954998348765689e-02,1.198830563807649630e-01,-1.049781034868978447e-01
9.080000000000000293e-01,7.884466071760004580e-02,1.406547526377271151e-01,-7.304734259435453902e-02
9.090000000000000302e-01,1.947176632404515051e-01,8.948640803956590950e-02,-7.131352641068040323e-03
9.100000000000000311e-01,1.493974070615166350e-01,-2.969578486102803470e-03,6.078921863337199971e-02
9.110000000000000320e-01,1.658855576891639025e-02,-7.555995673923147915e-02,4.369111774558020328e-02
9.120000000000000329e-01,-8.666591688784289205e-02,-1.182947285169924090e-01,6.184244511161696850e-02
9.130000000000000338e-01,-1.564475008731625039e-01,-7.316538372270194046e-02,-3.030351014470626311e-02
9.140000000000000346e-01,-1.230919288635598241e-01,-1.482809740268400955e-02,-5.606065613072089282e-02
9.150000000000000355e-01,-9.401406144084352434e-02,5.412500482054197898e-02,-1.256613177755344368e-01
9.160000000000000364e-01,9.162476331074913272e-02,1.218688040577123044e-01,-3.915690946761605368e-02
9.170000000000000373e-01,1.477065515389714978e-01,9.706159741301011168e-02,-1.803558092359279150e-02
9.180000000000000382e-01,1.688335330528792366e-01,2.553106259810381320e-02,7.069150562083509337e-02
9.190000000000000391e-01,9.515235805743677000e-02,-6.284675028197111990e-02,1.007004988239890153e-01
9.200000000000000400e-01,-1.522508503612118522e-02,-9.269463019727997022e-02,1.095735373751971220e-01
9.210000000000000409e-01,-1.441970856937219436e-01,-1.232510671856538731e-01,2.939418892690901647e-02
9.220000000000000417e-01,-1.615494374654308507e-01,-4.261035926393201556e-02,-3.830172888199166736e-02
9.230000000000000426e-01,-1.121016793862206762e-01,6.720714845190157993e-02,-7.782586349988419860e-02
9.240000000000000435e-01,3.706952039880973427e-03,1.292148412740003194e-01,-8.085096790908956332e-02
9.250000000000000444e-01,1.021646893861744565e-01,8.526958605493584198e-02,-2.637946056549938384e-02
9.260000000000000453e-01,1.957985175260693045e-01,3.251393020841056997e-02,3.079722612210530116e-03
9.270000000000000462e-01,1.131246009005770076e-01,-3.766167177603726990e-02,7.330116869191659335e-02
9.280000000000000471e-01,1.950728877216143659e-02,-9.381707454473460495e-02,8.990110359875762291e-02
9.290000000000000480e-01,-8.389598966416790538e-02,-1.215716656269386908e-01,2.187132324879974971e-02
9.300000000000000488e-01,-1.454911909804416648e-01,-4.819711672589238605e-02,-1.467084803573509393e-02
9.310000000000000497e-01,-1.284238502758476008e-01,4.126475218453104499e-02,-8.926063137920295376e-02
9.320000000000000506e-01,-7.122425103628758636e-02,1.176397179839641510e-01,-1.134536808027941240e-01
9.330000000000000515e-01,5.052362588404195332e-02,1.174928164243239509e-01,-7.274458314330226050e-02
9.340000000000000524e-01,1.722008771482620160e-01,2.835565912438878233e-02,-2.797360762937852949e-02
9.350000000000000533e-01,1.863844020684782554e-01,-7.903775987741241266e-03,7.870223364597006555e-02
9.360000000000000542e-01,7.892911358558887813e-02,-1.004881112399415299e-01,1.127834408299488861e-01
9.370000000000000551e-01,-4.832544752194403714e-02,-1.328060436452153659e-01,8.357132931010784194e-02
9.379999999999999449e-01,-1.374035478236695640e-01,-6.958248088162927170e-02,2.939000201987185951e-02
9.389999999999999458e-01,-1.459096422873685794e-01,-7.884162618921896487e-03,-5.078641980501715641e-02
9.399999999999999467e-01,-1.087625608070608846e-01,6.703587412238737331e-02,-1.085300192935482050e-01
9.409999999999999476e-01,6.007883608749943483e-02,1.472924960932678884e-01,-1.004400685808437277e-01
9.419999999999999485e-01,1.146669841512784199e-01,1.143479838426774559e-01,-5.485165479757380530e-02
9.429999999999999494e-01,1.590724937052334087e-01,1.254237724551461770e-02,4.471502633592049775e-02
9.439999999999999503e-01,1.240241982863574399e-01,-9.920539062880955050e-02,1.143335858383628389e-01
9.449999999999999512e-01,-3.706272076216579614e-02,-9.893463684823690374e-02,1.133301737813793703e-01
9.459999999999999520e-01,-1.233722956120128916e-01,-1.229325166268526032e-01,6.605481666381186889e-02
9.469999999999999529e-01,-1.655075926566190181e-01,-1.633366681049991734e-02,-1.382464420827112482e-02
9.479999999999999538e-01,-1.120982565053201957e-01,5.595519517624501088e-02,-5.909572131103586756e-02
9.489999999999999547e-01,-5.504107123174675070e-02,1.365367894576896557e-01,-1.085492451688620796e-01
9.499999999999999556e-01,8.178463405648316031e-02,1.259939286427658733e-01,-4.628223169784396324e-02
9.509999999999999565e-01,1.432867461327444747e-01,6.709868973641759660e-02,1.304150061368219114e-02
9.519999999999999574e-01,1.399426060622133428e-01,-3.901392881721460482e-02,4.578804135182371754e-02
9.529999999999999583e-01,4.275890956537010956e-02,-8.207955630050707552e-02,8.640761858157983144e-02
9.539999999999999591e-01,-9.093483890479309162e-02,-1.592169919887466978e-01,8.868410974535970159e-02
9.549999999999999600e-01,-1.689475694693405861e-01,-4.373987052140401732e-02,3.576685049619528906e-02
9.559999999999999609e-01,-1.565986332514603396e-01,5.382464231823724798e-02,-2.927076065207249653e-02
9.569999999999999618e-01,-5.767724775139383003e-02,1.235245141044103018e-01,-1.009980913021002041e-01
9.579999999999999627e-01,8.322906479313886552e-02,1.031490435629105473e-01,-1.060296740540213056e-01
9.589999999999999636e-01,1.674953597077940004e-01,9.142499891905703224e-02,-2.045237272129591527e-02
9.599999999999999645e-01,1.693997438254334909e-01,-1.836651929728105870e-02,2.421059216143962509e-02
9.609999999999999654e-01,6.479631942771078845e-02,-1.279755820413062128e-01,7.415683283105156676e-02
9.619999999999999662e-01,-3.568867210657494099e-02,-1.732664505009058886e-01,1.161709409364300449e-01
9.629999999999999671e-01,-1.094293223134245041e-01,-9.227731153004112286e-02,2.831540590453559755e-02
9.639999999999999680e-01,-2.172942743626698203e-01,-2.716986103997414553e-02,-2.525382648315120312e-02
9.649999999999999689e-01,-1.137955451657056000e-01,7.085747796814220734e-02,-7.496814252634401154e-02
9.659999999999999698e-01,-1.115515155862273865e-02,1.181972060590144868e-01,-9.563559907997112863e-02
9.669999999999999707e-01,1.172800133160297742e-01,6.628141825007786980e-02,-4.030000952326789204e-02
9.679999999999999716e-01,1.670931950058247573e-01,1.674963715308562875e-02,-1.430787099321502789e-02
9.689999999999999725e-01,1.270577802388382638e-01,-7.959445812958181043e-02,7.151210597903275012e-02
9.699999999999999734e-01,1.789569699839015093e-02,-1.293363407828273526e-01,1.323900572790632502e-01
9.709999999999999742e-01,-9.660993118812515046e-02,-1.168604569081776318e-01,4.187878763932836867e-02
9.719999999999999751e-01,-1.315331236494954037e-01,-2.981485917988593512e-02,2.247607390329092389e-02
9.729999999999999760e-01,-1.512603835179856249e-01,7.373639784941123099e-02,-5.588058856468106073e-02
9.739999999999999769e-01,-5.231047082487606109e-02,1.486967518898475726e-01,-1.107721058108333823e-01
9.749999999999999778e-01,9.735688396236874542e-02,9.314242743647767331e-02,-9.414745060912470265e-02
9.759999999999999787e-01,1.512559535675766231e-01,3.270901006924215038e-02,-5.738417602424501079e-02
9.769999999999999796e-01,1.602923996302062226e-01,-2.782653628401650023e-02,1.431685923023882229e-02
9.779999999999999805e-01,1.007513566019591356e-01,-1.363786502657728383e-01,8.542900965252805956e-02
9.789999999999999813e-01,-8.404435306466735700e-02,-1.077197729676441507e-01,9.946295506115720997e-02
9.799999999999999822e-01,-1.436942050673990223e-01,-2.559364674477396934e-02,2.606067918320935720e-02
9.809999999999999831e-01,-1.664579842243534002e-01,4.835010426856760357e-02,1.090667415462296536e-03
9.819999999999999840e-01,-9.750938098876898996e-02,1.331142846201882057e-01,-6.900790268271768391e-02
9.829999999999999849e-01,6.868178281816060549e-02,1.589382134989865691e-01,-1.011623929799273652e-01
9.839999999999999858e-01,1.271698240150422599e-01,4.420482430502847143e-02,-7.992756104048558130e-02
9.849999999999999867e-01,1.537882532018023940e-01,-1.473874465301352674e-02,-4.370555947314733874e-02
9.859999999999999876e-01,1.143577160347960114e-01,-7.412121186500678083e-02,5.935621962740385976e-02
9.869999999999999885e-01,-7.486105521785036028e-03,-1.346249400243913763e-01,1.014787585488714367e-01
9.879999999999999893e-01,-1.345503930289448091e-01,-9.302033408540381909e-02,4.458068434604851860e-02
9.889999999999999902e-01,-1.577267589072795517e-01,1.738076279570676536e-02,2.523701293944457733e-02
9.899999999999999911e-01,-1.415581547256639927e-01,1.200168664952194347e-01,-6.295128996471609228e-02
9.909999999999999920e-01,-1.076558842016822268e-02,1.715204452983949135e-01,-8.034046231953054229e-02
9.919999999999999929e-01,1.089687394144933374e-01,8.696616796484961387e-02,-8.984349087183690630e-02
9.929999999999999938e-01,1.549337807444049753e-01,2.380060516218554523e-02,-1.931132767545766168e-02
9.939999999999999947e-01,1.773810088141657693e-01,-1.027619212699734663e-01,5.567253761921709537e-02
9.949999999999999956e-01,2.980014818355994702e-02,-1.298035541336521603e-01,6.660641713822282317e-02
9.959999999999999964e-01,-9.449509337594470815e-02,-6.188042683506368713e-02,9.553263495935125638e-02
9.969999999999999973e-01,-1.576119019208502559e-01,-2.914438447360503254e-02,2.488155925597163726e-02
9.979999999999999982e-01,-1.440592948832482012e-01,5.454090963285961047e-02,-3.613784841097689160e-02
9.989999999999999991e-01,-3.375026318342843473e-02,1.166712015982163536e-01,-5.695545442458951196e-02
1.000000000000000000e+00,5.450698307378055302e-02,1.164138208599840990e-01,-1.035322563541206942e-01
1.000999999999999890e+00,1.545243437471608972e-01,6.840786735556970977e-02,-8.487949775818723341e-02
1.002000000000000002e+00,1.879994035666486818e-01,-3.736780842697130095e-02,1.686922888990539243e-02
1.002999999999999892e+00,3.730673622074449913e-02,-1.135651421835474767e-01,6.632968952206837188e-02
1.004000000000000004e+00,-2.647533704875740940e-02,-1.447280637597773145e-01,8.371884829630596436e-02
1.004999999999999893e+00,-1.947154415172795416e-01,-3.383474526261143200e-02,5.832237583059841218e-02
1.006000000000000005e+00,-1.663060405247925588e-01,4.458241205939514340e-02,3.466559449204399679e-02
1.006999999999999895e+00,-1.063021051850909782e-01,1.157022011943711765e-01,-5.936861696198075106e-02
1.008000000000000007e+00,1.928953375114697512e-03,1.254661215389970552e-01,-8.496267224063538959e-02
1.008999999999999897e+00,9.510661282756803503e-02,6.593176543334014483e-02,-9.766979595510209833e-02
1.010000000000000009e+00,1.613883570072571494e-01,-4.126299148728779231e-02,-2.600920938470719854e-02
1.010999999999999899e+00,1.064794565957379313e-01,-1.147565486918969840e-01,3.911892877327969448e-02
1.012000000000000011e+00,-3.459365186341134633e-03,-1.276456557719678753e-01,1.112280257077458423e-01
1.012999999999999901e+00,-9.378688050440459056e-02,-8.778830484376383414e-02,4.018001124341255559e-02
1.014000000000000012e+00,-1.250035074824545067e-01,-1.115891546116309224e-02,1.020968427745930045e-02
1.014999999999999902e+00,-1.097984760923983311e-01,9.586403298129336781e-02,-2.845004200912399847e-02
1.016000000000000014e+00,-4.014266889385168652e-02,1.513397186571696640e-01,-1.304899376135088829e-01
1.016999999999999904e+00,6.944761880808551779e-02,1.038008185054645621e-01,-1.150231139703709049e-01
1.018000000000000016e+00,1.635706093545966633e-01,-4.428162848965327102e-03,-6.109034708326115809e-02
1.018999999999999906e+00,1.314671613854963284e-01,-1.322494307921513734e-01,-4.576518671846517561e-03
1.020000000000000018e+00,6.580671322701651949e-02,-1.384084435585328232e-01,7.760108314424619957e-02
1.020999999999999908e+00,-4.758359274792707538e-02,-1.004538372365394588e-01,9.832866577148791087e-02
1.022000000000000020e+00,-1.032974523576400544e-01,2.230273635335980505e-03,6.850306712374215623e-02
1.022999999999999909e+00,-2.027731964766374406e-01,6.846729907822689254e-02,-1.538704535245264543e-02
1.024000000000000021e+00,-9.234400654528819585e-02,1.135481469967368068e-01,-6.133728822382890356e-02
1.024999999999999911e+00,3.228410255560330150e-02,1.288814358119051706e-01,-9.374923528569402420e-02
1.026000000000000023e+00,1.287714767235430824e-01,2.438824119427002515e-02,-7.767362655421981843e-02
1.026999999999999913e+00,1.658941451290191771e-01,-5.259398793440753228e-02,-3.796634776582222259e-02
1.028000000000000025e+00,1.063327900866911369e-01,-1.091375409973163735e-01,2.967089100431663171e-02
1.028999999999999915e+00,-1.480988128554299767e-02,-8.289624527365828388e-02,8.233791884359138724e-02
1.030000000000000027e+00,-1.186828870457371649e-01,-4.541261632314359808e-02,9.707186278328430729e-02
1.030999999999999917e+00,-1.627797804249489222e-01,6.587516208793486872e-02,5.248005138893650084e-02
1.032000000000000028e+00,-1.182718157281894000e-01,1.160506953026463894e-01,-3.353955012854340639e-02
1.032999999999999918e+00,-6.177029727966315380e-03,1.511994577710726317e-01,-4.652662723577238868e-02
1.034000000000000030e+00,1.027078302943921356e-01,4.411019178247261446e-02,-8.967985530831899810e-02
1.034999999999999920e+00,1.360853312757352995e-01,-3.680376896933837405e-02,-8.150982111224572280e-02
1.036000000000000032e+00,1.495357868728960371e-01,-1.218249513796449413e-01,-3.438602106804902400e-03
1.036999999999999922e+00,3.046898197371174927e-02,-1.170645873423786371e-01,7.021707129170862149e-02
1.038000000000000034e+00,-8.645880089547375302e-02,-6.311477090809901325e-02,6.482816324030091226e-02
1.038999999999999924e+00,-1.461505744302957488e-01,1.353300189430856580e-02,6.167382026594981498e-02
1.040000000000000036e+00,-1.751430109386970246e-01,9.559112501330578604e-02,3.049225652103503340e-02
1.040999999999999925e+00,-8.253040116851709240e-02,1.226928738767248256e-01,-7.729477989324121112e-02
1.042000000000000037e+00,6.081480940865122142e-02,7.921636185985908574e-02,-1.103011153997972282e-01
1.042999999999999927e+00,1.535947269059926568e-01,-2.589603526843664225e-02,-8.168703549354591753e-02
1.044000000000000039e+00,1.510061780494036388e-01,-1.130164162999157257e-01,2.127447888838987153e-02
1.044999999999999929e+00,6.492819986522491149e-02,-1.200840103282722338e-01,5.324898955583162730e-02
1.046000000000000041e+00,-7.219127099410493908e-02,-8.712033743543409758e-02,8.980984085549223450e-02
1.046999999999999931e+00,-1.169831093052895871e-01,-5.172034083961232764e-03,8.647909310448197162e-02
1.048000000000000043e+00,-1.906494995733847286e-01,5.692905079485157532e-02,3.962430631520985624e-02
1.048999999999999932e+00,-1.085178268080485009e-01,1.369877275395065819e-01,-4.816443201158526755e-02
1.050000000000000044e+00,-1.714986490946525735e-02,7.824370970453088658e-02,-1.182915406342663067e-01
1.050999999999999934e+00,1.412543308905385153e-01,-5.613170621518799759e-04,-4.621121298923790144e-02
1.052000000000000046e+00,1.273205101691572971e-01,-7.302751449201962120e-02,-2.673272164322144234e-02
1.052999999999999936e+00,1.102085651416435386e-01,-9.954273401454293013e-02,2.649316355243273510e-02
1.054000000000000048e+00,3.661555312775364307e-02,-1.080288570979129475e-01,1.211958059901102891e-01
1.054999999999999938e+00,-1.295350744849274593e-01,-3.669734192873130157e-02,1.268590684723296669e-01
1.056000000000000050e+00,-1.819461322991572927e-01,6.240282426762244067e-02,7.735348370464077694e-02
1.056999999999999940e+00,-1.280580653866614793e-01,9.455994644715065567e-02,-2.083950337487586527e-02
1.058000000000000052e+00,-4.559265294182066053e-02,9.782944111839798895e-02,-8.132498000493368351e-02
1.058999999999999941e+00,8.374642494073375465e-02,4.893961741038357904e-02,-9.315160373187307552e-02
1.060000000000000053e+00,1.120887054459323434e-01,-4.768506828127461183e-02,-8.582206589438132194e-02
1.060999999999999943e+00,1.501464015621061798e-01,-1.056392274876130494e-01,-4.009661653165632472e-02
1.062000000000000055e+00,7.513945742887538637e-02,-1.175269270921056874e-01,7.457324054707625827e-02
1.062999999999999945e+00,-7.575248458245119332e-02,-6.681451348765597709e-02,1.081654346888561991e-01
1.064000000000000057e+00,-1.374965699246902540e-01,2.860341581124350649e-02,7.701710137990334937e-02
1.064999999999999947e+00,-1.662080036895333124e-01,1.252460226807689814e-01,9.548530261069599484e-03
1.066000000000000059e+00,-2.601369835153892821e-02,1.460697759679348839e-01,-5.595600382677594353e-02
1.066999999999999948e+00,7.188062361530603295e-02,7.187986978488841716e-02,-7.636302406126264930e-02
1.068000000000000060e+00,1.593764340536519830e-01,-4.608454700951190863e-02,-1.233198734870821212e-01
1.068999999999999950e+00,1.725515267197330616e-01,-9.128305815696437231e-02,-7.051181842708668934e-02
1.070000000000000062e+00,8.712072877390106274e-02,-1.526115838840352568e-01,4.130497993252863972e-03
1.070999999999999952e+00,-4.657571721847417190e-02,-9.503080718908990532e-02,7.906183854172646464e-02
1.072000000000000064e+00,-1.342099493782155373e-01,1.377291875630795928e-02,7.321498946313989564e-02
1.072999999999999954e+00,-1.605827245886225219e-01,7.516827821493884954e-02,4.077295400824004074e-02
1.074000000000000066e+00,-1.495078734589623537e-01,1.530768591431692638e-01,-1.156256490880577803e-02
1.074999999999999956e+00,-3.289166332186806846e-02,1.153230645432394841e-01,-3.414845823052720802e-02
1.076000000000000068e+00,9.582949107896918117e-02,-8.979134628187153064e-03,-6.797350041398773912e-02
1.076999999999999957e+00,1.550813574310469234e-01,-9.185701071944335494e-02,-9.430138406623399250e-02
1.078000000000000069e+00,1.503725789247256639e-01,-1.330360324496008273e-01,-3.208942471308354888e-02
1.078999999999999959e+00,4.286322341450879252e-03,-1.082342606025259585e-01,6.636534181405437383e-02
1.080000000000000071e+00,-1.097953409641460459e-01,-3.933203537090547430e-02,1.369981383562221544e-01
1.080999999999999961e+00,-1.368789572236542851e-01,3.708453800592157595e-02,5.663097730028055637e-02
1.082000000000000073e+00,-1.486338462449987574e-01,1.324172568407541162e-01,5.354357966497314686e-02
1.082999999999999963e+00,-4.870969548234974078e-02,1.376181290504963073e-01,-6.855420002454719330e-02
1.084000000000000075e+00,5.240360739052103006e-02,3.095266495275994165e-02,-8.043546485429424464e-02
1.084999999999999964e+00,1.159481947094676280e-01,-5.698599051975648810e-02,-1.183151690405858936e-01
1.086000000000000076e+00,1.490157026188241585e-01,-1.601222959857589723e-01,-3.161967980560639879e-02
1.086999999999999966e+00,7.253034364646546162e-02,-1.280611922067968478e-01,1.492979323859905047e-02
1.088000000000000078e+00,-2.478849682355454068e-02,-4.073506687055779979e-02,9.126025929572374740e-02
1.088999999999999968e+00,-1.590854609768056760e-01,1.676060118872962218e-02,1.063343694022810815e-01
1.090000000000000080e+00,-2.016788040440349872e-01,1.261414411845498129e-01,2.362578359018841986e-02
1.090999999999999970e+00,-1.176248506832334173e-01,1.176079371671512191e-01,1.938154262634144212e-02
1.092000000000000082e+00,5.663460112664421564e-02,5.457590224435064641e-02,-5.923625720400304412e-02
1.092999999999999972e+00,1.144404232094804186e-01,-1.987319368624327828e-02,-6.072413029321949152e-02
1.094000000000000083e+00,1.647040755861921002e-01,-1.285252650887275527e-01,-7.612140273443311622e-02
1.094999999999999973e+00,1.142665575784448523e-01,-1.116766644566456745e-01,-2.499051053307878301e-02
1.096000000000000085e+00,1.717357098073679991e-02,-9.513391922916589194e-02,2.732426998082492647e-02
1.096999999999999975e+00,-1.076653571672833570e-01,9.540963031402657779e-03,7.706786750951820364e-02
1.098000000000000087e+00,-1.905543380097960426e-01,1.418644430285362912e-01,8.832724394294837189e-02
1.098999999999999977e+00,-1.191313633589044241e-01,1.683059205254779089e-01,4.055242848292129471e-02
1.100000000000000089e+00,-3.894174256347255475e-02,8.942197714475901005e-02,-2.732491257047836922e-02
1.100999999999999979e+00,9.418044177079090695e-02,4.976360494758335501e-02,-8.208558794799052094e-02
1.102000000000000091e+00,1.396977730689819008e-01,-8.559898421501742349e-02,-1.059409948926847145e-01
1.102999999999999980e+00,1.409474497034368390e-01,-1.550430433643653905e-01,-3.996469612073364625e-02
1.104000000000000092e+00,7.387477739548276023e-02,-5.291472880783106708e-02,-6.280432607200251089e-04
1.104999999999999982e+00,-7.567260150183112433e-02,-3.446755609079416721e-02,6.711556890617666193e-02
1.106000000000000094e+00,-1.281624796164919644e-01,6.573865538308010237e-02,1.004479455497196277e-01
1.106999999999999984e+00,-1.182503601020432338e-01,1.285046144515404332e-01,8.558922292686654831e-02
1.108000000000000096e+00,-4.325439127454211441e-02,1.325550787128458030e-01,4.246802132386251309e-03
1.108999999999999986e+00,2.872033843998028635e-02,1.726822029697959102e-02,-5.323778944973134308e-02
1.110000000000000098e+00,1.730980205193386745e-01,-4.508978439061676197e-02,-1.091024599218311519e-01
1.110999999999999988e+00,1.446309163236518813e-01,-1.133980894468194223e-01,-7.716743513457312298e-02
1.112000000000000099e+00,9.437688216453979373e-02,-1.330209371459357137e-01,-2.705940033977425815e-02
1.112999999999999989e+00,-2.145797749422999334e-02,-4.638986085211169175e-02,8.315031724461986740e-02
1.114000000000000101e+00,-1.183279666144652076e-01,9.277500193403089013e-02,9.059736207269095121e-02
1.114999999999999991e+00,-1.406372465804108240e-01,7.734103929864652449e-02,8.739816595799740351e-02
1.116000000000000103e+00,-1.309671607426707296e-01,1.455455503292685804e-01,3.293923644330729039e-02
1.116999999999999993e+00,5.724048697860703062e-03,5.536448732073135509e-02,-5.145833372936550743e-02
1.118000000000000105e+00,9.546011255395124573e-02,-3.927121357818461750e-02,-8.471767357920796659e-02
1.118999999999999995e+00,1.627991687881995830e-01,-7.070858653923818571e-02,-7.333193735368448429e-02
1.120000000000000107e+00,1.202512776246322940e-01,-9.026322462215435882e-02,-6.737465105956869094e-02
1.120999999999999996e+00,3.678179490869061714e-03,-8.547640352791162355e-02,6.017792439957603441e-03
1.122000000000000108e+00,-1.152342732659315666e-01,2.131051394336419200e-02,8.076900974890244278e-02
1.122999999999999998e+00,-1.672077875468264418e-01,1.073213553162613437e-01,9.469518045812662377e-02
1.124000000000000110e+00,-1.197740549156678519e-01,9.900565126776338098e-02,4.699803801701281369e-02
1.125000000000000000e+00,-1.431431647021382501e-02,4.808443974341528732e-02,-1.693636349112509487e-02
1.125999999999999890e+00,6.040364118484013722e-02,-1.640638809528275135e-02,-9.372879103209995344e-02
1.127000000000000002e+00,1.593502405783450981e-01,-7.843043263393825737e-02,-9.334144833704315081e-02
1.127999999999999892e+00,1.438827497335772587e-01,-9.619242332911479010e-02,-1.206045449104557465e-01
1.129000000000000004e+00,5.615005600640618488e-02,-1.236592303513764229e-01,-6.363187794531973383e-03
1.129999999999999893e+00,-6.083152896647152363e-02,-4.610509459154076006e-02,7.089438706262252143e-02
1.131000000000000005e+00,-1.184740796298427573e-01,5.070474117966534966e-02,8.829121640835696505e-02
1.131999999999999895e+00,-1.569534478936590038e-01,1.085631814177120541e-01,7.711642691823521190e-02
1.133000000000000007e+00,-8.455464683337385323e-02,1.183161564858787318e-01,-2.032471728359618729e-02
1.133999999999999897e+00,3.434521897119099249e-02,3.353449561896939407e-02,-5.509555241836643774e-02
1.135000000000000009e+00,1.271767867537193231e-01,-8.479327324043040015e-02,-7.144217499601261678e-02
1.135999999999999899e+00,2.017344858129911378e-01,-1.709746093821963298e-01,-8.579866559497581480e-02
1.137000000000000011e+00,1.066576852361651451e-01,-6.616083507683608034e-02,-2.393939396955067217e-02
1.137999999999999901e+00,4.168973434827234065e-02,-5.373038806066976480e-02,3.468907789479596521e-02
1.139000000000000012e+00,-1.351618220976537610e-01,3.502039253075523578e-02,7.491581551459207400e-02
1.139999999999999902e+00,-1.780402413378836257e-01,1.374550953934151609e-01,1.044818894092971878e-01
1.141000000000000014e+00,-1.282025493335522404e-01,1.329841199642335103e-01,4.422480142179603668e-02
1.141999999999999904e+00,2.633843334735314849e-03,4.362752009345090276e-02,-2.441699316474045946e-04
1.143000000000000016e+00,8.191253523053276808e-02,-5.058850898354359110e-02,-7.062203868610728019e-02
1.143999999999999906e+00,1.683021272468675777e-01,-1.504056356590992294e-01,-1.133531694680844221e-01
1.145000000000000018e+00,1.609470676040460346e-01,-1.425597792007499143e-01,-2.267339311398709756e-02
1.145999999999999908e+00,4.849536809109537133e-02,-5.041821258694387936e-02,2.418266120321437007e-02
1.147000000000000020e+00,-7.331316135021695435e-02,1.376346128453598099e-02,7.588161182652052028e-02
1.147999999999999909e+00,-1.674237784683990371e-01,9.486020712000614585e-02,1.075201618444115714e-01
1.149000000000000021e+00,-1.691003576405510911e-01,1.274371106953529065e-01,7.889103402705832657e-02
1.149999999999999911e+00,-9.968474186751462296e-02,4.769479985447926812e-02,1.737941025632833494e-02
1.151000000000000023e+00,4.156110717222128575e-02,1.436210212382047456e-02,-5.472671537576689199e-02
1.151999999999999913e+00,1.433903277386441855e-01,-1.058863551795754671e-01,-6.823417419884647561e-02
1.153000000000000025e+00,1.371527515061956304e-01,-1.201185413452303813e-01,-1.149111505818852796e-01
1.153999999999999915e+00,7.414675877130007253e-02,-7.492112450541221769e-02,-5.128514717164179421e-02
1.155000000000000027e+00,-3.344316567724019140e-02,-3.410109058206515359e-02,1.904783016806220128e-02
1.155999999999999917e+00,-1.353238370583016992e-01,7.394052018963440109e-02,7.726836715826307378e-02
1.157000000000000028e+00,-1.345773404674800444e-01,1.586021279129557482e-01,1.377091786381366423e-01
1.157999999999999918e+00,-1.105180399989476453e-01,1.362340870823627037e-01,4.942876977556846796e-02
1.159000000000000030e+00,-1.872625670099228867e-02,1.425426289021511708e-02,-2.896145640964137291e-02
1.159999999999999920e+00,1.180180009490758991e-01,-4.921996830814558826e-02,-9.650670597079785695e-02
1.161000000000000032e+00,1.179973762219605343e-01,-1.215122609334830101e-01,-8.287871117404474464e-02
1.161999999999999922e+00,1.417709644307170447e-01,-1.435172628612794432e-01,-8.191824383522045006e-02
1.163000000000000034e+00,-1.044697349756320073e-03,-7.234259539417513263e-02,1.597724854644413245e-02
1.163999999999999924e+00,-1.033699369367241938e-01,8.274044618583055455e-02,1.437106289363850389e-02
1.165000000000000036e+00,-1.181733708810458611e-01,1.217421838845058474e-01,9.914033773110793313e-02
1.165999999999999925e+00,-1.248149232128533959e-01,1.197579613922500341e-01,7.390243927310627403e-02
1.167000000000000037e+00,-7.177277714942519038e-02,2.784660977185620181e-02,8.972975717886763278e-03
1.167999999999999927e+00,6.979108911245067437e-02,-6.710564915828121091e-02,-4.537385096781847149e-02
1.169000000000000039e+00,1.330017215688947263e-01,-1.250114090780961307e-01,-7.359467554135690204e-02
1.169999999999999929e+00,1.547558388614904135e-01,-1.152884023708374145e-01,-9.872133740980459926e-02
1.171000000000000041e+00,6.560626809933930992e-02,-1.116826977154072448e-01,-4.682741140787761297e-02
1.171999999999999931e+00,-1.232302495206173513e-02,3.398380797453084273e-02,6.604185289147410098e-02
1.173000000000000043e+00,-1.396837710622096940e-01,1.032930774547014957e-01,9.886029439696684962e-02
1.173999999999999932e+00,-1.860280663580889671e-01,1.310065680906452590e-01,8.660611469754274372e-02
1.175000000000000044e+00,-8.950355484605154732e-02,9.797809885992332657e-02,4.560107058240432665e-02
1.175999999999999934e+00,3.158370085273291827e-02,-5.556842308562472132e-02,1.534187265735597640e-02
1.177000000000000046e+00,1.396290371755539439e-01,-6.268250324121042716e-02,-9.754179614406610632e-02
1.177999999999999936e+00,1.443285449418939270e-01,-1.144966236172903912e-01,-8.677574479861888124e-02
1.179000000000000048e+00,8.629904821097070244e-02,-9.922549004595425381e-02,-8.005332543175415483e-02
1.179999999999999938e+00,-2.415573958919659025e-04,-4.417855898282388449e-02,6.003101904800182964e-03
