time,acc_x,acc_y,acc_z
0.000000000000000000e+00,-8.389472950806863005e-02,-6.250070303613200484e-02,-6.525275034178608380e-03
1.000000000000000021e-03,-1.260050645323880225e-01,-8.975712592889836805e-02,-7.416406714688812685e-02
2.000000000000000042e-03,-1.776714899807360359e-01,-9.124853907962557353e-02,-1.346048273334972123e-01
3.000000000000000062e-03,-1.914285690240935811e-01,-9.086418268018903177e-02,-1.598355926478512434e-01
4.000000000000000083e-03,-1.911814923836640256e-01,-9.570038959227444852e-02,-1.655521875420773448e-01
5.000000000000000104e-03,-1.668723524842242734e-01,-8.651921130725520603e-02,-1.465635639074445162e-01
6.000000000000000125e-03,-1.197633048784340071e-01,-7.059003095709415199e-02,-1.278079303923593535e-01
7.000000000000000146e-03,-1.059324073233183783e-01,-5.599364689550592744e-02,-8.492195987362792520e-02
8.000000000000000167e-03,-3.046649682385531299e-02,-5.720083661385678975e-02,-6.126644499922733605e-02
8.999999999999999320e-03,-5.811146153559626493e-03,-3.311515218421257067e-02,-2.720876778743884505e-02
1.000000000000000021e-02,1.226062165515208816e-02,-2.057167419057275362e-02,3.165436802831388119e-02
1.099999999999999936e-02,5.089608072126421828e-02,-8.044321210856046275e-03,6.330056812143836087e-02
1.200000000000000025e-02,7.905919614626689962e-02,2.820754615946828234e-02,9.138344137752053842e-02
1.299999999999999940e-02,8.754936043857046435e-02,4.954808477837650132e-02,9.330144625431013861e-02
1.400000000000000029e-02,8.240679150633932470e-02,8.809234981313571189e-02,8.659819388670669804e-02
1.499999999999999944e-02,1.090377332099400076e-01,1.238519932071676655e-01,7.719609165775233317e-02
1.600000000000000033e-02,1.044104632216893147e-01,1.126932042975971326e-01,5.819941850822100970e-02
1.700000000000000122e-02,1.152918386653844496e-01,1.472265360402363332e-01,5.172928153228792403e-02
1.799999999999999864e-02,9.046851427645903609e-02,1.315953399522808154e-01,2.645898294040735163e-02
1.899999999999999953e-02,1.054567866704037710e-01,1.179675722935409482e-01,2.178641196143839970e-02
2.000000000000000042e-02,1.020208772561651961e-01,6.019970577240550680e-02,1.846552068942284783e-02
2.100000000000000130e-02,4.919210154658758966e-02,2.082670032340916411e-02,1.748331711182508214e-02
2.199999999999999872e-02,8.514934761152245443e-03,-3.022986416081873545e-02,-4.843586314036370244e-03
2.299999999999999961e-02,-5.591817614350241133e-02,-1.028680476270922295e-01,-3.645539359265486529e-02
2.400000000000000050e-02,-1.206565281041525467e-01,-1.675674875862389612e-01,-4.539829223186875318e-02
2.500000000000000139e-02,-1.715342654162149982e-01,-2.195585891391729494e-01,-5.186666942213812026e-02
2.599999999999999881e-02,-2.005051937761397618e-01,-2.338349091761161014e-01,-6.943211586672162761e-02
2.699999999999999969e-02,-2.257113124590278963e-01,-2.333881347980772125e-01,-8.137808164526606769e-02
2.800000000000000058e-02,-2.219059841848249337e-01,-1.942136891150688383e-01,-8.549480867690323338e-02
2.900000000000000147e-02,-1.844431635650107537e-01,-1.323160354534178018e-01,-1.096774515006415235e-01
2.999999999999999889e-02,-1.409493442306357924e-01,-4.243261126110540321e-02,-7.346800709660437911e-02
3.099999999999999978e-02,-6.279683575193524547e-02,6.565717738634328782e-02,-7.007911221870988250e-02
3.200000000000000067e-02,5.194065662730552868e-02,1.859507329020344546e-01,-1.926455327236822890e-02
3.300000000000000155e-02,1.402343212898794489e-01,2.415917051946594729e-01,2.300614931929409815e-02
3.400000000000000244e-02,2.462176103183271736e-01,3.127403392637146395e-01,5.801167564746511490e-02
3.500000000000000333e-02,3.092935509616811518e-01,3.458695297940679869e-01,1.109520476232588454e-01
3.599999999999999728e-02,3.519835154986455383e-01,3.202879119233221217e-01,1.443131939710086409e-01
3.699999999999999817e-02,3.494467043979678222e-01,2.545517478915956255e-01,1.531732758793700189e-01
3.799999999999999906e-02,2.895708504205872225e-01,1.491232953767294422e-01,1.722487872230297756e-01
3.899999999999999994e-02,1.945974338146347904e-01,2.672908186787223417e-02,1.581973917193967294e-01
4.000000000000000083e-02,7.495822313879375864e-02,-1.273586519623607638e-01,1.260324221749435092e-01
4.100000000000000172e-02,-5.974301833347873264e-02,-2.464351988785572489e-01,6.617217804103746326e-02
4.200000000000000261e-02,-2.124337671740914313e-01,-3.681033117605463367e-01,7.536011945108873553e-03
4.299999999999999656e-02,-3.557201985088435658e-01,-4.076650146624282711e-01,-9.377823103085076994e-02
4.399999999999999745e-02,-4.274145766673617675e-01,-4.224005139569763090e-01,-1.595167577261809300e-01
4.499999999999999833e-02,-4.869599050002167417e-01,-3.618072850997990364e-01,-2.122406569394871545e-01
4.599999999999999922e-02,-4.512699476803117560e-01,-2.916113721032975170e-01,-2.409197050583572752e-01
4.700000000000000011e-02,-3.608430861059873096e-01,-1.381998178535744082e-01,-2.490890387601419620e-01
4.800000000000000100e-02,-2.352556163834985947e-01,2.708493935297395794e-02,-2.166820253163131149e-01
4.900000000000000189e-02,-6.947143506866500229e-02,1.912990111761513345e-01,-1.564768614854812612e-01
5.000000000000000278e-02,1.285891022563452057e-01,3.451240916265881920e-01,-6.195189445801003308e-02
5.099999999999999672e-02,3.151582597055290202e-01,4.514198561525396003e-01,1.772729968987717467e-02
5.199999999999999761e-02,4.650771361065867415e-01,4.958290817867128109e-01,1.301272231179340100e-01
5.299999999999999850e-02,5.504988249638608222e-01,4.907500139857851607e-01,2.138892066526327518e-01
5.399999999999999939e-02,5.783744969863757746e-01,3.885054724071169696e-01,2.742115252551630689e-01
5.500000000000000028e-02,5.435684888487823940e-01,2.733400769246099316e-01,3.087476115296076684e-01
5.600000000000000117e-02,4.109012582140308401e-01,1.028708604868424636e-01,2.857671673227070719e-01
5.700000000000000205e-02,2.382390300449684639e-01,-1.073148587604718374e-01,2.527532731452630244e-01
5.800000000000000294e-02,1.976590405521237975e-03,-2.867948709605361857e-01,1.702742178922994065e-01
5.899999999999999689e-02,-2.052599426753398126e-01,-4.275010241821267654e-01,9.340864454601259526e-02
5.999999999999999778e-02,-4.156714586643114329e-01,-5.366699771900721450e-01,-2.756093294789065465e-02
6.099999999999999867e-02,-5.640894640851608077e-01,-5.496777623372408605e-01,-1.729196829364706423e-01
6.199999999999999956e-02,-6.390932944491720669e-01,-5.120630440171168862e-01,-2.703327388224907035e-01
6.300000000000000044e-02,-6.453008350622784217e-01,-3.903432414573109743e-01,-3.460483615697352855e-01
6.400000000000000133e-02,-5.880755421457255494e-01,-2.281042848758355057e-01,-3.648101880780177941e-01
6.500000000000000222e-02,-4.139358752445725376e-01,-3.566496604213596072e-02,-3.546554004774413738e-01
6.600000000000000311e-02,-1.842825044759656139e-01,1.716571765597812438e-01,-2.975866964167737660e-01
6.700000000000000400e-02,4.531110900344671732e-02,3.555692011213528181e-01,-1.980978336274907270e-01
6.800000000000000488e-02,2.810255358718428687e-01,5.080439422824017948e-01,-8.038103534627144553e-02
6.900000000000000577e-02,4.893069822946070069e-01,5.869823677887608948e-01,6.498649321783214750e-02
7.000000000000000666e-02,6.496556002736554314e-01,5.812570944652321048e-01,2.002472958127931579e-01
7.099999999999999367e-02,7.011285273243865745e-01,4.929331320332311916e-01,3.021616874459515656e-01
7.199999999999999456e-02,6.881345765728509312e-01,3.773205099088473569e-01,3.886640705731101431e-01
7.299999999999999545e-02,5.576308638814440055e-01,1.677914582603319549e-01,4.011523764885303600e-01
7.399999999999999634e-02,3.787242466640750038e-01,-4.552208040086782453e-02,3.838015404815953713e-01
7.499999999999999722e-02,1.491550386710170928e-01,-2.589134056711985266e-01,2.929785380431733643e-01
7.599999999999999811e-02,-1.366703778601001951e-01,-4.413856788514999852e-01,1.888128273813555191e-01
7.699999999999999900e-02,-3.821250169097761828e-01,-5.677248790500133424e-01,5.381716687328497173e-02
7.799999999999999989e-02,-5.972485091297673465e-01,-5.874182941833444582e-01,-1.077702104489149521e-01
7.900000000000000078e-02,-7.164884768925539049e-01,-5.747217266832904681e-01,-2.551355569151293468e-01
8.000000000000000167e-02,-7.440100695702424050e-01,-4.649035143472692311e-01,-3.594609348854306274e-01
8.100000000000000255e-02,-6.907031368778808744e-01,-2.840363191171694779e-01,-4.309829983632448291e-01
8.200000000000000344e-02,-5.423394780549403160e-01,-9.339601219559230671e-02,-4.465313943095132743e-01
8.300000000000000433e-02,-3.207183730374222885e-01,1.307940136637745221e-01,-4.089711531842074588e-01
8.400000000000000522e-02,-5.244776434095393958e-02,3.456677438919344980e-01,-3.171789128100019339e-01
8.500000000000000611e-02,2.012336491716938680e-01,4.930826619481571416e-01,-1.823426414116946781e-01
8.599999999999999312e-02,4.556430575212992995e-01,5.770911873602514452e-01,-1.472120732208374513e-02
8.699999999999999400e-02,6.477802548251836434e-01,5.955425892378835018e-01,1.234562677762719579e-01
8.799999999999999489e-02,7.451665486525707038e-01,5.452757779814544348e-01,2.933169903016835667e-01
8.899999999999999578e-02,7.523878962133770942e-01,3.968797781021383697e-01,3.909217472149782435e-01
8.999999999999999667e-02,6.554593078455120958e-01,2.149943042596659248e-01,4.471218715098594365e-01
9.099999999999999756e-02,4.866916900349523289e-01,5.266952952071808636e-03,4.619635769562153160e-01
9.199999999999999845e-02,2.435666717282747862e-01,-1.978180736988674471e-01,3.984262512365673303e-01
9.299999999999999933e-02,-3.146585338912363805e-02,-4.053980063249211230e-01,2.826917065766983983e-01
9.400000000000000022e-02,-2.848830010385511868e-01,-5.233759964680851917e-01,1.607609736244400567e-01
9.500000000000000111e-02,-5.118543352701948601e-01,-5.839434639315660425e-01,-1.098315879464878755e-02
9.600000000000000200e-02,-6.593295821669962198e-01,-5.666736654830804021e-01,-1.740334831099638879e-01
9.700000000000000289e-02,-7.596599608974821116e-01,-4.448758824503139531e-01,-3.091604389836811184e-01
9.800000000000000377e-02,-7.157573178680023407e-01,-3.131392555766194796e-01,-4.047782571297940390e-01
9.900000000000000466e-02,-5.817434759049306958e-01,-1.427090065675481190e-01,-4.633019279582333283e-01
1.000000000000000056e-01,-3.952781239635885790e-01,7.524768009550809877e-02,-4.466314455191380262e-01
1.010000000000000064e-01,-1.654669144819012339e-01,2.580672932010658616e-01,-3.786955866681178118e-01
1.019999999999999934e-01,9.855382801089873634e-02,4.108139149208850371e-01,-2.538273564115596237e-01
1.029999999999999943e-01,3.421256713785518211e-01,5.105860411938317744e-01,-1.162648049073031209e-01
1.039999999999999952e-01,5.411853276114678701e-01,5.435177196785191400e-01,4.970827572419519308e-02
1.049999999999999961e-01,6.658240135563082696e-01,4.807136276518264584e-01,1.970744497866983580e-01
1.059999999999999970e-01,6.847232088074746148e-01,3.830564215529818073e-01,3.333740596871039297e-01
1.069999999999999979e-01,6.395296826009305713e-01,2.307988608624616245e-01,4.003189541044843702e-01
1.079999999999999988e-01,5.082126028655491456e-01,3.817427155301458125e-02,4.369785780913405526e-01
1.089999999999999997e-01,3.170503523430641124e-01,-1.359064396995612323e-01,4.253465692057123437e-01
1.100000000000000006e-01,8.412849340562265910e-02,-2.974196061460765983e-01,3.239016506184235200e-01
1.110000000000000014e-01,-1.662416284346800166e-01,-4.155799728948127991e-01,2.330432498321357571e-01
1.120000000000000023e-01,-3.751564192651527518e-01,-4.769031577127221255e-01,8.715347873404791224e-02
1.130000000000000032e-01,-5.406326229929208083e-01,-4.653606238139847973e-01,-7.397270939611595708e-02
1.140000000000000041e-01,-6.374991805587979510e-01,-4.004719877613818757e-01,-2.271367811280851912e-01
1.150000000000000050e-01,-6.282663706250410929e-01,-2.892788648042144972e-01,-3.221945863164158985e-01
1.160000000000000059e-01,-5.621610857143877205e-01,-1.378573371748761101e-01,-3.921659012601473315e-01
1.170000000000000068e-01,-4.274623023956755086e-01,1.733307182047495038e-02,-4.146843415769836949e-01
1.179999999999999938e-01,-2.037149438908766041e-01,1.753877338894716531e-01,-3.731782586141906832e-01
1.189999999999999947e-01,-2.438791440487151144e-02,2.994000006644523815e-01,-2.967184326808998129e-01
1.199999999999999956e-01,1.929544615507295391e-01,3.622469136236564080e-01,-1.654589369213199934e-01
1.209999999999999964e-01,3.692689680658413631e-01,3.922665906090026522e-01,-3.118380009393435445e-02
1.219999999999999973e-01,4.943444996965866700e-01,3.508903527055735605e-01,9.326861197353579491e-02
1.229999999999999982e-01,5.614612202890936210e-01,3.047041211187274667e-01,2.098889359512867425e-01
1.239999999999999991e-01,5.696569246476953507e-01,1.967207945911855771e-01,2.925799111846906775e-01
1.250000000000000000e-01,4.675091783004065582e-01,7.310767803310753987e-02,3.567289695835402785e-01
1.260000000000000009e-01,3.187566941809538146e-01,-3.510100822983484858e-02,3.501097940487821192e-01
1.270000000000000018e-01,1.636455240613348960e-01,-1.454551417842520344e-01,3.171357790394885856e-01
1.280000000000000027e-01,-4.157313415408468715e-02,-2.465097977446788213e-01,2.351588229395221441e-01
1.290000000000000036e-01,-2.120163954412370433e-01,-3.118066298639940448e-01,1.287362897637955306e-01
1.300000000000000044e-01,-3.345699197468375852e-01,-3.172665850600394077e-01,1.437467213558743517e-02
1.310000000000000053e-01,-4.164161462329208918e-01,-2.681427129031775380e-01,-9.097064648187759561e-02
1.320000000000000062e-01,-4.592996868885373951e-01,-2.345382146261882905e-01,-2.018182556141173978e-01
1.330000000000000071e-01,-4.130307118256003052e-01,-1.239920298005694060e-01,-2.926354635702912987e-01
1.340000000000000080e-01,-3.559030597360157699e-01,-2.717046959483733481e-02,-2.915024747566850594e-01
1.350000000000000089e-01,-2.206049549559840339e-01,6.703006595449825800e-02,-2.934235843162277257e-01
1.360000000000000098e-01,-9.151729486865226026e-02,1.236337273540817766e-01,-2.666569716714273786e-01
1.370000000000000107e-01,4.309668764772937866e-02,1.904780761152929103e-01,-1.804657970220139573e-01
1.380000000000000115e-01,1.798276325813499832e-01,2.188686654104991802e-01,-9.731327537789037641e-02
1.390000000000000124e-01,2.624083011152081868e-01,2.078972307089343163e-01,8.936053604424188876e-03
1.400000000000000133e-01,3.205088451680715989e-01,1.836416390715521763e-01,8.410144503666761029e-02
1.409999999999999865e-01,3.350772655539614453e-01,1.474513847914340203e-01,1.717802617560482137e-01
1.419999999999999873e-01,3.103188996681680578e-01,9.568240839174736723e-02,2.265622369995420049e-01
1.429999999999999882e-01,2.471045215386036831e-01,2.311119475493631295e-02,2.169220559320386155e-01
1.439999999999999891e-01,1.644354400424273555e-01,-8.752926815992000814e-03,2.142781394125340133e-01
1.449999999999999900e-01,6.278600665088039656e-02,-5.373062808499463189e-02,1.943484148396297795e-01
1.459999999999999909e-01,-2.873192855323301528e-02,-8.066667611098646273e-02,1.608278618411914940e-01
1.469999999999999918e-01,-9.469855163150563138e-02,-9.977285091982286691e-02,6.972181750008858703e-02
1.479999999999999927e-01,-1.591640234014528310e-01,-1.069944584035998764e-01,-2.299020748103474711e-03
1.489999999999999936e-01,-2.100033210500372727e-01,-1.116994404951009018e-01,-6.952752430547508300e-02
1.499999999999999944e-01,-2.121916924917090219e-01,-1.008937185642250628e-01,-1.303452275564331020e-01
1.509999999999999953e-01,-1.703457851721925653e-01,-8.522212363501893706e-02,-1.455749086994217179e-01
1.519999999999999962e-01,-1.547643640471806081e-01,-5.721057653074621691e-02,-1.579987198631598866e-01
1.529999999999999971e-01,-1.086806217365582222e-01,-3.833775596356779614e-02,-1.603509087411961742e-01
1.539999999999999980e-01,-6.401521918119067178e-02,-3.567751056108525026e-02,-1.315322943236436615e-01
1.549999999999999989e-01,-2.884411200253663224e-02,-1.323205753923111828e-02,-1.109354529407555190e-01
1.559999999999999998e-01,1.223085167088977694e-02,-1.554534837257141519e-02,-4.369512024610640311e-02
1.570000000000000007e-01,4.718491835158727249e-02,1.926506669048558273e-02,-8.087597581381915889e-04
1.580000000000000016e-01,7.212321186991176025e-02,3.105160380072537890e-02,3.350981106571317841e-02
1.590000000000000024e-01,8.811687448531756173e-02,6.998683529607475917e-02,5.712491648351004231e-02
1.600000000000000033e-01,8.163162250375015361e-02,8.733654311658135827e-02,7.673548364448946890e-02
1.610000000000000042e-01,9.620450188769359701e-02,1.077592067647561436e-01,8.543247792285903197e-02
1.620000000000000051e-01,1.066339763604906010e-01,1.213343437565163885e-01,1.058389520951004137e-01
1.630000000000000060e-01,1.016640827789168644e-01,1.251226940793371267e-01,9.423058031337755436e-02
1.640000000000000069e-01,9.006025460590666443e-02,1.197722296565878891e-01,6.689647600897356827e-02
1.650000000000000078e-01,9.819461785951755228e-02,6.979161677112584450e-02,6.262372729482341971e-02
1.660000000000000087e-01,9.113430079611826995e-02,2.905191912586140360e-02,3.438969231710840152e-02
1.670000000000000095e-01,5.989703821561438019e-02,-1.509384819846828173e-02,5.493393742531801731e-03
1.680000000000000104e-01,2.342829601271220405e-02,-7.842479631228049808e-02,1.692960540188670135e-02
1.690000000000000113e-01,-9.768720069762116057e-03,-1.528209573506827124e-01,2.828039207727747837e-03
1.700000000000000122e-01,-7.732458389967560020e-02,-2.032224126355896554e-01,-2.085957905068439380e-02
1.710000000000000131e-01,-1.169611526861617096e-01,-2.272216749795482327e-01,-1.212386795082315456e-02
1.719999999999999862e-01,-1.774130700016128270e-01,-2.373633794239200234e-01,-4.144484548837284316e-02
1.729999999999999871e-01,-1.977352269282667829e-01,-1.913721463760569563e-01,-4.583558808257321565e-02
1.739999999999999880e-01,-2.163417956972835399e-01,-1.539239549805633267e-01,-5.700415401498823420e-02
1.749999999999999889e-01,-2.017576132813861944e-01,-5.985034780935063331e-02,-7.713480386758395091e-02
1.759999999999999898e-01,-1.736525906969005051e-01,4.585944867462918989e-02,-7.760864710048508142e-02
1.769999999999999907e-01,-1.090324430451576065e-01,1.152314017955289871e-01,-8.162213420789131424e-02
1.779999999999999916e-01,-3.138800900309524078e-02,2.332054522563951904e-01,-8.538159219320480553e-02
1.789999999999999925e-01,7.203314661314316747e-02,3.098055417907439324e-01,-5.392849887238854167e-02
1.799999999999999933e-01,1.732555227300776601e-01,3.273761567254331872e-01,-1.162328712953560050e-02
1.809999999999999942e-01,2.286635911819161759e-01,3.279043002299284471e-01,1.056626669170163471e-03
1.819999999999999951e-01,3.242339169614517624e-01,2.576521938551671886e-01,6.322311498508344230e-02
1.829999999999999960e-01,3.497061241522643193e-01,1.829121734782871711e-01,1.010928793829496131e-01
1.839999999999999969e-01,3.218540503707599809e-01,6.883038183953596456e-02,1.215520308864335014e-01
1.849999999999999978e-01,2.817792765890247964e-01,-8.304256161523689006e-02,1.629159852270293807e-01
1.859999999999999987e-01,1.587380201019466253e-01,-2.174474582953087598e-01,1.713415743314727624e-01
1.869999999999999996e-01,4.497092769635519655e-02,-3.059199933255750681e-01,1.685317847097835831e-01
1.880000000000000004e-01,-1.195062167539124864e-01,-3.960750396439491339e-01,1.225284214185211606e-01
1.890000000000000013e-01,-2.468472307325595139e-01,-4.199366596511405203e-01,6.512668810523045138e-02
1.900000000000000022e-01,-3.760101613569239443e-01,-3.868330210209370290e-01,1.153501941603853401e-02
1.910000000000000031e-01,-4.510774658419427485e-01,-3.145677445763049862e-01,-6.268957063788915818e-02
1.920000000000000040e-01,-4.619173075015128305e-01,-1.723731440792490854e-01,-1.460205216187519806e-01
1.930000000000000049e-01,-4.309409713972196521e-01,-2.336681566377239033e-02,-1.968491254448285210e-01
1.940000000000000058e-01,-3.470539158358939558e-01,1.362002865753890180e-01,-2.333805503337085530e-01
1.950000000000000067e-01,-1.839702978371498265e-01,2.965997559757824753e-01,-2.419423404270062417e-01
1.960000000000000075e-01,-1.552138462614217722e-02,4.038660316322060795e-01,-2.156169362309921789e-01
1.970000000000000084e-01,1.817827173176853051e-01,4.939496664249606872e-01,-1.694672510656322351e-01
1.980000000000000093e-01,3.291837335639370976e-01,4.928914677193521054e-01,-8.700638467383747798e-02
1.990000000000000102e-01,4.691500500545164321e-01,4.258029062016879251e-01,-1.379536457512247662e-02
2.000000000000000111e-01,5.494872795432814705e-01,3.066022455112707989e-01,9.701283676919900123e-02
2.010000000000000120e-01,5.473812773743000903e-01,1.475327010075540846e-01,2.045704753289959432e-01
2.020000000000000129e-01,4.908468807344119611e-01,-4.608381720377788260e-02,2.613333113724476964e-01
2.030000000000000138e-01,3.578829184612594139e-01,-2.276656501128965504e-01,3.057349446254906677e-01
2.039999999999999869e-01,1.759607636822038412e-01,-3.859849578403039549e-01,3.041282781950303549e-01
2.049999999999999878e-01,-2.652703709626197393e-02,-4.903870406266762072e-01,2.615444439646652519e-01
2.059999999999999887e-01,-2.497120354103683770e-01,-5.513021363803443098e-01,1.888836828727130934e-01
2.069999999999999896e-01,-4.415966097621852327e-01,-5.255165051171455382e-01,1.070073737726339458e-01
2.079999999999999905e-01,-5.826770918498846985e-01,-4.375710004869367564e-01,-1.626044943653068287e-02
2.089999999999999913e-01,-6.552614390753874751e-01,-2.728583022425418170e-01,-1.264166051053837447e-01
2.099999999999999922e-01,-6.252653608092626492e-01,-9.825864438354173225e-02,-2.405064548389750645e-01
2.109999999999999931e-01,-5.441925193800101201e-01,1.167560926127206161e-01,-3.137942558640232638e-01
2.119999999999999940e-01,-3.628757437476329284e-01,3.038547244956302795e-01,-3.488964842948175660e-01
2.129999999999999949e-01,-1.514153464427454299e-01,4.457841428341929868e-01,-3.437452880142524148e-01
2.139999999999999958e-01,1.043306674069210405e-01,5.570218547098338968e-01,-3.043733700575257939e-01
2.149999999999999967e-01,3.487129085026591802e-01,5.958232112914245704e-01,-2.184573024867761670e-01
2.159999999999999976e-01,5.532102166811614374e-01,5.299285554238751805e-01,-1.129445884287430951e-01
2.169999999999999984e-01,6.627509757232912246e-01,3.979259201829158377e-01,3.506549644903597662e-02
2.179999999999999993e-01,7.125622712999589714e-01,2.010561748058869724e-01,1.660220387988785018e-01
2.190000000000000002e-01,6.553570540544360057e-01,1.200924193138344295e-02,2.954549252026791861e-01
2.200000000000000011e-01,5.241810621486882038e-01,-2.001020420140613709e-01,3.718125866442494321e-01
2.210000000000000020e-01,3.092434520605479853e-01,-3.942052300720514935e-01,4.093876703555042740e-01
2.220000000000000029e-01,7.229627811978167617e-02,-5.420334046528139105e-01,3.935218577829208142e-01
2.230000000000000038e-01,-1.793658896931452917e-01,-6.066148545026283090e-01,3.209192169047044851e-01
2.240000000000000047e-01,-4.310369088532012283e-01,-5.999339083674465334e-01,2.204810830343377492e-01
2.250000000000000056e-01,-6.162981900934124679e-01,-4.984888526998559888e-01,8.730249664500834561e-02
2.260000000000000064e-01,-7.361278551755664479e-01,-3.478487918506809051e-01,-6.200778117591384392e-02
2.270000000000000073e-01,-7.334395564201058315e-01,-1.653553708381678422e-01,-2.091652218160526822e-01
2.280000000000000082e-01,-6.619184521860571602e-01,6.192679934762751470e-02,-3.183695138438708550e-01
2.290000000000000091e-01,-4.882004305597610339e-01,2.808105085347814556e-01,-4.056979909659075845e-01
2.300000000000000100e-01,-2.589828999503698825e-01,4.700566171808584492e-01,-4.336237651011238814e-01
2.310000000000000109e-01,2.282279572049850970e-03,5.668158809292681566e-01,-4.124245800225442293e-01
2.320000000000000118e-01,2.777322258768127328e-01,6.133509206782521428e-01,-3.382551446783438331e-01
2.330000000000000127e-01,5.055135576570392031e-01,5.478253686263800937e-01,-2.084660244452203326e-01
2.340000000000000135e-01,6.775660107279839472e-01,4.578585285003875516e-01,-7.848282366892861406e-02
2.349999999999999867e-01,7.540785880127497398e-01,2.588552424173098943e-01,9.809193635655477639e-02
2.359999999999999876e-01,7.411845812772880349e-01,4.826947304385800080e-02,2.575792676045429719e-01
2.369999999999999885e-01,6.254316808085205182e-01,-1.461114145678304443e-01,3.756128574484197125e-01
2.379999999999999893e-01,4.272201729993457819e-01,-3.523726133229814761e-01,4.387560360440846408e-01
2.389999999999999902e-01,1.748675215204132660e-01,-4.968176596455750604e-01,4.541035720623342598e-01
2.399999999999999911e-01,-9.861207983422783097e-02,-5.765847333031040023e-01,4.080191430965552368e-01
2.409999999999999920e-01,-3.329745441857680510e-01,-5.689791956602151535e-01,3.222693980669015801e-01
2.419999999999999929e-01,-5.532148699773452583e-01,-5.068147532172867509e-01,1.750091673880284360e-01
2.429999999999999938e-01,-7.085159270413674548e-01,-3.763913312971612357e-01,1.891589583127960272e-02
2.439999999999999947e-01,-7.365413286000325188e-01,-1.753554704126157326e-01,-1.453384573194324014e-01
2.449999999999999956e-01,-7.071838108521542043e-01,3.584113868722094143e-02,-2.844364490706093873e-01
2.459999999999999964e-01,-5.640779784612104386e-01,2.089332541189037884e-01,-3.839142889420020244e-01
2.469999999999999973e-01,-3.450029413372231457e-01,3.852695800844523899e-01,-4.558723037343272999e-01
2.479999999999999982e-01,-1.046364285538532030e-01,4.906225699059059697e-01,-4.489067142723855985e-01
2.489999999999999991e-01,1.654310782045804173e-01,5.467168793501379076e-01,-3.968427922663446128e-01
2.500000000000000000e-01,4.081831914087571955e-01,5.131056689732288456e-01,-2.651363904751957712e-01
2.510000000000000009e-01,5.939735420650499309e-01,4.200468337094647731e-01,-1.477452505028052643e-01
2.520000000000000018e-01,6.742803280038262015e-01,2.829542928659737333e-01,7.343066564869519738e-03
2.530000000000000027e-01,7.155856661465761492e-01,9.962110806549899500e-02,1.742544777516035204e-01
2.540000000000000036e-01,6.460068738365284391e-01,-7.765486237860307062e-02,3.126068540385247285e-01
2.550000000000000044e-01,4.622206231923501329e-01,-2.579420317721126676e-01,3.842885530678187833e-01
2.560000000000000053e-01,2.768230080658438119e-01,-4.035506177302804476e-01,4.332338515890065689e-01
2.570000000000000062e-01,3.581596137425222676e-02,-4.675967643507484839e-01,4.259733605956501634e-01
2.580000000000000071e-01,-2.172596698756127376e-01,-4.736863702361689965e-01,3.540259772461102905e-01
2.590000000000000080e-01,-4.269891075402103553e-01,-4.269302501170687547e-01,2.507421250554021652e-01
2.600000000000000089e-01,-5.920038603381798659e-01,-3.321697419774389815e-01,1.173682027789191562e-01
2.610000000000000098e-01,-6.228274395345824166e-01,-2.095644070947725590e-01,-3.412503218575521635e-02
2.620000000000000107e-01,-6.323590538528452987e-01,-3.449047161522408173e-02,-1.864517940911158689e-01
2.630000000000000115e-01,-5.301781021161628971e-01,1.215708867239641139e-01,-2.995290808493810131e-01
2.640000000000000124e-01,-3.714846092125113630e-01,2.558949667852896681e-01,-3.867198386526402021e-01
2.650000000000000133e-01,-1.616983656604485675e-01,3.528137519842444725e-01,-4.173083780421173450e-01
2.660000000000000142e-01,3.829450006301761411e-02,3.991250616592274536e-01,-3.890247896713499021e-01
2.670000000000000151e-01,2.412679041195994190e-01,3.885616513886128165e-01,-3.333492332602883690e-01
2.680000000000000160e-01,4.149911633410179324e-01,3.280587075090969362e-01,-1.966043135412596787e-01
2.690000000000000169e-01,5.174747619947940303e-01,2.417614583470235057e-01,-6.109953777032296751e-02
2.700000000000000178e-01,5.583823823762081862e-01,1.194182744213855979e-01,6.580395738660509142e-02
2.710000000000000187e-01,5.461162329859121645e-01,9.477490864518755068e-03,2.007150194856042458e-01
2.720000000000000195e-01,4.430547938241759520e-01,-1.282829674214282234e-01,2.859418313406497103e-01
2.730000000000000204e-01,2.817775562170689585e-01,-2.333080161272442221e-01,3.607415890962319405e-01
2.740000000000000213e-01,1.033592795214351157e-01,-3.006009678253019346e-01,3.646339405511372367e-01
2.750000000000000222e-01,-6.657635330372659033e-02,-3.057690741359893050e-01,3.354603390244607630e-01
2.760000000000000231e-01,-2.449774260030045947e-01,-2.983615429932437446e-01,2.598047403893755103e-01
2.770000000000000240e-01,-3.689592369725929188e-01,-2.386959919994144363e-01,1.662038404203660114e-01
2.780000000000000249e-01,-4.536919537008027303e-01,-1.588978586897417111e-01,5.263822423897875774e-02
2.790000000000000258e-01,-4.512270440168885677e-01,-6.721604858952331951e-02,-6.683738477786750620e-02
2.800000000000000266e-01,-4.338188929661853099e-01,5.491086144917123497e-03,-1.725249190682669187e-01
2.810000000000000275e-01,-3.302695650203823496e-01,1.083127734834394978e-01,-2.620537854220668095e-01
2.819999999999999729e-01,-2.030925640300953183e-01,1.691532567413317756e-01,-2.950906002645503068e-01
2.829999999999999738e-01,-5.975811170408167061e-02,2.084059236221530165e-01,-3.159064768323822658e-01
2.839999999999999747e-01,8.693132277429396759e-02,2.359811614404344338e-01,-2.745393634082373691e-01
2.849999999999999756e-01,2.109550650092473500e-01,2.043611044855298819e-01,-2.069798313070040918e-01
2.859999999999999765e-01,2.918349618266709022e-01,1.649986682019598250e-01,-1.270154894271798285e-01
2.869999999999999774e-01,3.494592718798638642e-01,1.095384157956871413e-01,-3.397906194456756096e-02
2.879999999999999782e-01,3.396462913100757874e-01,4.429799484633806239e-02,6.581230810867431946e-02
2.889999999999999791e-01,2.989527006222315042e-01,3.909253746207350805e-03,1.522305043367339072e-01
2.899999999999999800e-01,2.326665138757963158e-01,-5.709950855373370493e-02,2.160034017723115041e-01
2.909999999999999809e-01,1.526936702995948247e-01,-9.099580116125752238e-02,2.447062587184467009e-01
2.919999999999999818e-01,2.104276567590174923e-02,-1.186385983365526170e-01,2.421218407663350281e-01
2.929999999999999827e-01,-5.320049782850256453e-02,-1.130835342447667063e-01,2.125766167580435406e-01
2.939999999999999836e-01,-1.217866200204061333e-01,-1.174368561644925368e-01,1.622653387417528903e-01
2.949999999999999845e-01,-1.848306832450958836e-01,-9.967412643348354251e-02,8.130724619460184821e-02
2.959999999999999853e-01,-1.975783531214588551e-01,-6.863905135056723450e-02,8.975141365388680098e-03
2.969999999999999862e-01,-2.201653608342567514e-01,-6.315873994190103480e-02,-5.972023666210257709e-02
2.979999999999999871e-01,-2.001526419456406691e-01,-4.557680109010243952e-02,-1.173911716317699722e-01
2.989999999999999880e-01,-1.487684083746027841e-01,-1.874168761207805831e-02,-1.549874060157485356e-01
2.999999999999999889e-01,-1.191338905147049515e-01,-1.064872470601520814e-02,-1.699281749106602013e-01
3.009999999999999898e-01,-4.428246810088427854e-02,2.503227243905812097e-02,-1.492180414965027513e-01
3.019999999999999907e-01,1.441259036306408040e-03,3.341720957150972476e-02,-1.379767823666708249e-01
3.029999999999999916e-01,4.764252566037487091e-02,5.244664189370948360e-02,-9.893341363950594602e-02
3.039999999999999925e-01,7.742963831571504640e-02,6.393853103289416639e-02,-5.783787656122248849e-02
3.049999999999999933e-01,8.876976513040528427e-02,9.286149170193262747e-02,-2.390587004357090650e-02
3.059999999999999942e-01,1.112333233471903965e-01,1.011703587948131894e-01,2.364517769076137851e-02
3.069999999999999951e-01,1.058111610138997849e-01,1.116232885439646799e-01,7.139940832093212564e-02
3.079999999999999960e-01,1.088869678164275101e-01,1.202821692746419702e-01,9.717367872595653044e-02
3.089999999999999969e-01,9.176353998183130189e-02,1.156270997211117646e-01,8.950480062512068680e-02
3.099999999999999978e-01,8.607045617233413659e-02,8.344266038654106488e-02,8.852464999954029468e-02
3.109999999999999987e-01,7.654544276093548649e-02,5.885499726304132401e-02,9.369419497938091812e-02
3.119999999999999996e-01,8.451258189977410573e-02,1.110332967615098275e-02,4.795683547971980182e-02
3.130000000000000004e-01,6.195732426913160701e-02,-6.850634847310085873e-02,6.533542655661708776e-02
3.140000000000000013e-01,4.766560228316055192e-02,-1.304256073213669875e-01,2.302203096683061445e-02
3.150000000000000022e-01,2.693709651986773285e-02,-1.931140815164097968e-01,2.671035403857979773e-02
3.160000000000000031e-01,-1.937211756354030590e-02,-2.188619859137712897e-01,1.128932686164455575e-03
3.170000000000000040e-01,-8.955211167122480165e-02,-2.288836056069775970e-01,-1.137189593391437978e-02
3.180000000000000049e-01,-1.350189827658976327e-01,-2.150489839760799382e-01,-1.516856585319050800e-02
3.190000000000000058e-01,-1.768240563464157644e-01,-1.553703503848276879e-01,-3.295375924248740429e-02
3.200000000000000067e-01,-2.023947943549985473e-01,-8.694842542348892034e-02,-3.469073313796688929e-02
3.210000000000000075e-01,-2.155304174537140127e-01,7.557086117347765371e-03,-3.850075805119003436e-02
3.220000000000000084e-01,-2.093934214683849382e-01,1.067466234104085948e-01,-7.878280619755891057e-02
3.230000000000000093e-01,-1.546383029403952114e-01,1.931415194278463254e-01,-8.180421892553209340e-02
3.240000000000000102e-01,-8.140357825502121669e-02,2.755265699750488184e-01,-6.936822833483083373e-02
3.250000000000000111e-01,-5.857386307906780817e-03,3.110559367659567198e-01,-8.077750426235696946e-02
3.260000000000000120e-01,1.087301774577740243e-01,3.227424412172915646e-01,-6.609170099211091054e-02
3.270000000000000129e-01,2.043952446877233542e-01,2.707339510880317768e-01,-7.459010792892500907e-02
3.280000000000000138e-01,2.755981826842597848e-01,1.883616863532043828e-01,-3.679757556960401577e-02
3.290000000000000147e-01,3.395701933238983172e-01,9.371195372103292842e-02,-2.539943377418442654e-03
3.300000000000000155e-01,3.249345145045728911e-01,-4.707171363578029760e-02,3.881340302171677747e-02
3.310000000000000164e-01,3.024528707886033896e-01,-1.514425423427430417e-01,8.122640893282992436e-02
3.320000000000000173e-01,2.271918688792557706e-01,-2.806577617767256339e-01,1.303710056168083109e-01
3.330000000000000182e-01,1.224360130426484228e-01,-3.656432537349810219e-01,1.561355492677400647e-01
3.340000000000000191e-01,-1.065220470732985980e-02,-4.033389752995121813e-01,1.458841742563449784e-01
3.350000000000000200e-01,-1.537795783647333825e-01,-3.833203939111113900e-01,1.496191822175555464e-01
3.360000000000000209e-01,-2.719056475228863179e-01,-3.278304570131929108e-01,1.276660979280959396e-01
3.370000000000000218e-01,-3.806807167890690069e-01,-2.256443032238985291e-01,8.387451109875702915e-02
3.380000000000000226e-01,-4.365088690970164720e-01,-6.928589434153480109e-02,4.714667269638827402e-03
3.390000000000000235e-01,-4.440533958779028234e-01,8.350801925162461281e-02,-5.186906328567801594e-02
3.400000000000000244e-01,-3.960934603486822025e-01,2.493394591045806075e-01,-1.168920889927300838e-01
3.410000000000000253e-01,-2.928381243795027955e-01,3.734481664790004762e-01,-1.754428425626063659e-01
3.420000000000000262e-01,-1.389115919956770695e-01,4.748903109228785890e-01,-2.300088184711528427e-01
3.430000000000000271e-01,3.209102032984608582e-02,4.828524519545396299e-01,-2.302952334239980470e-01
3.439999999999999725e-01,1.894324665967139776e-01,4.395604326369410564e-01,-2.041756552863469576e-01
3.449999999999999734e-01,3.713060703445318356e-01,3.402010883162391308e-01,-1.854388675666420461e-01
3.459999999999999742e-01,4.799630544224693374e-01,1.907651446416348540e-01,-1.202514504047908772e-01
3.469999999999999751e-01,5.426429426155077174e-01,2.608860715158602215e-03,-1.139096122773502508e-02
3.479999999999999760e-01,5.429134884439880127e-01,-1.707936580010784855e-01,6.780763625943769801e-02
3.489999999999999769e-01,4.674364892399084925e-01,-3.355302417668856174e-01,1.516778813272099957e-01
3.499999999999999778e-01,3.217016920239877953e-01,-4.614395274923802082e-01,2.522173286776158707e-01
3.509999999999999787e-01,1.187990658398140748e-01,-5.314688083300658228e-01,2.935141140900247025e-01
3.519999999999999796e-01,-8.709216246049132637e-02,-5.374396583500276048e-01,3.057955484548504077e-01
3.529999999999999805e-01,-3.006392208769700369e-01,-4.513166442867790340e-01,2.751551746509354190e-01
3.539999999999999813e-01,-4.941225471840852146e-01,-3.274366208538727063e-01,2.168282965708984156e-01
3.549999999999999822e-01,-6.046412703257049159e-01,-1.604260069931539578e-01,1.184623668020613613e-01
3.559999999999999831e-01,-6.320390517058912527e-01,4.884802734854325895e-02,3.295928142516140608e-02
3.569999999999999840e-01,-6.097661885272069870e-01,2.464990281491666047e-01,-9.766384495466941262e-02
3.579999999999999849e-01,-4.939871225056272075e-01,4.219192520663097024e-01,-2.144397229073763400e-01
3.589999999999999858e-01,-2.906859256994230867e-01,5.443393031294941897e-01,-2.986816628220086423e-01
3.599999999999999867e-01,-6.205947052901290145e-02,5.929555062491602690e-01,-3.551877754142250265e-01
3.609999999999999876e-01,1.722335237992024259e-01,5.509264182218434058e-01,-3.340905665664951063e-01
3.619999999999999885e-01,3.941056190496322609e-01,4.380049533319764765e-01,-3.403763031735062006e-01
3.629999999999999893e-01,5.747485397170101207e-01,3.023340236915866286e-01,-2.272910503046942643e-01
3.639999999999999902e-01,6.712337153853291660e-01,6.404060998765274959e-02,-1.262716452532599565e-01
3.649999999999999911e-01,6.983065455680427247e-01,-1.458716241517001300e-01,9.721874099598851876e-03
3.659999999999999920e-01,6.409994065547469644e-01,-3.326977300735804999e-01,1.304597141130675875e-01
3.669999999999999929e-01,4.871747944208887904e-01,-4.899668967894955651e-01,2.618851156745558018e-01
3.679999999999999938e-01,2.641930018546484460e-01,-5.749154035094685700e-01,3.388225042067963821e-01
3.689999999999999947e-01,1.617179586187368623e-02,-5.844202114996492892e-01,4.201781254496789741e-01
3.699999999999999956e-01,-2.549722686204836108e-01,-5.327153838775241512e-01,4.095869138215812999e-01
3.709999999999999964e-01,-4.770642594675896797e-01,-3.919949208533763385e-01,3.515763487268058762e-01
3.719999999999999973e-01,-6.427335134972838038e-01,-2.112675803909406513e-01,2.458202501274836527e-01
3.729999999999999982e-01,-7.372439693547463424e-01,1.136863045099328548e-02,1.136184117415089401e-01
3.739999999999999991e-01,-7.367076494024419331e-01,2.030016025486144071e-01,-3.019702652574535531e-02
3.750000000000000000e-01,-6.306363243559550691e-01,4.091397450948426884e-01,-1.677585294987498921e-01
3.760000000000000009e-01,-4.485473875019800882e-01,5.407907300859295940e-01,-2.954220391868270790e-01
3.770000000000000018e-01,-1.956849392665352405e-01,6.104978411870369825e-01,-3.879365660151216644e-01
3.780000000000000027e-01,8.352368230397727578e-02,5.800328170167443620e-01,-4.325229375266985143e-01
3.790000000000000036e-01,3.372717785401959101e-01,4.843995864492730008e-01,-4.242516697295491968e-01
3.800000000000000044e-01,5.674168723284405136e-01,3.412840960250921318e-01,-3.483087905912259918e-01
3.810000000000000053e-01,6.941778534758362706e-01,1.323220518627296061e-01,-2.243236145685894023e-01
3.820000000000000062e-01,7.508118362084419406e-01,-8.640469454779312053e-02,-1.093069746845248408e-01
3.830000000000000071e-01,7.269208467002784557e-01,-2.962448224131306040e-01,6.070635893957471163e-02
3.840000000000000080e-01,5.783873804505177407e-01,-4.470538338847717674e-01,2.201459793706341261e-01
3.850000000000000089e-01,3.830393374810850404e-01,-5.567576362801313072e-01,3.338681882254909694e-01
3.860000000000000098e-01,1.181602700679516144e-01,-5.822089881102968656e-01,4.198004000429689242e-01
3.870000000000000107e-01,-1.635301962000063614e-01,-5.381682347080205542e-01,4.469677051043438043e-01
3.880000000000000115e-01,-4.160223861680616420e-01,-4.358645253696818433e-01,4.297251917999591053e-01
3.890000000000000124e-01,-6.167105580599453463e-01,-2.401226813031721585e-01,3.496105504373068773e-01
3.900000000000000133e-01,-7.242944126427556251e-01,-4.765597895980158705e-02,2.216111659524344080e-01
3.910000000000000142e-01,-7.435264403122883170e-01,1.482089155545355252e-01,5.677832704275241615e-02
3.920000000000000151e-01,-6.941103701073351173e-01,3.679515529782113603e-01,-8.985674401610417583e-02
3.930000000000000160e-01,-5.185668177517473998e-01,4.806347557900457201e-01,-2.436961916068381695e-01
3.940000000000000169e-01,-2.911871049974616987e-01,5.310420556098174316e-01,-3.630933254689919232e-01
3.950000000000000178e-01,-2.648317803672793277e-02,5.323852555146345589e-01,-4.395924250140546552e-01
3.960000000000000187e-01,2.224228179857927201e-01,4.563994473935618079e-01,-4.458400534457209741e-01
3.970000000000000195e-01,4.552498510367247730e-01,3.335179811610344824e-01,-4.115281651948231034e-01
3.980000000000000204e-01,6.190030703337697782e-01,1.337138363865807700e-01,-3.056653953120893608e-01
3.990000000000000213e-01,7.202068005541707452e-01,-3.189463443252865682e-02,-1.773063920654784908e-01
4.000000000000000222e-01,6.958413741181860290e-01,-2.102863578623345719e-01,-6.568763678484502988e-03
4.010000000000000231e-01,5.972499702426988799e-01,-3.696081673830783343e-01,1.338512921140944112e-01
4.020000000000000240e-01,4.487973924001457116e-01,-4.500263596618220840e-01,2.767412334079247804e-01
4.030000000000000249e-01,2.085392673881123204e-01,-4.846741742389819030e-01,3.899036706782444406e-01
4.040000000000000258e-01,-3.887906676025754821e-02,-4.596786262932665013e-01,4.414520194351595483e-01
4.050000000000000266e-01,-2.840577214214866086e-01,-3.684498306115040478e-01,4.318130354853270125e-01
4.060000000000000275e-01,-4.874911499778633028e-01,-2.400966764818281141e-01,3.809444430050497044e-01
4.069999999999999729e-01,-6.003299814146108027e-01,-8.355951802495358016e-02,2.847517474764870715e-01
4.079999999999999738e-01,-6.564326513086342629e-01,7.190299715737974440e-02,1.367643601282486077e-01
4.089999999999999747e-01,-6.185936441762053262e-01,2.268458163751640166e-01,-8.575455152008328724e-03
4.099999999999999756e-01,-4.961195862783717714e-01,3.396279850908078268e-01,-1.566366591179622347e-01
4.109999999999999765e-01,-3.314280919674558179e-01,4.086656698643217345e-01,-2.720664416976545930e-01
4.119999999999999774e-01,-1.348272479522887313e-01,4.135726048448017389e-01,-3.645522939741787094e-01
4.129999999999999782e-01,9.573693750747938602e-02,3.575504113754016111e-01,-4.138005407072687380e-01
4.139999999999999791e-01,2.879142625154812452e-01,2.668558931322124739e-01,-4.061799386582484739e-01
4.149999999999999800e-01,4.828832861606842664e-01,1.614795834364549931e-01,-3.379765588592340553e-01
4.159999999999999809e-01,5.427732518085439661e-01,2.961902344874807469e-02,-2.229610338127547275e-01
4.169999999999999818e-01,5.822366988345185623e-01,-9.889148403097126894e-02,-1.097434584959302434e-01
4.179999999999999827e-01,5.212741765692903151e-01,-2.173816137976619656e-01,1.378365831255833930e-02
4.189999999999999836e-01,4.082394745552352933e-01,-2.900411505951328017e-01,1.807049878601424409e-01
4.199999999999999845e-01,2.481581781232851669e-01,-3.226298777970471043e-01,2.691509476338617701e-01
4.209999999999999853e-01,6.040439713409297834e-02,-3.071457887262984410e-01,3.490146083630338292e-01
4.219999999999999862e-01,-1.328677368318350871e-01,-2.750608578935778148e-01,3.649979425643578579e-01
4.229999999999999871e-01,-2.882404852354604197e-01,-2.045725788966047121e-01,3.529333511937061130e-01
4.239999999999999880e-01,-4.064355878991931514e-01,-1.043631889628944404e-01,2.830307533823425148e-01
4.249999999999999889e-01,-4.582451387734395865e-01,5.739951972265506901e-03,2.012808728399394231e-01
4.259999999999999898e-01,-4.804351043063815330e-01,8.034574781134472266e-02,6.808878054494982290e-02
4.269999999999999907e-01,-3.973987963645911337e-01,1.713995056123635841e-01,-3.210387998402647325e-02
4.279999999999999916e-01,-3.126217719285800389e-01,2.145837709149419625e-01,-1.578763431590928246e-01
4.289999999999999925e-01,-1.703318819235181691e-01,2.254352084133888767e-01,-2.420855231813835995e-01
4.299999999999999933e-01,-2.853630224899347118e-02,2.140453248982043810e-01,-3.212381324857301323e-01
4.309999999999999942e-01,1.161453556749923038e-01,1.996035923682584479e-01,-3.128662327455371539e-01
4.319999999999999951e-01,2.391852279803264314e-01,1.164339340968389980e-01,-2.842431953470369588e-01
4.329999999999999960e-01,3.084447423309852887e-01,7.241557547747631829e-02,-2.347932907973817873e-01
4.339999999999999969e-01,3.519045770043622290e-01,-3.868986634811169383e-03,-1.385098076297067160e-01
4.349999999999999978e-01,3.613211977018780940e-01,-4.325779718766303850e-02,-5.784449629522548514e-02
4.359999999999999987e-01,2.824106932576362916e-01,-9.245553213524872194e-02,4.249555950216064165e-02
4.369999999999999996e-01,2.236119238600950410e-01,-1.114924749329583159e-01,1.440647023898068146e-01
4.380000000000000004e-01,1.282632320211999077e-01,-1.183257105702415629e-01,2.186814793257572664e-01
4.390000000000000013e-01,1.264407866820861648e-02,-1.351748038364422311e-01,2.538852956597509869e-01
4.400000000000000022e-01,-9.136184295825619528e-02,-1.102042754022607429e-01,2.551205570324641125e-01
4.410000000000000031e-01,-1.553922259847058396e-01,-7.782621556152664877e-02,2.276326569630435781e-01
4.420000000000000040e-01,-2.177613232878818361e-01,-6.497263345525297606e-02,1.687900662133010599e-01
4.430000000000000049e-01,-2.124879460361328298e-01,-3.910379173652220319e-02,1.076228636893840768e-01
4.440000000000000058e-01,-2.317978359009442157e-01,-7.934395072647733652e-03,4.042208508611651319e-02
4.450000000000000067e-01,-1.863149211295159202e-01,2.104504587113989467e-03,-4.450995832186124823e-02
4.460000000000000075e-01,-1.450696780231129634e-01,1.146778702815107881e-02,-9.420088028809957270e-02
4.470000000000000084e-01,-8.950879914640991197e-02,2.567250084101651425e-02,-1.637465335180641468e-01
4.480000000000000093e-01,-2.755616771117641237e-02,4.628878709661717050e-02,-1.730052934815693444e-01
4.490000000000000102e-01,2.407413636569010959e-02,5.746600444488212528e-02,-1.716382058738071259e-01
4.500000000000000111e-01,6.793153517130130770e-02,8.886556669725990953e-02,-1.531235091850018382e-01
4.510000000000000120e-01,8.217229336686292240e-02,1.016887833101690203e-01,-1.179221725415349475e-01
4.520000000000000129e-01,9.533639011212921566e-02,1.224152290059569853e-01,-9.171462725486011214e-02
4.530000000000000138e-01,1.002769107204882770e-01,1.174912994434014063e-01,-2.796965126512772348e-02
4.540000000000000147e-01,9.894401321535813143e-02,1.080253292545369087e-01,2.215662784210695527e-02
4.550000000000000155e-01,9.716463551318772762e-02,8.611617479228923788e-02,5.289929366672457833e-02
4.560000000000000164e-01,9.782919001935432013e-02,4.030019693803229414e-02,8.084401637824502329e-02
4.570000000000000173e-01,7.529452359064461864e-02,2.857461864477383283e-03,9.681710990128457317e-02
4.580000000000000182e-01,8.651430944758156660e-02,-6.738472652526170115e-02,1.074180702836148443e-01
4.590000000000000191e-01,4.892792648435431713e-02,-9.651277156038760852e-02,1.076198730656390823e-01
4.600000000000000200e-01,3.526240102029241930e-02,-1.555723583500374374e-01,8.422180285236090247e-02
4.610000000000000209e-01,2.013694668445918309e-02,-1.956977384610739390e-01,4.717315227715782044e-02
4.620000000000000218e-01,-1.748840712633960640e-02,-2.168284473360437004e-01,3.985210371642759763e-02
4.630000000000000226e-01,-4.746306317356001336e-02,-2.115022367260527281e-01,1.515325628718023829e-02
4.640000000000000235e-01,-9.539096361016521919e-02,-1.708154319517884712e-01,-2.673767854163869480e-03
4.650000000000000244e-01,-1.312245115997427436e-01,-9.709130045157517153e-02,-9.785121934587236517e-03
4.660000000000000253e-01,-1.436933254870658427e-01,-2.956228537992812086e-02,-2.715265729769492445e-02
4.670000000000000262e-01,-2.044004970966485368e-01,7.071569426688011084e-02,-4.053204489087153944e-02
4.680000000000000271e-01,-1.835112698343648319e-01,1.509941570280040057e-01,-4.702523405877977875e-02
4.689999999999999725e-01,-1.662077556562329972e-01,2.483485764272644614e-01,-6.276082123005395641e-02
4.699999999999999734e-01,-1.166316361686535602e-01,2.985616654044203067e-01,-7.749444811542474665e-02
4.709999999999999742e-01,-7.383705368892945486e-02,3.147660325050191665e-01,-6.944079416436485519e-02
4.719999999999999751e-01,1.858699038689025015e-02,2.890679833429370404e-01,-7.363146434701535459e-02
4.729999999999999760e-01,1.190196248082437819e-01,2.240470838595206848e-01,-8.188407212720588690e-02
4.739999999999999769e-01,1.986393086511942796e-01,1.209388494290658256e-01,-6.488579528612425928e-02
4.749999999999999778e-01,2.790531505505164378e-01,-2.739304683614526229e-03,-4.669921257487891220e-02
4.759999999999999787e-01,2.984408814924688902e-01,-1.239639872233535001e-01,-4.378829280246390038e-02
4.769999999999999796e-01,3.284606018470428435e-01,-2.530145997911957267e-01,-7.640567140073261168e-03
4.779999999999999805e-01,2.755413454163835874e-01,-3.446078325148710375e-01,4.907807390357567939e-02
4.789999999999999813e-01,1.925864705850333647e-01,-3.923493270735914917e-01,6.662399196204141227e-02
4.799999999999999822e-01,9.327079176789296322e-02,-4.018682783873836484e-01,1.070018305407650222e-01
4.809999999999999831e-01,-3.684613192610557836e-02,-3.675396978427209471e-01,1.393314841809661364e-01
4.819999999999999840e-01,-1.812804344678394797e-01,-2.572816210044004404e-01,1.697146525921588711e-01
4.829999999999999849e-01,-2.962339133234514477e-01,-1.241751399719541460e-01,1.394884720079331564e-01
4.839999999999999858e-01,-3.890172665739811686e-01,4.031187569597760589e-02,1.199333503077078117e-01
4.849999999999999867e-01,-4.328967954008437480e-01,1.901333061754778841e-01,8.852235258179659561e-02
4.859999999999999876e-01,-4.437351130227315532e-01,3.340510366532713493e-01,2.069462561774816980e-02
4.869999999999999885e-01,-3.616583663779170954e-01,4.254307117734033028e-01,-3.912269584757985252e-02
4.879999999999999893e-01,-2.583723195420551400e-01,4.716306650062125905e-01,-9.517630130570532698e-02
4.889999999999999902e-01,-8.756337354974630394e-02,4.560947418986536217e-01,-1.829946628438753053e-01
4.899999999999999911e-01,9.179944769237420588e-02,3.777849697127881878e-01,-1.974937471484199125e-01
4.909999999999999920e-01,2.528047304196339162e-01,2.569304391758658324e-01,-2.196393144465171032e-01
4.919999999999999929e-01,4.035045457268165991e-01,7.556639818761928806e-02,-2.191616830167972541e-01
4.929999999999999938e-01,5.081891797667855704e-01,-8.666856600935030075e-02,-1.785049683797851061e-01
4.939999999999999947e-01,5.542952550447811655e-01,-2.918810747639969394e-01,-1.261589883126618405e-01
4.949999999999999956e-01,5.308917252093998673e-01,-4.208341794715163009e-01,-6.130241033648053950e-02
4.959999999999999964e-01,4.250345752554188228e-01,-5.171145600507837115e-01,5.266476542463868760e-02
4.969999999999999973e-01,2.584644971386530488e-01,-5.271150735844833957e-01,1.224084616703461081e-01
4.979999999999999982e-01,5.646204512093580541e-02,-4.739507640724907600e-01,2.251494584867223536e-01
4.989999999999999991e-01,-1.374630258809478311e-01,-3.822270047924481995e-01,2.648142532181035902e-01
5.000000000000000000e-01,-3.325026511813783947e-01,-2.058276772508394747e-01,2.924944486545707489e-01
5.010000000000000009e-01,-5.133715298082216494e-01,-1.516327624605522464e-02,2.846353021117708493e-01
5.020000000000000018e-01,-5.991116443311640394e-01,1.934856292429511793e-01,2.421065771344521611e-01
5.030000000000000027e-01,-6.302122485993264522e-01,3.670041511252798982e-01,1.467147229197082181e-01
5.040000000000000036e-01,-5.678955223376680461e-01,5.059154160525467514e-01,3.735927097937390140e-02
5.050000000000000044e-01,-4.590108703396960088e-01,5.753450330859449791e-01,-7.072097224841247809e-02
5.060000000000000053e-01,-2.574208050167712813e-01,5.547405813016804688e-01,-1.702825908900165996e-01
5.070000000000000062e-01,-1.062082795724671701e-02,4.951643828034889561e-01,-2.810961814440547379e-01
5.080000000000000071e-01,2.255061240789007215e-01,3.419680198821152817e-01,-3.341058350995155801e-01
5.090000000000000080e-01,4.452818286164450523e-01,1.448926576246571674e-01,-3.514562400619435922e-01
5.100000000000000089e-01,5.962272871620283299e-01,-8.111622019920479432e-02,-3.414674090836810616e-01
5.110000000000000098e-01,6.898472797044432614e-01,-2.832280860701987257e-01,-2.553754537628196708e-01
5.120000000000000107e-01,6.859124507679308369e-01,-4.529346007888116477e-01,-1.292713872994425417e-01
5.130000000000000115e-01,5.888483280664617014e-01,-5.681875737850651253e-01,-3.378668137421008549e-02
5.140000000000000124e-01,4.253299756445692026e-01,-5.947599616938997746e-01,9.716432068909754138e-02
5.150000000000000133e-01,1.986408368051081896e-01,-5.628562089098808618e-01,2.287203204253295818e-01
5.160000000000000142e-01,-4.763141248786455922e-02,-4.593395417715162021e-01,3.213047518737414121e-01
5.170000000000000151e-01,-3.032127341715181723e-01,-2.752284866137502672e-01,3.866845144500312137e-01
5.180000000000000160e-01,-5.398375251493406912e-01,-7.186068495349802465e-02,3.928794191001931391e-01
5.190000000000000169e-01,-6.723820710590938665e-01,1.459132011030531695e-01,3.585899181567580585e-01
5.200000000000000178e-01,-7.516749889831014775e-01,3.605147942010462070e-01,2.690507573746845904e-01
5.210000000000000187e-01,-7.157374393281726865e-01,5.144248525716706988e-01,1.529754313004216548e-01
5.220000000000000195e-01,-5.865219241794548122e-01,5.996254628954481580e-01,1.864169586117438507e-02
5.230000000000000204e-01,-3.882877286798605554e-01,5.986841625655554555e-01,-1.384010096180456340e-01
5.240000000000000213e-01,-1.378543324226048639e-01,5.378076470596897529e-01,-2.858418360303678352e-01
5.250000000000000222e-01,1.247831202450955662e-01,3.882326218154223962e-01,-3.706154921608468822e-01
5.260000000000000231e-01,4.188520733816115671e-01,1.941117854329504067e-01,-4.439161197678664350e-01
5.270000000000000240e-01,5.770857344461662874e-01,-3.667681605650046500e-02,-4.296647046039638873e-01
5.280000000000000249e-01,7.270589794157541474e-01,-2.305221485934730585e-01,-3.889489236475349165e-01
5.290000000000000258e-01,7.582109359348307986e-01,-4.134185108805797371e-01,-2.608635281610739987e-01
5.300000000000000266e-01,6.937461708241542402e-01,-5.429750740286006794e-01,-1.380663374612589311e-01
5.310000000000000275e-01,5.495664133467400569e-01,-5.786326723931046745e-01,3.691875584756897088e-02
5.320000000000000284e-01,3.136542300718670462e-01,-5.533952175743221957e-01,1.755212622278219392e-01
5.330000000000000293e-01,4.836014882029882056e-02,-4.640852196040997080e-01,2.866941359307110249e-01
5.340000000000000302e-01,-2.320226382542716070e-01,-2.939808152634998395e-01,4.084085157011001499e-01
5.350000000000000311e-01,-4.542498053866961261e-01,-9.954695473050802212e-02,4.594165753946133357e-01
5.360000000000000320e-01,-6.397008240832746662e-01,1.032526823822431938e-01,4.386323116999412686e-01
5.370000000000000329e-01,-7.512576474848968733e-01,2.951249281011708581e-01,3.643477486050652470e-01
5.380000000000000338e-01,-7.485504668524798344e-01,4.489157503698292806e-01,2.643257750908981074e-01
5.390000000000000346e-01,-6.440735270273949542e-01,5.320695429195879678e-01,1.139286674617995959e-01
5.400000000000000355e-01,-4.584628448621616004e-01,5.446979467679273768e-01,-6.158189796645773678e-02
5.410000000000000364e-01,-2.286927186542893342e-01,4.993204595585791217e-01,-2.318274543296394152e-01
5.420000000000000373e-01,2.578906554878930210e-02,3.886462069358677662e-01,-3.374644187004224860e-01
5.430000000000000382e-01,2.952914183310744178e-01,2.224093982131696290e-01,-4.181298825776609274e-01
5.440000000000000391e-01,5.111733270807321539e-01,2.315970651548024048e-02,-4.595520606468133651e-01
5.450000000000000400e-01,6.652813506856334325e-01,-1.547609998988197788e-01,-4.196331629776793304e-01
5.460000000000000409e-01,7.155917552853702235e-01,-3.242826348816001958e-01,-3.426480368515714692e-01
5.470000000000000417e-01,6.915133116878612318e-01,-4.140835672620425956e-01,-2.318465150446016865e-01
5.480000000000000426e-01,5.745001546960153416e-01,-4.827566441865662750e-01,-7.478998111964113571e-02
5.490000000000000435e-01,3.877318949390439751e-01,-4.834699948179568274e-01,9.431073615570474689e-02
5.500000000000000444e-01,1.603184174164173081e-01,-4.150253138468351088e-01,2.582162071351061239e-01
5.510000000000000453e-01,-9.906102167816763227e-02,-2.949602424546736157e-01,3.633860722361649254e-01
5.520000000000000462e-01,-3.277579934333674228e-01,-1.283514951830907747e-01,4.274786069612933059e-01
5.530000000000000471e-01,-5.214038291616730492e-01,3.708144320343025047e-02,4.532506166064003694e-01
5.540000000000000480e-01,-6.289428092889378652e-01,1.856823709616564622e-01,4.153164856164404672e-01
5.550000000000000488e-01,-6.746595212918957696e-01,3.158423754356742275e-01,3.117610870428612069e-01
5.560000000000000497e-01,-6.103428915735348292e-01,3.989857935855530280e-01,1.687922066181587744e-01
5.570000000000000506e-01,-4.921551215831543868e-01,4.209761666224483001e-01,3.337310918707799001e-02
5.580000000000000515e-01,-2.904239282924325760e-01,4.035235855008452166e-01,-1.082508870071101498e-01
5.590000000000000524e-01,-7.334340267209549236e-02,3.191470878695552016e-01,-2.518915424062097008e-01
5.600000000000000533e-01,1.674035816705632673e-01,1.931873789681766151e-01,-3.580095857196146092e-01
5.610000000000000542e-01,3.490804045775844355e-01,6.068595850538476694e-02,-4.295753969966200070e-01
5.620000000000000551e-01,4.971791449344462599e-01,-6.525708446712188970e-02,-4.071534576358080137e-01
5.629999999999999449e-01,5.685966998103125780e-01,-1.971184255171144206e-01,-3.598700465946686466e-01
5.639999999999999458e-01,5.723645666794877629e-01,-2.921605259163048696e-01,-2.601285939852010509e-01
5.649999999999999467e-01,5.105530242433230503e-01,-3.348451488413455857e-01,-1.347273385554579039e-01
5.659999999999999476e-01,3.760238341158908537e-01,-3.421038141779474406e-01,-7.721706348336154248e-03
5.669999999999999485e-01,1.939268181148190440e-01,-2.882948413674073507e-01,1.356698564500697091e-01
5.679999999999999494e-01,2.168664816110285262e-02,-2.231912846377033799e-01,2.575908828764498226e-01
5.689999999999999503e-01,-1.711517571634331714e-01,-1.250345267205340560e-01,3.457904449732620566e-01
5.699999999999999512e-01,-3.227195600605092807e-01,-3.789037630095636044e-02,3.902604865995425998e-01
5.709999999999999520e-01,-4.427969165610654567e-01,6.545638046978718982e-02,3.737769017614573364e-01
5.719999999999999529e-01,-4.827650714499640006e-01,1.544752791446120377e-01,3.187176430869537724e-01
5.729999999999999538e-01,-4.717616725601800898e-01,2.161118453886382573e-01,2.212385813255762501e-01
5.739999999999999547e-01,-3.951463726878697291e-01,2.520922522081703865e-01,8.940964760538454292e-02
5.749999999999999556e-01,-2.944571609241389276e-01,2.251055631857503958e-01,-2.073158661454333959e-02
5.759999999999999565e-01,-1.240890081263826550e-01,2.079529141173201978e-01,-1.523581820656624841e-01
5.769999999999999574e-01,1.123777165000743213e-02,1.507046286375933741e-01,-2.354237781962171538e-01
5.779999999999999583e-01,1.568733958589122734e-01,7.981018447078558342e-02,-3.080157971967815156e-01
5.789999999999999591e-01,2.656663142207280059e-01,1.844895532950381958e-02,-3.104663016543722787e-01
5.799999999999999600e-01,3.439017780782188116e-01,-3.910754583332554796e-02,-3.049867312624672810e-01
5.809999999999999609e-01,3.697187790597890600e-01,-8.977998590244973265e-02,-2.458097204577368022e-01
5.819999999999999618e-01,3.570125197428947739e-01,-1.265959757273439068e-01,-1.697028594239709531e-01
5.829999999999999627e-01,2.933914051070255491e-01,-1.425560802675776839e-01,-8.182432583764082112e-02
5.839999999999999636e-01,2.021141713750382873e-01,-1.380993577888731394e-01,2.932251306918307043e-02
5.849999999999999645e-01,8.337326873415795703e-02,-1.238143623968216978e-01,1.271341306147702466e-01
5.859999999999999654e-01,-2.896566402403206661e-02,-9.515204121903876600e-02,2.039513704420353457e-01
5.869999999999999662e-01,-1.172676543215583206e-01,-6.683075317556085027e-02,2.503458675124643484e-01
5.879999999999999671e-01,-1.940841593572331658e-01,-4.362088062662953375e-02,2.576863449322606692e-01
5.889999999999999680e-01,-2.331812012883596186e-01,-1.414015531303926092e-02,2.479519248141440479e-01
5.899999999999999689e-01,-2.456643315278778938e-01,1.972174880829296369e-03,2.053550522119045596e-01
5.909999999999999698e-01,-2.377023337093840394e-01,2.965970624514257040e-02,1.355392687793046114e-01
5.919999999999999707e-01,-1.885490422281442535e-01,4.536494104279991529e-02,5.597332262355678156e-02
5.929999999999999716e-01,-1.304997915540780928e-01,4.659617994982150069e-02,-4.677622409685850552e-02
5.939999999999999725e-01,-8.429681720868699435e-02,7.801976635605571697e-02,-9.742887772024871884e-02
5.949999999999999734e-01,4.707324388139928761e-03,7.137192390641138029e-02,-1.588843661772112170e-01
5.959999999999999742e-01,2.975415084448281011e-02,1.009937191551095875e-01,-1.673448514953431443e-01
5.969999999999999751e-01,8.566592034754279272e-02,9.780643843756918476e-02,-1.917452267391070719e-01
5.979999999999999760e-01,9.638729837211421070e-02,1.035187239483750521e-01,-1.791550725426566959e-01
5.989999999999999769e-01,1.202566658745453931e-01,1.125359620698568874e-01,-1.402742743741845211e-01
5.999999999999999778e-01,1.317262328410722938e-01,9.486852882758099736e-02,-1.028609485152641584e-01
6.009999999999999787e-01,1.204516150556370069e-01,5.713269231515030050e-02,-4.065248879881891431e-02
6.019999999999999796e-01,1.044379642193030838e-01,2.674205143877778773e-02,2.982738338811097636e-02
6.029999999999999805e-01,8.518009785416368052e-02,-3.789625744176799982e-02,6.682177913527233282e-02
6.039999999999999813e-01,6.774328717074676320e-02,-9.951066033496337726e-02,9.248322812302789409e-02
6.049999999999999822e-01,5.819833408261237268e-02,-1.470481428904394372e-01,1.346574190006809002e-01
6.059999999999999831e-01,4.395702452647750474e-02,-1.827795624121221485e-01,1.227593149971869940e-01
6.069999999999999840e-01,2.293448430782933992e-02,-2.155685794336740790e-01,1.226735862022724083e-01
6.079999999999999849e-01,4.083979333695321109e-03,-1.929345097748644544e-01,1.057271947014692681e-01
6.089999999999999858e-01,-1.960344731421514650e-02,-1.798618742466041587e-01,6.158042809623107128e-02
6.099999999999999867e-01,-7.579421001506798927e-02,-1.220988932041621039e-01,3.750146558155287302e-02
6.109999999999999876e-01,-1.055976196503346787e-01,-3.805457261757987791e-02,2.875265831041311920e-02
6.119999999999999885e-01,-1.395613680422808089e-01,5.879965426439886372e-02,4.201218006440430273e-03
6.129999999999999893e-01,-1.707604311971679667e-01,1.395818356465079457e-01,-1.191401625987273741e-02
6.139999999999999902e-01,-1.613040123138099746e-01,2.336918384540423999e-01,-3.322576112712907759e-02
6.149999999999999911e-01,-1.996028718494061438e-01,2.877109499939096149e-01,-3.892742471697253209e-02
6.159999999999999920e-01,-1.443143620007724948e-01,2.967907882358237770e-01,-4.774118462006017582e-02
6.169999999999999929e-01,-9.577434305329053654e-02,2.892346974909524859e-01,-5.320212669697729768e-02
6.179999999999999938e-01,-4.915129304063212135e-02,2.366740543483661363e-01,-4.574880394982158011e-02
6.189999999999999947e-01,4.031293756348942880e-02,1.633037747131311224e-01,-4.594291795579501236e-02
6.199999999999999956e-01,1.445388825809152678e-01,3.376542213861768310e-02,-8.032009463044308128e-02
6.209999999999999964e-01,2.072544235919927813e-01,-7.526772252018963660e-02,-7.369311939153892765e-02
6.219999999999999973e-01,2.705687472009186689e-01,-2.050184405583400093e-01,-8.013805975056555175e-02
6.229999999999999982e-01,2.913798668944997949e-01,-3.222161718285904697e-01,-5.848164901966871471e-02
6.239999999999999991e-01,2.971293537918490157e-01,-3.732199999836223192e-01,-3.825361391983165410e-02
6.250000000000000000e-01,2.736782917359474321e-01,-3.938738620425649151e-01,-2.091830658561742392e-04
6.260000000000000009e-01,1.717393756825195128e-01,-3.387607200589914935e-01,5.153722109626000802e-02
6.270000000000000018e-01,5.233671573758517243e-02,-2.855984388907223392e-01,5.880597869046066961e-02
6.280000000000000027e-01,-8.053333987796118532e-02,-1.506067633000234274e-01,1.062815774662798640e-01
6.290000000000000036e-01,-1.982508688664353369e-01,-1.478670280019836643e-02,1.225460094869186278e-01
6.300000000000000044e-01,-3.106257420875206399e-01,1.418706542858036990e-01,1.423013523441138128e-01
6.310000000000000053e-01,-3.979503750708721643e-01,3.052078811194187113e-01,1.469024576060729836e-01
6.320000000000000062e-01,-4.277938291112901581e-01,4.033603327190701249e-01,1.127615761401801892e-01
6.330000000000000071e-01,-4.055147331818746426e-01,4.651267075491774539e-01,7.427220102510957711e-02
6.340000000000000080e-01,-3.400893362040061096e-01,4.594457557361079636e-01,5.008369703931783018e-02
6.350000000000000089e-01,-2.117309934669063254e-01,4.045929653970949391e-01,-1.864463894892556817e-02
6.360000000000000098e-01,-5.475108613535435709e-02,2.929776573698041897e-01,-8.587719728943955799e-02
6.370000000000000107e-01,1.119989167917219836e-01,1.349785786683745936e-01,-1.512109966027881391e-01
6.380000000000000115e-01,2.858253221439369662e-01,-4.496068541806752528e-02,-1.846050481953898370e-01
6.390000000000000124e-01,4.409692294342206220e-01,-2.366530891975372475e-01,-2.192129565046274375e-01
6.400000000000000133e-01,4.943205505295715785e-01,-3.882373437019445150e-01,-1.960250191108105500e-01
6.410000000000000142e-01,5.303481356037578198e-01,-4.784837960071288698e-01,-1.810735769771739390e-01
6.420000000000000151e-01,4.904798128522399048e-01,-5.325185136425670818e-01,-1.301411955319377867e-01
6.430000000000000160e-01,3.842132730119651729e-01,-4.996103038532659912e-01,-6.810579520409415499e-02
6.440000000000000169e-01,2.159559357188431672e-01,-4.003621974275555218e-01,2.192060525427226569e-02
6.450000000000000178e-01,1.777820965032541473e-02,-2.681046419973195372e-01,1.052933286153184406e-01
6.460000000000000187e-01,-2.080407780418017383e-01,-6.850669743403033085e-02,1.945861020461628343e-01
6.470000000000000195e-01,-3.919449678014385596e-01,1.517139567440254355e-01,2.593789951491598522e-01
6.480000000000000204e-01,-5.151935374609646345e-01,3.340660647828593288e-01,2.908606673765597450e-01
6.490000000000000213e-01,-6.095429865880447329e-01,4.664167547951218462e-01,2.813390300256892185e-01
6.500000000000000222e-01,-6.297433472452493852e-01,5.687556735588750190e-01,2.415113834989100483e-01
6.510000000000000231e-01,-5.511117673940707506e-01,5.761530714412113063e-01,1.734544606596064298e-01
6.520000000000000240e-01,-4.059061156712434615e-01,5.219328047330875631e-01,6.011983937171855308e-02
6.530000000000000249e-01,-2.063073911095205659e-01,3.817311174206165503e-01,-3.878581256309374808e-02
6.540000000000000258e-01,5.086233565903260090e-02,1.892317897739295152e-01,-1.501564765718094718e-01
6.550000000000000266e-01,2.828235815550240173e-01,-1.870249353557931413e-02,-2.376660110416654870e-01
6.560000000000000275e-01,4.809480027125977442e-01,-2.073752299011182021e-01,-3.060132998399827664e-01
6.570000000000000284e-01,6.278731639633191586e-01,-4.085796206120758112e-01,-3.368649536543211198e-01
6.580000000000000293e-01,6.973682989589266024e-01,-5.483002804910873662e-01,-3.245731708931167137e-01
6.590000000000000302e-01,6.681821933041368622e-01,-6.158589448951179435e-01,-2.718398148730600261e-01
6.600000000000000311e-01,5.651060213169061264e-01,-5.909327577118381747e-01,-1.786105192088328353e-01
6.610000000000000320e-01,3.802901762393330887e-01,-4.879776728013335840e-01,-6.008190154080306905e-02
6.620000000000000329e-01,1.368219019158658512e-01,-3.300027729892103245e-01,6.571584021107221285e-02
6.630000000000000338e-01,-1.259708460090774862e-01,-1.362935786530808102e-01,2.037654890134777685e-01
6.640000000000000346e-01,-3.617422969353896178e-01,9.678333065471832197e-02,3.006745571646885495e-01
6.650000000000000355e-01,-5.514796528089453975e-01,3.057863240189755416e-01,3.765669012109572611e-01
6.660000000000000364e-01,-6.959551542098896260e-01,4.616727917928662439e-01,3.928826502515051500e-01
6.670000000000000373e-01,-7.362410229086805424e-01,5.703215913468793197e-01,3.686302661056590768e-01
6.680000000000000382e-01,-6.856528782509268005e-01,6.122151147802201709e-01,2.981313989448240998e-01
6.690000000000000391e-01,-5.570819812338847488e-01,5.606304323689530467e-01,1.696822231482111309e-01
6.700000000000000400e-01,-3.232387106563456847e-01,4.302344512259977938e-01,4.195522024390366256e-02
6.710000000000000409e-01,-7.873041978466276125e-02,2.542482581583720980e-01,-9.492002152571595019e-02
6.720000000000000417e-01,1.950644867319388520e-01,4.379925829872143017e-02,-2.498666052589302022e-01
6.730000000000000426e-01,4.579937882690506834e-01,-1.696346805597757357e-01,-3.524808062777859963e-01
6.740000000000000435e-01,6.298503086042227528e-01,-3.655088396251771621e-01,-4.278334456987656909e-01
6.750000000000000444e-01,7.307031979149708478e-01,-5.172257115980719577e-01,-4.348443502745935607e-01
6.760000000000000453e-01,7.440153952446040275e-01,-5.930072242956400119e-01,-3.775464336901951934e-01
6.770000000000000462e-01,6.736555481349256747e-01,-5.804834773800112702e-01,-2.861311323305328336e-01
6.780000000000000471e-01,4.818576536265042343e-01,-5.025661565483683368e-01,-1.644331016952824409e-01
6.790000000000000480e-01,2.619519534503504388e-01,-3.528318993569820039e-01,-7.751242729663823487e-03
6.800000000000000488e-01,-1.768899847083202706e-02,-1.819304693290799690e-01,1.474871195216865827e-01
6.810000000000000497e-01,-2.838417074378743465e-01,3.542438083401865112e-02,3.022947692810148412e-01
6.820000000000000506e-01,-5.136843324633704189e-01,2.437051576043781087e-01,3.780308311912465857e-01
6.830000000000000515e-01,-6.888070989940250355e-01,4.196540704388602161e-01,4.377423112508696534e-01
6.840000000000000524e-01,-7.425645218319422147e-01,5.128327492434407997e-01,4.547620681401956522e-01
6.850000000000000533e-01,-7.499181494067699294e-01,5.418648063929980552e-01,3.902682114701119809e-01
6.860000000000000542e-01,-6.077995047825720532e-01,5.350582019300653691e-01,2.969862619137557669e-01
6.870000000000000551e-01,-4.252226810875526786e-01,4.151046732931552574e-01,1.571114614958776801e-01
6.879999999999999449e-01,-1.636516578355437512e-01,2.669429861705883700e-01,-3.956397570933926217e-02
6.889999999999999458e-01,9.888570876380890773e-02,9.014611381910592192e-02,-1.722945201837454976e-01
6.899999999999999467e-01,3.568049934103272314e-01,-9.274299967115871846e-02,-3.171994188626320321e-01
6.909999999999999476e-01,5.570724480155240244e-01,-2.702131489994919478e-01,-3.972818892681599934e-01
6.919999999999999485e-01,6.779908857782548370e-01,-4.082988545894447596e-01,-4.498558043574226173e-01
6.929999999999999494e-01,7.265714325744897506e-01,-4.951525889607868991e-01,-4.334066260342729904e-01
6.939999999999999503e-01,6.811815823308464690e-01,-4.948261912748547764e-01,-3.634045950108449885e-01
6.949999999999999512e-01,5.491268967696565362e-01,-4.441287348788295897e-01,-2.468603333590357607e-01
6.959999999999999520e-01,3.343011156031897579e-01,-3.390614040206083035e-01,-1.026033567051523043e-01
6.969999999999999529e-01,9.488893564006785353e-02,-1.851399480057614177e-01,5.967586328024905573e-02
6.979999999999999538e-01,-1.630249217168145692e-01,-1.509547470471841839e-02,2.105255803932641889e-01
6.989999999999999547e-01,-3.850535859371748137e-01,1.479774196302988953e-01,3.196852729605088594e-01
6.999999999999999556e-01,-5.494290897769962267e-01,3.033740288328641843e-01,4.059425733441959783e-01
7.009999999999999565e-01,-6.507319975432377390e-01,3.905876641690960716e-01,4.616837348352902382e-01
7.019999999999999574e-01,-6.593871559005953786e-01,4.235968404445412672e-01,4.223957448640794365e-01
7.029999999999999583e-01,-5.906635749188823281e-01,4.195747849087513859e-01,3.267405256944507230e-01
7.039999999999999591e-01,-4.308047003745544834e-01,3.545024124573471491e-01,2.265769978092455061e-01
7.049999999999999600e-01,-2.353077069431512847e-01,2.376032649774852956e-01,6.021045102093664642e-02
7.059999999999999609e-01,-1.782742900039901990e-02,1.098951397991739243e-01,-8.773274860257306018e-02
7.069999999999999618e-01,1.896434207516149717e-01,-1.661823189979607512e-02,-2.067983193122054919e-01
7.079999999999999627e-01,3.860890131884753274e-01,-1.575565888476317677e-01,-3.321269953265433283e-01
7.089999999999999636e-01,5.239120961319274627e-01,-2.523566782672399533e-01,-3.973389077509802414e-01
7.099999999999999645e-01,5.844637240550046853e-01,-3.264181984386074764e-01,-4.150579321324360249e-01
7.109999999999999654e-01,5.709768570375245433e-01,-3.603350038844363445e-01,-3.824227996976166111e-01
7.119999999999999662e-01,4.895832129297595370e-01,-3.224409949086165517e-01,-3.200647737643294577e-01
7.129999999999999671e-01,3.443536407776282005e-01,-2.605375139490823111e-01,-1.659776961126987194e-01
7.139999999999999680e-01,1.628346770866990478e-01,-1.648848484969039629e-01,-3.728503587601524061e-02
7.149999999999999689e-01,-1.964153406083997064e-02,-5.303805350066846669e-02,1.035747637002516625e-01
7.159999999999999698e-01,-2.111115226580668747e-01,5.000813102843519597e-02,2.341089239659581156e-01
7.169999999999999707e-01,-3.639539928784029099e-01,1.276714020184536447e-01,3.239771840009660897e-01
7.179999999999999716e-01,-4.655607688764733521e-01,2.081397907594039198e-01,3.891704640274697979e-01
7.189999999999999725e-01,-4.812356074554901553e-01,2.421281041225629982e-01,3.789415022570551961e-01
7.199999999999999734e-01,-4.704408083114260952e-01,2.506894003664768000e-01,3.406560081941213403e-01
7.209999999999999742e-01,-3.869618743467628796e-01,2.215661844204927233e-01,2.425941098081015046e-01
7.219999999999999751e-01,-2.423101752548859067e-01,1.785611248514703542e-01,1.341319344295106020e-01
7.229999999999999760e-01,-1.021111926625866695e-01,1.088376425287737731e-01,1.556974658433730140e-02
7.239999999999999769e-01,5.165673332833358583e-02,3.046912976557282840e-02,-1.216954549766368771e-01
7.249999999999999778e-01,2.024144732793869972e-01,-3.104420780701242985e-02,-2.253358233319907311e-01
7.259999999999999787e-01,3.173428384674401026e-01,-1.032484684712120931e-01,-2.966215870767146545e-01
7.269999999999999796e-01,3.650322582716754027e-01,-1.296511260197791560e-01,-3.205317840364222404e-01
7.279999999999999805e-01,3.822422442361416151e-01,-1.490561302841436342e-01,-3.151549295680689533e-01
7.289999999999999813e-01,3.533683488424730901e-01,-1.476137526129431832e-01,-2.737358665880314512e-01
7.299999999999999822e-01,2.758309424800075571e-01,-1.264679128148174514e-01,-1.983629550087043780e-01
7.309999999999999831e-01,1.719972687460847582e-01,-1.087439866095324392e-01,-9.014059612281002942e-02
7.319999999999999840e-01,6.990313726939799410e-02,-7.209864768914761579e-02,1.416443830088114607e-02
7.329999999999999849e-01,-4.640870029744026404e-02,-5.824475449142632599e-02,1.094815132327571910e-01
7.339999999999999858e-01,-1.597918639167955901e-01,-1.048466781983682476e-02,1.789773499499484333e-01
7.349999999999999867e-01,-2.169157638637389807e-01,1.735301597011028318e-02,2.544694909080413847e-01
7.359999999999999876e-01,-2.604423833632732999e-01,2.347581318017519236e-02,2.637406122798901520e-01
7.369999999999999885e-01,-2.516347495239966703e-01,3.674508976513463088e-02,2.471285748051084696e-01
7.379999999999999893e-01,-2.349202102309281559e-01,5.504597406559830208e-02,2.200297524382466285e-01
7.389999999999999902e-01,-1.846560181537401368e-01,6.637666212083342954e-02,1.451935162942767921e-01
7.399999999999999911e-01,-1.150477796017269488e-01,8.620093177406754070e-02,6.961270120675079609e-02
7.409999999999999920e-01,-4.935336538162563708e-02,8.740825472243839156e-02,-8.451337717275813136e-03
7.419999999999999929e-01,1.272987904723623873e-02,9.919065254512787755e-02,-8.510851837012120558e-02
7.429999999999999938e-01,5.697795387064173711e-02,9.557690214101047244e-02,-1.502927693519256203e-01
7.439999999999999947e-01,1.002221537690914516e-01,9.517691006167448842e-02,-1.826430627615808211e-01
7.449999999999999956e-01,1.223045086724802999e-01,8.243074793385229970e-02,-2.054620321679375694e-01
7.459999999999999964e-01,1.371573689767616455e-01,5.696255526184675760e-02,-1.742083315592687087e-01
7.469999999999999973e-01,1.320472150362105856e-01,2.045487113085084699e-02,-1.481092691773534531e-01
7.479999999999999982e-01,9.867177143317920618e-02,-3.563045532774716112e-02,-1.125921437695286687e-01
7.489999999999999991e-01,1.068630487212589020e-01,-7.990419124229224124e-02,-4.708789162223090546e-02
7.500000000000000000e-01,9.165009993186322423e-02,-1.172455407809611660e-01,1.627785372022974922e-02
7.510000000000000009e-01,6.567589535700307790e-02,-1.714220238199215818e-01,5.043902913369692487e-02
7.520000000000000018e-01,5.120584751121442374e-02,-1.882848991626964730e-01,1.060795307017556588e-01
7.530000000000000027e-01,1.168376986298440973e-02,-1.786092840345097077e-01,1.167408301846206697e-01
7.540000000000000036e-01,1.168749704633621767e-02,-1.673688459023009723e-01,1.357320321625313242e-01
7.550000000000000044e-01,-2.338331394212104716e-02,-1.318741701951384182e-01,1.313302728018711785e-01
7.560000000000000053e-01,-4.706797354183773346e-02,-7.090495626382310734e-02,1.028765461255487790e-01
7.570000000000000062e-01,-8.851720643497587582e-02,9.044477299725222491e-03,7.212387734440837972e-02
7.580000000000000071e-01,-1.057925033712821677e-01,1.062655398491695463e-01,6.043586577559206113e-02
7.590000000000000080e-01,-1.355232778795432136e-01,1.803907530440787832e-01,2.751997342707722047e-02
7.600000000000000089e-01,-1.618382448347137625e-01,2.459676432664218704e-01,-7.828963321239621256e-03
7.610000000000000098e-01,-1.656468101745768307e-01,2.792815344794126187e-01,-1.298055499078603486e-02
7.620000000000000107e-01,-1.649944490982500067e-01,3.001894988814471921e-01,-2.310381722497074214e-02
7.630000000000000115e-01,-1.330220363091070557e-01,2.411951367548999248e-01,-5.415432630281064724e-02
7.640000000000000124e-01,-7.708637954403087245e-02,1.801330549875877485e-01,-5.618170686262619756e-02
7.650000000000000133e-01,-2.522037430851216053e-02,6.317435211303396025e-02,-6.095250154253171321e-02
7.660000000000000142e-01,7.819016263197656191e-02,-4.968401197619155135e-02,-7.155726154683902940e-02
7.670000000000000151e-01,1.352674110985876699e-01,-1.634462187681028078e-01,-4.791473890970055632e-02
7.680000000000000160e-01,2.277398378711897042e-01,-2.717799931932303181e-01,-6.650891780049213164e-02
7.690000000000000169e-01,2.698123350336822379e-01,-3.382522926022502596e-01,-6.601067827354395456e-02
7.700000000000000178e-01,3.001128764928559511e-01,-3.791484753156441623e-01,-4.545373313228499856e-02
7.710000000000000187e-01,2.970198316664057203e-01,-3.699881528743412806e-01,-3.878114479396592429e-02
7.720000000000000195e-01,2.318592776379438947e-01,-2.962328218502765509e-01,-2.093139516419404225e-02
7.730000000000000204e-01,1.388132881233140048e-01,-1.915445800902068618e-01,-1.822257445182078051e-02
7.740000000000000213e-01,1.809225035526865547e-02,-3.615109727256736460e-02,2.498020016915131550e-02
7.750000000000000222e-01,-1.043930911268927675e-01,8.632552454995752467e-02,6.418923175316680607e-02
7.760000000000000231e-01,-2.131474655640966109e-01,2.520397645326934999e-01,9.450769421367589962e-02
7.770000000000000240e-01,-3.296203756910299765e-01,3.600046866098772225e-01,1.215421342215757677e-01
7.780000000000000249e-01,-3.933179926220791711e-01,4.451583470111057927e-01,1.424548530590888928e-01
7.790000000000000258e-01,-4.149613389386530016e-01,4.696169012310630331e-01,1.443100155752135849e-01
7.800000000000000266e-01,-3.930017920730124459e-01,4.169505116070451045e-01,1.235644979739276283e-01
7.810000000000000275e-01,-3.187148281126368499e-01,3.302209047342946069e-01,1.156945995958544998e-01
7.820000000000000284e-01,-1.664397722642150246e-01,1.665783722699639424e-01,5.046035906235422919e-02
7.830000000000000293e-01,-2.100764623685758350e-02,-8.510544156560110457e-03,1.077467929392681399e-02
7.840000000000000302e-01,1.682523371101628529e-01,-1.781480352683745272e-01,-6.561578938272007167e-02
7.850000000000000311e-01,3.101830435683773923e-01,-3.249910144806471557e-01,-1.198202736523535095e-01
7.860000000000000320e-01,4.527690856400412578e-01,-4.609988122921070963e-01,-1.779797597892119332e-01
7.870000000000000329e-01,5.124815499685050346e-01,-5.155750375927636853e-01,-1.893266515673447115e-01
7.880000000000000338e-01,5.204389314736915795e-01,-5.196355347966988836e-01,-2.051386470610855883e-01
7.890000000000000346e-01,4.653012158669505016e-01,-4.259382934371082063e-01,-1.899113007114162643e-01
7.900000000000000355e-01,3.484217970500067540e-01,-3.073553077285866020e-01,-1.546330809816928165e-01
7.910000000000000364e-01,1.544881529324689529e-01,-1.380084528129601196e-01,-8.883252888916788603e-02
7.920000000000000373e-01,-4.247087438924141561e-02,9.748836188961461369e-02,-1.303219652374656805e-02
7.930000000000000382e-01,-2.320701604464080747e-01,2.662518224935623845e-01,8.570360215490002709e-02
7.940000000000000391e-01,-4.135867640875863227e-01,4.314250489134561217e-01,1.702144608320378116e-01
7.950000000000000400e-01,-5.400168284583861666e-01,5.424557075197377065e-01,2.404717456080258386e-01
7.960000000000000409e-01,-6.199574133198650916e-01,5.629523161861719194e-01,2.669849267064950404e-01
7.970000000000000417e-01,-5.877255374144608746e-01,5.434999084760718802e-01,2.769549377936954548e-01
7.980000000000000426e-01,-5.290683826130601064e-01,4.252759892625000426e-01,2.394686130370997368e-01
7.990000000000000435e-01,-3.274410451156685165e-01,2.701804275726746307e-01,1.789861253138613217e-01
8.000000000000000444e-01,-1.330418942190392251e-01,5.689934802467854630e-02,7.926710163928475661e-02
8.010000000000000453e-01,1.143574470076070410e-01,-1.576409831499622494e-01,-3.260313888521938069e-02
8.020000000000000462e-01,3.215961746242622654e-01,-3.483489960027342236e-01,-1.280755116322074838e-01
8.030000000000000471e-01,5.185627495348614779e-01,-5.015409154112783208e-01,-2.213071729501574214e-01
8.040000000000000480e-01,6.458849166706603917e-01,-5.911565351576112404e-01,-2.870626694227329523e-01
8.050000000000000488e-01,6.827530283060579963e-01,-6.025175141423492198e-01,-3.328318834466530429e-01
8.060000000000000497e-01,6.381654151503607375e-01,-5.289135493448202663e-01,-3.402742926185824968e-01
8.070000000000000506e-01,5.049676120291708425e-01,-3.847336775321336666e-01,-2.868395685176258758e-01
8.080000000000000515e-01,3.184518169712796110e-01,-1.890694269906887659e-01,-2.074981336410066934e-01
8.090000000000000524e-01,9.370772150758634178e-02,3.390270916484065811e-02,-9.159582460223608669e-02
8.100000000000000533e-01,-1.786622343258606194e-01,2.493276342687944791e-01,4.388741642232296680e-02
8.110000000000000542e-01,-4.273492104910892597e-01,4.135614839359197936e-01,1.730812984137110599e-01
8.120000000000000551e-01,-6.192728879639013417e-01,5.502915307773881270e-01,2.873541707621188879e-01
8.129999999999999449e-01,-7.229361952232299382e-01,6.217363640081228215e-01,3.486382678479232888e-01
8.139999999999999458e-01,-7.351162785493305929e-01,5.636155637470804391e-01,3.705069724467082715e-01
8.149999999999999467e-01,-6.658167990987040596e-01,4.770260248254689639e-01,3.813220986130048118e-01
8.159999999999999476e-01,-5.057575710740018771e-01,3.201938305735677615e-01,3.033749405824952006e-01
8.169999999999999485e-01,-2.606333241169756509e-01,1.076528713937276310e-01,1.961011149556972644e-01
8.179999999999999494e-01,2.429978749306579630e-03,-1.113865459758911214e-01,7.649056498962028550e-02
8.189999999999999503e-01,2.689276617750930853e-01,-3.088551992922554112e-01,-6.634666734996781667e-02
8.199999999999999512e-01,4.968369840771668100e-01,-4.739288780943696211e-01,-2.209861303765799645e-01
8.209999999999999520e-01,6.570684260221522077e-01,-5.752535214920395656e-01,-3.210745626114748230e-01
8.219999999999999529e-01,7.534035706634476526e-01,-5.844437213306725720e-01,-4.026063759158984845e-01
8.229999999999999538e-01,7.485491754088792193e-01,-5.486526822723447605e-01,-4.263654654045548886e-01
8.239999999999999547e-01,6.405548330703346727e-01,-4.038750937468221780e-01,-4.075615932868217328e-01
8.249999999999999556e-01,4.264013790639259449e-01,-2.288561075155220725e-01,-3.318513860685978756e-01
8.259999999999999565e-01,1.862834114494024140e-01,-2.448461670626365591e-02,-2.017745971685989126e-01
8.269999999999999574e-01,-7.777882771854754962e-02,1.841960051774908513e-01,-5.356370287523969098e-02
8.279999999999999583e-01,-3.407131791756757844e-01,3.581418738004331082e-01,1.319389982827646191e-01
8.289999999999999591e-01,-5.681108433557446880e-01,4.890059153804066083e-01,2.523287471183917052e-01
8.299999999999999600e-01,-6.907704702382931883e-01,5.642882726693612128e-01,3.713090816360841151e-01
8.309999999999999609e-01,-7.573616044116857626e-01,5.454609233206857422e-01,4.318988338100131497e-01
8.319999999999999618e-01,-7.027961018459925047e-01,4.573387104372593215e-01,4.322117844337924342e-01
8.329999999999999627e-01,-5.815324064128823967e-01,3.244310034634535489e-01,3.956508316055594165e-01
8.339999999999999636e-01,-3.560629074147466655e-01,1.459200231267999692e-01,3.138247315468793430e-01
8.349999999999999645e-01,-1.158946925959240259e-01,-4.820772564086311940e-02,1.803134548224596956e-01
8.359999999999999654e-01,1.597230625389009784e-01,-2.347348424854824867e-01,1.709083280129393770e-02
8.369999999999999662e-01,4.031138854348332856e-01,-3.947574924561594312e-01,-1.405139572256526581e-01
8.379999999999999671e-01,6.004620950194600182e-01,-4.666759468278640077e-01,-2.974292704230138695e-01
8.389999999999999680e-01,7.004425256008862677e-01,-5.116352305927183153e-01,-3.965324387112661442e-01
8.399999999999999689e-01,7.239250076162492276e-01,-4.706256294336572665e-01,-4.527383691286756551e-01
8.409999999999999698e-01,6.625095439601510483e-01,-3.989324675898647810e-01,-4.559201002019614979e-01
8.419999999999999707e-01,5.121586658532458758e-01,-2.226836899413617565e-01,-3.973080718486595164e-01
8.429999999999999716e-01,2.643774895981184647e-01,-5.913937932336013614e-02,-2.860662840148562869e-01
8.439999999999999725e-01,3.911975778234896839e-02,1.103450448986422472e-01,-1.535334550330356984e-01
8.449999999999999734e-01,-1.965903793732743099e-01,2.552352763905375577e-01,3.224182007694952751e-02
8.459999999999999742e-01,-4.441142770190805722e-01,3.780913944637015467e-01,1.806003994214575303e-01
8.469999999999999751e-01,-5.870588212061561562e-01,4.381544598391626244e-01,3.146706214719441896e-01
8.479999999999999760e-01,-6.774120955684607148e-01,4.427646140321546686e-01,4.013774828463684274e-01
8.489999999999999769e-01,-6.659764469449129809e-01,3.799549540486080734e-01,4.570253758470513294e-01
8.499999999999999778e-01,-5.568835577507802448e-01,2.902581473058802874e-01,4.360800529639172196e-01
8.509999999999999787e-01,-4.049680412769634530e-01,1.460109072214132164e-01,3.612007432874211887e-01
8.519999999999999796e-01,-1.800079137255890804e-01,2.187028417716081752e-02,2.483427410491588494e-01
8.529999999999999805e-01,3.468014033976973831e-02,-1.403910218299715684e-01,1.034417315528798620e-01
8.539999999999999813e-01,2.429673067878342640e-01,-2.553291962332179810e-01,-4.796882267743206307e-02
8.549999999999999822e-01,4.430261816781182471e-01,-3.209207647829760979e-01,-1.934368216767453075e-01
8.559999999999999831e-01,5.734527523433434748e-01,-3.410532667053773892e-01,-3.192634219741104507e-01
8.569999999999999840e-01,6.066333571767527078e-01,-3.391332131483656975e-01,-3.799593212436658263e-01
8.579999999999999849e-01,5.760693588821101940e-01,-2.893001297352021384e-01,-4.321318517470630338e-01
8.589999999999999858e-01,4.738789544098411244e-01,-2.067853467325183325e-01,-4.030822271486224628e-01
8.599999999999999867e-01,2.969048753271449903e-01,-8.460539416824720826e-02,-3.206484152704662804e-01
8.609999999999999876e-01,1.170325288684982284e-01,1.799868654726465358e-02,-2.155550709372495155e-01
8.619999999999999885e-01,-7.570989384118992360e-02,1.292824159995581146e-01,-6.409979680431557303e-02
8.629999999999999893e-01,-2.656297844280944842e-01,2.037812785784076375e-01,7.660995092373758253e-02
8.639999999999999902e-01,-4.123325236852562470e-01,2.662779451176409684e-01,2.085524497593150561e-01
8.649999999999999911e-01,-5.006369795144445245e-01,2.697189858834191378e-01,3.039024254515899637e-01
8.659999999999999920e-01,-4.922055957792888514e-01,2.416407461197460638e-01,3.710481868835622254e-01
8.669999999999999929e-01,-4.465358783351700556e-01,1.966504754939957800e-01,4.028569259654953272e-01
8.679999999999999938e-01,-3.614950241835732103e-01,1.298419010602224200e-01,3.555708938383398410e-01
8.689999999999999947e-01,-2.275183375219785864e-01,5.793475313118737896e-02,2.661221312452120569e-01
8.699999999999999956e-01,-6.928752059415786702e-02,-1.377708386398255984e-02,1.767111618046454946e-01
8.709999999999999964e-01,1.035693140711912846e-01,-7.839672873571583434e-02,4.485416290093183905e-02
8.719999999999999973e-01,2.418501547794965068e-01,-1.165235086693077043e-01,-8.118711958733719480e-02
8.729999999999999982e-01,3.367298419385692521e-01,-1.528999393500423964e-01,-1.978597373307051654e-01
8.739999999999999991e-01,3.949207514303172961e-01,-1.661619773952448809e-01,-2.841328714415201073e-01
8.750000000000000000e-01,3.866559670299069551e-01,-1.366107908127622839e-01,-3.309249353026569862e-01
8.760000000000000009e-01,3.541260968519620578e-01,-1.192481748395559926e-01,-3.471188436384152753e-01
8.770000000000000018e-01,2.576568536597274028e-01,-8.107477407257533686e-02,-2.985630334250854445e-01
8.780000000000000027e-01,1.421316005339228750e-01,-4.278206698843140671e-02,-2.435612610958194924e-01
8.790000000000000036e-01,4.547068989466553079e-02,-2.014517197243274535e-02,-1.318549717254410836e-01
8.800000000000000044e-01,-7.783350478006657858e-02,1.741402396994774088e-02,-3.140379850800313882e-03
8.810000000000000053e-01,-1.677002308521499674e-01,3.145978979639380002e-02,9.090574740130279163e-02
8.820000000000000062e-01,-2.473029407206171482e-01,5.419757162511603527e-02,1.895527348062066020e-01
8.830000000000000071e-01,-2.666006494923999770e-01,6.146657138837055556e-02,2.355207566026296662e-01
8.840000000000000080e-01,-2.679226257759479424e-01,8.766089593153830739e-02,2.710859669267144390e-01
8.850000000000000089e-01,-2.314779334171420122e-01,7.259255318920695976e-02,2.729305577047654308e-01
8.860000000000000098e-01,-1.759748047242631341e-01,6.079357239505828181e-02,2.398855305800302040e-01
8.870000000000000107e-01,-9.706416954438268352e-02,8.572590322373234428e-02,1.657831190305075475e-01
8.880000000000000115e-01,-3.358796188679183392e-02,8.310684227593720386e-02,1.021409141150674688e-01
8.890000000000000124e-01,3.153376963025251306e-02,8.439659403981665531e-02,4.164716256668101542e-04
8.900000000000000133e-01,9.105641878236375719e-02,7.551404509453632508e-02,-8.310748875584014761e-02
8.910000000000000142e-01,1.223909372263495554e-01,4.164953342306380868e-02,-1.273749778222330042e-01
8.920000000000000151e-01,1.273603559672603358e-01,7.948000639624665936e-03,-1.857755668280717254e-01
8.930000000000000160e-01,1.444597943099715232e-01,-1.537763157540552456e-02,-1.997726912303031122e-01
8.940000000000000169e-01,1.441125800791932532e-01,-5.282306640276779319e-02,-1.997359068131399906e-01
8.950000000000000178e-01,1.332056962346126472e-01,-1.035801051912203646e-01,-1.802243655532005107e-01
8.960000000000000187e-01,8.788684437379254422e-02,-1.418880109153715097e-01,-1.427569136719683829e-01
8.970000000000000195e-01,6.762621319139887344e-02,-1.764115334909652777e-01,-5.783720093846950183e-02
8.980000000000000204e-01,5.498549976927934874e-02,-1.855283311266528734e-01,-9.577543299228592419e-03
8.990000000000000213e-01,2.162497750447085407e-02,-1.716496400537094458e-01,4.110519600966574399e-02
9.000000000000000222e-01,2.125493937181121423e-02,-1.401662233925208556e-01,8.237995552255357457e-02
9.010000000000000231e-01,-4.593486051558841321e-03,-7.154729586002589459e-02,1.059528594934387308e-01
9.020000000000000240e-01,-2.683679968853195860e-02,4.142356445432367022e-03,1.273584508287947115e-01
9.030000000000000249e-01,-6.990257095649642094e-02,9.046371737821097547e-02,1.240954955399217879e-01
9.040000000000000258e-01,-8.147828790192340742e-02,1.708801675077265270e-01,1.140804362052459664e-01
9.050000000000000266e-01,-1.135556685590647374e-01,2.221089835789748224e-01,7.251016786668508518e-02
9.060000000000000275e-01,-1.431856024550238748e-01,2.780991724433444778e-01,5.222322445068397490e-02
9.070000000000000284e-01,-1.668328640585837186e-01,2.846892475577201820e-01,3.581991649787460291e-02
9.080000000000000293e-01,-1.518353674301704537e-01,2.705227599140097028e-01,2.906826108508578366e-03
9.090000000000000302e-01,-1.493361096462909599e-01,2.051459040316806481e-01,-1.493369619783426437e-02
9.100000000000000311e-01,-1.170707385915572690e-01,1.013915612475121270e-01,-3.337098476290277504e-02
9.110000000000000320e-01,-5.596059285108923032e-02,-1.104993754260313529e-02,-4.345195120020677038e-02
9.120000000000000329e-01,1.905767300778259815e-02,-1.345489825444746712e-01,-4.596207649539808815e-02
9.130000000000000338e-01,9.283993337840967808e-02,-2.351559400595808202e-01,-5.974145922617444399e-02
9.140000000000000346e-01,1.730647910541813772e-01,-3.289990698621229614e-01,-8.062979760193411671e-02
9.150000000000000355e-01,2.338698727352686024e-01,-3.701152944015907442e-01,-4.635380093663760137e-02
9.160000000000000364e-01,2.796045360911175726e-01,-3.817948159520940243e-01,-6.247409779063374524e-02
9.170000000000000373e-01,2.821772530322993466e-01,-3.331615032242453145e-01,-5.236659283818168031e-02
9.180000000000000382e-01,2.739913665221683781e-01,-2.259587605729008741e-01,-5.604705919775470474e-02
9.190000000000000391e-01,2.031381025987346600e-01,-9.513817282088976590e-02,-3.297709502497011419e-02
9.200000000000000400e-01,1.048989431277791567e-01,5.670195072815677195e-02,-2.373503516186376353e-02
9.210000000000000409e-01,-5.269285499994274570e-03,1.991993309278639601e-01,-9.567369100071417129e-05
9.220000000000000417e-01,-1.295165084003248313e-01,3.373371908054688673e-01,2.083436474664221091e-02
9.230000000000000426e-01,-2.428086433442764314e-01,4.420916942861399246e-01,4.654762856259248710e-02
9.240000000000000435e-01,-3.400445994981713405e-01,4.557383855886512625e-01,7.514351806259710054e-02
9.250000000000000444e-01,-3.989693211883399426e-01,4.353332250761512423e-01,1.039214575146566732e-01
9.260000000000000453e-01,-3.950599542337078773e-01,3.562291262115616086e-01,1.145390160526533335e-01
9.270000000000000462e-01,-3.617994071274914236e-01,2.361477640012751289e-01,1.393058251359873823e-01
9.280000000000000471e-01,-2.589596246839297455e-01,6.397882795545536960e-02,1.257851672389302677e-01
9.290000000000000480e-01,-1.292972270364873277e-01,-1.195781000406599959e-01,1.038482636640550433e-01
9.300000000000000488e-01,2.275481344440816872e-02,-2.855575814071348306e-01,4.744947719321003510e-02
9.310000000000000497e-01,1.961808234984681043e-01,-4.248670173054265864e-01,3.035228516010247610e-03
9.320000000000000506e-01,3.443151537592126776e-01,-5.064043839396182856e-01,-6.831221268837862903e-02
9.330000000000000515e-01,4.591016767315447833e-01,-5.223678774868241170e-01,-1.022665051226211708e-01
9.340000000000000524e-01,5.080346185675987947e-01,-4.664234850617125505e-01,-1.747193466091974123e-01
9.350000000000000533e-01,4.954396732047711693e-01,-3.603953098757167184e-01,-1.927731121020478666e-01
9.360000000000000542e-01,4.386273757988661259e-01,-1.925233822853867904e-01,-1.918678666758610318e-01
9.370000000000000551e-01,3.111248104696860972e-01,1.343559204630833705e-02,-1.838111477439041130e-01
9.379999999999999449e-01,1.265280794628322603e-01,2.056666305615161561e-01,-1.520284068770561270e-01
9.389999999999999458e-01,-7.547189382772107047e-02,3.818779732481177303e-01,-9.627450237089152374e-02
9.399999999999999467e-01,-2.734485470001724594e-01,5.000365372768076355e-01,-2.129077494885686997e-02
9.409999999999999476e-01,-4.355195072532632161e-01,5.698697803945089735e-01,7.322034065183141704e-02
9.419999999999999485e-01,-5.596632959925434969e-01,5.573338735411816902e-01,1.609414868934112564e-01
9.429999999999999494e-01,-6.066830391771167452e-01,4.589081032941353389e-01,2.263179511119299270e-01
9.439999999999999503e-01,-5.687204153207320312e-01,3.123007669732533187e-01,2.787677624120116215e-01
9.449999999999999512e-01,-4.829031430023493776e-01,1.296792097547870004e-01,2.742866160531583497e-01
9.459999999999999520e-01,-2.865031407832440147e-01,-7.936102615849882636e-02,2.668358101226170898e-01
9.469999999999999529e-01,-8.050797817287069780e-02,-2.941336019987380590e-01,1.936653138903624005e-01
9.479999999999999538e-01,1.522790162877493692e-01,-4.420248720437958689e-01,9.838857921032509446e-02
9.489999999999999547e-01,3.659838036119431037e-01,-5.683038996476694749e-01,9.120355942697487908e-03
9.499999999999999556e-01,5.531062488053284376e-01,-6.093446985488748524e-01,-1.046538549072831698e-01
9.509999999999999565e-01,6.592835053691215030e-01,-5.450685575890893420e-01,-2.095553452471474176e-01
9.519999999999999574e-01,6.770715671014665427e-01,-4.523064648739106297e-01,-2.841380978514951861e-01
9.529999999999999583e-01,6.291829128957967532e-01,-2.624904919220693023e-01,-3.140729605603965191e-01
9.539999999999999591e-01,4.843818145958617705e-01,-4.539792347821918622e-02,-3.529217756287356123e-01
9.549999999999999600e-01,2.697406461401178346e-01,1.815014938934541577e-01,-3.056940874834944144e-01
9.559999999999999609e-01,1.960366837859146838e-02,3.722390428730568690e-01,-2.298999426687502734e-01
9.569999999999999618e-01,-2.504241925800543833e-01,5.249487464196960218e-01,-1.170565016773152389e-01
9.579999999999999627e-01,-4.470101888578884020e-01,5.908764639318251355e-01,1.243117984388113044e-02
9.589999999999999636e-01,-6.346229851155085200e-01,6.081825518011236831e-01,1.385532442153336319e-01
9.599999999999999645e-01,-7.309112043634533595e-01,5.277669985735280456e-01,2.592696157785044364e-01
9.609999999999999654e-01,-7.311288694628936824e-01,3.721104081476727665e-01,3.347373584248891087e-01
9.619999999999999662e-01,-6.208752377479604956e-01,1.759657158387506470e-01,3.923923108132469917e-01
9.629999999999999671e-01,-4.454022307673676240e-01,-4.425158355823025080e-02,3.942296106931545419e-01
9.639999999999999680e-01,-1.918842236001291890e-01,-2.462887831787422543e-01,3.284679079773216714e-01
9.649999999999999689e-01,6.066508988563085875e-02,-4.328978070520778654e-01,2.365678656561809590e-01
9.659999999999999698e-01,3.174563019403410236e-01,-5.646068915788635678e-01,1.052100101330629423e-01
9.669999999999999707e-01,5.407007452055350161e-01,-5.681408620545632671e-01,-2.838284288542403805e-02
9.679999999999999716e-01,6.805694911065188757e-01,-5.532040739728670831e-01,-1.688360468006077919e-01
9.689999999999999725e-01,7.480382755440400100e-01,-4.494154735039523341e-01,-2.894460645676464883e-01
9.699999999999999734e-01,7.030393376561252516e-01,-2.963765062364866476e-01,-3.830093041711399304e-01
9.709999999999999742e-01,5.803893596263717258e-01,-9.135097021405620688e-02,-4.313167808151286420e-01
9.719999999999999751e-01,3.772671170168104271e-01,1.332542582388253627e-01,-4.186189212186415820e-01
9.729999999999999760e-01,1.205802559042055272e-01,3.089712787026105967e-01,-3.428631585515861113e-01
9.739999999999999769e-01,-1.554783713489206465e-01,4.612771202314465691e-01,-2.315769381906634949e-01
9.749999999999999778e-01,-4.127933968929154429e-01,5.399330238495340106e-01,-8.630020076731056977e-02
9.759999999999999787e-01,-6.013757526819355492e-01,5.621476219685666020e-01,7.399891770256629420e-02
9.769999999999999796e-01,-7.330800270461865775e-01,4.945960472798570651e-01,2.133742933937642916e-01
9.779999999999999805e-01,-7.551050212677526963e-01,3.814086023181263996e-01,3.514844339392968475e-01
9.789999999999999813e-01,-6.805011629077134527e-01,1.947568267375612006e-01,4.045033612576168225e-01
9.799999999999999822e-01,-5.220080309501183846e-01,-4.375815386753795569e-03,4.525048775297860204e-01
9.809999999999999831e-01,-3.124739492128825180e-01,-1.793143127646492641e-01,4.230849115438360397e-01
9.819999999999999840e-01,-4.492243484955794897e-02,-3.513103143309400100e-01,3.333014855292122380e-01
9.829999999999999849e-01,2.084539535127262477e-01,-4.693399040628808416e-01,2.143990849040697810e-01
9.839999999999999858e-01,4.555812280311831164e-01,-5.191442782074316975e-01,5.766077151626444047e-02
9.849999999999999867e-01,6.294584676022803027e-01,-5.004111373414850128e-01,-1.044945709650121346e-01
9.859999999999999876e-01,7.367613795659690989e-01,-4.202047043948290983e-01,-2.486470499850595428e-01
9.869999999999999885e-01,7.124338834466094061e-01,-2.876289758995997925e-01,-3.851858409552494922e-01
9.879999999999999893e-01,6.183086288100623218e-01,-1.151100240249121609e-01,-4.551758064099239998e-01
9.889999999999999902e-01,4.680466291974600956e-01,4.619172471662884305e-02,-4.623316754579721022e-01
9.899999999999999911e-01,2.356672877782746978e-01,2.138473577359630839e-01,-4.192992379081574850e-01
9.909999999999999920e-01,-2.931342504808912702e-02,3.473765226770239023e-01,-3.213999995540020027e-01
9.919999999999999929e-01,-2.946362168642093216e-01,4.236841783427065522e-01,-1.804050341727140849e-01
9.929999999999999938e-01,-4.888424447546896312e-01,4.496199646654711057e-01,-1.490930728486597467e-02
9.939999999999999947e-01,-6.266177343643817288e-01,4.208258262593979615e-01,1.269620027548820362e-01
9.949999999999999956e-01,-6.969825409645993286e-01,3.353995361730963687e-01,2.864423637565812197e-01
9.959999999999999964e-01,-6.506554303998782762e-01,2.041753949868061468e-01,3.874843293449496406e-01
9.969999999999999973e-01,-5.403265522624628447e-01,5.151843866661503374e-02,4.537415657569887073e-01
9.979999999999999982e-01,-3.559418467764417504e-01,-9.020462492096611995e-02,4.329433504732835836e-01
9.989999999999999991e-01,-1.398720010595764507e-01,-2.148078035187548640e-01,3.927555662734461550e-01
1.000000000000000000e+00,1.054841575207351861e-01,-3.099260408049818727e-01,2.813931087259773922e-01
1.000999999999999890e+00,2.993135990976061866e-01,-3.458081607943135904e-01,1.419542599865721566e-01
1.002000000000000002e+00,4.787504376457335509e-01,-3.484660103384964458e-01,-1.749103816293740010e-02
1.002999999999999892e+00,5.858205042699028420e-01,-3.170038747290992998e-01,-1.692557709655905240e-01
1.004000000000000004e+00,6.070603878089932959e-01,-2.415955833529014607e-01,-2.868092067668129852e-01
1.004999999999999893e+00,5.629834302348495356e-01,-1.146426279465517922e-01,-3.796976847346502093e-01
1.006000000000000005e+00,4.510889202658289743e-01,-1.130791265241499512e-02,-4.189054067924642966e-01
1.006999999999999895e+00,2.612316076734882975e-01,7.603340995976808070e-02,-4.212742959452924763e-01
1.008000000000000007e+00,5.843765859670409235e-02,1.856591420402630699e-01,-3.511634415240626472e-01
1.008999999999999897e+00,-1.217422121247248440e-01,2.575084915606567493e-01,-2.665164270035129679e-01
1.010000000000000009e+00,-2.948759036769754704e-01,2.699535475369327919e-01,-1.156150864581351190e-01
1.010999999999999899e+00,-4.474339016514070622e-01,2.653428000901245087e-01,5.234302135374459958e-02
1.012000000000000011e+00,-5.203727521241884313e-01,2.188092489761493398e-01,1.927172011379011118e-01
1.012999999999999901e+00,-5.217820386761091722e-01,1.617200735389985322e-01,2.701180908200073172e-01
1.014000000000000012e+00,-4.606037891667562612e-01,8.107758800124809095e-02,3.834124863246969328e-01
1.014999999999999902e+00,-3.392516488404963004e-01,-7.378427850007132291e-03,4.033535910625942189e-01
1.016000000000000014e+00,-1.892862462042084470e-01,-6.640942708870646582e-02,3.776446548204782649e-01
1.016999999999999904e+00,-1.969426043321062178e-02,-1.110952207607258518e-01,2.902663039317344151e-01
1.018000000000000016e+00,1.363380926858693276e-01,-1.493352362623563967e-01,1.994108913714848497e-01
1.018999999999999906e+00,2.806526509685687842e-01,-1.755321399505551938e-01,8.675971349363455210e-02
1.020000000000000018e+00,3.624218360743044487e-01,-1.550328360672123262e-01,-5.385415888789409078e-02
1.020999999999999908e+00,4.054603731570738945e-01,-1.449447754486201112e-01,-1.911889174386310064e-01
1.022000000000000020e+00,3.960778572814745990e-01,-9.887776286123234337e-02,-2.894796662532883036e-01
1.022999999999999909e+00,3.392216885872266774e-01,-6.716729075713487318e-02,-3.329996101675471998e-01
1.024000000000000021e+00,2.379071799840395407e-01,-1.895123858873658251e-02,-3.473718818275272069e-01
1.024999999999999911e+00,1.343168525014453996e-01,8.134001964108685326e-03,-3.138590304029619804e-01
1.026000000000000023e+00,2.126514047954327063e-03,3.188954194600009118e-02,-2.481656246097768137e-01
1.026999999999999913e+00,-1.196249485808819762e-01,6.454794214492334814e-02,-1.511604536480925243e-01
1.028000000000000025e+00,-2.014861266797265404e-01,7.773485709064857641e-02,-5.559447633833231039e-02
1.028999999999999915e+00,-2.715357925265226569e-01,6.495463936005688166e-02,7.324700096429177798e-02
1.030000000000000027e+00,-2.830522302994636363e-01,7.973325798584458834e-02,1.560451957874996187e-01
1.030999999999999917e+00,-2.746763696815757161e-01,8.726569377850798559e-02,2.424122538547541783e-01
1.032000000000000028e+00,-2.278925051400366719e-01,7.609847531402909315e-02,2.609339678950718944e-01
1.032999999999999918e+00,-1.634873660034386056e-01,7.672943308380712757e-02,2.747837854889504383e-01
1.034000000000000030e+00,-7.515995535228239821e-02,7.628430679819683813e-02,2.440873994629396693e-01
1.034999999999999920e+00,-2.362216535031251216e-02,7.567043709023062170e-02,1.855007842079337832e-01
1.036000000000000032e+00,4.637610665691710432e-02,4.947540378890079305e-02,1.182205316052293426e-01
1.036999999999999922e+00,1.013035680451687404e-01,3.109712983539126077e-02,1.658010124652372491e-02
1.038000000000000034e+00,1.532947388527855781e-01,-2.760021492500688498e-02,-6.126643532633642419e-02
1.038999999999999924e+00,1.518682606622646925e-01,-4.399402621537665953e-02,-1.405154639261820271e-01
1.040000000000000036e+00,1.472544485149636651e-01,-1.011177279409775365e-01,-1.881193555599916245e-01
1.040999999999999925e+00,1.276623600673502945e-01,-1.372342375771065381e-01,-2.127021544251913032e-01
1.042000000000000037e+00,1.139526812542199785e-01,-1.685367314224609225e-01,-2.168717481577033257e-01
1.042999999999999927e+00,8.912460973884110682e-02,-1.846049961537920558e-01,-1.786908791661593332e-01
1.044000000000000039e+00,5.774910397314226423e-02,-1.605907604471734917e-01,-1.272673856244518897e-01
1.044999999999999929e+00,4.205389641570406178e-02,-1.465082982418615676e-01,-9.480860417495005910e-02
1.046000000000000041e+00,1.657420028420426850e-02,-9.712708103714948193e-02,-3.892543213025199955e-02
1.046999999999999931e+00,-1.396451792554189407e-02,-3.848784662560106318e-02,3.219132348315380254e-02
1.048000000000000043e+00,-1.944078306743112633e-02,6.937731040583526576e-02,8.146417294304927892e-02
1.048999999999999932e+00,-5.816614311603424819e-02,1.188853753172975231e-01,1.129644035707795119e-01
1.050000000000000044e+00,-7.716852547997389566e-02,2.079728325330285343e-01,1.404874054120905380e-01
1.050999999999999934e+00,-1.098812009266633971e-01,2.679585647904623169e-01,1.457018586826133166e-01
1.052000000000000046e+00,-9.998643140600124712e-02,2.773032028327052090e-01,1.092598013689740355e-01
1.052999999999999936e+00,-1.315363208287786134e-01,2.530231086036571209e-01,8.542736368307610184e-02
1.054000000000000048e+00,-1.447372837113619637e-01,2.101622154768340578e-01,7.802641784754608956e-02
1.054999999999999938e+00,-1.265026004981917862e-01,1.330668015563106765e-01,2.553258016161679203e-02
1.056000000000000050e+00,-1.123172202185346719e-01,3.971486692392391799e-02,-1.549790298760712545e-02
1.056999999999999940e+00,-8.008281537576368569e-02,-9.159103570620467927e-02,-1.709621851598013345e-02
1.058000000000000052e+00,-3.334572376478114886e-02,-2.176805138617817770e-01,-5.029511716762546936e-02
1.058999999999999941e+00,2.817782007952740128e-02,-2.880396352233509094e-01,-4.992306358710181524e-02
1.060000000000000053e+00,1.126209308518852925e-01,-3.631386455896463694e-01,-5.261519302297064382e-02
1.060999999999999943e+00,1.756074414347790491e-01,-3.783538244501482017e-01,-6.085682483059157849e-02
1.062000000000000055e+00,2.329290782461183318e-01,-3.273138112528686250e-01,-5.064153124802448641e-02
1.062999999999999945e+00,2.805305876601019155e-01,-2.543076613153815169e-01,-4.791540764078019987e-02
1.064000000000000057e+00,2.816160825207075225e-01,-1.313925782107290829e-01,-5.436744671361023323e-02
1.064999999999999947e+00,2.456792968792584075e-01,1.108439022279854302e-02,-3.828747939653012050e-02
1.066000000000000059e+00,1.752182823407535672e-01,1.644575537776771235e-01,-4.473229791079715023e-02
1.066999999999999948e+00,7.693458352933441047e-02,2.875955470931061964e-01,-3.460356060466943107e-02
1.068000000000000060e+00,-3.299530969199760549e-02,3.755671293216374385e-01,-2.091327668794227407e-02
1.068999999999999950e+00,-1.445376732830277455e-01,4.526793675566101460e-01,-6.727203271472769570e-04
1.070000000000000062e+00,-2.764802171180181789e-01,4.429459833220848464e-01,3.543449343587576090e-03
1.070999999999999952e+00,-3.441075897133629158e-01,3.773733642512380748e-01,5.054545424457413533e-02
1.072000000000000064e+00,-3.838503218822877372e-01,2.724067823206082206e-01,8.469452218809955801e-02
1.072999999999999954e+00,-4.019041380822057641e-01,1.064328880356073537e-01,8.950230534474018507e-02
1.074000000000000066e+00,-3.348145641842298903e-01,-8.119378721427468470e-02,1.182265598090431191e-01
1.074999999999999956e+00,-2.352199779564828619e-01,-2.458652582725086300e-01,1.129320967873073400e-01
1.076000000000000068e+00,-9.154551586808098995e-02,-3.736409318074956354e-01,1.186620314554936578e-01
1.076999999999999957e+00,6.928966311771161957e-02,-4.923381881934433824e-01,9.547818316498973834e-02
1.078000000000000069e+00,2.363976351554534783e-01,-5.062688678535007814e-01,4.716756766490174529e-02
1.078999999999999959e+00,3.683376914010809133e-01,-4.902399169397798628e-01,8.686771063409190474e-03
1.080000000000000071e+00,4.586661601009530687e-01,-3.814071915442793226e-01,-3.958647194271365521e-02
1.080999999999999961e+00,5.115965256212530177e-01,-2.362251100359236966e-01,-1.067912441364249482e-01
1.082000000000000073e+00,4.804292345326826030e-01,-4.541287680762602641e-02,-1.411341846831620783e-01
1.082999999999999963e+00,3.871555369620724996e-01,1.442952377033885625e-01,-1.761523442912435455e-01
1.084000000000000075e+00,2.500649452415902863e-01,3.139173585840550618e-01,-2.133472143404452903e-01
1.084999999999999964e+00,7.541331800325049017e-02,4.546414734249475398e-01,-1.919190174497791279e-01
1.086000000000000076e+00,-1.337329727330003604e-01,5.610757873059395440e-01,-1.779837084623627219e-01
1.086999999999999966e+00,-3.217192311807279825e-01,5.681456319714397463e-01,-1.200511606402354936e-01
1.088000000000000078e+00,-4.645164808045600391e-01,4.978105637754629553e-01,-4.123287542166114567e-02
1.088999999999999968e+00,-5.721625016256998153e-01,3.648988653252421277e-01,3.927084869663569761e-02
1.090000000000000080e+00,-6.183708200611313099e-01,1.908440852448357317e-01,1.244959284151438278e-01
1.090999999999999970e+00,-5.492851201286214069e-01,-2.907468958835202413e-02,1.933901941228323151e-01
1.092000000000000082e+00,-4.195823517819087800e-01,-2.361836886533660862e-01,2.593813969258751961e-01
1.092999999999999972e+00,-2.464729729534326508e-01,-4.173521614542118896e-01,2.630327564452539235e-01
1.094000000000000083e+00,-4.671469871828253830e-03,-5.496903824515002590e-01,2.551141896195976422e-01
1.094999999999999973e+00,2.057680691566733111e-01,-5.966100549129246255e-01,1.925093314524615185e-01
1.096000000000000085e+00,4.059509988721919926e-01,-5.875405552011019328e-01,1.335758887669278583e-01
1.096999999999999975e+00,5.831487379844707553e-01,-4.886731924074254052e-01,3.178589150066046809e-02
1.098000000000000087e+00,6.518085208429145183e-01,-3.084736984875008359e-01,-6.675494907533004174e-02
1.098999999999999977e+00,6.600464797961350660e-01,-9.626856121008731115e-02,-1.640664900142284333e-01
1.100000000000000089e+00,5.930364986071271494e-01,1.144928231390132112e-01,-2.605444656479254384e-01
1.100999999999999979e+00,4.241509237091395934e-01,3.110105014926579092e-01,-3.172276904731540781e-01
1.102000000000000091e+00,2.091754919107607635e-01,4.943090593549206990e-01,-3.299490325734291685e-01
1.102999999999999980e+00,-4.074720413123591317e-02,5.886275927126740637e-01,-2.935060118195267354e-01
1.104000000000000092e+00,-2.958902399872724298e-01,6.034776934257325420e-01,-2.461132055097080273e-01
1.104999999999999982e+00,-5.093600144985531708e-01,5.378887314840458123e-01,-1.492496244065958100e-01
1.106000000000000094e+00,-6.478604970425472231e-01,4.271511510458351202e-01,-2.234490085644087395e-02
1.106999999999999984e+00,-7.239880704140173595e-01,2.435549023078260322e-01,8.434926623055842565e-02
1.108000000000000096e+00,-7.013696749807594166e-01,3.353615138953847108e-02,2.278083164937233229e-01
1.108999999999999986e+00,-5.850989849184159430e-01,-2.026531978214189123e-01,3.133281988247841321e-01
1.110000000000000098e+00,-3.990014074695384383e-01,-3.726909900675393073e-01,3.582089420923059708e-01
1.110999999999999988e+00,-1.592168711050901408e-01,-5.067511213149172855e-01,3.764121353669586112e-01
1.112000000000000099e+00,1.190949338904481458e-01,-5.952139651300821788e-01,3.454023750734232512e-01
1.112999999999999989e+00,3.734579871990665323e-01,-5.896503202127764132e-01,2.618068277548825096e-01
1.114000000000000101e+00,5.815312513508745784e-01,-5.011504161584581230e-01,1.487710180617329014e-01
1.114999999999999991e+00,7.179721928469605663e-01,-3.578615604008635320e-01,8.770257251246100366e-03
1.116000000000000103e+00,7.572397092595279933e-01,-1.486907926567911931e-01,-1.643001533342309806e-01
1.116999999999999993e+00,6.848801632476776424e-01,6.856542578734022009e-02,-2.702837927982355559e-01
1.118000000000000105e+00,5.431992830285923279e-01,2.651452495065467208e-01,-3.710303344501275080e-01
1.118999999999999995e+00,3.224030275086208763e-01,4.177326475980815412e-01,-4.191040996319053136e-01
1.120000000000000107e+00,5.015871289573194114e-02,5.337808819478954137e-01,-4.179134160113177066e-01
1.120999999999999996e+00,-2.120234139795143247e-01,5.501566741772631053e-01,-3.449759326214287269e-01
1.122000000000000108e+00,-4.470549727899640891e-01,5.333522065691730374e-01,-2.713064558884167865e-01
1.122999999999999998e+00,-6.448644691264054929e-01,4.158032570067881073e-01,-1.206061064226069540e-01
1.124000000000000110e+00,-7.350024843080682491e-01,2.613994102525016849e-01,2.698035722378831769e-02
1.125000000000000000e+00,-7.547355270206632660e-01,6.839723513744135064e-02,1.963936276530416636e-01
1.125999999999999890e+00,-6.602596345558525703e-01,-1.178529092972011305e-01,3.173554814295166393e-01
1.127000000000000002e+00,-4.775824521313344895e-01,-3.079892600360439325e-01,3.954866225907686661e-01
1.127999999999999892e+00,-2.439409118613433680e-01,-4.427604423634527442e-01,4.492204448606898493e-01
1.129000000000000004e+00,3.014193361205374719e-02,-5.063076920610655174e-01,4.282585075135109665e-01
1.129999999999999893e+00,2.784704876483869995e-01,-5.177264068444171752e-01,3.497770498326485678e-01
1.131000000000000005e+00,5.245975005144940528e-01,-4.551297309163165328e-01,2.267158908218146751e-01
1.131999999999999895e+00,6.685709364553471534e-01,-3.281599467827134298e-01,9.296329464194587333e-02
1.133000000000000007e+00,7.260811379965163015e-01,-1.553157589104404990e-01,-6.710401491333628510e-02
1.133999999999999897e+00,7.084401290375887950e-01,8.057520385025895154e-03,-2.367146197251905060e-01
1.135000000000000009e+00,5.829191573124755665e-01,1.699675756961821216e-01,-3.395553304298906672e-01
1.135999999999999899e+00,4.059315050513584988e-01,3.224403090409940220e-01,-4.236392437037494463e-01
1.137000000000000011e+00,1.584311873007051563e-01,4.290240023312476558e-01,-4.625228762171983421e-01
1.137999999999999901e+00,-1.007387656228257850e-01,4.466370973005702738e-01,-4.363368393380268051e-01
1.139000000000000012e+00,-3.215216690322791337e-01,4.314139501425247047e-01,-3.451527280853324275e-01
1.139999999999999902e+00,-5.369304463997714993e-01,3.606323898312815968e-01,-2.099587137093757161e-01
1.141000000000000014e+00,-6.491590489326608537e-01,2.389771079060750147e-01,-6.523312649353979475e-02
1.141999999999999904e+00,-6.898469605209692768e-01,9.849020805424647806e-02,1.177472927649460543e-01
1.143000000000000016e+00,-6.330614784468127088e-01,-4.875730284625838518e-02,2.550391277153344349e-01
1.143999999999999906e+00,-5.126149430195576784e-01,-1.894638724627580595e-01,3.750641569668038966e-01
1.145000000000000018e+00,-3.107434754711596026e-01,-2.990810377831355504e-01,4.321139301927494625e-01
1.145999999999999908e+00,-8.301634992626769072e-02,-3.517026464648161377e-01,4.471568055102742023e-01
1.147000000000000020e+00,1.464266384092433038e-01,-3.825653190926990854e-01,4.124441143225849316e-01
1.147999999999999909e+00,3.560919726070796987e-01,-3.403596685508819553e-01,3.104361858607497804e-01
1.149000000000000021e+00,5.120960918160737396e-01,-2.643074591578641330e-01,1.757280717883296373e-01
1.149999999999999911e+00,6.018662605955321654e-01,-1.669232150495242040e-01,4.008527021615743841e-02
1.151000000000000023e+00,6.128265313737587539e-01,-5.094748695837057056e-02,-1.358405822781030836e-01
1.151999999999999913e+00,5.458744205200127819e-01,7.104980300748055255e-02,-2.735273698665689479e-01
1.153000000000000025e+00,4.060199762444309246e-01,1.742363018971931354e-01,-3.710130365307127143e-01
1.153999999999999915e+00,2.147104192036190518e-01,2.247462043727083691e-01,-4.255674120947393613e-01
1.155000000000000027e+00,1.427902176211776585e-02,2.872053146785442657e-01,-4.323633841046707338e-01
1.155999999999999917e+00,-1.932089873564191984e-01,2.782622971199875672e-01,-3.766697969967194859e-01
1.157000000000000028e+00,-3.396508620397382661e-01,2.459308294460606781e-01,-2.825881326227151491e-01
1.157999999999999918e+00,-4.761923994950029715e-01,1.780110039574421266e-01,-1.507084129136177231e-01
1.159000000000000030e+00,-5.338183985015916289e-01,1.192620075158627169e-01,9.299437467021573131e-03
1.159999999999999920e+00,-5.420371186930382779e-01,1.600895080369362650e-02,1.501789224554647140e-01
1.161000000000000032e+00,-4.355806671883040160e-01,-3.968885460811540089e-02,2.642323597519521394e-01
1.161999999999999922e+00,-3.054222039406161437e-01,-1.267166966059739552e-01,3.661299400889971856e-01
1.163000000000000034e+00,-1.440995437247855615e-01,-1.355767329104411167e-01,3.855626286592426788e-01
1.163999999999999924e+00,1.363790985020466549e-02,-1.811985319896988467e-01,3.842820257886145341e-01
1.165000000000000036e+00,1.875087209122021370e-01,-1.750571424681108545e-01,3.292373205772344824e-01
1.165999999999999925e+00,3.127994900081982332e-01,-1.552069915627539431e-01,2.306836270279933321e-01
1.167000000000000037e+00,3.989761043256761508e-01,-1.066425026271670407e-01,1.151581935684260760e-01
1.167999999999999927e+00,4.046360729511080390e-01,-7.184189939006214998e-02,-2.523932022573363923e-02
1.169000000000000039e+00,3.946116340409741574e-01,-2.554338075019702003e-02,-1.591344177813731608e-01
1.169999999999999929e+00,3.087348594267241841e-01,2.966517700756402236e-03,-2.509829356546871004e-01
1.171000000000000041e+00,2.300148125736777016e-01,4.037303574998173800e-02,-3.176227624273795236e-01
1.171999999999999931e+00,8.692971244535727116e-02,6.114431359504445690e-02,-3.519742167967286894e-01
1.173000000000000043e+00,-3.259598306322889633e-02,7.859987816327067278e-02,-3.212845790600958873e-01
1.173999999999999932e+00,-1.417741580259549161e-01,8.144225990688627737e-02,-2.855979023236884795e-01
1.175000000000000044e+00,-2.365077836811778078e-01,8.795041472995721032e-02,-1.686385501246119023e-01
1.175999999999999934e+00,-2.831970760837489443e-01,8.073316797402010914e-02,-6.309609707358679320e-02
1.177000000000000046e+00,-2.977643837150490969e-01,7.532164890001363799e-02,4.250148348258291769e-02
1.177999999999999936e+00,-2.934024767969347081e-01,7.918938844401259003e-02,1.440237659221819955e-01
1.179000000000000048e+00,-2.285301187510448417e-01,6.077885911127368229e-02,2.256043110781368877e-01
1.179999999999999938e+00,-1.562501821960032011e-01,6.371427872298443540e-02,2.908775565815148179e-01
1.181000000000000050e+00,-5.883164123995431039e-02,2.624578303387605990e-02,2.663017698669172817e-01
