time,acc_x,acc_y,acc_z
0.000000000000000000e+00,-7.654353842949454534e-02,-8.423598670430929025e-02,-3.788271617544078373e-02
1.000000000000000021e-03,-4.616506806698023047e-02,-5.147049279280820067e-02,-2.048582950374184045e-02
2.000000000000000042e-03,-3.882642562894165258e-03,3.348674071678898329e-02,-1.284566825504328096e-02
3.000000000000000062e-03,7.028194057371722758e-02,6.404555242943155147e-02,4.702283061568734296e-02
4.000000000000000083e-03,5.668513661061519437e-02,4.191737604994972416e-02,6.487181290087745689e-02
5.000000000000000104e-03,5.235348145776093365e-03,-3.382720774569916711e-02,3.005115016934997718e-02
6.000000000000000125e-03,-8.707327028930632318e-02,-6.728935572929642395e-02,-5.481125528926922980e-02
7.000000000000000146e-03,-4.512306586232685962e-02,-5.824796773939231592e-02,-3.750877733801143143e-02
8.000000000000000167e-03,-1.038977481042740493e-02,4.295563225324867951e-02,-2.023555373937160548e-02
8.999999999999999320e-03,5.166287106174708571e-02,6.711483356098801867e-02,1.944384716567339882e-02
1.000000000000000021e-02,6.691592736745635706e-02,3.050771130701469477e-02,5.737154932243863220e-02
1.099999999999999936e-02,2.085265372101394177e-02,-8.800940791287875653e-03,2.693506400584565197e-02
1.200000000000000025e-02,-5.640860062112280915e-02,-6.230356967280107489e-02,-2.392334334609240790e-02
1.299999999999999940e-02,-7.361308738777598559e-02,-3.369495236327171850e-02,-6.157751191579785566e-02
1.400000000000000029e-02,-2.781200192876108826e-02,3.095229961182623113e-02,-4.632720483294784641e-02
1.499999999999999944e-02,3.922859596027752915e-02,6.512846432811582320e-02,1.904152823041121989e-02
1.600000000000000033e-02,9.566685575087559290e-02,4.459800036605299917e-02,2.946830970188265425e-02
1.700000000000000122e-02,1.687883367633116402e-02,-1.117464705093001130e-02,4.541651856750781452e-02
1.799999999999999864e-02,-3.536963000991372869e-02,-6.370834078552001234e-02,-1.000515350243521596e-02
1.899999999999999953e-02,-7.305371930040324702e-02,-2.620818316520125840e-02,-4.938243986547763420e-02
2.000000000000000042e-02,-2.108372123892159750e-02,7.826729140792560921e-03,-1.510209379359594810e-02
2.100000000000000130e-02,4.132343165959262432e-02,4.284898324475010928e-02,-4.670428864619167618e-04
2.199999999999999872e-02,8.286887703233596081e-02,3.659331655797595090e-02,3.812110557761492352e-02
2.299999999999999961e-02,5.063519130216530273e-02,4.187604423355826243e-03,2.359299858965422172e-02
2.400000000000000050e-02,-4.664605819012809101e-02,-5.228467793712502504e-02,5.501695430281192643e-03
2.500000000000000139e-02,-7.423296881935563529e-02,-3.566759014053938470e-02,-4.430819996776435427e-02
2.599999999999999881e-02,-3.068413391097097806e-02,5.590523308821675717e-03,-4.838097194974017023e-02
2.699999999999999969e-02,1.083833813495386697e-02,7.395515660641649447e-02,-8.443447320240557788e-03
2.800000000000000058e-02,5.853350272933385834e-02,6.680090381279712997e-02,1.231857441074711221e-02
2.900000000000000147e-02,5.992737895862838143e-02,-5.702284966909353971e-03,2.936955613824321701e-02
2.999999999999999889e-02,-3.408376208566771259e-02,-4.701328577682224730e-02,5.251967845400355023e-02
3.099999999999999978e-02,-6.569275993985283779e-02,-5.144265772992116098e-02,-1.354231499582520329e-02
3.200000000000000067e-02,-7.434182941768667507e-02,2.063590615242029760e-03,-4.740403675812687040e-02
3.300000000000000155e-02,3.160878859505468486e-02,3.230995714235455896e-02,-3.310473693171518683e-02
3.400000000000000244e-02,7.044931669140271080e-02,4.999234118668500343e-02,1.608586427873067923e-02
3.500000000000000333e-02,5.447272604995220813e-02,2.045766020939162808e-02,4.262664072745189769e-02
3.599999999999999728e-02,-1.316965381921691471e-02,-4.169819236107667054e-02,3.471401076390653873e-02
3.699999999999999817e-02,-7.081240589353858528e-02,-5.942913736882979303e-02,-1.477592153147159332e-02
3.799999999999999906e-02,-5.846867774428871761e-02,9.349445415367266471e-04,-4.372766673604801951e-02
3.899999999999999994e-02,5.633048494933358061e-03,5.423420042693306853e-02,-3.927792947495137299e-02
4.000000000000000083e-02,7.342012945239503874e-02,6.870696534562195645e-02,1.565428817577351958e-03
4.100000000000000172e-02,6.964107754908235859e-02,4.874720196503985054e-02,3.743641745402469245e-02
4.200000000000000261e-02,4.567046912795866276e-02,-3.559797201773792080e-02,4.603554514352304824e-03
4.299999999999999656e-02,-7.765580587634948739e-02,-5.280238782986214352e-02,-9.461401490708475082e-03
4.399999999999999745e-02,-9.051991787908267306e-02,-1.260847570658353914e-02,-3.752680083011632889e-02
4.499999999999999833e-02,-1.157978484625834734e-02,4.918640409725614365e-02,-3.312486734874720007e-02
4.599999999999999922e-02,6.424772834222615414e-02,7.437901643248887029e-02,-6.081618723006248194e-03
4.700000000000000011e-02,7.106069184948576867e-02,2.309266961894886755e-02,4.391342617599273274e-02
4.800000000000000100e-02,3.946971429030365908e-02,-2.786879436737402238e-02,4.822271246132965594e-02
4.900000000000000189e-02,-2.530326058842256171e-02,-5.169224740690321618e-02,-2.419283534466476482e-02
5.000000000000000278e-02,-9.394361799191788820e-02,-4.709602115100956776e-02,-2.983278322813907174e-02
5.099999999999999672e-02,-3.181282968660093663e-02,1.824597014597758790e-02,-4.386333796105486987e-02
5.199999999999999761e-02,5.742714600071124192e-02,5.775492545085845336e-02,-3.092524186202411096e-02
5.299999999999999850e-02,6.763215770833824747e-02,3.639900883663824832e-02,8.907010512870086605e-03
5.399999999999999939e-02,3.598245926029337849e-02,-1.349481517621177115e-02,2.824113394100472713e-02
5.500000000000000028e-02,-4.003801342444707201e-02,-7.121114044316657898e-02,9.054559681757275852e-03
5.600000000000000117e-02,-7.645505121863262199e-02,-1.487592305372396027e-02,-2.156205307751280290e-02
5.700000000000000205e-02,-3.081904730377581919e-02,2.537052461995155037e-02,-5.501285771750587250e-02
5.800000000000000294e-02,8.094068032446315869e-03,4.666717872816766866e-02,-4.919988164014790777e-02
5.899999999999999689e-02,6.484312046265432172e-02,3.452788237906356805e-02,2.804119149686386606e-02
5.999999999999999778e-02,6.726425898728848052e-02,-3.294768099494982394e-02,3.375731112972975984e-02
6.099999999999999867e-02,-2.603269110140079418e-02,-5.829327339929519375e-02,2.387243754756714076e-02
6.199999999999999956e-02,-9.124677701816975850e-02,-5.043248083363963130e-02,-8.754499451402423041e-03
6.300000000000000044e-02,-5.160208544030612382e-02,5.352916651850208457e-03,-7.348691641493133864e-02
6.400000000000000133e-02,3.934247606531130967e-03,5.102677160964838587e-02,-3.072659798986565258e-02
6.500000000000000222e-02,8.958451518782969969e-02,5.217973058090799587e-02,-2.938326312577505765e-03
6.600000000000000311e-02,7.072911258416138269e-02,-8.370128060864370084e-03,3.688076214200784048e-02
6.700000000000000400e-02,-2.133417480373447916e-02,-6.476142767320296201e-02,6.346632421646310196e-02
6.800000000000000488e-02,-8.653318681025479187e-02,-5.475760949250216281e-02,3.258119394360083770e-02
6.900000000000000577e-02,-7.220808032257305942e-02,-1.679671957763391107e-02,-1.937257367260919808e-02
7.000000000000000666e-02,8.866996495933624281e-03,5.282831525698022251e-02,-3.673931109281829838e-02
7.099999999999999367e-02,6.076767561040335996e-02,6.663935720895604320e-02,-1.781908867274078698e-02
7.199999999999999456e-02,5.172506593745296311e-02,-3.221709100957481642e-02,3.177298714849691175e-02
7.299999999999999545e-02,9.036145633170131544e-03,-5.952987013178376308e-02,3.815224163378431316e-02
7.399999999999999634e-02,-5.529361926423329715e-02,-6.254667250421860891e-02,2.898826180756413490e-02
7.499999999999999722e-02,-5.508495660390282794e-02,-9.596009613688566073e-03,-4.388815396756184928e-02
7.599999999999999811e-02,8.246430890996957544e-03,3.845887545825976694e-02,-2.364131337094224281e-02
7.699999999999999900e-02,6.341347830443466727e-02,5.263328229719008156e-02,-2.828079737688953335e-02
7.799999999999999989e-02,8.784897681736830721e-02,-4.228778916716292857e-02,2.559526399088516042e-03
7.900000000000000078e-02,3.095532875276929205e-02,-5.457526198036581622e-02,5.092969774691434581e-02
8.000000000000000167e-02,-5.998961410446515541e-02,-5.386212835237369490e-02,8.847559985848369585e-03
8.100000000000000255e-02,-7.160835646388072351e-02,-4.337009048069161848e-02,-2.700482200784017767e-02
8.200000000000000344e-02,-2.562397322655838097e-02,7.441302988791261008e-02,-6.066794811867184944e-02
8.300000000000000433e-02,6.066849460080813577e-02,3.130342905676473941e-02,-3.921249172571416447e-02
8.400000000000000522e-02,6.810098917296682208e-02,1.811569166349261822e-02,2.088826705851075383e-02
8.500000000000000611e-02,4.117128230941109746e-02,-2.751638418032871167e-02,5.889962849968512909e-02
8.599999999999999312e-02,-4.735719020914676280e-02,-6.651708773468562041e-02,5.259968691296946358e-02
8.699999999999999400e-02,-7.310088560647594325e-02,-2.355121010073903121e-02,1.367566075352949495e-02
8.799999999999999489e-02,-1.571413144754491703e-02,2.628203817216242730e-02,-5.039493021874904416e-02
8.899999999999999578e-02,4.038037087599432445e-02,6.088131806618890529e-02,-5.534313059527397327e-02
8.999999999999999667e-02,7.758203326874653361e-02,4.473531499065189210e-02,-3.671120871939446690e-04
9.099999999999999756e-02,5.881200483138174923e-02,-3.181095389921297784e-02,6.663700375909933915e-02
9.199999999999999845e-02,-1.373392240646144694e-02,-5.722174650256197509e-02,3.146332993500318420e-02
9.299999999999999933e-02,-6.292499796899939102e-02,-3.386939896729239396e-02,2.216777104388318806e-02
9.400000000000000022e-02,-6.654887726666541825e-02,4.839309350096808460e-02,-4.290252076355129812e-02
9.500000000000000111e-02,9.855527760151597261e-03,7.714669530450139756e-02,-3.869752009346879434e-02
9.600000000000000200e-02,9.332214379812417415e-02,3.942934957501043752e-02,-1.127012743056690115e-02
9.700000000000000289e-02,5.487585085438457383e-02,-2.185222512422195160e-02,4.728985563622555011e-02
9.800000000000000377e-02,-1.951839318605582893e-02,-6.149975896892283245e-02,3.866012301904087067e-02
9.900000000000000466e-02,-6.170091828059709460e-02,-5.378273190562191108e-02,2.541991746280910722e-02
1.000000000000000056e-01,-6.543758085649807599e-02,3.028289653066829415e-02,-4.527936333404492669e-02
1.010000000000000064e-01,-1.066465474137971714e-02,3.994392634726068314e-02,-4.914872334055478409e-02
1.019999999999999934e-01,6.824645317341772321e-02,2.387640206708050578e-02,-3.962180481480752879e-03
1.029999999999999943e-01,7.796375240373693005e-02,-2.560978230332899494e-02,2.653270923114896609e-02
1.039999999999999952e-01,8.022927792812668824e-03,-6.914436707756356493e-02,6.651376979277832946e-02
1.049999999999999961e-01,-7.296362611211160143e-02,-2.806445934957030319e-02,3.625313450476079502e-02
1.059999999999999970e-01,-7.161044307267758202e-02,2.097380224671378454e-02,-3.597796358668967770e-02
1.069999999999999979e-01,-2.274338258663945178e-02,8.197152715345526475e-02,-1.761863574269259547e-02
1.079999999999999988e-01,5.645013644912041245e-02,5.777753644713592984e-02,-1.849832278007837102e-02
1.089999999999999997e-01,6.606481780270229143e-02,-1.624426507750804938e-02,-2.624380760164583132e-03
1.100000000000000006e-01,8.434728200484131744e-03,-4.484638565267730359e-02,5.992110825063708818e-02
1.110000000000000014e-01,-5.150584010987576539e-02,-1.311303787122004676e-02,1.646116369383655853e-02
1.120000000000000023e-01,-6.758488342084736922e-02,2.197495248965762246e-02,4.206885700714310845e-03
1.130000000000000032e-01,-4.036446136092714659e-02,5.404968378667684981e-02,-4.339471241571322274e-02
1.140000000000000041e-01,3.699846315813090647e-02,5.230592862967767959e-02,-3.023221820385006350e-02
1.150000000000000050e-01,8.299076879512859439e-02,-2.208703195125582414e-02,-1.032264645177766171e-02
1.160000000000000059e-01,2.454752964875683494e-02,-6.996231259323792973e-02,2.222722934114423204e-02
1.170000000000000068e-01,-4.037484641753841946e-02,-5.081347777868253784e-02,4.703933799743845873e-02
1.179999999999999938e-01,-8.463731828223781950e-02,1.330636229854847800e-02,8.018634544571454081e-03
1.189999999999999947e-01,-3.314574662542230793e-02,4.323988226632873022e-02,-8.237657103958467494e-03
1.199999999999999956e-01,8.091466924522726020e-03,4.127493942547420802e-02,-4.347984298874918441e-02
1.209999999999999964e-01,7.789401515463766079e-02,7.679374061220339658e-03,-1.915848560232016884e-02
1.219999999999999973e-01,4.102337274928045258e-02,-5.092439372355629656e-02,2.760128552121101850e-02
1.229999999999999982e-01,1.123551239344115034e-03,-6.267362265522943843e-02,6.300190889824970608e-02
1.239999999999999991e-01,-9.859656621976996271e-02,1.726192324330935376e-02,4.180463225899237051e-02
1.250000000000000000e-01,-5.511195338079021705e-02,7.333817001737451269e-02,-3.890008902128202356e-02
1.260000000000000009e-01,1.647669071705025814e-02,8.272599442793662772e-02,-3.705282218194053817e-02
1.270000000000000018e-01,7.321382307425756963e-02,5.794383609478902415e-03,-4.358940381467603375e-02
1.280000000000000027e-01,6.537518024969364572e-02,-5.431800903054573998e-02,2.316926701995069768e-02
1.290000000000000036e-01,-1.069128648233231248e-02,-5.404538153577786302e-02,5.242777612831351491e-02
1.300000000000000044e-01,-4.981379051177050460e-02,3.168571840408782297e-03,1.166216801594140151e-02
1.310000000000000053e-01,-7.800830090775531800e-02,5.658164889188670166e-02,-9.784511732168984371e-03
1.320000000000000062e-01,3.551341930067623137e-02,5.596539994551519986e-02,-4.113857389272043696e-02
1.330000000000000071e-01,4.480788305045985132e-02,2.699277755349771546e-02,-1.630668937999523935e-02
1.340000000000000080e-01,6.329271206100087199e-02,-2.426467626580203207e-02,1.386011372362854106e-02
1.350000000000000089e-01,-1.094902280592408191e-02,-5.178948754117553704e-02,2.631414189981714016e-02
1.360000000000000098e-01,-4.964991660412296226e-02,-1.809793765515379724e-02,2.497240409818288209e-02
1.370000000000000107e-01,-6.389875641697759234e-02,2.962414760120350016e-02,-7.326254421602706665e-03
1.380000000000000115e-01,-1.507898568429384863e-02,6.544933952377705866e-02,-4.499081783198290163e-02
1.390000000000000124e-01,3.265819640769525301e-02,3.447735388602338885e-02,-2.161323738223943497e-02
1.400000000000000133e-01,8.826660609825352777e-02,-4.294825987564277608e-02,-1.546944163217579653e-02
1.409999999999999865e-01,8.011720753477101845e-03,-4.894906445876891915e-02,3.708797040106252829e-02
1.419999999999999873e-01,-6.803117757674256860e-02,-2.900239311044073773e-02,3.290491923031951121e-02
1.429999999999999882e-01,-5.049803333258871124e-02,-2.913299712852167322e-03,3.131586390501180789e-02
1.439999999999999891e-01,-2.552974062145677361e-02,6.809052448955799086e-02,-4.608275990026181046e-02
1.449999999999999900e-01,5.249541006359145778e-02,3.031390478561642871e-02,-6.465988870756471385e-02
1.459999999999999909e-01,6.847659950922964367e-02,-3.225786903690860269e-02,-2.990048428878759601e-02
1.469999999999999918e-01,2.254504431215651264e-02,-6.789010244418812456e-02,1.290823374627354109e-02
1.479999999999999927e-01,-5.628411868526757289e-02,-3.510945150430829637e-02,4.279776865868027691e-02
1.489999999999999936e-01,-6.740299610449003442e-02,4.418138583035027128e-02,2.865134865959650251e-02
1.499999999999999944e-01,-5.290115973262637245e-02,6.727758042565899765e-02,-1.423119819213911237e-02
1.509999999999999953e-01,2.096126919563610566e-02,2.205411405210824793e-02,-2.721384598297882720e-02
1.519999999999999962e-01,8.164695880599420752e-02,8.126695778099508188e-03,-3.853989377203949438e-03
1.529999999999999971e-01,7.400386438721259785e-02,-5.856848279626273440e-02,2.509076252940895674e-02
1.539999999999999980e-01,-7.313188577538411173e-03,-5.376287871295958032e-02,6.962945785811514021e-02
1.549999999999999989e-01,-8.908517645629696058e-02,-3.495022029366051664e-03,3.325738833600470901e-02
1.559999999999999998e-01,-4.009582364774089830e-02,4.870081494658534682e-02,4.106138427958963902e-03
1.570000000000000007e-01,1.172190900877815092e-02,3.460809775607104344e-02,-5.206873734306122908e-02
1.580000000000000016e-01,6.451734440422861316e-02,-4.758813458972633963e-03,-1.602185025841464106e-02
1.590000000000000024e-01,5.821940585443454580e-02,-6.856786897053608609e-02,1.413641070580661310e-02
1.600000000000000033e-01,-1.061989618418022249e-03,-4.496282716776343891e-02,4.538326621141410000e-02
1.610000000000000042e-01,-8.792288159866490371e-02,-9.114864221280676373e-03,3.866853058624002831e-02
1.620000000000000051e-01,-6.527936300995923480e-02,5.974750760146726319e-02,2.132287556629162972e-02
1.630000000000000060e-01,1.862353982663902908e-03,3.912666500983358331e-02,-4.665711973625873144e-02
1.640000000000000069e-01,6.701217452596029689e-02,2.591961495640860563e-02,-3.444023374843162288e-02
1.650000000000000078e-01,7.537693030012937445e-02,-6.938637547297304975e-02,-4.058808004881948178e-02
1.660000000000000087e-01,7.364940075217055182e-03,-6.270481456079325666e-02,3.148761272350077828e-02
1.670000000000000095e-01,-4.886967994768132845e-02,-2.611343159220363627e-02,3.884208170254527942e-02
1.680000000000000104e-01,-6.032036871464648009e-02,4.473161862848275966e-02,-9.325097210483442381e-03
1.690000000000000113e-01,-2.734404316135076798e-02,6.994692913839362092e-02,-3.494903215032721389e-02
1.700000000000000122e-01,2.927851035063464002e-02,2.085465019574105419e-02,-3.680849557934975230e-02
1.710000000000000131e-01,7.212371386346635993e-02,-3.748354551203916113e-02,-5.892232590251655563e-03
1.719999999999999862e-01,2.623125294949046546e-02,-4.784364136823634345e-02,3.504027392290606086e-02
1.729999999999999871e-01,-4.978495274915956809e-02,8.364247528564978246e-03,3.793572488914220137e-02
1.739999999999999880e-01,-9.869312780130914953e-02,5.619002976941422922e-02,3.625124272525524077e-02
1.749999999999999889e-01,-3.244890790064404451e-02,7.389424004221219200e-02,-3.460788433300266559e-02
1.759999999999999898e-01,5.508780550165304213e-02,5.360519504983658062e-02,-6.810796160514454023e-02
1.769999999999999907e-01,8.647945531592461654e-02,-4.415074699171161327e-02,-3.047003623849232554e-02
1.779999999999999916e-01,3.502598486393225519e-02,-7.376565202005967714e-02,1.438041512084606462e-02
1.789999999999999925e-01,-4.891331282914609946e-02,-1.930544592441198887e-02,4.492155763263903229e-02
1.799999999999999933e-01,-1.020750323689316036e-01,6.813990526686261595e-02,1.708257549352570209e-02
1.809999999999999942e-01,-5.990788486682486341e-02,6.894166148074558353e-02,-1.441502958782705027e-02
1.819999999999999951e-01,4.625044086434870749e-02,2.554131155024069039e-02,-2.887898298017362725e-02
1.829999999999999960e-01,9.372665471085693534e-02,-4.669112063035506070e-03,-2.570795054447544067e-02
1.839999999999999969e-01,2.808730975396741408e-02,-4.518376396683759094e-02,1.619377990337723906e-03
1.849999999999999978e-01,-1.561795973098166999e-02,-5.517162313090827330e-02,3.718284988171623867e-02
1.859999999999999987e-01,-7.030343483042959807e-02,3.495394235869402066e-02,2.941004387383596569e-02
1.869999999999999996e-01,-6.728078947897030149e-02,9.806292661798997334e-02,-1.568932710681338397e-02
1.880000000000000004e-01,1.648817277381713423e-02,4.011288402164373684e-02,-4.558587522612232018e-02
1.890000000000000013e-01,8.164670292763190340e-02,-3.305710296615901184e-02,-3.788165491798081708e-02
1.900000000000000022e-01,5.999850958982623494e-02,-3.015971641062370825e-02,-1.375765947380841805e-02
1.910000000000000031e-01,-1.158072562846904074e-02,-5.017829501021255079e-02,1.551666231866088465e-02
1.920000000000000040e-01,-7.337652502565385204e-02,7.801029972775447990e-04,2.832565418860604270e-02
1.930000000000000049e-01,-7.525366374730943497e-02,5.244357402510369665e-02,-4.457357070004483446e-03
1.940000000000000058e-01,-1.097983174602693880e-02,4.747835767007790170e-02,-3.489632665691973223e-02
1.950000000000000067e-01,7.560115208400529363e-02,-4.743343054523333630e-02,-2.420195716049341680e-02
1.960000000000000075e-01,7.568251608999468361e-02,-4.585332767878213395e-02,-4.879234275013335544e-03
1.970000000000000084e-01,1.897190603884163843e-02,-2.841133503846949085e-02,2.317306381137784407e-02
1.980000000000000093e-01,-8.730686033095609588e-02,3.883584983773528173e-03,5.996499604760045093e-02
1.990000000000000102e-01,-8.757390999632125306e-02,7.969331880789916334e-02,3.155782065724355157e-02
2.000000000000000111e-01,-1.470505995846899290e-02,3.654760314750885031e-02,-1.783328349486063003e-02
2.010000000000000120e-01,7.043851219418696685e-02,-5.430540016519641751e-03,-3.584336736361356385e-02
2.020000000000000129e-01,7.241613298007872068e-02,-5.478645846209932724e-02,-3.242842775688013508e-03
2.030000000000000138e-01,2.632957289547127253e-02,-4.141149583501708281e-02,-1.911422472725789884e-02
2.039999999999999869e-01,-5.243672509351240962e-02,1.305118831699880744e-02,4.328444564179907694e-02
2.049999999999999878e-01,-8.512186288884629470e-02,7.027447709204807935e-02,6.948445909465452743e-03
2.059999999999999887e-01,-4.681498271905910197e-02,1.767482737150790836e-02,-2.560036936652107520e-02
2.069999999999999896e-01,6.153357016592880119e-02,-4.765366013512672798e-03,-4.703165823842760801e-02
2.079999999999999905e-01,7.902543753128704607e-02,-6.194718531312876086e-02,-1.076896320344634950e-02
2.089999999999999913e-01,6.355805781735095195e-02,-3.946023439350086759e-02,1.212703017528631369e-02
2.099999999999999922e-01,-2.704972172636415859e-02,5.740789699106706168e-03,1.878014569873251438e-02
2.109999999999999931e-01,-7.903662230901720154e-02,3.911244512776266419e-02,3.983577699854896903e-02
2.119999999999999940e-01,-4.740558669844189416e-02,4.837587636499014049e-02,2.755780536249283902e-02
2.129999999999999949e-01,-2.425970862181689273e-03,-9.654908244232499048e-03,-3.034393179881725994e-02
2.139999999999999958e-01,8.236717917670101363e-02,-3.459063429044618304e-02,-5.444815330198436720e-02
2.149999999999999967e-01,4.602562582395030438e-02,-5.552476850410470455e-02,9.692866961260912517e-03
2.159999999999999976e-01,-2.904814443736767476e-02,-1.810298067415294296e-02,5.598327350667698515e-02
2.169999999999999984e-01,-9.686821523443986393e-02,4.535118688922019914e-02,3.946016074252094857e-02
2.179999999999999993e-01,-7.247273423044915674e-02,8.535710700730018974e-02,2.988995597295760268e-02
2.190000000000000002e-01,2.911751838093900105e-02,1.268928887410243275e-02,-1.181860659418603257e-02
2.200000000000000011e-01,7.536457860136912268e-02,-4.906279587585113400e-02,-3.516450822476555049e-02
2.210000000000000020e-01,5.469981941341599263e-02,-6.735097456381172742e-02,-1.765506227253564250e-02
2.220000000000000029e-01,-6.158557891579660194e-03,-4.004892566212676051e-03,2.614637467660321096e-02
2.230000000000000038e-01,-8.322459697891430863e-02,4.668262942362487455e-02,7.163228562487213014e-02
2.240000000000000047e-01,-5.972128887419579646e-02,7.088379001249979494e-02,3.324407453621684716e-02
2.250000000000000056e-01,3.101815267458929784e-02,3.228030078015027560e-02,-3.919223849338808463e-02
2.260000000000000064e-01,6.606629127752471076e-02,-5.150446821709362549e-02,-7.477068855293865501e-02
2.270000000000000073e-01,6.360803764308323172e-02,-5.112530543533031629e-02,-2.816502491844150025e-02
2.280000000000000082e-01,7.829999481810465470e-03,-3.035696696524981322e-02,1.557952751478560577e-02
2.290000000000000091e-01,-6.359752193743065107e-02,4.577540237197069012e-02,6.425008557478148474e-02
2.300000000000000100e-01,-9.607154264176871739e-02,5.860369427667041359e-02,2.260173960248175115e-02
2.310000000000000109e-01,-9.386020319115850191e-03,2.107375531407700009e-02,1.131046329343239447e-02
2.320000000000000118e-01,7.461223722857979190e-02,-4.188978796231143664e-02,-5.978024052623028689e-02
2.330000000000000127e-01,7.984775870402786857e-02,-6.996615509047414416e-02,-6.086260099015641800e-02
2.340000000000000135e-01,3.824470165522851628e-02,-5.341561348742979165e-02,9.963038010135864819e-03
2.349999999999999867e-01,-6.103233476821381259e-02,2.012485729037299942e-02,4.455709758328450093e-02
2.359999999999999876e-01,-8.270675112303030319e-02,4.350721314486891145e-02,2.821792063489158425e-02
2.369999999999999885e-01,-3.834891671863568940e-02,3.163654737560151614e-02,1.058617695882449472e-02
2.379999999999999893e-01,4.475906531094147461e-02,-1.960300967400491895e-02,-5.309072438161033247e-02
2.389999999999999902e-01,8.046887219479416375e-02,-4.138775191292378558e-02,-4.230948862132290211e-02
2.399999999999999911e-01,3.093779705171783787e-02,-4.919923760124334661e-02,-4.437383414525188953e-03
2.409999999999999920e-01,-4.163962046439181192e-02,5.916066312822939634e-03,3.983688947557655069e-02
2.419999999999999929e-01,-9.920087492664148021e-02,4.338930895735931131e-02,2.186512160297303733e-02
2.429999999999999938e-01,-3.612051490219599093e-02,4.495510040853721578e-02,4.170862404275580901e-03
2.439999999999999947e-01,6.548095722073643543e-02,-2.450393853367486066e-02,-1.916099974207975676e-02
2.449999999999999956e-01,6.733674213888360405e-02,-6.195397025899526677e-02,-4.324512159632700609e-02
2.459999999999999964e-01,3.060235124790060615e-02,-7.140718934618604796e-02,-4.298854044101107358e-02
2.469999999999999973e-01,-5.057169067166647491e-02,1.733409998996504608e-02,3.277113546638718566e-02
2.479999999999999982e-01,-9.380538750687179850e-02,6.463369587759519586e-02,5.605356110114786267e-02
2.489999999999999991e-01,-5.513832191216849754e-02,5.506368104811903974e-02,3.330512552865126652e-02
2.500000000000000000e-01,2.130234135564033210e-02,2.079570644751470732e-03,-3.579741864207276747e-02
2.510000000000000009e-01,4.814621478201584065e-02,-7.313437784661831753e-02,-5.295403145521367094e-02
2.520000000000000018e-01,5.066356991649997865e-02,-3.503538171371015780e-02,-5.969347304415739686e-02
2.530000000000000027e-01,1.099516222979303980e-02,-3.696946284112476600e-03,2.111190269022260660e-02
2.540000000000000036e-01,-6.606493460079930491e-02,6.155549138325055319e-02,4.039860139022312391e-02
2.550000000000000044e-01,-4.789411819780636792e-02,8.796387931815900785e-02,3.291548330544077916e-02
2.560000000000000053e-01,2.393125362110469934e-03,-3.410832563354048233e-03,-1.522704435711711400e-02
2.570000000000000062e-01,7.533228272444485174e-02,-2.363580785993095804e-02,-5.032524006087691487e-02
2.580000000000000071e-01,7.256878933807844878e-02,-4.953669234902573909e-02,-5.053976117373894933e-02
2.590000000000000080e-01,4.399833679136950365e-03,-2.365118879388501683e-02,-6.262752468084973462e-03
2.600000000000000089e-01,-6.737334916281317865e-02,5.386926618367136876e-02,3.317029876944643102e-02
2.610000000000000098e-01,-6.849253924738137045e-02,7.064213673471182731e-02,4.153917924509485660e-02
2.620000000000000107e-01,-1.844345275295764105e-03,-5.801050352888329105e-03,2.489678128611147716e-03
2.630000000000000115e-01,3.837025528013305459e-02,-4.360075597770964040e-02,-2.823511763930690310e-02
2.640000000000000124e-01,7.419916866279940848e-02,-7.687054117532469977e-02,-5.063043668832718780e-02
2.650000000000000133e-01,1.157945085415848681e-02,5.393975751938782578e-04,-4.481484107034534869e-02
2.660000000000000142e-01,-5.013704496184361037e-02,7.448477958667582000e-02,2.512371090525202313e-02
2.670000000000000151e-01,-8.996032090088171285e-02,6.138440359902784527e-02,3.057998629451785105e-02
2.680000000000000160e-01,-1.419114907566796854e-02,2.107272728944561274e-02,-2.099565310807550989e-03
2.690000000000000169e-01,6.560437763730600502e-02,-4.888192921469378116e-02,-1.005936841769248732e-02
2.700000000000000178e-01,8.875861329417239487e-02,-7.923502747639167565e-02,-5.952993732538489763e-02
2.710000000000000187e-01,4.235736648342978972e-02,-2.511678260855680980e-02,-1.474749897394554005e-02
2.720000000000000195e-01,-4.195494900876393235e-02,5.593282594210242237e-02,-1.994875235263782100e-03
2.730000000000000204e-01,-7.695872111282249517e-02,5.784621913141620858e-02,4.531947646543754010e-02
2.740000000000000213e-01,-3.809797757692010706e-02,1.466455444905327178e-02,4.942131791328268492e-02
2.750000000000000222e-01,6.052136827493706517e-02,-2.827036031359642446e-02,-1.424278094030038966e-02
2.760000000000000231e-01,6.749531442746856125e-02,-9.156531689676090935e-02,-5.218776540288608268e-02
2.770000000000000240e-01,4.875275218925031323e-02,-4.299397597026755752e-02,-3.877462639596759852e-02
2.780000000000000249e-01,-3.034947403704212412e-02,3.573459089605748179e-02,-1.091807021275027940e-02
2.790000000000000258e-01,-6.841251573321407986e-02,5.943269947592796226e-02,5.463934726356952515e-02
2.800000000000000266e-01,-7.145536225364930438e-02,7.310654331747057540e-03,3.615825988721459161e-02
2.810000000000000275e-01,2.914928818334180591e-02,-2.870284201025963614e-02,-1.169045612864383007e-02
2.819999999999999729e-01,6.185971352083673852e-02,-6.073118703308000299e-02,-2.552549225910906786e-02
2.829999999999999738e-01,4.239593411868811806e-02,-2.841691723964722902e-02,-3.710514529619628882e-02
2.839999999999999747e-01,5.578925345096470700e-03,1.603833582310541100e-02,-1.541042077621533786e-02
2.849999999999999756e-01,-7.509042465380279252e-02,5.901373370299478616e-02,4.450157349393255718e-02
2.859999999999999765e-01,-6.623301519537992677e-02,2.864678679393345764e-02,4.456191668129473593e-02
2.869999999999999774e-01,2.152381993228699025e-02,-9.657981297857495123e-03,1.013249865290886259e-02
2.879999999999999782e-01,6.755713935471095721e-02,-4.983068694119738296e-02,-2.384289431842190679e-02
2.889999999999999791e-01,6.940907666902593198e-02,-5.254748456359176201e-02,-3.348529768304515930e-02
2.899999999999999800e-01,-3.740550606393292063e-04,2.094183573671982209e-03,-2.337979013010453837e-03
2.909999999999999809e-01,-6.772336783279871153e-02,4.123611172310778783e-02,4.268911259114620965e-02
2.919999999999999818e-01,-8.637489446479820754e-02,4.188094795703411338e-02,5.033336091639112331e-02
2.929999999999999827e-01,-7.345056223456750480e-03,-4.959222365575314054e-03,2.892560363327163070e-02
2.939999999999999836e-01,6.564639963539216361e-02,-6.237791428067328281e-02,-2.530995123440304279e-02
2.949999999999999845e-01,8.398852874759134279e-02,-5.958402585921010464e-02,-5.328111488512066868e-02
2.959999999999999853e-01,1.362074100213346399e-02,1.420587220757251520e-03,-4.511238178404591848e-02
2.969999999999999862e-01,-2.584201111970379355e-02,7.861469709873251943e-02,4.921353105052038955e-03
2.979999999999999871e-01,-6.351505215096600598e-02,7.439477392781491949e-02,7.544718862160609829e-02
2.989999999999999880e-01,-2.123969850308514429e-02,-9.887017521955933017e-03,2.333899454847869134e-02
2.999999999999999889e-01,2.494698848777570852e-02,-4.861964128478681729e-02,-1.266986127455184928e-02
3.009999999999999898e-01,1.156866071157683917e-01,-5.545067245161552222e-02,-1.632979795836732306e-02
3.019999999999999907e-01,2.722859197421233224e-02,-2.058836464403714789e-02,-3.359465933334305349e-02
3.029999999999999916e-01,-3.902187398754031200e-02,2.866471610442822976e-02,2.433012584408538251e-02
3.039999999999999925e-01,-6.743730949223558646e-02,5.290043469590018088e-02,7.704684984432629002e-02
3.049999999999999933e-01,-4.210498573581866744e-02,8.942484815952394736e-03,1.345900820586772365e-02
3.059999999999999942e-01,6.561677629093752920e-03,-4.180321360850075552e-02,-4.691883784477549751e-03
3.069999999999999951e-01,8.153753998422201554e-02,-5.771439867434691173e-02,-2.373691274969477044e-02
3.079999999999999960e-01,8.447800779046828190e-02,-3.021444792059512288e-02,-5.421712289908259264e-02
3.089999999999999969e-01,-5.641595388717945102e-03,6.286592583217009977e-02,-1.523830460672082575e-02
3.099999999999999978e-01,-8.149730146004761921e-02,3.002588295033711482e-02,2.623809396030650498e-02
3.109999999999999987e-01,-5.392419271757979693e-02,1.265347928624869014e-02,5.384016852287297483e-02
3.119999999999999996e-01,6.106216334687068238e-03,-2.828716990156115649e-02,1.161568392849922013e-02
3.130000000000000004e-01,8.492523230782239585e-02,-5.692264789916251511e-02,-3.263859736358173252e-02
3.140000000000000013e-01,5.344022718374285413e-02,-1.827720333831874336e-02,-3.936548773652017580e-02
3.150000000000000022e-01,-7.741437171683636376e-03,5.512925286568363253e-02,2.307372872920506954e-02
3.160000000000000031e-01,-8.143200691579240147e-02,7.238707748351642934e-02,4.814052951313506357e-03
3.170000000000000040e-01,-6.407401112074034844e-02,2.853457593922340343e-02,5.116016823589562140e-02
3.180000000000000049e-01,-9.811863247235473942e-03,-3.324762787718856666e-02,3.181868632288628596e-02
3.190000000000000058e-01,7.838906067810282041e-02,-3.431740668878013184e-02,-5.235331828196805593e-02
3.200000000000000067e-01,6.044812367118133217e-02,-1.994139494025240489e-02,-6.861634002850457159e-02
3.210000000000000075e-01,1.413346771873110440e-02,4.406500206400910946e-02,-3.798986838893763512e-02
3.220000000000000084e-01,-5.555841040966882222e-02,5.766995051787311699e-02,2.256160628167630869e-02
3.230000000000000093e-01,-7.101876018235789290e-02,2.204592109825124005e-02,5.396073606764795194e-02
3.240000000000000102e-01,-1.391603826974137890e-02,-1.693903601958440808e-02,8.969250580162180242e-03
3.250000000000000111e-01,7.715683346794437181e-02,-6.696389118375885297e-02,-8.394248255740661057e-04
3.260000000000000120e-01,6.589441064501852519e-02,-4.703291217100463717e-02,-5.046774614426408068e-02
3.270000000000000129e-01,2.475016613894781212e-02,4.133733076470017670e-02,-3.578965272483040916e-02
3.280000000000000138e-01,-3.242241294993360168e-02,4.397004587592270863e-02,1.031643169654370730e-02
3.290000000000000147e-01,-9.129226056068018291e-02,3.592849273213643418e-02,8.184013779484276135e-03
3.300000000000000155e-01,-1.707970478314358581e-02,-2.572568661720020522e-02,5.167293532696509012e-02
3.310000000000000164e-01,5.124920142198461509e-02,-4.092478894912810611e-02,-1.831928330830405200e-03
3.320000000000000173e-01,6.506134930118484538e-02,-4.895121321523027841e-02,-4.036338633915439317e-02
3.330000000000000182e-01,5.425392785636844878e-02,5.259134393652970842e-03,-4.346153129354328459e-02
3.340000000000000191e-01,-4.500962576185673497e-02,5.239498919919965275e-02,-5.168841257149270167e-03
3.350000000000000200e-01,-7.166430157315158145e-02,5.146869540236724549e-02,3.713000578049819450e-02
3.360000000000000209e-01,-4.735493906514833679e-02,-1.734981114369080896e-02,6.403458646453701053e-02
3.370000000000000218e-01,5.009339339650509954e-02,-3.687866643263575106e-02,6.666417210476173819e-03
3.380000000000000226e-01,7.028712598791102273e-02,-6.792008621820221081e-02,-4.123960945757749325e-02
3.390000000000000235e-01,9.566216960176446293e-02,-4.210227706164059065e-03,-3.071404520731811291e-02
3.400000000000000244e-01,-4.228094879995772382e-02,6.233469033243783930e-02,3.488993917109583284e-03
3.410000000000000253e-01,-8.147269957872098345e-02,4.619614309201674346e-02,3.219958314079755801e-02
3.420000000000000262e-01,-4.775005693176769678e-02,-2.800622030533073820e-02,3.734047894122109745e-02
3.430000000000000271e-01,-7.584508593771516552e-03,-4.497550225422530107e-02,1.383267979496450271e-02
3.439999999999999725e-01,8.438860386462314345e-02,-5.563511077883627476e-02,-1.740955812963420474e-02
3.449999999999999734e-01,5.682148264181152014e-02,1.781042162428904570e-03,-7.096707282661879335e-02
3.459999999999999742e-01,-1.433965720360953593e-02,6.179620971454260342e-02,-4.052492198781683375e-02
3.469999999999999751e-01,-7.538764412171482243e-02,7.640849731236230846e-02,1.310508377413384558e-02
3.479999999999999760e-01,-7.840481479831287737e-02,-5.622328035323826551e-03,4.025362210318483847e-02
3.489999999999999769e-01,9.171311298998957237e-03,-3.801953731392436475e-02,5.371046286887388305e-02
3.499999999999999778e-01,6.559171336696151267e-02,-5.123181951863989281e-02,-7.072803380939758806e-03
3.509999999999999787e-01,6.432128474525798667e-02,-1.345756190576776097e-02,-4.332928580731207346e-02
3.519999999999999796e-01,-7.488329759829790615e-04,6.549142911095628961e-02,-2.288679201596423296e-02
3.529999999999999805e-01,-6.952727047585036124e-02,7.440012187599315263e-02,4.135612944499002762e-03
3.539999999999999813e-01,-5.314265543875287129e-02,2.677053042654492857e-02,1.047091525187413517e-02
3.549999999999999822e-01,1.517754126657579888e-02,-2.933464637576498057e-02,1.852387878911609595e-02
3.559999999999999831e-01,6.121598090299767980e-02,-7.624539967641914828e-02,-1.222546206930357621e-02
3.569999999999999840e-01,9.296315399379230515e-02,-2.954532688891159387e-02,-3.941438515838442680e-02
3.579999999999999849e-01,2.715751859093394963e-02,6.396462281483134005e-02,-5.420846577339412387e-02
3.589999999999999858e-01,-7.986130936873414576e-02,6.899813508695019915e-02,-5.078584905392705823e-04
3.599999999999999867e-01,-1.076175508770845640e-01,3.366889377245837339e-02,9.402434499213239635e-03
3.609999999999999876e-01,-2.209874682841850985e-02,-1.048691229698321507e-02,7.033158669253017359e-02
3.619999999999999885e-01,5.969559722666121365e-02,-5.768858770982172174e-02,6.061117199432111864e-03
3.629999999999999893e-01,7.913908614140778564e-02,-2.277207336163989543e-02,-2.809700916765572529e-02
3.639999999999999902e-01,3.936773341234346690e-02,2.375853015863148288e-02,-3.318026182054577972e-02
3.649999999999999911e-01,-5.974637854680531907e-02,9.103444725058497389e-02,6.988878686350276544e-03
3.659999999999999920e-01,-6.061930393843797255e-02,5.002191504298129227e-02,2.188425971573521381e-02
3.669999999999999929e-01,-4.213346190274228770e-02,-4.317017975566443677e-02,6.101239929968947651e-02
3.679999999999999938e-01,1.492781746274900352e-02,-6.615846914942398460e-02,4.180808327182094358e-02
3.689999999999999947e-01,7.988431204431484245e-02,-2.992993976778565712e-02,-2.773858443049323497e-02
3.699999999999999956e-01,5.285357504582788996e-02,1.014719664483186394e-02,-2.559444686436456937e-02
3.709999999999999964e-01,-4.664113828137856493e-02,7.627102022414318505e-02,-4.712363314695035971e-02
3.719999999999999973e-01,-6.235386511838812706e-02,3.861214740715653015e-02,-8.474979310625869533e-04
3.729999999999999982e-01,-5.851941594833226512e-02,-1.766837538113610537e-02,4.041412100329422330e-02
3.739999999999999991e-01,1.301911419658269807e-02,-8.525747060547134160e-02,4.079950538032709600e-02
3.750000000000000000e-01,1.082827853867946305e-01,-3.848720597212995642e-02,-1.797736940922356474e-02
3.760000000000000009e-01,6.652223376023083667e-02,5.081301244518022890e-03,-6.742739278331240371e-02
3.770000000000000018e-01,-1.666912888789202907e-02,5.853117589938929000e-02,-2.590276210462310810e-02
3.780000000000000027e-01,-5.215311317173346867e-02,2.132268437469566486e-02,3.396501136573595436e-03
3.790000000000000036e-01,-6.878407308398318265e-02,-1.769187610970388708e-02,6.210706541873228445e-03
3.800000000000000044e-01,-2.272783677694856566e-04,-7.449534407594879393e-02,6.537101246957571776e-02
3.810000000000000053e-01,4.185581285591977174e-02,-3.580240461552579995e-02,1.370542647554731652e-02
3.820000000000000062e-01,6.172279676694580192e-02,-5.337351692259472563e-03,-3.930724103053716972e-02
3.830000000000000071e-01,1.265518187280658844e-03,5.783904671926977381e-02,-2.034934308419612814e-02
3.840000000000000080e-01,-6.153178669679563312e-02,3.959192682223386384e-02,-1.308053461769135770e-02
3.850000000000000089e-01,-5.104349688107286814e-02,-2.182667988967045350e-02,6.181407369433095968e-03
3.860000000000000098e-01,-1.518351565172912886e-02,-4.951399410539433776e-02,5.482851641156927941e-02
3.870000000000000107e-01,4.581676310099536825e-02,-4.931896232370018562e-02,8.212166101978287812e-05
3.880000000000000115e-01,5.965732952715609161e-02,-5.299371318459217967e-03,-4.002890452243301062e-02
3.890000000000000124e-01,3.907977698595362093e-02,6.463599861513215361e-02,-4.712118935606948722e-02
3.900000000000000133e-01,-5.722909261476451237e-02,4.988188823977191683e-02,-2.990030262765725269e-02
3.910000000000000142e-01,-8.747705146298147272e-02,-8.144229780446049158e-03,1.962163814810015394e-02
3.920000000000000151e-01,-3.900162382388123322e-02,-8.050631396455935895e-02,5.531034921390455550e-02
3.930000000000000160e-01,2.854881213410966415e-02,-5.878667852642979058e-02,1.828725286675903991e-02
3.940000000000000169e-01,7.253457620378445103e-02,2.999840372879169527e-03,-1.191496641556593662e-02
3.950000000000000178e-01,4.990782726669544533e-02,6.764199336585199895e-02,-4.926123249798928377e-02
3.960000000000000187e-01,-3.781646586355830869e-02,6.877117716333520925e-02,-1.833077401554625632e-02
3.970000000000000195e-01,-8.580579059365765759e-02,5.739647529562401373e-03,5.488809166966945353e-03
3.980000000000000204e-01,-3.403196388270672557e-02,-4.372768964569615641e-02,5.388615740522564174e-02
3.990000000000000213e-01,4.138910875150081381e-02,-7.970837315315176808e-02,3.689111015154682843e-02
4.000000000000000222e-01,7.976823499295487840e-02,-2.057113714369596461e-02,2.440219311970914795e-02
4.010000000000000231e-01,6.932767444411323809e-02,6.210583056537103547e-02,-6.287638401350768846e-02
4.020000000000000240e-01,-4.603098406104627616e-02,6.907884453080952170e-02,-4.825722596120486652e-02
4.030000000000000249e-01,-6.413480228604331868e-02,2.624454851816494100e-02,9.894370909990670912e-03
4.040000000000000258e-01,-6.242735162978817892e-02,-4.923054295255720192e-02,5.783757924432190306e-02
4.050000000000000266e-01,2.206918383364132874e-02,-5.718964572332964347e-02,5.619739724029095690e-02
4.060000000000000275e-01,4.961974022399271572e-02,-9.566653055344633005e-03,3.268896569591202977e-02
4.069999999999999729e-01,5.665876831091536808e-02,2.897395270393460925e-02,-3.713183016716630619e-02
4.079999999999999738e-01,-1.412970294376699257e-02,5.170140154812791905e-02,-2.325949176636402105e-02
4.089999999999999747e-01,-9.849236306198176638e-02,2.343927470518240158e-02,-1.188196500364290843e-02
4.099999999999999756e-01,-4.299468615030585528e-02,-4.060596410745132695e-02,2.384015804244522720e-03
4.109999999999999765e-01,2.076593986873212158e-02,-5.344627072699745934e-02,5.824686784707500814e-02
4.119999999999999774e-01,6.244631466137512410e-02,-5.618429136910343263e-02,8.609779447847286729e-03
4.129999999999999782e-01,8.967849739859026781e-02,4.434164302728650642e-02,-1.736770175909932087e-02
4.139999999999999791e-01,-3.649962517391629191e-02,8.411722641969637815e-02,-6.211737368011197719e-02
4.149999999999999800e-01,-6.806675878149379133e-02,3.484795729543826992e-02,-1.549561726707711189e-02
4.159999999999999809e-01,-4.744205799040815408e-02,-3.824513114933815461e-02,2.232056070303554268e-02
4.169999999999999818e-01,-1.701544188737148106e-02,-5.394604007416883840e-02,4.017932715096210472e-02
4.179999999999999827e-01,4.386009492054034759e-02,-1.241462487247115346e-02,5.747553833486952757e-02
4.189999999999999836e-01,5.786613083956439196e-02,1.101320498309835486e-02,-1.308369714351651121e-02
4.199999999999999845e-01,1.223231917221584246e-02,6.113617945933538106e-02,-5.007498207808304402e-02
4.209999999999999853e-01,-5.458323072079305366e-02,3.249660330310829431e-02,-2.781041417253029072e-02
4.219999999999999862e-01,-7.021040846211146214e-02,-7.633863391457268791e-03,1.569663343070619443e-03
4.229999999999999871e-01,-2.897399657506046639e-02,-4.684326710020962625e-02,5.517832359031735884e-02
4.239999999999999880e-01,7.919360425548768734e-02,-7.303210935495905998e-02,2.364504206258029664e-02
4.249999999999999889e-01,6.332668994185466915e-02,2.121153290120520243e-02,-1.777969191333508402e-03
4.259999999999999898e-01,1.195002367040057592e-02,3.702119150089826227e-02,-2.903569309716384772e-02
4.269999999999999907e-01,-3.560804215814548229e-02,5.230679556343996450e-02,-6.364431890688698745e-02
4.279999999999999916e-01,-7.634695439038369225e-02,7.688925538128451621e-04,1.367702291044422744e-02
4.289999999999999925e-01,-7.192962166349882447e-02,-7.909643810966660027e-02,5.928176894437838657e-02
4.299999999999999933e-01,4.206344577512270005e-02,-4.878527090780031966e-02,4.241933620794774429e-02
4.309999999999999942e-01,7.026242643287812506e-02,2.457653512843509594e-02,1.279588780572877942e-02
4.319999999999999951e-01,4.868140861881920661e-02,5.467613917266841289e-02,-3.055018752727959794e-02
4.329999999999999960e-01,-3.446676462709028638e-02,4.447009705322620826e-02,-6.921039024957470476e-02
4.339999999999999969e-01,-9.490937826920511911e-02,7.863901639059138905e-04,-2.033960945582898375e-02
4.349999999999999978e-01,-8.076972807841477364e-02,-1.290609337404752602e-02,3.764514830918264804e-02
4.359999999999999987e-01,1.074682600452616169e-02,-5.827028239330668546e-02,5.752948386006120213e-02
4.369999999999999996e-01,6.405723646206847033e-02,-1.758938026832505136e-02,-1.180948840600192819e-02
4.380000000000000004e-01,6.249734174001871784e-02,4.653603494714622646e-02,-1.798501821629748532e-02
4.390000000000000013e-01,-9.457521010714117077e-03,6.060568662611896806e-02,-1.801878102364464981e-02
4.400000000000000022e-01,-5.729284105285548795e-02,3.161247766159901856e-02,-1.861959035705624405e-02
4.410000000000000031e-01,-7.637400958449584720e-02,-5.648217873959572588e-02,1.968964471753347975e-02
4.420000000000000040e-01,-1.437853336308403222e-02,-3.800784112908748430e-02,4.173952254243865068e-02
4.430000000000000049e-01,7.040703051883522023e-02,-1.193588570249417072e-02,4.857491766838475250e-02
4.440000000000000058e-01,6.404769950642735798e-02,2.415517943893346134e-02,-1.498949401307156891e-02
4.450000000000000067e-01,-5.033996354580121124e-03,3.192993238177340570e-02,-4.463546432636380373e-02
4.460000000000000075e-01,-5.923489581065537191e-02,2.632375186042302737e-02,-2.664529648179167487e-02
4.470000000000000084e-01,-5.791274736396708617e-02,-5.324943096363104339e-02,-3.164974091165233868e-03
4.480000000000000093e-01,-4.048140204295251274e-03,-7.237280894987872804e-02,3.341753197282584104e-02
4.490000000000000102e-01,7.127021152033888307e-02,-2.306886459302716005e-02,2.281820427332682116e-02
4.500000000000000111e-01,7.968050974501916794e-02,3.895846243573996420e-02,-1.570028027512778909e-02
4.510000000000000120e-01,-1.673713317930696637e-02,6.183398460711730937e-02,-2.645320868942808989e-02
4.520000000000000129e-01,-6.657771773214582467e-02,4.502664138139883532e-02,-6.175703513776648751e-02
4.530000000000000138e-01,-7.435154663387449903e-02,-3.175512951731409433e-02,-1.504543000965904292e-02
4.540000000000000147e-01,-8.941187151509195560e-03,-5.485340306769038998e-02,7.809836473143905167e-02
4.550000000000000155e-01,5.578589251272413757e-02,-5.742592386184716680e-02,6.482363639343863282e-02
4.560000000000000164e-01,8.542003297102523929e-02,3.466959501364826751e-02,-2.151456646297263131e-02
4.570000000000000173e-01,4.785857490884584675e-02,6.202258129007804516e-02,-2.482295288527729474e-02
4.580000000000000182e-01,-3.596085259510116428e-02,1.918585168656001053e-02,-3.726602256942574548e-02
4.590000000000000191e-01,-8.968311081057649126e-02,-1.615978454231214306e-02,1.107897723969740456e-02
4.600000000000000200e-01,-4.018690669017985911e-02,-2.937655620473629547e-02,2.998009436343992626e-02
4.610000000000000209e-01,4.925566405181604213e-02,-4.531792151979063127e-02,6.738336849915642357e-02
4.620000000000000218e-01,8.951074350960042114e-02,4.615086707286990969e-02,3.073773603789202447e-02
4.630000000000000226e-01,6.592815132751507490e-02,8.992284761943912519e-02,-4.695804049978217348e-02
4.640000000000000235e-01,-1.207090226837044707e-02,4.318395853508270876e-02,-4.286847096680574537e-02
4.650000000000000244e-01,-7.108151744071870837e-02,-1.964146403935280311e-02,-3.705283175568320486e-02
4.660000000000000253e-01,-5.064089637416513412e-02,-4.661879849657562386e-02,3.104919332310842814e-02
4.670000000000000262e-01,5.302829465294549988e-02,-3.748851983469299320e-02,3.013851310400224304e-02
4.680000000000000271e-01,6.870378127516389710e-02,1.544868848403690119e-02,2.354845478642673615e-02
4.689999999999999725e-01,5.458197097290851119e-02,4.381260310737180447e-02,-1.498081251959222475e-02
4.699999999999999734e-01,1.690862564812328078e-02,5.489614262622274921e-02,-2.023229859821927198e-02
4.709999999999999742e-01,-8.960240862491131164e-02,4.957637288220084065e-03,-2.835165780378759090e-02
4.719999999999999751e-01,-6.711195448583112677e-02,-4.032621667602774573e-02,-3.020905657422273249e-03
4.729999999999999760e-01,1.491131816020855108e-02,-4.781677194020854393e-02,4.065228893165470647e-02
4.739999999999999769e-01,6.508023185227983232e-02,1.676620378767156028e-02,4.251441190029073280e-02
4.749999999999999778e-01,7.763874060755557305e-02,6.930181965804879662e-02,-1.517839027229658626e-03
4.759999999999999787e-01,6.380800989105033828e-03,5.390892803215902029e-02,-3.030670031016650598e-02
4.769999999999999796e-01,-6.925151114101342487e-02,1.277760053116680158e-02,-6.467608707282077041e-02
4.779999999999999805e-01,-1.019025721316958732e-01,-6.429424317763998697e-02,8.071346171880286122e-03
4.789999999999999813e-01,-9.512990831436836728e-03,-4.390531800150413583e-02,3.774568219014361181e-02
4.799999999999999822e-01,6.534567916816734490e-02,3.962147097390397027e-03,3.355103598222011763e-02
4.809999999999999831e-01,4.557817069006867700e-02,4.434089962320791195e-02,4.206225014690239544e-03
4.819999999999999840e-01,3.663675201220606414e-02,5.570968462146562439e-02,-4.261142539145298946e-02
4.829999999999999849e-01,-5.663040381826232178e-02,-1.256719169826746091e-03,-5.808389597978909358e-02
4.839999999999999858e-01,-6.003231246739876292e-02,-4.343194770422029172e-02,-2.344238528484495626e-02
4.849999999999999867e-01,-6.172268486577551540e-03,-4.130723075177845927e-02,8.394901595781285170e-03
4.859999999999999876e-01,4.605100815843253537e-02,-3.761727492857760979e-02,3.569822176432412703e-02
4.869999999999999885e-01,8.121553108062513904e-02,4.952009704476563468e-02,8.592814525999843342e-03
4.879999999999999893e-01,6.665832396915540373e-03,5.047125004273544241e-02,-4.530023027112094897e-03
4.889999999999999902e-01,-7.292574868812007338e-02,-5.161378344806248977e-03,-5.060142078260826404e-02
4.899999999999999911e-01,-8.015250132508780490e-02,-3.914904506786785754e-02,-1.460316934221877290e-03
4.909999999999999920e-01,-3.601701286659179935e-02,-7.073524176933282392e-02,3.234240069587459437e-02
4.919999999999999929e-01,3.926267753706068342e-02,-9.027494169014256206e-03,2.749737194881238245e-02
4.929999999999999938e-01,8.115525705425991054e-02,2.933577958077289785e-02,3.322628739231923978e-02
4.939999999999999947e-01,3.927785502704665699e-02,5.915779120124025486e-02,-2.028236385574740466e-02
4.949999999999999956e-01,-5.953144502488173090e-02,2.367469345975286091e-02,-3.438772626971346030e-02
4.959999999999999964e-01,-7.159148958277770924e-02,-3.790798484692568110e-02,-4.944441567969046908e-02
4.969999999999999973e-01,-7.364716671644860879e-02,-7.706141521903808744e-02,8.407903130289131471e-03
4.979999999999999982e-01,3.204804539427199422e-02,-1.547851736084927127e-02,3.025441053652775172e-02
4.989999999999999991e-01,7.036967377635001963e-02,6.348513115808596119e-02,2.012911029229711227e-02
5.000000000000000000e-01,6.743586474328404357e-02,8.718187902346266616e-02,1.544221206859825411e-02
5.010000000000000009e-01,-3.357011535751667358e-02,3.252782970888712377e-02,-3.930374797684098309e-02
5.020000000000000018e-01,-5.831761434562691276e-02,-2.842788314404343791e-02,-5.259311508201432867e-02
5.030000000000000027e-01,-6.401874583990684042e-02,-6.265096981686441024e-02,-2.866351396188835179e-02
5.040000000000000036e-01,2.861096272371654523e-02,-4.476830145971622682e-02,3.544446846772892484e-02
5.050000000000000044e-01,7.019304455641113549e-02,5.085052274296079228e-02,3.788292284424248785e-02
5.060000000000000053e-01,7.064049129539308469e-02,4.853348129835232533e-02,3.631270227986738153e-02
5.070000000000000062e-01,-1.724823534655108362e-02,4.730312168084385011e-02,-5.222061531591701278e-02
5.080000000000000071e-01,-5.617390542952532817e-02,-3.983836652465657518e-02,-4.717644967616593105e-02
5.090000000000000080e-01,-6.596243232187970484e-02,-5.487337390213133798e-02,-1.646262597278315767e-02
5.100000000000000089e-01,1.255662528239411858e-02,-5.083724734062951278e-02,1.331220008378406101e-02
5.110000000000000098e-01,7.045952865467998427e-02,2.397086692980906000e-02,3.709958316350824015e-02
5.120000000000000107e-01,8.761867470150765114e-02,8.268589198150162745e-02,3.633963683399157180e-02
5.130000000000000115e-01,1.397101867013458322e-02,6.199444460334269102e-02,4.383744806398628447e-05
5.140000000000000124e-01,-5.689226433465587734e-02,-2.068592319996277393e-02,-2.792229916614143506e-02
5.150000000000000133e-01,-7.977994035113530891e-02,-6.934013928389250181e-02,-8.884607430554008339e-03
5.160000000000000142e-01,-9.888513045897778450e-03,-5.663576869870230734e-02,2.192747612372262372e-02
5.170000000000000151e-01,4.553142264919139703e-02,7.904829603362069010e-03,6.532671133808932995e-02
5.180000000000000160e-01,8.557220145095714714e-02,5.376948078451999902e-02,4.064780764943167618e-02
5.190000000000000169e-01,3.470858657758718602e-02,4.595204687548860162e-02,-9.204374236801112982e-03
5.200000000000000178e-01,-5.226919157160991175e-02,2.025621504991816438e-02,-5.317168786097246913e-02
5.210000000000000187e-01,-9.397969368766921627e-02,-6.738397201583294638e-02,-2.470356466569479520e-02
5.220000000000000195e-01,-1.474205511976981950e-02,-6.282501151265021400e-02,1.366258283903581776e-02
5.230000000000000204e-01,2.483432669589782926e-02,9.435223298906581088e-04,6.064698578581072252e-02
5.240000000000000213e-01,8.266129424031695705e-02,6.559985169391638338e-02,5.519416032637231712e-02
5.250000000000000222e-01,3.653391894164668280e-02,2.522012514913243852e-02,1.798423295644246966e-02
5.260000000000000231e-01,-3.407678344774504181e-02,-1.701006442823232295e-02,-3.888561786397797676e-02
5.270000000000000240e-01,-6.102501931619777609e-02,-3.315269004601070768e-02,-2.585409313085628227e-02
5.280000000000000249e-01,-7.600670739427146938e-02,-3.873171493316157621e-02,1.814964682590070912e-03
5.290000000000000258e-01,3.218671250214413110e-02,1.387912253837373169e-02,1.146654780385258920e-02
5.300000000000000266e-01,6.932901672476168842e-02,4.166226554579074981e-02,3.331283704530873385e-02
5.310000000000000275e-01,5.071819699546376708e-02,2.798574430374478964e-02,3.747864615038382086e-02
5.320000000000000284e-01,-1.300487525208434379e-02,1.510587345999454129e-02,-2.519288141216544791e-02
5.330000000000000293e-01,-5.905292779190846747e-02,-6.630502518373362908e-02,-5.025187573900698895e-02
5.340000000000000302e-01,-5.449525690165867714e-02,-5.700114976550218343e-02,-2.697667316953547556e-02
5.350000000000000311e-01,2.743229034367133598e-02,-2.779836435293629032e-02,1.862992068277053923e-02
5.360000000000000320e-01,5.817829888619605733e-02,3.537250471386905321e-02,3.865420305831230446e-02
5.370000000000000329e-01,6.484841895484251550e-02,3.920661325150905097e-02,1.954264025739611485e-02
5.380000000000000338e-01,1.879552608873392289e-02,3.306662043727531114e-02,-2.423169102095897726e-02
5.390000000000000346e-01,-5.541782847086829111e-02,-4.108962747069766497e-02,-3.240764619395677948e-02
5.400000000000000355e-01,-8.279742733820592837e-02,-4.795497594987492562e-02,-4.803134392117427293e-02
5.410000000000000364e-01,3.820875204949784627e-03,-4.109722692126401705e-02,-4.715579570864362850e-03
5.420000000000000373e-01,6.960642432150961068e-02,3.781549289414835174e-02,6.064734254242826889e-02
5.430000000000000382e-01,4.335898559756106579e-02,7.065120983475887961e-02,2.199982100682726718e-02
5.440000000000000391e-01,3.061820294972334572e-02,3.764110236639568730e-02,-3.265729478760263232e-02
5.450000000000000400e-01,-6.603685629505622046e-02,-3.611999344109437932e-02,-1.863434183192172119e-02
5.460000000000000409e-01,-8.359127729218952807e-02,-8.393700852123187062e-02,-3.209383254272208524e-02
5.470000000000000417e-01,-1.348437025925844183e-02,-2.065716351554847466e-02,-3.022996567981113113e-03
5.480000000000000426e-01,4.360643365723325393e-02,3.986907729868961747e-02,4.034809814373224723e-02
5.490000000000000435e-01,7.971260438092805933e-02,5.522685172478235260e-02,1.896420457028958131e-02
5.500000000000000444e-01,3.393446076935091593e-02,6.597640748348088460e-03,-8.727545658050461092e-03
5.510000000000000453e-01,-6.367203013784002164e-02,-3.998472651804760303e-02,-2.473003650091330774e-02
5.520000000000000462e-01,-7.676024116392103636e-02,-5.211189672902633019e-02,-3.543386849627368218e-02
5.530000000000000471e-01,-2.481167267975953328e-02,-4.142893592339979419e-02,-1.825286746504848788e-03
5.540000000000000480e-01,6.014622389564511923e-02,1.562563934321338846e-02,2.810423144086987915e-02
5.550000000000000488e-01,8.694205511144294241e-02,4.769272722652404678e-02,5.248347310636151258e-02
5.560000000000000497e-01,1.110830740457277067e-02,4.075130276257787898e-02,2.544040239049862734e-02
5.570000000000000506e-01,-1.102664268386857604e-02,-1.110308257775155169e-02,-1.350188290491648874e-02
5.580000000000000515e-01,-8.567273646376592777e-02,-6.043698551696116000e-02,-5.756519497019932374e-02
5.590000000000000524e-01,-4.990508986928093166e-02,-3.168040801203050871e-02,-6.492515071826399087e-02
5.600000000000000533e-01,3.398064984049844334e-02,8.823609554810939865e-03,8.050393636809883777e-03
5.610000000000000542e-01,9.370179366921106701e-02,5.826757374562401698e-02,2.597745397137328494e-02
5.620000000000000551e-01,5.817293104590517960e-02,3.183008205536830282e-02,2.924407287408634093e-02
5.629999999999999449e-01,-2.016897160769381969e-02,-1.651326618216080594e-02,-2.174934990917797017e-02
5.639999999999999458e-01,-6.046536263507689551e-02,-3.393745897937591044e-02,-7.516340315023531393e-02
5.649999999999999467e-01,-4.581988044861790704e-02,-3.331945969502821819e-02,-3.664274110068089368e-02
5.659999999999999476e-01,2.999326575774206166e-03,1.153525786684360399e-02,2.533769988297775860e-02
5.669999999999999485e-01,7.193120647806246215e-02,5.945397612020690559e-02,4.131957020413429965e-02
5.679999999999999494e-01,4.498028300509748084e-02,8.239354336437521020e-02,4.987585059610044613e-02
5.689999999999999503e-01,2.338912234731063342e-02,1.382425908029568003e-02,7.768922174413235744e-03
5.699999999999999512e-01,-8.208968481227815750e-02,-6.013723079630305113e-02,-4.121468115043250280e-02
5.709999999999999520e-01,-5.629839324334789952e-02,-5.316403907121231703e-02,-2.391798604886751639e-02
5.719999999999999529e-01,7.998608533696077716e-03,-5.403166360899993963e-03,-1.088120226649736538e-02
5.729999999999999538e-01,6.247295687752808802e-02,5.544962810847976764e-02,2.886246574910652021e-02
5.739999999999999547e-01,7.597379304961765500e-02,6.457764620360065266e-02,5.017226870342646888e-02
5.749999999999999556e-01,-6.634727228832778233e-03,1.581613626973379927e-02,7.077196665961414494e-03
5.759999999999999565e-01,-4.989249800535613261e-02,-4.136672814765645495e-02,-2.759403834157826002e-02
5.769999999999999574e-01,-8.274500421942616868e-02,-5.269755372664226140e-02,-5.381782765797449991e-02
5.779999999999999583e-01,-5.028385163996771691e-03,-1.737740564545610378e-02,-3.764678211687587372e-02
5.789999999999999591e-01,6.148353931106571857e-02,6.117902613784243632e-02,4.281441368843470069e-02
5.799999999999999600e-01,5.431426290987970140e-02,6.381516781757334833e-02,4.806797925792062609e-02
5.809999999999999609e-01,2.345707705392182860e-02,1.162969450279383900e-02,2.521439975604762920e-02
5.819999999999999618e-01,-4.070224600963365247e-02,-4.159189615026846060e-02,-5.425805874214045810e-02
5.829999999999999627e-01,-7.462986276696510768e-02,-5.219188329336742899e-02,-4.736007927698127756e-02
5.839999999999999636e-01,-4.488747187709081488e-02,-2.235916529361755764e-02,-3.361955847146812226e-02
5.849999999999999645e-01,7.212341824407307589e-02,3.045483456805025274e-02,1.849986292799563406e-02
5.859999999999999654e-01,6.425116646458545189e-02,5.742494648330281892e-02,4.176876001130282179e-02
5.869999999999999662e-01,4.957372206904432643e-02,3.663563091089911544e-02,3.159273899028417626e-02
5.879999999999999671e-01,-4.971867226864700590e-02,-3.957513303803369964e-02,-7.359435405112140990e-04
5.889999999999999680e-01,-8.539573049016238593e-02,-6.610750297369800965e-02,-3.169092898665634012e-02
5.899999999999999689e-01,-3.022294856295636503e-02,-3.470800265043568616e-02,-3.807475199680909750e-02
5.909999999999999698e-01,2.197262242705319904e-02,3.478846064926262305e-02,-1.054503655511339344e-02
5.919999999999999707e-01,1.008452547946960265e-01,7.032745337728033008e-02,2.434441344845441474e-02
5.929999999999999716e-01,3.021011086514916247e-02,3.477565842637875965e-02,4.814755828712145164e-02
5.939999999999999725e-01,-9.088260908112537340e-03,-1.928139316180337015e-02,8.591110422060938391e-04
5.949999999999999734e-01,-8.844021227751303060e-02,-3.984495434780259415e-02,-5.045942461274671026e-02
5.959999999999999742e-01,-3.097659388603838868e-02,-4.087446232322349687e-02,-2.422323318918237836e-02
5.969999999999999751e-01,-8.643004329353130843e-03,2.259816461066565391e-02,-1.951459158817165848e-02
5.979999999999999760e-01,8.250203402563374699e-02,6.066746571694164869e-02,4.895240472253877678e-02
5.989999999999999769e-01,6.780385503064556563e-02,4.370746011242983287e-02,3.742776241834044892e-02
5.999999999999999778e-01,-3.646872755631534561e-03,-1.471111727158075887e-02,-1.324345843718877092e-02
6.009999999999999787e-01,-5.895891984439276257e-02,-5.729524119941330901e-02,-4.507100528371652676e-02
6.019999999999999796e-01,-6.992458053290731557e-02,-6.257341700331378598e-02,-5.753620979281225817e-02
6.029999999999999805e-01,-7.611014344098193662e-03,-1.958408800385886932e-03,-7.180362667391845810e-03
6.039999999999999813e-01,5.664406562010627227e-02,4.722921583009862673e-02,3.034163227458514314e-02
6.049999999999999822e-01,8.712079061753616460e-02,5.572409823435608284e-02,5.531854304567031255e-02
6.059999999999999831e-01,4.495509109635440446e-03,-7.647125804227157368e-03,2.780179259610101455e-02
6.069999999999999840e-01,-7.422840768459740279e-02,-4.737369991901714539e-02,-3.523129962751638672e-02
6.079999999999999849e-01,-6.067474639098840994e-02,-3.538710757473486485e-02,-5.263738963499237089e-02
6.089999999999999858e-01,7.248124742051912858e-03,1.118259511549814234e-02,-2.409092030492020545e-02
6.099999999999999867e-01,5.696956251436847279e-02,2.271783792356842774e-02,-1.181424400781838418e-03
6.109999999999999876e-01,8.467497308348977125e-02,5.626449963702815499e-02,5.376038898939809740e-02
6.119999999999999885e-01,5.131754885693952384e-02,-1.219895319950362912e-02,4.370217598396843039e-02
6.129999999999999893e-01,-5.835735202281985834e-02,-3.381158497617101771e-02,-3.910415941315876359e-03
6.139999999999999902e-01,-6.350533806142233395e-02,-4.697422565013217866e-02,-3.506225413584217188e-02
6.149999999999999911e-01,-3.781978469603177601e-02,-2.301039777148266088e-02,-1.903937676527615516e-02
6.159999999999999920e-01,2.025167019429604739e-02,6.180127020858568881e-02,-6.029518432330028752e-03
6.169999999999999929e-01,7.961368485366007719e-02,6.361667362518470814e-02,6.441743381460715567e-02
6.179999999999999938e-01,4.640102580596885268e-02,2.234502801803514918e-02,2.488283241844284691e-02
6.189999999999999947e-01,-2.161250093607434974e-02,-4.291132674693992621e-02,1.562050956499624887e-02
6.199999999999999956e-01,-1.012401349818824459e-01,-7.658168702675388628e-02,-4.711766947475701239e-02
6.209999999999999964e-01,-1.854897774790525977e-02,1.887599072092382285e-02,-4.543910785090901627e-02
6.219999999999999973e-01,4.094229918650817146e-02,4.799118368280336222e-02,-3.572411875721023203e-03
6.229999999999999982e-01,7.725336171035905586e-02,9.165792787524958130e-02,3.087686929740478953e-02
6.239999999999999991e-01,3.506574853125935670e-02,-2.732464173592847982e-03,3.821503117169304520e-02
6.250000000000000000e-01,-1.880892393162006751e-02,-5.839231844786535452e-02,2.239912699461962808e-02
6.260000000000000009e-01,-6.147429758059857335e-02,-5.011081427978009845e-02,-2.797452378374374465e-02
6.270000000000000018e-01,-8.561213673812814728e-02,-2.664882790609191671e-02,-4.672711859997748240e-02
6.280000000000000027e-01,1.798634939074509123e-02,3.624810835180888174e-02,-4.447876355773664782e-03
6.290000000000000036e-01,7.312950976192214569e-02,5.834013931635271405e-02,1.997310600430837746e-02
6.300000000000000044e-01,5.373558344328829839e-02,2.179674277875538052e-02,2.977824653392041263e-02
6.310000000000000053e-01,2.727314067451667295e-02,-3.982191516549300064e-02,7.780280172235957796e-03
6.320000000000000062e-01,-7.618027238163162240e-02,-5.530194583380958206e-02,-3.903147442781713938e-02
6.330000000000000071e-01,-7.018738598875193246e-02,-2.379552032624476093e-02,-4.699460142973127530e-02
6.340000000000000080e-01,-2.497455941618002308e-03,-8.611675884672456011e-03,-2.352665408629105517e-02
6.350000000000000089e-01,8.123660347239307356e-02,5.739273378904885536e-02,1.108702095647709843e-02
6.360000000000000098e-01,7.819023373145196631e-02,2.596730519552726060e-02,6.757949393398461624e-02
6.370000000000000107e-01,-2.720967476529122069e-03,-3.119440034017626623e-02,5.199706953007235399e-02
6.380000000000000115e-01,-6.265068234967678673e-02,-8.638961913915205182e-02,-1.346107556880598265e-02
6.390000000000000124e-01,-6.119858585955418456e-02,-2.694876364375097672e-02,-6.382979765303745112e-02
6.400000000000000133e-01,-1.631446353862296694e-02,1.565756391535996078e-02,-3.368008453295320836e-02
6.410000000000000142e-01,3.534970780610700858e-02,7.028369022615831019e-02,1.353759554787909358e-03
6.420000000000000151e-01,6.825553264445449742e-02,1.734778513312132051e-02,2.946254385650094731e-02
6.430000000000000160e-01,1.819400836762481363e-02,-2.469230391525304227e-02,5.807989543621078221e-02
6.440000000000000169e-01,-2.838600385699432266e-02,-6.779519363291186540e-02,4.936059442392603039e-03
6.450000000000000178e-01,-5.486344963255020135e-02,-4.052890709917189582e-02,-2.725786252743337898e-02
6.460000000000000187e-01,-3.079181177119390961e-02,3.107760094412979901e-02,-1.456757818908307675e-02
6.470000000000000195e-01,3.230542699786000116e-02,5.593996864506586841e-02,-2.146849002532804501e-02
6.480000000000000204e-01,7.644114874307761376e-02,4.191471535269230414e-02,3.000312049994765043e-02
6.490000000000000213e-01,6.243568708556478802e-02,-1.972050702852566932e-04,1.355003305478516724e-02
6.500000000000000222e-01,-8.282794279111691665e-03,-6.633939899809758456e-02,8.230024197455622012e-03
6.510000000000000231e-01,-8.596002635838417838e-02,-5.930972645473758798e-02,-2.722425932075950641e-02
6.520000000000000240e-01,-7.389619161902002964e-02,2.700638165967989002e-02,-3.374065597427391983e-02
6.530000000000000249e-01,1.616984627391177334e-02,7.255563155480097837e-02,-1.192809325031653732e-02
6.540000000000000258e-01,8.936882835403428538e-02,4.030578354979223732e-02,3.906264130025043080e-02
6.550000000000000266e-01,4.342743082062126142e-02,-1.291295071325149159e-03,5.436055201647738838e-02
6.560000000000000275e-01,-2.603199611980363051e-02,-5.600755561449823755e-02,1.480348290508780133e-02
6.570000000000000284e-01,-8.920571419996582707e-02,-6.386320167398090719e-02,-3.193437426102132409e-02
6.580000000000000293e-01,-4.582742953565446115e-02,1.110536251743494398e-03,-2.951115170452907333e-02
6.590000000000000302e-01,4.302679780632768375e-02,5.247320625116829590e-02,-7.321324100974597321e-03
6.600000000000000311e-01,7.822333774520139060e-02,6.474262858525060838e-02,1.738995783096793091e-02
6.610000000000000320e-01,5.678658134354468839e-02,6.122882951044136303e-03,4.921675538343065620e-02
6.620000000000000329e-01,-1.105094317269384938e-02,-4.176985103959458129e-02,5.369822354546037457e-02
6.630000000000000338e-01,-6.405798795652317690e-02,-3.807601983508335924e-02,-5.109768239084020586e-03
6.640000000000000346e-01,-6.515543529781810117e-02,2.001273989035033153e-03,-5.978371315611084175e-02
6.650000000000000355e-01,1.616064666003302159e-03,4.540794432300396949e-02,-3.340153622216114615e-02
6.660000000000000364e-01,8.245841366790961080e-02,5.376570313850865396e-02,-2.892327699111475834e-03
6.670000000000000373e-01,7.956049908924477110e-02,-7.354907800389430886e-03,3.183358113776430659e-02
6.680000000000000382e-01,-8.445375748305131158e-03,-2.640006973525283254e-02,3.442543192928685519e-02
6.690000000000000391e-01,-7.563803689715785372e-02,-6.857942030368437136e-02,1.181897319884560836e-02
6.700000000000000400e-01,-6.571530489694038524e-02,-2.221338863721720666e-02,-5.104649741750130060e-02
6.710000000000000409e-01,3.168928503080134084e-03,3.342337412554511472e-02,-3.448803023164805776e-02
6.720000000000000417e-01,5.818935491511633556e-02,8.519412761815049751e-02,-2.048582291179615669e-02
6.730000000000000426e-01,5.093984282027347321e-02,4.819985591372196593e-02,1.622367842914819447e-02
6.740000000000000435e-01,2.505950461643251595e-02,-3.124751496700874445e-02,4.959233614938161200e-02
6.750000000000000444e-01,-6.495700135924784013e-02,-6.285910615776522936e-02,1.433715321966128053e-02
6.760000000000000453e-01,-8.585003818712801105e-02,-1.710501160519790551e-02,-2.425177964361965172e-02
6.770000000000000462e-01,-4.904261130187857060e-02,1.387853375105434391e-02,-5.438029326939909647e-02
6.780000000000000471e-01,5.254560621749010396e-02,5.072266077269318996e-02,-6.506347931676759178e-03
6.790000000000000480e-01,7.178283266596161005e-02,2.379307039135487162e-02,3.925252903778489455e-02
6.800000000000000488e-01,4.710346635200005072e-02,-2.178420122584863797e-02,1.616152960361607813e-02
6.810000000000000497e-01,-6.517709097747952096e-02,-7.223434588806043610e-02,4.796793561582322896e-02
6.820000000000000506e-01,-9.283095766219733036e-02,-2.351799264023983829e-02,-4.065306541183066197e-02
6.830000000000000515e-01,-4.066577060240008507e-02,3.625085516276579933e-02,-3.160397778281934245e-02
6.840000000000000524e-01,1.055451722984146988e-02,8.731136708075989961e-02,-2.337473035767064639e-02
6.850000000000000533e-01,8.765582004813685102e-02,5.696397888250077923e-02,3.345131883416768703e-02
6.860000000000000542e-01,7.282727619196631419e-02,-1.277536184645184682e-02,5.745626197489172443e-02
6.870000000000000551e-01,-1.514869502222789335e-02,-5.667264317086916775e-02,1.982998627420563126e-02
6.879999999999999449e-01,-4.016739528628376910e-02,-3.111155227750933908e-02,4.661152633154926062e-03
6.889999999999999458e-01,-6.460418624421747358e-02,2.025333273143628196e-02,-4.131000519256365633e-02
6.899999999999999467e-01,1.878001463279919958e-02,7.154763150680698569e-02,-6.224318998044028189e-02
6.909999999999999476e-01,8.534459177527965734e-02,5.432521600327434169e-02,-1.040718991277102615e-02
6.919999999999999485e-01,6.428590756908693360e-02,-3.556313971630559179e-02,4.094723674179931439e-02
6.929999999999999494e-01,2.370416074039365974e-03,-5.432920619261082107e-02,2.505469926096465239e-02
6.939999999999999503e-01,-6.113326983543621029e-02,-2.616150301915272369e-02,-3.533471663017049950e-03
6.949999999999999512e-01,-9.050530077160018338e-02,2.882660237672604250e-02,-1.655708228792299522e-02
6.959999999999999520e-01,-2.026861516029505178e-02,5.367568382812992756e-02,-5.548264230567383909e-02
6.969999999999999529e-01,7.111182490753904795e-02,6.207616984606528776e-02,-2.374760709386291441e-02
6.979999999999999538e-01,5.800470860301189940e-02,-4.191186361555520289e-03,1.422553176474226910e-02
6.989999999999999547e-01,3.062703033248849460e-02,-5.173440501724751311e-02,3.178631658599576776e-02
6.999999999999999556e-01,-6.283101943422447766e-02,-5.618151708168325070e-02,7.669114851158930109e-03
7.009999999999999565e-01,-6.712700928722524496e-02,1.142065464102821372e-02,-1.562477918442060042e-02
7.019999999999999574e-01,-3.964567615476793233e-02,6.103532880943766253e-02,-5.745548584512215340e-02
7.029999999999999583e-01,7.609440119807017733e-02,5.104625379385251821e-02,-5.343995125576642830e-02
7.039999999999999591e-01,9.872610601607564873e-02,9.223204264146869780e-03,2.567686559370984181e-02
7.049999999999999600e-01,2.042207353228143660e-02,-4.582522187568777855e-02,5.590431568037564775e-02
7.059999999999999609e-01,-6.093178237871728353e-02,-3.100017777784856363e-02,3.975389929079151813e-02
7.069999999999999618e-01,-7.575427774063547837e-02,-2.139749364567391284e-03,-1.093098143890229405e-02
7.079999999999999627e-01,-4.777189505276876330e-02,4.367196696779013926e-02,-5.762838877711239788e-02
7.089999999999999636e-01,5.605520180970463562e-02,6.896486299389281704e-02,-2.618941053376357825e-02
7.099999999999999645e-01,8.657131949759289125e-02,2.474824612843417801e-02,1.248187509093231715e-02
7.109999999999999654e-01,4.851705113343981329e-02,-2.345204497917464936e-02,5.522276122920870278e-02
7.119999999999999662e-01,-4.616348245763918917e-02,-4.430683807874392921e-02,2.838363409114970370e-02
7.129999999999999671e-01,-1.049718499808958566e-01,-2.118805088260504454e-02,2.335777691315596080e-02
7.139999999999999680e-01,-4.585914981182059175e-02,4.038012397638145873e-02,-3.907205115969097226e-02
7.149999999999999689e-01,3.651379450593555259e-02,5.740074219619661910e-02,-5.347863556453980038e-02
7.159999999999999698e-01,7.328246015569035710e-02,3.449816045380130897e-02,-1.862621344646934324e-02
7.169999999999999707e-01,4.511629330816008948e-02,-3.625954465829425016e-02,3.668953334874226063e-02
7.179999999999999716e-01,-3.618195316290077207e-02,-6.521076144971875432e-02,6.044792888819447430e-02
7.189999999999999725e-01,-6.836014319012252705e-02,-1.351172879648945661e-02,1.560647825664224393e-02
7.199999999999999734e-01,-4.798151823497389529e-02,5.003789026321073946e-02,-3.810893326223051963e-02
7.209999999999999742e-01,1.261504498562657228e-02,6.741447319777808811e-02,-4.054936901002900024e-02
7.219999999999999751e-01,6.023113677799937088e-02,2.903821453206078054e-02,-1.132700668489316012e-02
7.229999999999999760e-01,7.182963527551729233e-02,-2.479119940288513832e-02,2.690539937727201222e-02
7.239999999999999769e-01,-1.374585314718492109e-02,-5.501137294813900763e-02,3.975459767834612496e-02
7.249999999999999778e-01,-8.555611949155843277e-02,-2.512799699144472459e-02,3.338590722396617833e-02
7.259999999999999787e-01,-7.094556871432000644e-02,3.486595199496961284e-02,-2.738721169944230774e-02
7.269999999999999796e-01,2.781562975057039547e-02,5.250917217446811336e-02,-5.492815075047547541e-02
7.279999999999999805e-01,6.412148428984391912e-02,4.989900087613711316e-02,-1.445287929317203013e-02
7.289999999999999813e-01,8.417246523881616316e-02,-2.461282580620403546e-02,2.112669214472711124e-02
7.299999999999999822e-01,-6.169286184818550175e-05,-8.014393575621507615e-02,3.869740220894853783e-02
7.309999999999999831e-01,-4.799585345111929968e-02,-2.990057176388878982e-02,1.796850745849446623e-02
7.319999999999999840e-01,-7.743036809880771143e-02,2.731145692195392077e-02,-1.805792244292736288e-03
7.329999999999999849e-01,-3.811200373483325521e-02,4.535909595350784418e-02,-4.654238037404838380e-02
7.339999999999999858e-01,4.187725451358744605e-02,3.538111083929512679e-02,-4.640013792413637261e-02
7.349999999999999867e-01,6.929862172979618651e-02,-4.481312300613118915e-03,1.263957170752184542e-02
7.359999999999999876e-01,3.129047157007067842e-02,-8.290012375479575979e-02,3.467524575399414527e-02
7.369999999999999885e-01,-3.754685351773372898e-02,-5.779116602190681462e-02,1.468146651247133859e-02
7.379999999999999893e-01,-9.725231616346434460e-02,1.772712061443676781e-02,4.102818859685870498e-03
7.389999999999999902e-01,-4.661325111874750626e-02,5.715374444581391294e-02,-4.991371262530925473e-02
7.399999999999999911e-01,7.705940425893996470e-02,5.582161561069388933e-02,-4.103853318097382824e-02
7.409999999999999920e-01,6.895490632528071540e-02,-1.355253745596913216e-02,-3.510828394595658791e-03
7.419999999999999929e-01,3.707931859756535831e-02,-6.966184945666212269e-02,4.460355940356871413e-02
7.429999999999999938e-01,-4.100165067346783765e-02,-3.632348413418760164e-02,3.809367124686278278e-02
7.439999999999999947e-01,-9.713216998587961837e-02,8.040919738133808087e-03,1.430348632059581283e-04
7.449999999999999956e-01,-5.567964425992559530e-02,3.655873409909255606e-02,-2.131285931564940242e-02
7.459999999999999964e-01,3.312999326329275213e-02,5.916967828113765121e-02,-6.221419849235449578e-02
7.469999999999999973e-01,6.379070392701763348e-02,-3.488017910638544546e-03,-1.927279774805308946e-02
7.479999999999999982e-01,4.057277907990553684e-02,-4.741201245931554731e-02,4.442094036938425139e-02
7.489999999999999991e-01,-3.633205017255192182e-02,-4.339139079409713023e-02,6.017928213943307680e-02
7.500000000000000000e-01,-7.535935922039346813e-02,2.501643097871095872e-02,-1.924227831185438111e-03
7.510000000000000009e-01,-4.728274636283805177e-02,3.644416882044000661e-02,-1.453409566442241847e-02
7.520000000000000018e-01,1.238489945903102629e-02,5.069870853302364117e-02,-2.877416000264286511e-02
7.530000000000000027e-01,9.138031195188058009e-02,2.510788149041575865e-02,-3.300191163018714735e-02
7.540000000000000036e-01,7.567330245283883372e-02,-6.459492799542078389e-02,2.147758342542357632e-02
7.550000000000000044e-01,-1.195041434878702999e-02,-5.957047932851895072e-02,5.521792398476402935e-02
7.560000000000000053e-01,-5.474951447736239180e-02,-2.805455430214672669e-02,3.453343779206351216e-02
7.570000000000000062e-01,-5.058902074292564305e-02,4.588696228522802512e-02,-2.255462643083856050e-02
7.580000000000000071e-01,-8.053981370271154003e-03,7.138674125424708528e-02,-2.105073724085698358e-02
7.590000000000000080e-01,4.392581751935576567e-02,3.491866020992421410e-02,-2.970354140018665809e-02
7.600000000000000089e-01,6.751395907946096397e-02,-1.490190461276786824e-02,-6.331521039740227279e-03
7.610000000000000098e-01,4.861671029390495641e-02,-7.413093629558276110e-02,6.758000845698557135e-02
7.620000000000000107e-01,-6.606653075644809692e-02,-2.083358659810133004e-02,2.510765326884496773e-02
7.630000000000000115e-01,-8.128698156394371932e-02,3.897258067164884737e-02,-2.810815048397003347e-03
7.640000000000000124e-01,-1.694194676747554085e-02,7.867981152452907523e-02,-2.370743206984229912e-02
7.650000000000000133e-01,4.782826412135533778e-02,3.032664278860889087e-02,-4.130868007987717472e-02
7.660000000000000142e-01,5.324947631953155791e-02,-4.635864478720432003e-02,-5.462016110181951330e-03
7.670000000000000151e-01,4.213896726157533024e-02,-4.185873550503942109e-02,3.669637330635545230e-02
7.680000000000000160e-01,-7.080110058285869756e-02,-3.059725910461746218e-02,3.831767762971861890e-02
7.690000000000000169e-01,-8.892868986950132337e-02,4.242064817755373390e-02,-2.733903018792827044e-02
7.700000000000000178e-01,-4.045709865314900400e-02,8.071044346200871578e-02,-4.323987898669763574e-02
7.710000000000000187e-01,6.529134623113390379e-02,2.587585147942570926e-02,-5.043053142453517851e-02
7.720000000000000195e-01,8.405773777112818257e-02,-1.949533441632882863e-02,-1.313640130614687415e-02
7.730000000000000204e-01,3.905239591806860394e-02,-5.053640335942549688e-02,4.846257075453778984e-02
7.740000000000000213e-01,-4.047628996534540641e-02,-3.388628323391180280e-02,2.539400720353143445e-02
7.750000000000000222e-01,-5.461931980477922888e-02,2.484707028030922610e-02,2.864475796690894513e-02
7.760000000000000231e-01,-4.052990400845846858e-02,5.165777246252439142e-02,-1.299671113600871925e-02
7.770000000000000240e-01,2.801490622795049443e-02,4.526847143218636765e-02,-5.073187160911206417e-02
7.780000000000000249e-01,7.753208500555409943e-02,-3.001303034670795358e-02,-1.664195666426309360e-03
7.790000000000000258e-01,6.349694842963249375e-02,-7.050721426997612340e-02,7.472628331592495038e-03
7.800000000000000266e-01,-4.154155949921645857e-02,-1.620267539705869814e-02,7.822341306842030273e-02
7.810000000000000275e-01,-7.181034867739323480e-02,2.416958123621487653e-02,1.657844955404597781e-02
7.820000000000000284e-01,-5.083521412422597335e-02,6.502640869494258347e-02,-2.193051065572716729e-02
7.830000000000000293e-01,2.772253396427911895e-02,4.374487938461044806e-02,-6.188259066568233685e-02
7.840000000000000302e-01,8.572069515062355483e-02,-2.106913138901816279e-02,-4.953760708644082411e-02
7.850000000000000311e-01,5.747093529146115459e-02,-6.615131415715556906e-02,1.320057800478257118e-02
7.860000000000000320e-01,-8.539122809644974013e-04,-1.143354368979661306e-02,3.739461617504594160e-02
7.870000000000000329e-01,-6.288572141694719064e-02,8.045048833370699662e-03,5.221646881250233824e-02
7.880000000000000338e-01,-7.136708458712225089e-02,2.003934894682866952e-02,2.928773533532951726e-03
7.890000000000000346e-01,7.725868992697337845e-03,6.821783551502189069e-02,-3.691455223458629115e-02
7.900000000000000355e-01,7.607896943590966576e-02,-6.862506368296370819e-03,-5.134861485533591396e-02
7.910000000000000364e-01,6.165635659474006519e-02,-3.457151211919654021e-02,9.544360706019416538e-03
7.920000000000000373e-01,6.594939857192099603e-03,-4.825051295816282920e-02,3.563490660110545105e-02
7.930000000000000382e-01,-6.763652208112964914e-02,4.885114910742516421e-03,3.044639028759232174e-02
7.940000000000000391e-01,-9.263848649627921816e-02,6.555476061273721178e-02,1.319705255755095584e-02
7.950000000000000400e-01,1.249817487284791365e-03,4.880994207788379169e-02,-2.378655851538895652e-02
7.960000000000000409e-01,5.606818227406774185e-02,1.077834794762212202e-02,-5.391098524747373055e-02
7.970000000000000417e-01,7.377462318275605779e-02,-5.804909106769589461e-02,-2.591399326133377035e-02
7.980000000000000426e-01,2.519759626384802248e-02,-4.089149601304063048e-02,1.353356763222775434e-02
7.990000000000000435e-01,-6.392529432285719293e-02,-3.871238694887289139e-02,5.621633130283180957e-02
8.000000000000000444e-01,-7.967266757305846436e-02,4.544609183327208424e-02,1.669568099223348034e-02
8.010000000000000453e-01,-4.405997920157028042e-02,6.066929292062966939e-02,-4.331134146072112244e-03
8.020000000000000462e-01,4.849292814934203638e-02,1.345879020914607198e-02,-5.133088896029158743e-02
8.030000000000000471e-01,8.717725063606104885e-02,-1.763273263453623424e-02,-1.576490813717881453e-02
8.040000000000000480e-01,5.281972131214885541e-02,-4.157315879707441236e-02,1.244861279147258318e-02
8.050000000000000488e-01,-1.241295263752596051e-02,-2.399786741472322016e-02,4.029956330761608890e-02
8.060000000000000497e-01,-6.445467393071391271e-02,4.184526516233849636e-02,3.891355523577218201e-02
8.070000000000000506e-01,-7.389282760749354972e-02,7.278351879115864398e-02,-4.869699812195247418e-02
8.080000000000000515e-01,4.028565404036291847e-02,-1.250035361160474826e-02,-4.960962273185951649e-02
8.090000000000000524e-01,9.472874543101322820e-02,-5.135605651654664983e-02,-4.358656452737463827e-02
8.100000000000000533e-01,5.973619062680807223e-02,-4.418401399276590535e-02,1.006575473640535998e-02
8.110000000000000542e-01,-8.366618582895116868e-03,-1.142497792879642454e-02,3.057435272456986500e-02
8.120000000000000551e-01,-7.099593144361310282e-02,5.173667721216031190e-02,4.433644152804831762e-02
8.129999999999999449e-01,-6.485052419670064849e-02,7.452621951062626815e-02,6.585519748463671864e-03
8.139999999999999458e-01,1.517900277011349601e-02,2.271865265597151559e-02,-5.211959173908008169e-02
8.149999999999999467e-01,9.094788898002087452e-02,-4.007305685370984860e-02,-3.831456225067369353e-02
8.159999999999999476e-01,5.468023933038080459e-02,-5.532713859279373564e-02,-8.713443722957436507e-03
8.169999999999999485e-01,1.129853682506443656e-02,-7.261023927485708851e-02,4.136328929339327942e-02
8.179999999999999494e-01,-6.584230043800667898e-02,1.573726937047863553e-02,5.263542498763343347e-02
8.189999999999999503e-01,-7.399197991962665200e-02,5.829076662707665529e-02,2.061519175284163771e-02
8.199999999999999512e-01,1.687961067862674830e-02,3.102695505114496863e-02,-6.499218835587381587e-03
8.209999999999999520e-01,6.466877144191957028e-02,-2.063578955226154366e-02,-6.019775083514555813e-02
8.219999999999999529e-01,7.371679879494977272e-02,-4.463316664560194186e-02,6.099075021612968169e-03
8.229999999999999538e-01,1.476100863093679147e-03,-3.173473126872582151e-02,2.112788926333343878e-02
8.239999999999999547e-01,-8.134202807281944170e-02,2.225084596961033820e-02,6.165149061786807244e-02
8.249999999999999556e-01,-7.157665500592133578e-02,4.826368563469218137e-02,7.736096359227964681e-03
8.259999999999999565e-01,-6.797662607800219331e-03,3.093016570367171023e-02,-2.256725703956145510e-02
8.269999999999999574e-01,4.249811746279620606e-02,-9.552395501662249919e-03,-2.669951202529634651e-02
8.279999999999999583e-01,9.731631579232093154e-02,-5.940918290690556242e-02,-3.861160706619086447e-02
8.289999999999999591e-01,-1.602763545821507887e-03,-4.229301921454227398e-02,1.595006201521825470e-02
8.299999999999999600e-01,-4.000446371916047822e-02,4.474588787576619202e-03,7.619888462192621337e-02
8.309999999999999609e-01,-8.555463954159961415e-02,4.788903292685316865e-02,4.946121175184970548e-02
8.319999999999999618e-01,-4.551428238190183273e-02,5.064574950575319312e-02,-3.288214648710453131e-02
8.329999999999999627e-01,3.384454259506256696e-02,-2.966587718670473869e-02,-4.760388259616434720e-02
8.339999999999999636e-01,5.114855178941148106e-02,-5.783626518758405721e-02,-5.120386007861392474e-02
8.349999999999999645e-01,1.776433152941050281e-02,-3.730998006165463926e-02,1.559773644518514663e-02
8.359999999999999654e-01,-5.806818710718418541e-02,-2.095137083486483739e-02,1.729666476851911272e-02
8.369999999999999662e-01,-9.662171557641355268e-02,5.136860201636377771e-02,5.143624130766697583e-02
8.379999999999999671e-01,-4.585558200735076473e-02,4.778276380097419562e-02,1.255622457935099854e-03
8.389999999999999680e-01,3.902654592732379690e-02,-1.740143481905010131e-04,-2.501904822030842634e-02
8.399999999999999689e-01,8.824944875658130572e-02,-5.533301895043773316e-02,-6.112804187372216508e-02
8.409999999999999698e-01,2.859106901425895186e-02,-4.014793890364656836e-02,-4.747490178418555667e-02
8.419999999999999707e-01,-3.659546368947906581e-02,-7.271533698213735256e-03,4.335528459020282499e-02
8.429999999999999716e-01,-7.630134577926769857e-02,3.740017150623436981e-02,4.672589348452788061e-02
8.439999999999999725e-01,-5.204459276999109929e-02,6.846320971758837470e-02,1.616327648675616041e-02
8.449999999999999734e-01,2.323308297964878782e-02,1.068794982559231194e-02,-9.855287326930275288e-03
8.459999999999999742e-01,4.851911462507946943e-02,-6.836443797359033347e-02,-4.109943822251001938e-02
8.469999999999999751e-01,7.806432201358208534e-02,-4.040337885098575776e-02,-1.401502386952531778e-02
8.479999999999999760e-01,-1.120192886200565945e-02,-6.516982867107189159e-03,1.137889174046316856e-02
8.489999999999999769e-01,-8.181158590577858325e-02,4.873229651497804765e-02,6.437716274964483398e-02
8.499999999999999778e-01,-7.469833387807904568e-02,6.505493370960611921e-02,3.284534912406218005e-02
8.509999999999999787e-01,1.054590429898389498e-02,4.931043783801854555e-03,3.001687550160272219e-03
8.519999999999999796e-01,5.904750906491647300e-02,-4.738082015724931484e-02,-2.581566317935267418e-02
8.529999999999999805e-01,7.222628570275213544e-02,-6.404933914134698647e-02,-3.994411733394159780e-02
8.539999999999999813e-01,2.853915149320133265e-02,-4.073275581838475129e-02,2.798422815898123084e-02
8.549999999999999822e-01,-5.402170813880433770e-02,4.076329192752229519e-02,4.058946983298099970e-02
8.559999999999999831e-01,-8.872325892365205691e-02,6.604852145753298265e-02,3.650865349798237958e-02
8.569999999999999840e-01,-1.961488721163886367e-03,4.803104609162026778e-02,1.573899577654650633e-02
8.579999999999999849e-01,6.348603764537395777e-02,2.219866095149771769e-03,-4.976894365828361116e-02
8.589999999999999858e-01,7.930851235784347475e-02,-7.417505456131022468e-02,-4.910724534788190460e-02
8.599999999999999867e-01,2.505308361314074680e-02,-3.621819791753522894e-02,2.990666840485397757e-03
8.609999999999999876e-01,-4.095977880221413764e-02,3.213800503699992817e-02,3.600488647568738515e-02
8.619999999999999885e-01,-5.253463531538989095e-02,3.801215322250427187e-02,5.301791535605030609e-02
8.629999999999999893e-01,-2.732870506405929434e-02,3.666699553411265772e-02,1.296719455120131509e-02
8.639999999999999902e-01,4.060966867196576235e-02,-1.071257495996632073e-02,-4.162751890776501124e-02
8.649999999999999911e-01,9.856985585529517979e-02,-6.286686560280717317e-02,-2.501097398741236599e-02
8.659999999999999920e-01,3.810278016608725782e-02,-4.875726614947532150e-02,-4.392710421379836250e-02
8.669999999999999929e-01,-7.454859618610530647e-02,-1.048063085902051911e-02,3.774634699181537295e-02
8.679999999999999938e-01,-9.438426123765543407e-02,5.665839415666589635e-02,5.220119885387556474e-02
8.689999999999999947e-01,-6.176510153236046408e-02,4.860366997948506462e-02,1.018753938540749304e-02
8.699999999999999956e-01,2.967074690599273701e-02,-7.990557371114778359e-03,-4.715378350286472675e-02
8.709999999999999964e-01,7.772156486312742363e-02,-7.593526677152576121e-02,-4.726465474656058735e-02
8.719999999999999973e-01,4.957472636256582410e-02,-4.668803132147674589e-02,-4.177852740913999552e-03
8.729999999999999982e-01,-1.968596196075506760e-02,1.795803624831569106e-02,2.608892852012039548e-02
8.739999999999999991e-01,-8.043372754002485470e-02,9.145207150524607698e-02,3.640358149284532441e-02
8.750000000000000000e-01,-6.030570495980998313e-02,3.203936696920236388e-02,3.232360566236034544e-02
8.760000000000000009e-01,5.612750405998991748e-02,-2.686750905950751472e-02,-4.525012936498910149e-02
8.770000000000000018e-01,4.548171252385650731e-02,-4.863338280435883232e-02,-4.799882038742627616e-02
8.780000000000000027e-01,7.544923899256102129e-02,-6.723319517350430374e-02,-3.780868848214175015e-02
8.790000000000000036e-01,-3.712910753393037881e-03,1.284114044973428022e-02,1.815990340087445670e-02
8.800000000000000044e-01,-7.236697501518511710e-02,3.347165537293506077e-02,7.219703460093016001e-02
8.810000000000000053e-01,-7.610275966553035898e-02,3.993967710707881091e-02,4.967200421346392586e-02
8.820000000000000062e-01,1.729591261408610151e-02,-4.020601703699156946e-04,-4.694177794414002361e-03
8.830000000000000071e-01,9.318898975775848081e-02,-5.807347833630602252e-02,-5.093560485492626411e-02
8.840000000000000080e-01,1.117037253498649879e-01,-4.198106533097885340e-02,-4.066339296908122458e-02
8.850000000000000089e-01,2.590438689664185598e-02,-3.541765382720528117e-03,-2.421483293368403497e-02
8.860000000000000098e-01,-5.941596986271628633e-02,3.829968351925464032e-02,3.426050829484751648e-02
8.870000000000000107e-01,-6.165412828640323001e-02,5.622364055848516617e-02,5.449096504837191296e-02
8.880000000000000115e-01,-1.302480333768791859e-03,5.007884401183178465e-03,-2.351797979428832744e-02
8.890000000000000124e-01,5.690546840411386115e-02,-4.602786305327339483e-02,-3.260039033449398799e-02
8.900000000000000133e-01,8.357033885807155227e-02,-5.871063534823640212e-02,-5.698185335319787270e-02
8.910000000000000142e-01,3.003466212233226254e-02,-4.336435467331750671e-02,-5.584614621190807891e-03
8.920000000000000151e-01,-5.994221834643816138e-02,5.318914484942334486e-02,-6.312394223186826477e-03
8.930000000000000160e-01,-8.026272258948236038e-02,5.396386652745881196e-02,4.983496739190441255e-02
8.940000000000000169e-01,-2.839765899613691524e-02,1.198068614408799581e-02,7.354375131548638103e-03
8.950000000000000178e-01,5.378137661093797262e-02,-3.869712713043227392e-02,-9.774087993699179244e-03
8.960000000000000187e-01,7.163390235496557013e-02,-6.135348180177855465e-02,-4.047833920396400054e-02
8.970000000000000195e-01,3.239302940188947683e-02,-1.179425083584638434e-02,-1.979740285006529113e-02
8.980000000000000204e-01,-5.761686130623477203e-02,1.302921593717453440e-02,4.847181386252677471e-02
8.990000000000000213e-01,-9.328349204268615580e-02,6.925951205756628037e-02,3.272678441103461788e-02
9.000000000000000222e-01,-4.017292755863714065e-02,3.072835850276036535e-02,3.317128817636759430e-02
9.010000000000000231e-01,2.753236740152706710e-02,-3.299381331827906660e-02,8.274818084396825223e-04
9.020000000000000240e-01,8.175501654515528183e-02,-7.735940040374707227e-02,-6.180317076105313473e-02
9.030000000000000249e-01,3.409485808984687172e-02,-1.204712659760278151e-02,-3.420945805703311249e-02
9.040000000000000258e-01,-8.852239159448665670e-03,4.102946321794737235e-03,-1.316491904717846835e-02
9.050000000000000266e-01,-6.591920362084893736e-02,9.091480018173067612e-02,4.462871413910322188e-02
9.060000000000000275e-01,-7.458855809230340028e-02,3.905580958070937331e-02,3.413018488234878522e-02
9.070000000000000284e-01,-2.026709917859175619e-02,-2.498834583100717488e-02,-9.317917911887869248e-03
9.080000000000000293e-01,8.205221827321065864e-02,-7.255973744937498082e-02,-6.230809408174611125e-02
9.090000000000000302e-01,5.972848438084624872e-02,-2.619250458191875464e-02,-2.933700288845567800e-02
9.100000000000000311e-01,1.029563249542172522e-02,1.618305045456292293e-02,1.240601833944264022e-02
9.110000000000000320e-01,-5.179364750363328607e-02,8.894516044721301196e-02,4.187689829113119822e-02
9.120000000000000329e-01,-5.589183834066298318e-02,2.777549838556634190e-02,5.119372907358970409e-02
9.130000000000000338e-01,-1.551227656001038721e-02,-4.751383444398917660e-02,2.705414363838374789e-02
9.140000000000000346e-01,9.301064264136356396e-02,-5.641578910715886602e-02,-4.292765549145348414e-02
9.150000000000000355e-01,5.658593458323489533e-02,-5.455601572363698998e-02,-3.630980324971585377e-02
9.160000000000000364e-01,-5.799684953883917429e-03,2.385163690345138907e-02,-3.916362722959649406e-02
9.170000000000000373e-01,-5.452809610086564035e-02,7.939651784288659364e-02,3.176930623380515295e-02
9.180000000000000382e-01,-5.458119600117939535e-02,5.993916355049418859e-02,2.867613459971659826e-02
9.190000000000000391e-01,9.078264446973962135e-03,-8.413561137032281312e-03,4.942303834126082762e-02
9.200000000000000400e-01,5.620491784444752587e-02,-7.080849725316286369e-02,-2.098016276399184560e-02
9.210000000000000409e-01,8.265152315285174967e-02,-1.942642194376966933e-02,-3.270467100115692638e-02
9.220000000000000417e-01,1.268625904778097370e-02,3.382544999448367732e-03,-1.758118267292777329e-02
9.230000000000000426e-01,-5.973838190135485893e-02,2.883283104590173701e-02,4.743839377166116610e-03
9.240000000000000435e-01,-5.613635932919076171e-02,5.736082833835334099e-02,4.043676261352762563e-02
9.250000000000000444e-01,-1.523597696875213930e-02,-1.141535090597313278e-02,5.438146709280037086e-03
9.260000000000000453e-01,3.425755791883605683e-02,-7.974471830512326609e-02,2.503597544791883595e-02
9.270000000000000462e-01,5.475079942217318807e-02,-5.233353159947583266e-02,-2.927584544793469107e-02
9.280000000000000471e-01,4.152736885885262991e-02,4.267806278618457155e-03,-1.673931657610758586e-02
9.290000000000000480e-01,-3.580847926682494131e-02,5.381477611843416692e-02,1.095675955525073943e-02
9.300000000000000488e-01,-7.171464384811551684e-02,7.719262388307408795e-02,1.414889801708487348e-02
9.310000000000000497e-01,-6.231725434129949809e-02,5.316807163314892642e-03,4.797462475529665898e-02
9.320000000000000506e-01,3.393936319290940390e-02,-6.216034643501943541e-02,1.013651078956037677e-02
9.330000000000000515e-01,5.950108862803819842e-02,-5.484927943143948215e-02,-4.488840239758929568e-02
9.340000000000000524e-01,4.617674361200573008e-02,-1.963659177472569864e-02,-3.811772888034679896e-02
9.350000000000000533e-01,-1.625350491522407556e-02,5.516072621019381395e-02,-1.282725307390760816e-03
9.360000000000000542e-01,-8.924641410041697642e-02,5.514200524532181930e-02,6.199743465401810760e-02
9.370000000000000551e-01,-1.317430405610718787e-02,1.395644748497003491e-02,6.878785725010637397e-02
9.379999999999999449e-01,2.787993959489238477e-02,-3.816306484119057901e-02,-9.255237745801324920e-04
9.389999999999999458e-01,6.268554834231598871e-02,-7.614023612346672298e-02,-5.281297080748852818e-02
9.399999999999999467e-01,6.380064385757835965e-02,-2.320168980634594938e-02,-5.506538607521185846e-02
9.409999999999999476e-01,-8.652997241768250331e-03,4.284646555871076540e-02,-2.417440990164965511e-02
9.419999999999999485e-01,-9.354672575321885952e-02,8.824740990551011022e-02,3.179747539955506824e-02
9.429999999999999494e-01,-5.780238597794149641e-02,1.988518194465899863e-02,4.510739909933208364e-02
9.439999999999999503e-01,-2.355400982001865443e-02,-4.925742082968804364e-02,3.771256571944038571e-02
9.449999999999999512e-01,6.993676263338956256e-02,-6.203363324315198934e-02,-1.461646216750370555e-02
9.459999999999999520e-01,7.192991181091941411e-02,-4.410043225963339308e-02,-3.246557206987837202e-02
9.469999999999999529e-01,6.483025550367220013e-04,5.625758409743287364e-02,-2.880187407996490784e-02
9.479999999999999538e-01,-6.903318160253708868e-02,8.485386434272308709e-02,3.048796379413202043e-02
9.489999999999999547e-01,-4.507453206043098015e-02,4.545188465283191842e-02,3.103986777533670680e-02
9.499999999999999556e-01,-3.421282048438266388e-02,-2.896488431156607479e-02,1.171267740684486455e-02
9.509999999999999565e-01,5.837070878228210746e-02,-5.318464673016021910e-02,-6.942283769760724393e-03
9.519999999999999574e-01,6.350059059445403720e-02,-3.075238395901991675e-02,-5.231814284246200791e-02
9.529999999999999583e-01,1.650583722325851474e-02,5.351581302944532353e-02,-3.701086904471957012e-02
9.539999999999999591e-01,-3.723128378749453876e-02,6.541172790304708440e-02,1.516695621343833872e-02
9.549999999999999600e-01,-5.418231420404442250e-02,3.135751122622102566e-02,2.627420100742108508e-02
9.559999999999999609e-01,-1.553635848794952985e-02,-9.028514467749666761e-03,5.908165321637438155e-02
9.569999999999999618e-01,2.953826174477411706e-02,-6.295989916692278088e-02,-1.357410010584522882e-02
9.579999999999999627e-01,5.952647997795614682e-02,-3.589188544982194196e-02,-2.055377972179332768e-02
9.589999999999999636e-01,4.377126002150079354e-02,2.290031990940603543e-02,-4.730764009748594789e-02
9.599999999999999645e-01,-3.106450340804101443e-02,5.942548148057663626e-02,-2.894232039415778335e-02
9.609999999999999654e-01,-6.632398562264922581e-02,3.365907138083728406e-02,3.748313045544224287e-02
9.619999999999999662e-01,-5.430582568200453125e-02,-1.416973251061567039e-02,6.034815157372454969e-02
9.629999999999999671e-01,2.285302173297704825e-02,-9.102039748832360666e-02,1.649426676942580827e-02
9.639999999999999680e-01,7.348770992409436875e-02,-6.168445039749820280e-02,-3.451685056946793284e-02
9.649999999999999689e-01,5.228573535341943246e-02,-8.422745945406585194e-03,-4.938323183180113457e-02
9.659999999999999698e-01,-3.672645128373237811e-02,3.460072754071407547e-02,-1.822270902856679142e-02
9.669999999999999707e-01,-8.799654689462689527e-02,5.391235737566381359e-02,2.414260479349069830e-02
9.679999999999999716e-01,-4.530805698567504092e-02,-1.442372075153460637e-03,2.898563214723821196e-02
9.689999999999999725e-01,1.108860309822240660e-02,-6.485613000576317955e-02,1.479400653273765277e-02
9.699999999999999734e-01,9.187836009937673520e-02,-7.932090831395367803e-02,-3.170022927941484880e-02
9.709999999999999742e-01,5.076755362535947252e-02,-1.511309165177949511e-04,-5.217908948544144193e-02
9.719999999999999751e-01,-2.635107653640944569e-02,6.142255883285203250e-02,-4.242108286852042803e-02
9.729999999999999760e-01,-7.482084806101090002e-02,8.458095672076106075e-02,-5.863377349550281427e-03
9.739999999999999769e-01,-5.192685335107637135e-02,-1.098716414724737293e-02,1.134288482462264547e-02
9.749999999999999778e-01,-3.942074679872510125e-03,-4.834592597329133434e-02,3.142215468584359100e-02
9.759999999999999787e-01,6.808146082094856943e-02,-3.027671994809354172e-02,-1.769294816474496074e-02
9.769999999999999796e-01,5.435004716411038356e-02,-1.358919196321236797e-02,-3.321191632399125848e-02
9.779999999999999805e-01,-2.496864338338302888e-02,3.178516093039432389e-02,-4.379363847524807979e-02
9.789999999999999813e-01,-6.532611198605754732e-02,5.698402272785009492e-02,1.243268988489005730e-02
9.799999999999999822e-01,-7.610622351690014831e-02,6.976783871850567725e-03,2.961284628309757139e-02
9.809999999999999831e-01,-2.548797185012764005e-03,-6.348590458395890479e-02,4.926589912390390985e-02
9.819999999999999840e-01,7.819556337203741048e-02,-6.010207775646617123e-02,3.724681007973756289e-03
9.829999999999999849e-01,8.495895339262912738e-02,-2.727301262990243502e-02,-5.610826322444102676e-02
9.839999999999999858e-01,1.452819479280923441e-02,1.129265601942929312e-02,-3.982188001587277926e-02
9.849999999999999867e-01,-4.918650817063307396e-02,4.149631016111740567e-02,4.325075409232600663e-04
9.859999999999999876e-01,-7.425367859514843405e-02,2.224935875836595370e-02,2.611391615481907513e-02
9.869999999999999885e-01,-3.309407489605089431e-02,-4.862569658747964430e-02,5.671088548984264816e-02
9.879999999999999893e-01,5.079437961841305055e-02,-6.359935171126038234e-02,2.144576481714715113e-02
9.889999999999999902e-01,9.112696671463252351e-02,-3.238854708395458998e-02,-2.653962632870020613e-02
9.899999999999999911e-01,7.246838452896163518e-05,2.951507888836240462e-02,-7.884680328728371768e-02
9.909999999999999920e-01,-3.514597621205962225e-02,6.064098049462560841e-02,-3.173939803563872314e-02
9.919999999999999929e-01,-9.959522976370585590e-02,1.883614113335889753e-02,2.707657991319951593e-02
9.929999999999999938e-01,-1.996029389080131167e-02,-4.149946484525968149e-02,4.018931124541436084e-02
9.939999999999999947e-01,2.788226157279822051e-02,-2.188374951528849685e-02,2.942461201743789070e-02
9.949999999999999956e-01,8.821776818037098400e-02,-3.905200511786708489e-02,-8.017134716440081285e-03
9.959999999999999964e-01,3.719039932746807942e-02,3.115573591346880444e-02,-3.126722665801363876e-02
9.969999999999999973e-01,-1.790341386580391811e-02,5.715347022563133789e-02,-4.189586670332259843e-02
9.979999999999999982e-01,-7.715731297647104858e-02,1.997764925498946020e-02,-3.865155635213559163e-03
9.989999999999999991e-01,-4.539098866669364490e-02,-2.044338700977198220e-02,3.327024977871087530e-02
1.000000000000000000e+00,2.043447882868823159e-02,-6.391647199978296723e-02,2.350451006062090342e-02
1.000999999999999890e+00,8.783130019192500471e-02,-4.941613245259947329e-02,-1.959349611704988353e-04
1.002000000000000002e+00,5.197855778219754447e-02,1.624310128412490700e-02,-6.765824248468746416e-02
1.002999999999999892e+00,-1.334981922356814898e-02,5.959530779702095632e-02,-3.082561869150980682e-02
1.004000000000000004e+00,-8.846921828264564525e-02,5.178481238712438067e-02,1.247531111654448868e-02
1.004999999999999893e+00,-5.179946514351876918e-02,-2.400186131313084698e-02,1.995163358273565474e-02
1.006000000000000005e+00,-1.081849531408229231e-03,-6.792276723696458185e-02,4.401932599398734880e-02
1.006999999999999895e+00,7.974842922774588727e-02,-5.837517302983529638e-02,-1.381851173302198893e-02
1.008000000000000007e+00,7.253016835551295838e-02,1.779253863100863434e-02,-3.991517108979818901e-02
1.008999999999999897e+00,1.416815531084971921e-02,7.528437144962060734e-02,-3.736041999888457810e-02
1.010000000000000009e+00,-7.465977480126947952e-02,5.881498977195298572e-02,4.617863329603642819e-03
1.010999999999999899e+00,-5.756845517660967582e-02,-9.243027438925788958e-03,1.019450624757949064e-02
1.012000000000000011e+00,-1.377574077888521834e-02,-6.526418606297371139e-02,5.982339777467310382e-02
1.012999999999999901e+00,7.585178073575404856e-02,-3.659207368617060918e-02,-1.144683234465386154e-02
1.014000000000000012e+00,5.130449189959183226e-02,1.961461398141991878e-03,-3.467330754968544343e-02
1.014999999999999902e+00,1.087105752054167221e-02,4.133042631867839961e-02,-4.244505948915057447e-02
1.016000000000000014e+00,-3.854701924064660168e-02,5.401002821410192528e-02,-3.869066131109679101e-03
1.016999999999999904e+00,-9.922246530232672890e-02,-7.594136604380193924e-03,1.214519743254274808e-02
1.018000000000000016e+00,-3.128401881651935584e-02,-3.861863184684127814e-02,4.782982822732085443e-02
1.018999999999999906e+00,4.623636953055063753e-02,-6.254973578144151780e-02,3.502906148753619220e-02
1.020000000000000018e+00,5.022573141107013889e-02,-1.122333995606260987e-02,-9.789159935996053635e-03
1.020999999999999908e+00,2.953028079242501353e-02,5.660758493522174972e-02,-5.907462619861750946e-02
1.022000000000000020e+00,-5.744709167768536490e-02,8.481341510934975458e-02,-3.147759296957525904e-02
1.022999999999999909e+00,-7.948831058795602367e-02,1.646754563751544201e-03,1.113108317337291840e-02
1.024000000000000021e+00,-3.448359015158664748e-02,-3.985639582378743689e-02,1.651877570917818783e-02
1.024999999999999911e+00,4.194784382181771659e-02,-3.788782014081109456e-02,5.678265184535084831e-02
1.026000000000000023e+00,8.140974394251887514e-02,-1.629321881855442730e-02,-1.104049419373189130e-03
1.026999999999999913e+00,4.550971681559914939e-02,5.341006339158235749e-02,-5.737115325327866999e-02
1.028000000000000025e+00,-4.049957126519893036e-02,6.968238176844934739e-02,-3.463539820348238152e-02
1.028999999999999915e+00,-6.841342802051891825e-02,2.689001142509962750e-02,5.826755150135829418e-04
1.030000000000000027e+00,-5.456022277064788428e-02,-5.016858269369801199e-02,1.701763647643935590e-02
1.030999999999999917e+00,1.061693893328245070e-02,-6.584147427095438099e-02,5.595232921563269429e-02
1.032000000000000028e+00,7.750252566144694155e-02,-1.249887704319349417e-02,-2.405451996210573179e-02
1.032999999999999918e+00,7.365647946035155935e-02,2.837146553975224139e-02,-3.567432263570369938e-02
1.034000000000000030e+00,1.163793934887280860e-03,6.105845171208983818e-02,-4.949963455833973625e-02
1.034999999999999920e+00,-6.159598444588862409e-02,2.384125590070406558e-02,-1.991636547496045476e-02
1.036000000000000032e+00,-6.944989711968478641e-02,-2.614409041658479274e-02,1.355988879730665210e-02
1.036999999999999922e+00,8.754102168530814021e-03,-5.817258415349842865e-02,4.871790564773559318e-02
1.038000000000000034e+00,8.244170745432846670e-02,-7.340770448409790136e-03,2.006375171413949526e-02
1.038999999999999924e+00,7.428739671664522093e-02,1.021311320539974518e-02,-2.833311438451213346e-02
1.040000000000000036e+00,3.320029646999574525e-03,6.690888099628154728e-02,-1.667134488740988976e-02
1.040999999999999925e+00,-8.139026534577403771e-02,4.107853643681765726e-02,-1.956474561024104664e-02
1.042000000000000037e+00,-6.292774739927151084e-02,-5.003577116981876814e-03,8.066161420562491051e-05
1.042999999999999927e+00,1.514383361365500419e-02,-8.863828704975372508e-02,5.125146520147193241e-02
1.044000000000000039e+00,5.041245867788077956e-02,-5.215976482535499698e-02,1.153911307686795139e-02
1.044999999999999929e+00,7.740923748674219396e-02,1.653482282740011827e-02,-2.658188476632913216e-02
1.046000000000000041e+00,2.204702478010456615e-02,6.181546165428696005e-02,-5.317605355897823960e-02
1.046999999999999931e+00,-5.075239092145512887e-02,3.066406654205436171e-03,-2.517223851302253720e-02
1.048000000000000043e+00,-1.110086041883616009e-01,-3.394519226827403396e-02,2.235909419904719402e-03
1.048999999999999932e+00,1.085074046513884172e-02,-6.172730794753480965e-02,1.024446967542012518e-02
1.050000000000000044e+00,3.943736289608180956e-02,-4.369979294603312109e-02,4.805999798859633687e-02
1.050999999999999934e+00,6.424083041985176323e-02,2.576054064732146570e-02,-1.905260961096608835e-02
1.052000000000000046e+00,4.103145187807068911e-02,5.085258943473880411e-02,-5.445758350284689991e-02
1.052999999999999936e+00,-1.608903090917743889e-02,2.369528034059741051e-02,-4.967879933285169330e-02
1.054000000000000048e+00,-5.953986971733776778e-02,-1.738079427333533503e-02,-1.516142796626045522e-02
1.054999999999999938e+00,-2.051663696682315061e-02,-5.135842295239340799e-02,3.805023771921977466e-02
1.056000000000000050e+00,2.497427669693733088e-02,-5.718479961980128118e-02,4.874997851607223986e-02
1.056999999999999940e+00,6.587344075043022329e-02,1.304435747507911789e-02,6.245189495056339621e-03
1.058000000000000052e+00,4.709003507778458664e-02,5.566080431663032041e-02,-4.176663657077563097e-02
1.058999999999999941e+00,-1.563834027263441562e-02,6.101028408881890158e-02,-4.180791034937949430e-02
1.060000000000000053e+00,-6.857907327175362389e-02,-2.550842138908255771e-02,-1.454048346093659953e-02
1.060999999999999943e+00,-4.222794025253587963e-02,-4.571297285230077612e-02,4.510493874668458636e-02
1.062000000000000055e+00,4.856167543891776010e-03,-5.886723155346334363e-02,1.275085251704533365e-02
1.062999999999999945e+00,6.594260562462188335e-02,-6.323732078649222862e-03,1.278529766392250307e-02
1.064000000000000057e+00,7.665945549536340442e-02,4.486956756104055338e-02,-4.638757394037820031e-02
1.064999999999999947e+00,-8.295850300664791795e-05,3.830509853231392481e-02,-3.878759650522906055e-02
1.066000000000000059e+00,-8.487128577316715994e-02,1.517164792244521214e-02,-4.463509757231869102e-02
1.066999999999999948e+00,-4.918057210353464492e-02,-7.361131692672805149e-02,4.307443157218110441e-02
1.068000000000000060e+00,3.086284824112385528e-02,-4.651070545803087652e-02,5.092008407951042342e-02
1.068999999999999950e+00,6.313894461465660579e-02,-2.310263243845698394e-02,3.237485013825885938e-02
1.070000000000000062e+00,4.134939321885838792e-02,5.232270996516505401e-02,-3.162240321594791265e-02
1.070999999999999952e+00,5.830410350627989596e-03,9.252795927177995261e-02,-7.109219982415894423e-02
1.072000000000000064e+00,-6.192177682633066144e-02,3.058787887980170175e-03,-4.907368949370082001e-02
1.072999999999999954e+00,-7.286173477345637972e-02,-5.050836107362133981e-02,6.855452189138780753e-03
1.074000000000000066e+00,-3.567608161121027001e-03,-7.410795602130869353e-02,4.147744264203218761e-02
1.074999999999999956e+00,5.909870469162444018e-02,8.380901842813141822e-03,5.734148816115928332e-02
1.076000000000000068e+00,7.375071074315191211e-02,3.696980523285979536e-02,2.238560563365763964e-02
1.076999999999999957e+00,3.396223028933738342e-02,7.021149617697072798e-02,-6.494580875815945953e-02
1.078000000000000069e+00,-4.216020844675327089e-02,2.075887536238644332e-02,-7.186629851735530650e-02
1.078999999999999959e+00,-8.805031162609711082e-02,-5.909108757464242440e-02,2.751905545812005638e-02
1.080000000000000071e+00,4.494296870427932043e-03,-6.351562326718440676e-02,4.548403030909418249e-02
1.080999999999999961e+00,6.746457144494964753e-02,-3.704787248293440333e-02,5.197149395751579637e-02
1.082000000000000073e+00,6.703303238597710378e-02,3.482756564337254057e-02,2.393386452950419657e-02
1.082999999999999963e+00,3.105457973243154132e-02,6.182404638027658161e-02,-5.444623898595581102e-02
1.084000000000000075e+00,-7.022887706926043971e-02,2.099467767638690460e-02,-4.060504455238371502e-02
1.084999999999999964e+00,-8.351181011614573768e-02,-3.196844548135045067e-02,3.945585905196505143e-03
1.086000000000000076e+00,-5.953569400691290092e-02,-7.338035453220242976e-02,2.844169609839552679e-02
1.086999999999999966e+00,2.486451853104293744e-02,-4.969966980339791951e-02,2.373434647351880047e-02
1.088000000000000078e+00,5.480873473450768169e-02,2.642928446243929946e-02,3.714792903333750257e-02
1.088999999999999968e+00,3.340783522685971535e-02,5.367163585533209907e-02,-7.635796727733390292e-03
1.090000000000000080e+00,-2.910890334840964336e-02,2.779671961881525002e-02,-4.393224729859793870e-02
1.090999999999999970e+00,-9.276167405808082023e-02,-2.059983467946021815e-02,-1.325059506162550374e-02
1.092000000000000082e+00,-5.319254559800610377e-02,-5.819327397126260182e-02,3.652256049557271039e-02
1.092999999999999972e+00,2.431757072352612806e-02,-2.062602940541767918e-02,4.311055092196195565e-02
1.094000000000000083e+00,8.563045844536186502e-02,6.338651194366816313e-04,2.240906954599500289e-02
1.094999999999999973e+00,5.080927561830566458e-02,9.692270498119036348e-02,-1.635402337749824325e-02
1.096000000000000085e+00,4.558456758761182150e-03,4.384219391338517458e-02,-4.608203252342374379e-02
1.096999999999999975e+00,-6.546111867893912584e-02,8.861800061276511181e-03,-4.575126521196305751e-02
1.098000000000000087e+00,-5.213790086945842284e-02,-7.305713839169455937e-02,-1.225128336406548953e-02
1.098999999999999977e+00,1.891634891774033461e-02,-2.702419862642675349e-02,3.749502565880691307e-02
1.100000000000000089e+00,5.205550738544039574e-02,1.109397637354859849e-02,5.022266808273415095e-02
1.100999999999999979e+00,6.567015948778086309e-02,4.376770913777863758e-02,5.427615337960428089e-03
1.102000000000000091e+00,4.332493489484405894e-03,5.710712066241915158e-02,-3.663227307848355985e-02
1.102999999999999980e+00,-7.173359261759917893e-02,-1.102441915722542076e-02,-2.849963869609005440e-02
1.104000000000000092e+00,-5.015283043637986521e-02,-6.679435759373587855e-02,-6.798460491017232175e-03
1.104999999999999982e+00,5.851359656623421855e-03,-5.987688856236917517e-02,4.390788581036634414e-02
1.106000000000000094e+00,5.172761888244353790e-02,4.207830392863292322e-03,4.849424586163701700e-02
1.106999999999999984e+00,7.657159775577045135e-02,6.841120797762553774e-02,5.448009415722735935e-03
1.108000000000000096e+00,1.986286806204233882e-02,7.130811467275183224e-02,-2.570316921852378381e-02
1.108999999999999986e+00,-5.084263029404167272e-02,6.416429269356504518e-03,-3.519613586386979159e-02
1.110000000000000098e+00,-6.751110606187121777e-02,-5.753023382300981314e-02,-1.164776404806259352e-02
1.110999999999999988e+00,-4.422776009761109767e-02,-5.803269266988571318e-02,3.205346978697813654e-02
1.112000000000000099e+00,3.576246877934627366e-02,-1.032191451587744120e-02,2.135263947301879045e-02
1.112999999999999989e+00,8.472717783741377795e-02,7.318290463161146453e-02,1.712438724556443817e-02
1.114000000000000101e+00,3.864602562004375991e-02,3.598810615537458707e-02,-2.500566196434701391e-02
1.114999999999999991e+00,-5.836308843768219651e-02,2.484609933740277929e-02,-3.364639111446261072e-02
1.116000000000000103e+00,-7.260798717198967134e-02,-5.692647437783310976e-02,-7.488184352307185321e-02
1.116999999999999993e+00,-1.915910599701846351e-02,-6.493348260752332402e-02,2.563147429538904787e-02
1.118000000000000105e+00,3.189835543589472633e-02,-1.785728138328546849e-02,6.441892159951044527e-02
1.118999999999999995e+00,8.048836608868657760e-02,5.299184180096230129e-02,2.181222613487615938e-02
1.120000000000000107e+00,3.662946895413671938e-02,6.673329625104769403e-02,-1.551301693833787194e-02
1.120999999999999996e+00,-2.786535300595994330e-02,3.479714319854235877e-02,-5.734728375188283961e-02
1.122000000000000108e+00,-7.961959174150626262e-02,-6.059582901087305629e-02,-4.301841995223414788e-02
1.122999999999999998e+00,-5.734919888670021726e-02,-6.744258987904822034e-02,4.975027237585108626e-03
1.124000000000000110e+00,6.217649003299685617e-02,1.956202096428036330e-03,2.779167588840925421e-02
1.125000000000000000e+00,5.580935355971099188e-02,2.552154117705185410e-02,3.231469881905894848e-02
1.125999999999999890e+00,5.590863365958034792e-02,5.058965934396326969e-02,5.221940199988478470e-03
1.127000000000000002e+00,-9.985959457179820892e-03,3.567633386198610051e-04,-1.895377049105189532e-02
1.127999999999999892e+00,-6.863096957225389705e-02,-3.626244443106273196e-02,-5.424111093474350692e-02
1.129000000000000004e+00,-5.691721987522422449e-02,-6.331764115823279582e-02,2.296653939886469584e-02
1.129999999999999893e+00,1.586027441290332324e-02,-3.252952741011386900e-02,3.903832285006889058e-02
1.131000000000000005e+00,6.089073980262315472e-02,1.590637873475836406e-02,4.763701871987990888e-02
1.131999999999999895e+00,6.011265996419232205e-02,3.759352751168165002e-02,4.386179925971956522e-02
1.133000000000000007e+00,-1.362720698572132856e-02,2.622172736969930265e-02,-3.278494425430339421e-02
1.133999999999999897e+00,-6.754315683216276234e-02,-3.875379365595560399e-02,-5.628171716534518393e-02
1.135000000000000009e+00,-8.461620688266985324e-02,-5.573506595731522739e-02,-1.663681295877085173e-02
1.135999999999999899e+00,5.163604346851424776e-03,-1.956423241304499835e-02,2.593546363770045035e-02
1.137000000000000011e+00,8.477044668130090388e-02,1.178985978659665215e-02,5.586284773915313473e-02
1.137999999999999901e+00,9.227215647568287604e-02,8.023629537130103073e-02,7.918604306478347135e-03
1.139000000000000012e+00,1.260528007015765482e-03,1.208594911861552400e-02,-2.172136552146595317e-02
1.139999999999999902e+00,-6.075082030426530444e-02,-3.924541559726012901e-02,-3.855634555195131680e-02
1.141000000000000014e+00,-6.097230114906379561e-02,-8.019919167048221442e-02,-5.207909777024198605e-02
1.141999999999999904e+00,-2.934695234920714144e-02,-5.820249587017413406e-02,1.664349701537365042e-02
1.143000000000000016e+00,4.915097400073645956e-02,4.173160399004991611e-02,6.141443230954417992e-02
1.143999999999999906e+00,8.849642836231923215e-02,4.511561884621312357e-02,4.258873313826346679e-02
1.145000000000000018e+00,3.591917152775543545e-03,4.815662747519113690e-02,-3.616573036181784662e-03
1.145999999999999908e+00,-4.454268843566443203e-02,1.203637839785350223e-02,-2.030662630553016837e-02
1.147000000000000020e+00,-6.395903671866370876e-02,-6.995219078753482644e-02,-2.928699048174650266e-02
1.147999999999999909e+00,-4.959776088510051140e-02,-7.150554452986904175e-02,-2.009649343715051717e-02
1.149000000000000021e+00,6.815447756203686647e-02,2.180939292571719423e-02,4.853432516371496142e-02
1.149999999999999911e+00,5.524938601916894870e-02,6.355620279535928452e-02,5.185576271886604971e-02
1.151000000000000023e+00,3.669631395597124784e-02,5.064960224714231546e-02,1.650911962796911686e-02
1.151999999999999913e+00,-1.813704342182108700e-02,6.149047184572382051e-03,-4.040972198121102477e-02
1.153000000000000025e+00,-7.476532407953381809e-02,-6.014415786018695309e-02,-4.098235851401645091e-02
1.153999999999999915e+00,-4.929882765168540348e-02,-4.827022180502633930e-02,-1.796605354452193021e-02
1.155000000000000027e+00,3.128486204429251072e-02,9.389416307143277646e-04,4.139556026433325459e-02
1.155999999999999917e+00,4.942276617868884142e-02,7.498641868486426165e-02,3.728714820720598067e-02
1.157000000000000028e+00,6.678379861355630831e-02,3.790656089531214273e-02,-1.380580714195535179e-02
1.157999999999999918e+00,-1.175366709028819769e-02,3.393522815764589418e-02,-2.051497047320818140e-02
1.159000000000000030e+00,-6.082171994060640158e-02,-4.170324614014693509e-02,-6.940834301507878279e-02
1.159999999999999920e+00,-6.640829138240045282e-02,-7.530659971697375998e-02,-9.915232946972100947e-03
1.161000000000000032e+00,3.675758718512924655e-02,-2.489919501065188459e-02,2.760300623763051880e-03
1.161999999999999922e+00,3.524156829217201664e-02,5.162068448340747379e-02,2.371734483417076850e-02
1.163000000000000034e+00,6.842404786653824567e-02,5.527986284254936267e-02,2.308215048674356826e-02
1.163999999999999924e+00,7.724559019100703423e-03,3.525715063734357474e-02,-3.653554782776333859e-02
1.165000000000000036e+00,-7.010370649206523752e-02,-2.114926595794631992e-02,-6.726330310701998660e-02
1.165999999999999925e+00,-6.166927566570329367e-02,-6.187570288530652024e-02,-3.887931618831232117e-02
1.167000000000000037e+00,-6.190985492683391891e-03,-2.902772539442235317e-02,-8.175026411082892937e-04
1.167999999999999927e+00,5.298694953737748820e-02,6.058061053246258099e-02,5.708464996529510893e-02
1.169000000000000039e+00,8.251338112409389858e-02,8.353172885179994955e-02,3.727136773661073738e-02
1.169999999999999929e+00,2.872637224902857209e-02,2.601387922628054308e-02,4.290581499758223429e-03
1.171000000000000041e+00,-6.863249585874854619e-02,-3.239924665683061034e-02,-1.988525093277530506e-02
1.171999999999999931e+00,-7.473991346583240547e-02,-5.756078930686565898e-02,-3.670615744241071537e-02
1.173000000000000043e+00,-1.927320806399758502e-02,-3.434373769098831436e-02,-2.176724085050936452e-03
1.173999999999999932e+00,4.484961123885340684e-02,4.172007992784219910e-02,4.564650905930522223e-02
1.175000000000000044e+00,8.681365857116431217e-02,6.754858524316441348e-02,4.119436303367134122e-02
1.175999999999999934e+00,2.195322676048582985e-02,5.125227174243514316e-02,-3.095390336748226473e-03
1.177000000000000046e+00,-4.821993950515457428e-02,-2.366648195987107808e-02,-4.040278723126624477e-02
1.177999999999999936e+00,-6.916786133058432096e-02,-7.492620929360900572e-02,-3.777962579763655127e-02
1.179000000000000048e+00,-5.786049740363252702e-02,-3.652482558619286890e-02,-2.608256244833568119e-02
1.179999999999999938e+00,3.613718627525187854e-02,1.173693608964794001e-02,2.661139946177890070e-02
1.181000000000000050e+00,7.325789155368064853e-02,6.138310842419331115e-02,4.455119671561742767e-02
