time,acc_x,acc_y,acc_z
0.000000000000000000e+00,-5.216144328227036164e-02,-3.206691442123876801e-04,-6.296672740117548184e-02
1.000000000000000021e-03,1.056308555118893461e-01,1.283267652133748549e-01,4.121763584219143711e-02
2.000000000000000042e-03,2.135322792648705892e-01,2.210456984401124869e-01,9.096127800060740953e-02
3.000000000000000062e-03,1.349685039991867785e-01,7.166387575897453788e-02,1.017469909541876272e-01
4.000000000000000083e-03,-1.066728297672193959e-01,-1.494566633966553648e-01,8.395387731508472534e-03
5.000000000000000104e-03,-3.019400173559627643e-01,-2.528834867841334155e-01,-1.144318597819288519e-01
6.000000000000000125e-03,-2.761994578989560578e-01,-1.370323759576265732e-01,-1.566309262520427514e-01
7.000000000000000146e-03,1.069046005760593276e-02,5.873168019688118635e-02,-6.733464538330877214e-02
8.000000000000000167e-03,2.644678950802929474e-01,2.447585617807950253e-01,7.044853225825629950e-02
8.999999999999999320e-03,2.892536999823708821e-01,2.131441959918013163e-01,1.734959106539897822e-01
1.000000000000000021e-02,1.452341760365548351e-01,-2.690903653828178796e-03,1.360081493705316558e-01
1.099999999999999936e-02,-1.645849272975446753e-01,-1.540832394452180953e-01,-3.148431049713116409e-02
1.200000000000000025e-02,-2.838663486878866271e-01,-1.841153322271986137e-01,-1.771599598917376062e-01
1.299999999999999940e-02,-1.704258039687627235e-01,-5.264772011675922930e-02,-1.763213836977131355e-01
1.400000000000000029e-02,4.846361589530317343e-02,6.690272994408814899e-02,-4.259515985003332894e-02
1.499999999999999944e-02,1.902454400069555907e-01,1.055291003881030226e-01,8.090415948196963414e-02
1.600000000000000033e-02,1.603097687473883926e-01,4.833630388536595823e-02,1.227380248797978746e-01
1.700000000000000122e-02,1.923464874493313950e-02,-2.002600535738060378e-02,7.258004695971216613e-02
1.799999999999999864e-02,-7.495514020231851260e-02,-2.236562842704905088e-03,-3.380808251190810243e-02
1.899999999999999953e-02,-1.011110956872401413e-02,2.726222202537509701e-02,-6.558724538575992635e-02
2.000000000000000042e-02,-1.106537169268759398e-02,2.809278693823484899e-02,-9.951461764921976441e-03
2.100000000000000130e-02,6.850681431488510678e-03,-5.063613340240719768e-02,2.334365848484560094e-02
2.199999999999999872e-02,-9.799339728896090673e-02,-1.387975743410713447e-01,1.521682640739946586e-02
2.299999999999999961e-02,-1.167767986795340968e-01,-1.024617477880822997e-01,-3.167512912177476020e-02
2.400000000000000050e-02,-2.548759714386187800e-02,7.413511523691902749e-02,-4.210601525666860662e-02
2.500000000000000139e-02,1.151357640793568976e-01,2.564769454882200317e-01,1.189553919527396898e-02
2.599999999999999881e-02,2.372227682085798484e-01,2.001904949337846296e-01,9.671675507603953725e-02
2.699999999999999969e-02,1.434894612322275553e-01,4.783951218456780272e-03,1.028094294513937357e-01
2.800000000000000058e-02,-1.262162104986873090e-01,-2.101114651242209086e-01,4.269654207878832014e-02
2.900000000000000147e-02,-2.970660911064485488e-01,-2.448362903131797719e-01,-9.962991505307762508e-02
2.999999999999999889e-02,-2.415457341717643369e-01,-8.317258380076655855e-02,-1.504325834746625123e-01
3.099999999999999978e-02,3.907654466981388768e-04,1.654232612444961892e-01,-1.093004464524820890e-01
3.200000000000000067e-02,2.815114321440489453e-01,2.515536098710902668e-01,8.064293695713461996e-02
3.300000000000000155e-02,3.088320245647860895e-01,1.351643109966239875e-01,2.159055249870096560e-01
3.400000000000000244e-02,1.127895826709559846e-01,-6.552796600748533873e-02,1.500462008404854219e-01
3.500000000000000333e-02,-1.559850122490807622e-01,-2.410303134657812985e-01,1.118371066805487604e-04
3.599999999999999728e-02,-3.084241917909807951e-01,-1.608365937984062299e-01,-1.733891181111307245e-01
3.699999999999999817e-02,-1.911276041484869515e-01,1.958513263815078991e-03,-1.769277760605254823e-01
3.799999999999999906e-02,5.602836151149154925e-02,1.226939978458490149e-01,-7.548073565181082079e-02
3.899999999999999994e-02,1.568430414891112679e-01,1.004090694129204375e-01,7.497085193115307633e-02
4.000000000000000083e-02,1.246294851044474350e-01,3.045942282100264423e-02,1.064170827621101073e-01
4.100000000000000172e-02,2.680895823402493910e-02,-6.219142331526234836e-03,7.833865390722950794e-02
4.200000000000000261e-02,-5.287020556198147869e-02,-1.046270456413712045e-02,-9.166269327842963390e-04
4.299999999999999656e-02,-2.317632944969247669e-02,5.289949544152260791e-02,-7.316376947738718883e-02
4.399999999999999745e-02,2.697675360643401674e-02,4.860823331464773391e-03,-4.928147843339287376e-02
4.499999999999999833e-02,1.836483083691476574e-03,-8.996285653237598434e-02,6.641524519426050994e-03
4.599999999999999922e-02,-8.298458096483460333e-02,-1.289677250978944756e-01,-8.594724981010749831e-03
4.700000000000000011e-02,-1.421922238482137557e-01,-6.765995947382488773e-02,-4.746269434593249764e-02
4.800000000000000100e-02,-1.684691900168420672e-02,8.215013301109823363e-02,-5.955696006278989735e-02
4.900000000000000189e-02,1.510417800907622732e-01,1.940337507220785407e-01,1.290371146351928415e-03
5.000000000000000278e-02,2.758610933392799391e-01,1.442457577293394522e-01,9.089086830550696661e-02
5.099999999999999672e-02,1.069017211198399347e-01,-6.877474295792730674e-02,9.895117839147314631e-02
5.199999999999999761e-02,-1.339570506396462746e-01,-2.404377373386965278e-01,6.401810269910768181e-02
5.299999999999999850e-02,-3.066751410838504111e-01,-2.374776101273127216e-01,-8.742786698652418864e-02
5.399999999999999939e-02,-2.238252349852129786e-01,-5.584338597066550169e-03,-1.964606588377303120e-01
5.500000000000000028e-02,4.270284651826648792e-02,2.102259566130604829e-01,-1.312475663043352891e-01
5.600000000000000117e-02,2.866726263847371170e-01,2.454468368815747314e-01,2.954239368345121935e-02
5.700000000000000205e-02,3.063513727475273285e-01,6.717832433829083738e-02,2.159004946690687710e-01
5.800000000000000294e-02,6.865747883981218602e-02,-1.202144389441614364e-01,2.017141661993872015e-01
5.899999999999999689e-02,-1.822954756945573684e-01,-1.927301225394155715e-01,2.170208546797212576e-02
5.999999999999999778e-02,-2.815481409575918970e-01,-1.002985094431460139e-01,-1.398626024516474997e-01
6.099999999999999867e-02,-1.769323895370446820e-01,2.383532000124859163e-02,-1.625296823628032128e-01
6.199999999999999956e-02,6.571353099736115810e-02,1.172828606935177320e-01,-9.585771134985421327e-02
6.300000000000000044e-02,1.680133727750469375e-01,7.053834718956104866e-02,4.062224656719663068e-02
6.400000000000000133e-02,1.096342177799687484e-01,5.532000474120643378e-03,1.125439691199184439e-01
6.500000000000000222e-02,-5.503866822291576463e-03,2.492906604339765325e-02,1.162575157319065133e-01
6.600000000000000311e-02,-5.065618890001169147e-03,5.472522042907579376e-02,2.208376339514669245e-02
6.700000000000000400e-02,3.782558322098095258e-03,6.471095732859252769e-02,-5.266137668829947577e-02
6.800000000000000488e-02,4.667855299447417478e-02,-2.686988999473656492e-02,-1.948459349447891759e-02
6.900000000000000577e-02,-2.702101593751745148e-02,-1.153022572800213585e-01,7.801841884074030460e-03
7.000000000000000666e-02,-1.021969382123432968e-01,-1.674876981170643764e-01,4.931207399029116992e-03
7.099999999999999367e-02,-1.799437482803154520e-01,-2.720958363399651400e-02,-2.941238773781197288e-02
7.199999999999999456e-02,-3.285759818757245931e-02,1.628021879376427561e-01,-6.051709463088461582e-02
7.299999999999999545e-02,2.173775764948840672e-01,2.131431402562069810e-01,-7.835666521809878104e-03
7.399999999999999634e-02,2.477518253438893980e-01,7.561591117170736454e-02,9.158477717004658014e-02
7.499999999999999722e-02,1.049490681427802385e-01,-1.533307286468781339e-01,1.393857817531672094e-01
7.599999999999999811e-02,-1.718080766119769176e-01,-2.549169379279807024e-01,4.045914784598383940e-02
7.699999999999999900e-02,-3.407198512724550765e-01,-1.594183968459211287e-01,-4.517808646941416650e-02
7.799999999999999989e-02,-2.505324039854908702e-01,7.802468608108489856e-02,-2.034999615728002587e-01
7.900000000000000078e-02,4.299381383964423486e-02,2.235335834087276430e-01,-1.493208987528072684e-01
8.000000000000000167e-02,2.950459483688950280e-01,2.070412244363226961e-01,2.010546837794183542e-02
8.100000000000000255e-02,3.046905462716280599e-01,2.219648155902092385e-02,1.596127234146816620e-01
8.200000000000000344e-02,7.548939784843489154e-02,-1.347828693596065663e-01,2.155841558886458786e-01
8.300000000000000433e-02,-2.070177447932811665e-01,-1.543146507571385162e-01,4.914193750567427688e-02
8.400000000000000522e-02,-2.450368894458571922e-01,-2.371186192067918641e-02,-8.983210391750548474e-02
8.500000000000000611e-02,-1.028909308597914379e-01,6.863334705556226045e-02,-1.588759851476861384e-01
8.599999999999999312e-02,9.012074092809534143e-02,6.329468772677421251e-02,-9.836801932461819442e-02
8.699999999999999400e-02,1.493178534299065274e-01,2.053284676917907850e-02,4.382165284222280105e-02
8.799999999999999489e-02,7.130285392461116478e-02,4.993050680174294887e-04,6.952529430258545806e-02
8.899999999999999578e-02,-1.072567942962357641e-02,-3.051883416508917313e-02,9.677674173707273564e-02
8.999999999999999667e-02,-1.418947001823738126e-02,6.825892499106309130e-02,4.821503271323485801e-03
9.099999999999999756e-02,2.056883916206152241e-02,4.685193883506279938e-02,-5.668164428719214831e-02
9.199999999999999845e-02,3.288632005771062461e-02,-7.007013513786106151e-02,-1.058499696843806341e-02
9.299999999999999933e-02,-3.922705736222760475e-02,-1.773541042465518469e-01,2.205533037201446583e-02
9.400000000000000022e-02,-1.556461800877590729e-01,-1.464392951053027914e-01,1.632219890355294384e-02
9.500000000000000111e-02,-1.301711327858681155e-01,3.975653496130368558e-02,-6.135067346559668761e-02
9.600000000000000200e-02,-4.933476275624259534e-03,2.100611941813209649e-01,-6.397896399325736505e-02
9.700000000000000289e-02,2.075033514411754598e-01,2.170908636168093209e-01,-1.355964683564897869e-02
9.800000000000000377e-02,2.841484710886207354e-01,-3.574298099396178846e-03,5.344037123665757588e-02
9.900000000000000466e-02,9.043504615845418537e-02,-2.209506773998157481e-01,1.410276031046470147e-01
1.000000000000000056e-01,-1.694942776424601671e-01,-2.640049260372593909e-01,1.174298451446405545e-01
1.010000000000000064e-01,-3.447569392541620092e-01,-1.048565454741286762e-01,-4.755517370832425261e-02
1.019999999999999934e-01,-2.139458448905089405e-01,1.067333675342383575e-01,-1.906323453276371205e-01
1.029999999999999943e-01,5.638950080784279478e-02,2.537767062303659671e-01,-1.704215545486977845e-01
1.039999999999999952e-01,2.889204977086288206e-01,1.481150548920542320e-01,-4.106262868567090059e-03
1.049999999999999961e-01,2.830960282422914087e-01,-5.052208065621022204e-02,1.423247894845981187e-01
1.059999999999999970e-01,3.931833411028637371e-02,-1.825596768622722021e-01,1.957268577359590755e-01
1.069999999999999979e-01,-1.829286793935713806e-01,-1.287870631142878641e-01,1.110280166817039227e-01
1.079999999999999988e-01,-2.319291684980138435e-01,-8.317588998741751519e-03,-4.800239470076573395e-02
1.089999999999999997e-01,-9.071242801516482546e-02,6.572710206110550513e-02,-1.968789923814106835e-01
1.100000000000000006e-01,9.025598581766033912e-02,7.388001439958867544e-02,-9.776046672515914526e-02
1.110000000000000014e-01,1.413238889257065756e-01,-1.403997608806481848e-02,-1.477185330250930552e-02
1.120000000000000023e-01,7.179138832551097693e-02,-7.312088171207274494e-03,1.152572012643027222e-01
1.130000000000000032e-01,-2.475398767972896222e-02,5.355227380035133128e-02,7.336298872059110465e-02
1.140000000000000041e-01,-1.692145408714279195e-02,4.404482377616121547e-02,5.572338556979015284e-02
1.150000000000000050e-01,3.788533870325006686e-02,-1.985537694190452843e-03,-1.634971600627802696e-02
1.160000000000000059e-01,1.662484060614831047e-02,-1.208528477617746705e-01,-1.906319076714416486e-02
1.170000000000000068e-01,-5.603208477508028057e-02,-2.004864832939001751e-01,1.783990067865576712e-03
1.179999999999999938e-01,-1.727650319165505988e-01,-1.244679540759220104e-01,3.345383891912143484e-03
1.189999999999999947e-01,-1.490527658522354526e-01,9.427530181872802173e-02,-5.884784965739055934e-02
1.199999999999999956e-01,-1.093075631740231431e-02,2.564731379216841911e-01,-7.496382619006926318e-02
1.209999999999999964e-01,2.216353592108536164e-01,1.726001694015595889e-01,-4.292440408029619958e-02
1.219999999999999973e-01,2.939106180631611553e-01,-6.044024489531005934e-02,6.236003290354702466e-02
1.229999999999999982e-01,8.391521044788811945e-02,-2.354466669028731640e-01,1.538265299743569736e-01
1.239999999999999991e-01,-1.946862333929633426e-01,-2.579013852222045711e-01,1.042972119532526026e-01
1.250000000000000000e-01,-3.276092456542522569e-01,-3.294359285999842041e-02,-2.716329876507255978e-02
1.260000000000000009e-01,-2.167327456973646149e-01,1.749449596082627567e-01,-1.419478584145660027e-01
1.270000000000000018e-01,6.561774316921201167e-02,2.060509298584677906e-01,-2.194286210521498304e-01
1.280000000000000027e-01,2.811902526772379063e-01,1.092769917522336542e-01,-3.804520467627034441e-02
1.290000000000000036e-01,2.295694549078922675e-01,-7.473434957047604688e-02,1.415147170263518217e-01
1.300000000000000044e-01,1.694602472171627405e-02,-1.380359231706780598e-01,2.117309158608286779e-01
1.310000000000000053e-01,-1.843754614339286058e-01,-1.013988153770306322e-01,1.183493297026636248e-01
1.320000000000000062e-01,-2.435020515051534995e-01,2.174171061263220628e-02,-3.356859273967347651e-02
1.330000000000000071e-01,-1.050004758093711632e-01,6.708427263587705969e-02,-1.290614382889158918e-01
1.340000000000000080e-01,9.313267858793818077e-02,2.008474353575256596e-02,-1.150976136238434228e-01
1.350000000000000089e-01,8.088921692666384278e-02,7.729539435489009985e-03,-1.458890011003786090e-02
1.360000000000000098e-01,4.262508401445253697e-02,1.070405010553449141e-03,5.086183939908584667e-02
1.370000000000000107e-01,-1.253488645176045573e-02,5.672961078220838810e-02,8.349072548771460656e-02
1.380000000000000115e-01,6.712954345538132105e-03,1.048745971856202414e-01,2.521908696189806287e-02
1.390000000000000124e-01,6.867965358477669258e-02,-5.483773639813736139e-02,-4.000109386865278484e-03
1.400000000000000133e-01,5.040464375748521242e-02,-1.618886083765632422e-01,-3.091321270410228583e-02
1.409999999999999865e-01,-6.631506430287298359e-02,-1.867329287080337352e-01,2.402624984119677842e-02
1.419999999999999873e-01,-1.694013448719595138e-01,-2.959208511166642932e-03,2.286735576838920189e-02
1.429999999999999882e-01,-1.234114168589836441e-01,1.699874208244229745e-01,-6.230400072667668931e-02
1.439999999999999891e-01,2.706510888404579582e-02,2.489867719628142129e-01,-8.673552675553054814e-02
1.449999999999999900e-01,2.322703584890641604e-01,1.261237891055302096e-01,-7.570631570317987169e-02
1.459999999999999909e-01,2.985186027870177505e-01,-1.292778132840847194e-01,4.704894179202240984e-02
1.469999999999999918e-01,1.077284732748540197e-01,-2.648192300151341882e-01,1.397076443892689424e-01
1.479999999999999927e-01,-1.953650701612587026e-01,-1.994826225018912491e-01,1.388792707513186453e-01
1.489999999999999936e-01,-3.297818123748885721e-01,4.762938435160035677e-02,7.971887065047700283e-03
1.499999999999999944e-01,-1.875158899812410518e-01,1.855961854508556830e-01,-1.375750742163565632e-01
1.509999999999999953e-01,1.041263829278699787e-01,2.076369158025757611e-01,-2.212280016584317888e-01
1.519999999999999962e-01,3.298489321836243771e-01,6.719640160000954487e-02,-1.170202468062898904e-01
1.529999999999999971e-01,2.666066526749090726e-01,-1.113894263745552615e-01,7.233646966664816769e-02
1.539999999999999980e-01,-2.157808806771567296e-03,-1.390029196076847384e-01,1.758849428053853026e-01
1.549999999999999989e-01,-2.046792284883314217e-01,-4.553378037953027119e-02,1.399224355181324098e-01
1.559999999999999998e-01,-1.864804657875891170e-01,1.623220575388599485e-02,-1.326059191539803901e-02
1.570000000000000007e-01,-7.377650164035917668e-02,3.556572323829240018e-02,-1.291243301332611892e-01
1.580000000000000016e-01,6.990256566669107718e-02,-3.030381431068890699e-02,-1.606861068147799887e-01
1.590000000000000024e-01,1.015580248534008745e-01,-1.480226263833842645e-03,-5.193447635215536068e-02
1.600000000000000033e-01,2.232047994924333742e-02,4.013755654787826838e-02,7.675769606644590459e-02
1.610000000000000042e-01,-1.250228169736571256e-02,1.186206472847374099e-01,1.125021645056260844e-01
1.620000000000000051e-01,3.039197540654410210e-02,6.106079769662010881e-02,3.030297393396174169e-02
1.630000000000000060e-01,7.223761401332641496e-02,-9.832229832161541727e-02,-1.210461947947496185e-04
1.640000000000000069e-01,4.917101020215548790e-02,-2.016857750957186113e-01,-2.255103651441664817e-02
1.650000000000000078e-01,-5.262476611290638900e-02,-1.656320663742817667e-01,1.917302301435203082e-02
1.660000000000000087e-01,-1.830560207344696655e-01,5.518562084416583219e-02,2.559285555812293791e-02
1.670000000000000095e-01,-1.603273151910031558e-01,2.155010138017210419e-01,-5.404716774975479310e-02
1.680000000000000104e-01,4.372942578125692259e-02,2.327224295691690814e-01,-1.044426618418046182e-01
1.690000000000000113e-01,2.970171557347888736e-01,6.394997503022460672e-02,-9.045828826604242201e-02
1.700000000000000122e-01,2.562526495036885898e-01,-1.707816526543690372e-01,5.597414632601993567e-02
1.710000000000000131e-01,4.863116397154165771e-02,-2.660191823498403441e-01,1.228586644250938414e-01
1.719999999999999862e-01,-2.151386747240757735e-01,-1.041723897546705246e-01,1.396468088646855565e-01
1.729999999999999871e-01,-3.399902769095812793e-01,7.325335753399588035e-02,3.683906303749655969e-02
1.739999999999999880e-01,-1.780136895758916704e-01,2.330838723984554883e-01,-1.175731243344660532e-01
1.749999999999999889e-01,1.214862841026669166e-01,1.376682528110243775e-01,-1.838371225117354235e-01
1.759999999999999898e-01,3.173471213199442476e-01,-3.860807249928419494e-03,-1.331274905021191390e-01
1.769999999999999907e-01,2.178542520633240664e-01,-1.211293665933298180e-01,6.330504071550369094e-02
1.779999999999999916e-01,-2.231861451769377724e-02,-9.401290372663015371e-02,1.774657081795621150e-01
1.789999999999999925e-01,-1.628351380879388965e-01,-3.087876035348672416e-02,1.521230492913088483e-01
1.799999999999999933e-01,-1.884757536835023062e-01,5.805945940225966384e-02,4.035837308918822919e-02
1.809999999999999942e-01,-4.813720109392338048e-02,3.572510878048055366e-02,-1.118173565985322859e-01
1.819999999999999951e-01,7.501669524506095199e-02,-2.249227375876658441e-02,-1.484193598033295702e-01
1.829999999999999960e-01,4.501262748425105542e-02,5.813543838591840943e-03,-1.090528358202323272e-01
1.839999999999999969e-01,2.509237922201385668e-02,8.263434452411248798e-02,4.156846326808242426e-02
1.849999999999999978e-01,-2.819723103911543974e-02,1.049107619934828983e-01,4.916817500651297912e-02
1.859999999999999987e-01,8.809325310596142350e-03,8.534151357893411324e-03,2.863165641241731396e-02
1.869999999999999996e-01,1.222705509361696891e-01,-1.367524746787923962e-01,-1.803409402081113111e-02
1.880000000000000004e-01,2.159636559897195468e-02,-1.697434556531675076e-01,-2.050797888414388967e-03
1.890000000000000013e-01,-1.152570882954854770e-01,-1.285404367463477138e-01,2.634287231695186388e-02
1.900000000000000022e-01,-1.761863347005966918e-01,1.198519534796813335e-01,3.492953894336499332e-02
1.910000000000000031e-01,-1.678301282503649461e-01,2.642413482114225887e-01,-5.156232818476175206e-02
1.920000000000000040e-01,5.743365335207637618e-02,1.868695411848587673e-01,-1.039270940555806905e-01
1.930000000000000049e-01,2.570606319410543850e-01,-4.737654022683961824e-02,-9.847726248083035760e-02
1.940000000000000058e-01,2.741922535746025846e-01,-2.347861836111417300e-01,-6.604556845256703314e-03
1.950000000000000067e-01,1.638772876861984557e-02,-2.722650190067145703e-01,1.332375693590841237e-01
1.960000000000000075e-01,-2.105024111149076671e-01,-6.201397251974057750e-02,1.729858118993237437e-01
1.970000000000000084e-01,-3.119157409595013641e-01,1.402154556331211555e-01,5.699768058764661388e-02
1.980000000000000093e-01,-1.687846745416951288e-01,2.029052096928501137e-01,-1.090627103103886664e-01
1.990000000000000102e-01,1.323181187575574735e-01,8.485405588286315526e-02,-1.904863885596692064e-01
2.000000000000000111e-01,3.145774413157345073e-01,-5.279077802907312933e-02,-1.719425203263033608e-01
2.010000000000000120e-01,1.979399690237971521e-01,-9.240331080397533314e-02,-2.023378150310451307e-03
2.020000000000000129e-01,-1.270308109088492780e-02,-4.303441240509447291e-02,1.578999673797293890e-01
2.030000000000000138e-01,-1.514988043081494651e-01,-1.849989171083199144e-02,1.711434806606963177e-01
2.039999999999999869e-01,-1.660520339664012801e-01,5.079758769822610015e-02,8.386045224767277317e-02
2.049999999999999878e-01,-2.530833207399923665e-02,3.893274165158867872e-02,-1.141154790206847791e-01
2.059999999999999887e-01,7.166394986807270162e-02,-2.973420827856750048e-02,-1.334612818689749347e-01
2.069999999999999896e-01,4.695968145795025722e-02,6.146475776987735118e-02,-8.595345312807016469e-02
2.079999999999999905e-01,2.506061989584494176e-03,1.230992457025117809e-01,-4.772440144859130089e-03
2.089999999999999913e-01,-4.223543610802581866e-02,1.128543956767901896e-01,7.956384135320264395e-02
2.099999999999999922e-01,8.276810104041928962e-02,-2.062885977173836358e-02,3.337019931756726732e-02
2.109999999999999931e-01,1.168567759324712907e-01,-1.742716927070827870e-01,1.354037336500418451e-02
2.119999999999999940e-01,4.795163106252767204e-02,-1.845106244181000665e-01,-7.381108685718743012e-03
2.129999999999999949e-01,-1.340674496724007791e-01,-8.636413897125624906e-02,2.410059322694768982e-02
2.139999999999999958e-01,-2.327267874142911475e-01,1.625860473225294034e-01,3.500040690037255469e-03
2.149999999999999967e-01,-1.635044917492872452e-01,2.735679587756390529e-01,-1.629748609779557017e-02
2.159999999999999976e-01,8.956727422732103927e-02,1.402064796000760671e-01,-6.862351784221820683e-02
2.169999999999999984e-01,2.956554209517290865e-01,-9.065356704472038452e-02,-1.260500415005612052e-01
2.179999999999999993e-01,2.835183719188029139e-01,-2.291992462509575279e-01,-2.088389288178763795e-03
2.190000000000000002e-01,2.951894177697868271e-02,-1.837716901951223225e-01,1.004578852914091575e-01
2.200000000000000011e-01,-2.531583734379624917e-01,1.133335688108438183e-02,1.637619714154124051e-01
2.210000000000000020e-01,-3.291713663862678163e-01,1.642443743678293211e-01,1.062271639864029865e-01
2.220000000000000029e-01,-1.082637511355501736e-01,1.550160243304683494e-01,-4.125221750038408214e-02
2.230000000000000038e-01,1.291957151472556964e-01,3.823914211640117022e-02,-2.210494009972140128e-01
2.240000000000000047e-01,2.834434436500729015e-01,-8.630845899252762021e-02,-2.033127807283549304e-01
2.250000000000000056e-01,2.049760525866182737e-01,-9.256165815439301725e-02,-2.935197685511660437e-02
2.260000000000000064e-01,-1.069685006073442003e-02,-1.722360064474269927e-03,1.403239993801066732e-01
2.270000000000000073e-01,-1.910830933950249666e-01,1.317242120650986836e-02,1.557815787592661816e-01
2.280000000000000082e-01,-1.462929724312696800e-01,2.576021378144994003e-02,8.617511677726903685e-02
2.290000000000000091e-01,-1.833528667579418375e-02,-2.394204591712941269e-02,-9.200025694035987578e-02
2.300000000000000100e-01,6.397045715314048087e-02,-1.382294443629694322e-02,-1.209082059187484431e-01
2.310000000000000109e-01,3.178325254962775792e-02,7.782851219769290618e-02,-4.826069073185014491e-02
2.320000000000000118e-01,-3.093255707736227572e-02,1.323418962938814059e-01,1.741832050161137846e-02
2.330000000000000127e-01,1.107989851191195849e-02,7.614887862671017305e-02,3.763539361695495550e-02
2.340000000000000135e-01,5.147156233817802573e-02,-9.337945980848171013e-02,4.888305219260166007e-02
2.349999999999999867e-01,1.224139798209735314e-01,-1.945201764386965404e-01,5.666619727046308050e-03
2.359999999999999876e-01,1.821873801067394952e-02,-1.877888914801789655e-01,-2.536313100847594967e-02
2.369999999999999885e-01,-1.514194159199527823e-01,2.646374284177988381e-02,2.275956709817529566e-02
2.379999999999999893e-01,-2.542729877674588246e-01,2.049129616445197200e-01,6.710480867201637500e-02
2.389999999999999902e-01,-1.629475848129709470e-01,2.178731194706204355e-01,1.169416227951567940e-03
2.399999999999999911e-01,7.889332818677238790e-02,7.335401051563263108e-02,-1.139418153009160578e-01
2.409999999999999920e-01,3.161781856944093083e-01,-1.824301808070474817e-01,-1.168919814822139275e-01
2.419999999999999929e-01,2.873964249326411147e-01,-2.514316204805465138e-01,-4.474843324652674065e-02
2.429999999999999938e-01,-1.015677963781532432e-02,-1.582118829885468814e-01,7.024806876699828118e-02
2.439999999999999947e-01,-2.905073965757137278e-01,7.157592274773365293e-02,2.054783356584092280e-01
2.449999999999999956e-01,-2.980002973551825751e-01,1.992986906403691194e-01,1.320941824160045963e-01
2.459999999999999964e-01,-1.085861653489265805e-01,1.147015653217021286e-01,-1.775264565455549406e-02
2.469999999999999973e-01,1.728186450873680224e-01,-2.661179444257881846e-02,-1.511621200042659596e-01
2.479999999999999982e-01,2.471530634961190409e-01,-9.442028231694460372e-02,-1.680474685612707020e-01
2.489999999999999991e-01,1.616607470663336266e-01,-6.491498147833786592e-02,-1.574085112280790375e-03
2.500000000000000000e-01,-4.482678049530517544e-02,-8.022767454280863020e-03,1.191309084963198123e-01
2.510000000000000009e-01,-1.539293031084204566e-01,4.681608491814408940e-02,1.425522505103954118e-01
2.520000000000000018e-01,-1.277717401797511532e-01,-9.631886688110324890e-03,8.329510113853538789e-02
2.530000000000000027e-01,-4.568869525175927628e-03,-5.631559742199435808e-02,-5.276409003324463581e-02
2.540000000000000036e-01,4.343903649410828932e-02,2.537954294108887149e-02,-1.536225464361208881e-01
2.550000000000000044e-01,1.689128718514427280e-02,6.833964271519100964e-02,-7.830348074873438868e-02
2.560000000000000053e-01,-1.851462917258680368e-02,1.326728499145861107e-01,-2.776111913947842263e-03
2.570000000000000062e-01,1.287911456228402370e-03,4.837823821231768823e-02,5.863747538264687392e-02
2.580000000000000071e-01,1.225662412164384013e-01,-1.291334007599493072e-01,4.297366179174692130e-02
2.590000000000000080e-01,1.519005988029197007e-01,-2.444986185919175159e-01,-1.424961403827552930e-02
2.600000000000000089e-01,2.459542731747346375e-02,-1.535874250191780477e-01,-3.934495201019089922e-02
2.610000000000000098e-01,-1.650775128597361807e-01,8.764636503230850695e-02,3.985891681755966004e-02
2.620000000000000107e-01,-2.546547166106478133e-01,2.703150731283893715e-01,1.916586404176528341e-02
2.630000000000000115e-01,-1.466346169557139201e-01,1.998257497504731806e-01,1.220372347714245151e-03
2.640000000000000124e-01,1.239112247609218259e-01,8.944402797868197461e-03,-1.030422187757673719e-01
2.650000000000000133e-01,2.714516263442767752e-01,-1.883364477784155999e-01,-1.361806670075344228e-01
2.660000000000000142e-01,2.500636393104436195e-01,-2.060235649684323544e-01,-9.285193563531173033e-02
2.670000000000000151e-01,-2.586957539944299139e-02,-6.081085510381541853e-02,7.678548852913805178e-02
2.680000000000000160e-01,-2.685918026000632675e-01,8.899487932404963331e-02,1.866337980837524668e-01
2.690000000000000169e-01,-3.051125870742264490e-01,1.832982315344027224e-01,1.653687178822526860e-01
2.700000000000000178e-01,-1.005138550251381546e-01,1.025810592311804659e-01,-2.653450815874583077e-02
2.710000000000000187e-01,1.766357096066912546e-01,-5.355150327553952205e-02,-1.553496222493660761e-01
2.720000000000000195e-01,2.520597340849273227e-01,-5.815226420193316675e-02,-1.650976760781663333e-01
2.730000000000000204e-01,1.450015065081974586e-01,-3.972570418902766215e-02,-1.089981125486102070e-01
2.740000000000000213e-01,-7.460316160313922029e-02,4.138058040825833180e-03,8.704909150149700570e-02
2.750000000000000222e-01,-1.279803204732077315e-01,1.611111558170940164e-02,1.704230868239386965e-01
2.760000000000000231e-01,-1.137689306411370227e-01,-7.255623697985810749e-02,1.518454270021866448e-01
2.770000000000000240e-01,-2.060086174895730746e-02,-3.650551894193954094e-02,-3.752416215792705317e-02
2.780000000000000249e-01,2.682602648191559358e-02,2.932630352305921201e-02,-6.230405183173916284e-02
2.790000000000000258e-01,-3.177673955166095132e-02,1.451740525551308003e-01,-9.044292441161340401e-02
2.800000000000000266e-01,-2.496882004472318270e-02,1.388123658892276568e-01,-2.556364406230736061e-02
2.810000000000000275e-01,1.226552454649648335e-02,-2.269249230875612297e-02,2.862843626823168355e-02
2.819999999999999729e-01,1.139126676573116309e-01,-1.939616591082796992e-01,5.086044204180312917e-02
2.829999999999999738e-01,1.348573892238493221e-01,-2.321515239207513348e-01,-1.335554693795294040e-02
2.839999999999999747e-01,3.013644344916257753e-02,-6.349508868562697694e-02,8.410197237913422802e-03
2.849999999999999756e-01,-1.956046790303994642e-01,1.423037223033372101e-01,2.885550358367850940e-02
2.859999999999999765e-01,-2.455917179237377124e-01,2.823611090023456782e-01,2.914124412498352718e-02
2.869999999999999774e-01,-1.637323736019269393e-01,1.528550790385273528e-01,3.074241652532038599e-02
2.879999999999999782e-01,1.230052159188090161e-01,-8.910568387132669632e-02,-8.081197760756493598e-02
2.889999999999999791e-01,3.235404681956515205e-01,-2.107853810865378819e-01,-1.296310941545958662e-01
2.899999999999999800e-01,2.612095080808399805e-01,-2.350351647121632082e-01,-1.392315307631403765e-01
2.909999999999999809e-01,-6.600863965371216169e-02,1.501662997394071636e-02,1.358875424317144108e-02
2.919999999999999818e-01,-2.886797666212860269e-01,1.281367937105276911e-01,1.803761737447396041e-01
2.929999999999999827e-01,-2.837421810839070857e-01,1.510156582253870949e-01,1.877464515885088336e-01
2.939999999999999836e-01,-1.120451386293212087e-01,3.245705957003901243e-02,2.492448914249376785e-02
2.949999999999999845e-01,1.346868780828734125e-01,-7.074011174548551495e-02,-1.312882159796518455e-01
2.959999999999999853e-01,2.339199143529563096e-01,-7.634875918953465401e-02,-1.947633432611828586e-01
2.969999999999999862e-01,1.459787435748870488e-01,-2.864554107432542782e-02,-1.359822235836929405e-01
2.979999999999999871e-01,-6.979172943837186338e-02,-2.606744476179142719e-02,5.657000930088482843e-02
2.989999999999999880e-01,-1.556752473121724156e-01,-3.482673408394177522e-02,1.654121776241381236e-01
2.999999999999999889e-01,-6.092155694117103171e-02,-8.820307831948354105e-02,1.486679314965385912e-01
3.009999999999999898e-01,-5.983719808522550317e-03,-3.193839169738718620e-02,-1.603884192881547752e-02
3.019999999999999907e-01,1.627470114817713975e-02,8.459491993077741800e-02,-1.022095426163423942e-01
3.029999999999999916e-01,-5.265757201121815806e-02,1.800004933801236939e-01,-1.046407442317841691e-01
3.039999999999999925e-01,-5.351922442013177378e-02,1.528657844907095609e-01,-2.091497644665036779e-02
3.049999999999999933e-01,6.864878060639478287e-03,-5.026641277441813715e-02,3.837470478379244321e-02
3.059999999999999942e-01,1.705574765819260485e-01,-2.113842061321333232e-01,2.407087156535664407e-02
3.069999999999999951e-01,1.319590382264854422e-01,-2.065722426422849367e-01,1.021820335654186410e-02
3.079999999999999960e-01,1.732356891789156930e-02,-1.040896303274177308e-02,-7.971053711585705803e-03
3.089999999999999969e-01,-1.955542842934890335e-01,2.047165396910175794e-01,1.572294422453220097e-02
3.099999999999999978e-01,-2.711872626594553637e-01,2.525697116179144164e-01,9.004450373761448134e-02
3.109999999999999987e-01,-1.293589386373524552e-01,8.623895584470302189e-02,7.683998271201772368e-02
3.119999999999999996e-01,1.618796982499800807e-01,-1.282446968731262849e-01,-6.180413206266315712e-02
3.130000000000000004e-01,3.336000728013465699e-01,-2.523513974440030894e-01,-1.245741971232147277e-01
3.140000000000000013e-01,2.428873057923094658e-01,-1.474205517875612770e-01,-1.110315280978420305e-01
3.150000000000000022e-01,-2.737714465575905726e-02,4.405868468499343771e-02,7.846683855502923841e-03
3.160000000000000031e-01,-2.854868757840568483e-01,1.499607120871558341e-01,1.777598540817510175e-01
3.170000000000000040e-01,-2.653168691324797601e-01,1.145270997210884878e-01,1.904365136773218392e-01
3.180000000000000049e-01,-7.217777056080632025e-02,1.301884108648695276e-02,4.930350722101840139e-02
3.190000000000000058e-01,1.400368533672962934e-01,-4.632662699165513570e-02,-1.174008138723779404e-01
3.200000000000000067e-01,2.321117027235214403e-01,-2.065602084312195483e-02,-1.750562501676416749e-01
3.210000000000000075e-01,1.086588279675683721e-01,2.041830649874699574e-02,-1.227405393548558626e-01
3.220000000000000084e-01,-5.455826214552018244e-02,-1.663305367566005749e-02,3.060053613516041521e-02
3.230000000000000093e-01,-9.870892694782731902e-02,-5.117694540137303350e-02,1.558011898618152646e-01
3.240000000000000102e-01,-5.658222981386652056e-02,-9.792009957286795796e-02,1.638304448184989270e-01
3.250000000000000111e-01,-1.895640205214449078e-02,2.260850793717211760e-03,2.619756368043534012e-02
3.260000000000000120e-01,-5.272811703559972946e-03,1.304306452662076510e-01,-8.527921438958047107e-02
3.270000000000000129e-01,-9.366536322212123261e-03,1.706947072320675884e-01,-6.048929559230085268e-02
3.280000000000000138e-01,-8.221413907040887870e-02,9.075239389053131600e-02,-5.244491424758172121e-02
3.290000000000000147e-01,3.116276197819814464e-02,-1.332598405513327477e-01,1.163346588485220622e-02
3.300000000000000155e-01,1.718130305918277589e-01,-2.441554415960748847e-01,4.494818033171823352e-02
3.310000000000000164e-01,1.528664341546900896e-01,-1.479247234005255096e-01,1.651143783924527170e-03
3.320000000000000173e-01,-3.222792348005502211e-02,5.414285015631709053e-02,-1.410123089978343458e-02
3.330000000000000182e-01,-2.194772971158851227e-01,2.337414012756923176e-01,2.140311401121518936e-02
3.340000000000000191e-01,-3.100111184304111256e-01,2.003478474701666789e-01,7.070947200676737376e-02
3.350000000000000200e-01,-1.281028376839987160e-01,4.798834663545102630e-03,5.926426969467748357e-02
3.360000000000000209e-01,1.788076867121266844e-01,-1.922799499638578880e-01,-1.906885098733542699e-02
3.370000000000000218e-01,3.527213207833770903e-01,-2.272007402710226609e-01,-1.758248984143643279e-01
3.380000000000000226e-01,2.197322328494528132e-01,-1.033504721116500769e-01,-9.623780773940854294e-02
3.390000000000000235e-01,-1.209661919176744926e-01,7.734096840906154458e-02,-2.876084880885388176e-02
3.400000000000000244e-01,-3.071326299760367973e-01,1.669671189240224396e-01,1.364356361627530878e-01
3.410000000000000253e-01,-2.878284528589891700e-01,9.608512227042417808e-02,1.994577711846240164e-01
3.420000000000000262e-01,-5.064045610354102334e-02,-2.513364858059901133e-02,8.523332647617234969e-02
3.430000000000000271e-01,1.745394592043885418e-01,-2.876585658565509324e-02,-6.287684930458914412e-02
3.439999999999999725e-01,2.050283766634761751e-01,-2.419412853384365208e-02,-1.955519106000737639e-01
3.449999999999999734e-01,1.074734387914990652e-01,2.729219561695474250e-02,-1.668756118024513624e-01
3.459999999999999742e-01,-5.923357262469106793e-02,-2.075433211166134023e-02,2.994393568452691223e-02
3.469999999999999751e-01,-1.131642692079201235e-01,-6.434664707804757522e-02,1.334601241859352527e-01
3.479999999999999760e-01,-5.375677720130928733e-02,-8.217650927502481717e-02,1.513594924885673654e-01
3.489999999999999769e-01,-1.487048017879918612e-03,4.903319688403895427e-02,7.148942125628783562e-02
3.499999999999999778e-01,4.618860530392479092e-04,1.771121712784962665e-01,-7.445747790374432351e-02
3.509999999999999787e-01,-6.327848586244935736e-02,1.934868364779554484e-01,-8.318094961973471202e-02
3.519999999999999796e-01,-4.106525408404244903e-02,1.841655690672948029e-02,-4.738064894666034477e-02
3.529999999999999805e-01,5.199285319586251924e-02,-1.732198413355875710e-01,2.952882912905675783e-02
3.539999999999999813e-01,1.888717483590156010e-01,-2.430942782633810084e-01,1.915535923526275964e-03
3.549999999999999822e-01,1.415593418985876817e-01,-1.030409408157863388e-01,-3.706726081800137441e-03
3.559999999999999831e-01,-5.175486969946013240e-03,1.293148046757493230e-01,-3.193690453032999033e-02
3.569999999999999840e-01,-2.538895863944674036e-01,2.332854345956777153e-01,3.236830552538812189e-02
3.579999999999999849e-01,-2.763545650401678100e-01,1.690333219484959626e-01,7.375993453249968246e-02
3.589999999999999858e-01,-1.013367036566978074e-01,-1.804112384600815161e-02,1.051177601706498321e-01
3.599999999999999867e-01,1.936594802590577424e-01,-2.017998356692017048e-01,-2.488517109390539148e-02
3.609999999999999876e-01,3.084460879500827146e-01,-1.777435108949961540e-01,-1.501592189099627550e-01
3.619999999999999885e-01,2.065690386051696470e-01,-2.484409298870926888e-02,-1.579471884291769046e-01
3.629999999999999893e-01,-7.567229492070946806e-02,1.091184755150289842e-01,-2.742254740816286659e-02
3.639999999999999902e-01,-2.738422637100172974e-01,1.189817143380476339e-01,1.067143147733801284e-01
3.649999999999999911e-01,-2.735598623091590187e-01,3.450814498981290279e-02,1.538543744877263197e-01
3.659999999999999920e-01,-4.809013355004192886e-02,-3.020081664900821014e-02,1.314889928368059846e-01
3.669999999999999929e-01,1.950441920002953800e-01,-2.758383332565598339e-02,-4.673910133396107919e-02
3.679999999999999938e-01,2.152975847747974070e-01,1.509808195417744123e-02,-1.674057950406943329e-01
3.689999999999999947e-01,5.337263645419215718e-02,-6.184743784932629669e-03,-1.635135772905031426e-01
3.699999999999999956e-01,-8.883359260253921585e-02,-6.500979954094665558e-02,-3.880127438391942768e-02
3.709999999999999964e-01,-8.602341647076827691e-02,-9.546205460134796206e-02,1.172214978272375502e-01
3.719999999999999973e-01,-8.285996094310294283e-03,-7.282606858593297650e-02,1.424545259264941577e-01
3.729999999999999982e-01,1.255024472179894343e-03,8.038076315176150011e-02,5.568126353611802665e-02
3.739999999999999991e-01,-6.901825196067908758e-03,1.764064446904491656e-01,-2.636270329037655041e-02
3.750000000000000000e-01,-9.953217384445332827e-02,1.375099693132175449e-01,-9.641639761226918071e-02
3.760000000000000009e-01,-8.481811597603987340e-02,-2.750556537437123111e-02,-3.420728159281173804e-03
3.770000000000000018e-01,7.224314548571195149e-02,-2.066305783968298837e-01,1.019708949478850303e-02
3.780000000000000027e-01,2.039454800726281936e-01,-1.912650374549523247e-01,1.886771189755130640e-02
3.790000000000000036e-01,1.799798161172258548e-01,-3.081331025596926315e-02,-5.529445244472700610e-02
3.800000000000000044e-01,-2.192132257425736044e-02,1.741168098180458368e-01,-8.919597859593873107e-03
3.810000000000000053e-01,-2.456259898519647655e-01,2.585942794205908779e-01,4.420573954996219468e-02
3.820000000000000062e-01,-2.756483002423282258e-01,1.128911966162947367e-01,5.979711470320952377e-02
3.830000000000000071e-01,-6.383436792448340946e-02,-1.181380982604555568e-01,9.263141943221483987e-02
3.840000000000000080e-01,2.331600920734613891e-01,-2.029329328568681423e-01,6.615293298631375225e-03
3.850000000000000089e-01,3.355582105461955567e-01,-1.266915325037276385e-01,-1.265450259660593491e-01
3.860000000000000098e-01,1.790912418785130800e-01,5.040480648011009396e-02,-1.859726669849800507e-01
3.870000000000000107e-01,-1.252884088828696563e-01,1.249164702147915473e-01,-5.219325281629168256e-02
3.880000000000000115e-01,-2.822876759417795589e-01,1.066278327779273394e-01,7.970649551803186961e-02
3.890000000000000124e-01,-2.017601029813597124e-01,1.400095241984800412e-02,2.034883357586966257e-01
3.900000000000000133e-01,-7.844231634718817556e-03,-3.637684504686036768e-02,1.542388273013244326e-01
3.910000000000000142e-01,1.720980772831521011e-01,-3.241478458955751769e-03,3.541287116482006933e-03
3.920000000000000151e-01,1.595880092132391515e-01,4.478201644491194844e-02,-1.830767442714547055e-01
3.930000000000000160e-01,5.209059032157898478e-02,-2.166918261303044102e-02,-1.783347583680223725e-01
3.940000000000000169e-01,-5.302766864040815709e-02,-8.022150214248723044e-02,-5.639304423437620228e-02
3.950000000000000178e-01,-1.019193247276012626e-01,-9.919301001824772090e-02,8.103832521941163602e-02
3.960000000000000187e-01,8.816483671924766870e-04,-1.175114448568147230e-02,1.277612095991620123e-01
3.970000000000000195e-01,2.606511005955223712e-02,1.669973764450382314e-01,6.207227744365069466e-02
3.980000000000000204e-01,-4.496065354687539539e-02,1.979277245101577765e-01,-1.208448869906137216e-02
3.990000000000000213e-01,-8.271520051043845800e-02,1.150805024966131546e-01,-5.926142451269680173e-02
4.000000000000000222e-01,-7.239286992237156659e-02,-1.455627386863908856e-01,-8.557293968040598220e-02
4.010000000000000231e-01,8.652247833154717849e-02,-2.654371445767987892e-01,-1.433669165624936424e-02
4.020000000000000240e-01,1.897793003601895845e-01,-1.850456260066706271e-01,-1.261171636735093464e-02
4.030000000000000249e-01,1.769772817239498308e-01,6.632808808831697212e-02,-1.865352572209689336e-02
4.040000000000000258e-01,-5.233485368444238534e-02,2.217307372422924194e-01,-3.201319773862302404e-02
4.050000000000000266e-01,-2.549686238537128280e-01,2.277117179788367418e-01,2.064849782450265195e-02
4.060000000000000275e-01,-2.554270518741150187e-01,4.009391894855823119e-02,5.641898661638024975e-02
4.069999999999999729e-01,-7.006025805854121380e-02,-1.487976074929086845e-01,1.303200182903092030e-01
4.079999999999999738e-01,2.307991113977203856e-01,-1.703204901373120139e-01,1.055505632383930102e-02
4.089999999999999747e-01,3.250383582247328706e-01,-1.020467825153479058e-01,-9.158235878015866249e-02
4.099999999999999756e-01,1.739248210711611675e-01,8.631327470796126833e-02,-1.705890360305585829e-01
4.109999999999999765e-01,-9.695149278335996046e-02,1.088674384787903376e-01,-9.206391638972635794e-02
4.119999999999999774e-01,-2.629880812497785159e-01,3.637399145216374530e-02,2.921528591823293816e-02
4.129999999999999782e-01,-1.847436872543721520e-01,-9.562473525391568946e-03,1.671045301269637184e-01
4.139999999999999791e-01,3.547487096632877951e-02,-1.195666058069770610e-02,1.460966653276554172e-01
4.149999999999999800e-01,1.617989441331571243e-01,2.555610113030220079e-02,1.161382072748754803e-02
4.159999999999999809e-01,1.629990731395852543e-01,2.177872415469570000e-02,-1.417858919021878217e-01
4.169999999999999818e-01,4.595461387812694448e-02,-4.252733619355708594e-02,-2.026272087220768459e-01
4.179999999999999827e-01,-7.114048983926887781e-02,-9.750664916261268800e-02,-6.251553200479732786e-02
4.189999999999999836e-01,-5.912535799817748849e-02,-1.135410013452224087e-01,6.126378013287367419e-02
4.199999999999999845e-01,3.283188273683108893e-02,3.259541470587296735e-02,1.136882253748646987e-01
4.209999999999999853e-01,-1.246983556992158071e-02,1.839775193111792273e-01,5.229125512320259572e-02
4.219999999999999862e-01,-6.836736375860148762e-02,1.839349461032778466e-01,-1.174483082002326061e-02
4.229999999999999871e-01,-1.272568853165748359e-01,4.020126717123614218e-02,-7.397096902566957510e-02
4.239999999999999880e-01,-7.572606723017352714e-02,-1.807772799614462966e-01,-2.606161032905050801e-02
4.249999999999999889e-01,1.172412463506113667e-01,-2.351704962888713224e-01,-1.398010753855376091e-02
4.259999999999999898e-01,2.217191459350520699e-01,-1.366750252991145165e-01,-6.860640843819145948e-03
4.269999999999999907e-01,1.433700623152820708e-01,8.088075639442195153e-02,-3.907264101965687159e-02
4.279999999999999916e-01,-4.939329212688659682e-02,2.573383038171550008e-01,-4.026870226834019378e-02
4.289999999999999925e-01,-2.624888377012193907e-01,1.797904539025511061e-01,-2.963427980999002592e-02
4.299999999999999933e-01,-2.987311865998025784e-01,-2.476861065003777354e-02,5.578793881307549801e-02
4.309999999999999942e-01,-3.016535502278402947e-02,-1.920032362579190688e-01,1.293241049777310858e-01
4.319999999999999951e-01,2.271500180849959083e-01,-1.853088778295361727e-01,3.336305310291019788e-02
4.329999999999999960e-01,3.069479376348279720e-01,-6.982784240923690933e-02,-6.470543818585448859e-02
4.339999999999999969e-01,1.389122146678216929e-01,8.341159402419018321e-02,-1.895541677961986582e-01
4.349999999999999978e-01,-1.411461364792186424e-01,1.136641655725577488e-01,-1.297146725526671929e-01
4.359999999999999987e-01,-2.591115623519210653e-01,3.547164073528887018e-02,5.557443897079925726e-02
4.369999999999999996e-01,-1.904838222671789705e-01,-4.376762060880188404e-02,2.084505374285387236e-01
4.380000000000000004e-01,1.766388257304160603e-02,2.863662985225304269e-02,1.762951630825320692e-01
4.390000000000000013e-01,1.377906174461693833e-01,4.708230175013360108e-02,2.504832955094413085e-03
4.400000000000000022e-01,1.549989878033821433e-01,8.054363527366315695e-03,-8.482664720977119155e-02
4.410000000000000031e-01,3.429483287084508086e-02,-8.598944132264192686e-02,-1.731047081988330849e-01
4.420000000000000040e-01,-5.427027264372822485e-02,-1.248509750661416368e-01,-1.058197291610024210e-01
4.430000000000000049e-01,-5.385234444209228283e-02,-9.996910787531176901e-02,3.875965940519810610e-02
4.440000000000000058e-01,3.640366560139474128e-02,7.451601367160669287e-02,1.363285823967234356e-01
4.450000000000000067e-01,5.977875328037150077e-03,2.182973921334661893e-01,8.636354076693916748e-02
4.460000000000000075e-01,-8.547888468367881298e-02,1.898605751837534328e-01,-3.224185519990575410e-03
4.470000000000000084e-01,-1.354701810275483476e-01,-1.276776666550096494e-02,-1.565856438525367947e-02
4.480000000000000093e-01,-2.516149156077824786e-02,-2.404860687347607495e-01,-5.457302319733393220e-02
4.490000000000000102e-01,1.465403915658120004e-01,-2.400931457400739544e-01,9.733194481824955502e-03
4.500000000000000111e-01,2.399899233365720974e-01,-8.533411332812725070e-02,9.033788014836978061e-03
4.510000000000000120e-01,1.578030769815286782e-01,1.485439669133819807e-01,-3.293151148970895753e-02
4.520000000000000129e-01,-1.033710406943652849e-01,2.622270265528971467e-01,-3.043557685987978434e-02
4.530000000000000138e-01,-3.128558009190524070e-01,1.520722526681281550e-01,-1.568672517471170896e-02
4.540000000000000147e-01,-2.808526818810207493e-01,-1.013702202259538498e-01,6.539505539233711473e-02
4.550000000000000155e-01,1.374987052880913968e-02,-2.009597992092427288e-01,1.324136207768045748e-01
4.560000000000000164e-01,2.456978246021097323e-01,-1.330991237980455877e-01,5.017917842598501599e-02
4.570000000000000173e-01,2.935525385067453419e-01,6.925904244296598664e-03,-3.098172818555740629e-02
4.580000000000000182e-01,1.564096746831530882e-01,8.966919715613132225e-02,-1.885626632269800651e-01
4.590000000000000191e-01,-1.411232678796562889e-01,5.573874541714650410e-02,-1.734741793143846356e-01
4.600000000000000200e-01,-2.571920446351318446e-01,7.705931941156294457e-03,-6.736640461283647900e-03
4.610000000000000209e-01,-1.741574502126236601e-01,-2.531899704341051410e-02,1.556742656550184345e-01
4.620000000000000218e-01,5.025848298420611954e-02,2.328514916532324272e-02,1.940029852652555009e-01
4.630000000000000226e-01,1.638384682346312182e-01,3.074077263221538375e-02,6.007856682130160303e-02
4.640000000000000235e-01,1.112620515472786675e-01,-8.833720404100740484e-03,-9.615787814359007257e-02
4.650000000000000244e-01,1.786264261128615513e-02,-1.358261072306341521e-01,-1.766693399331327186e-01
4.660000000000000253e-01,-6.234009108155495055e-02,-1.373785853179799454e-01,-6.463323153684059907e-02
4.670000000000000262e-01,-2.085273120849652495e-02,-3.466941779078592384e-02,9.066834692807774002e-03
4.680000000000000271e-01,4.793264016699740754e-02,1.233152760956492955e-01,1.036792106456170814e-01
4.689999999999999725e-01,1.069133431847825964e-02,2.158693525522057122e-01,9.189785202597297586e-02
4.699999999999999734e-01,-1.365530700281899490e-01,1.331610219271395501e-01,3.475236010160700356e-02
4.709999999999999742e-01,-1.460914486807259882e-01,-1.079684552775813794e-01,-5.910186317466632061e-02
4.719999999999999751e-01,-2.673044113592669760e-02,-2.689234489053065613e-01,-3.767475920926827149e-02
4.729999999999999760e-01,1.377957660123189099e-01,-1.967041149116628140e-01,1.773091954445344190e-02
4.739999999999999769e-01,2.719008553031874165e-01,3.753213051301769292e-03,2.174848740902559849e-02
4.749999999999999778e-01,1.424179533641613538e-01,1.738623911838677871e-01,-5.383912769319623010e-02
4.759999999999999787e-01,-1.269589959026352077e-01,2.233268788098444757e-01,-4.916685963538328791e-02
4.769999999999999796e-01,-3.008248128862013870e-01,5.225211032501140412e-02,-3.096136774404804198e-02
4.779999999999999805e-01,-2.672465438245522074e-01,-1.099820738097633949e-01,2.467241708605525524e-02
4.789999999999999813e-01,-2.149584098179859251e-02,-1.613964268682558378e-01,1.144022341452904656e-01
4.799999999999999822e-01,2.676086298592765256e-01,-5.649935461823241134e-02,1.096803722890465627e-01
4.809999999999999831e-01,3.156908304304614776e-01,2.544580860615370740e-02,-4.604472551745678738e-02
4.819999999999999840e-01,9.019227137281299322e-02,9.767613293496024696e-02,-1.660851379130857675e-01
4.829999999999999849e-01,-1.377148269041528206e-01,2.648528209844409204e-02,-1.846057302844968384e-01
4.839999999999999858e-01,-2.712160933637448590e-01,-2.091952521601573786e-02,-2.698186280727486383e-02
4.849999999999999867e-01,-1.344691707038550843e-01,4.394795755491317894e-04,1.407176528673410310e-01
4.859999999999999876e-01,4.200042415296708492e-02,4.454144310870240125e-02,2.062900498833419860e-01
4.869999999999999885e-01,1.143220279047683086e-01,4.982508435686937992e-02,8.981110686753095151e-02
4.879999999999999893e-01,1.081639596373844131e-01,-4.501326167164462766e-02,-8.242253781323463646e-02
4.889999999999999902e-01,-1.371094461187265939e-02,-1.391417305552652972e-01,-1.832586905161364410e-01
4.899999999999999911e-01,-3.112316019533040157e-02,-1.504678894820041801e-01,-1.198286121234377055e-01
4.909999999999999920e-01,-7.926093943631961139e-03,-1.439852516732520850e-03,-1.620511958468678557e-02
4.919999999999999929e-01,1.959726408959371058e-02,1.956528492189925916e-01,9.492524058903073492e-02
4.929999999999999938e-01,-3.070063798059576021e-02,2.373059965312084851e-01,9.373591482496751448e-02
4.939999999999999947e-01,-1.078557777767904652e-01,1.155171965891649694e-01,-1.976647037638958396e-02
4.949999999999999956e-01,-1.680573062200113599e-01,-1.323937473229638562e-01,-6.089660070951390114e-02
4.959999999999999964e-01,-1.963635441046360924e-02,-2.681701343488636091e-01,-3.253066724431411677e-02
4.969999999999999973e-01,1.735679128333987020e-01,-1.447969777292767990e-01,1.253681292557558800e-02
4.979999999999999982e-01,2.652737549726545407e-01,7.828328928043777613e-02,-2.541782234388306055e-02
4.989999999999999991e-01,1.514957225641116734e-01,2.186187357982311286e-01,-4.479657593045521108e-02
5.000000000000000000e-01,-1.198048431932064312e-01,2.061995177696456238e-01,-9.485705446790773654e-02
5.010000000000000009e-01,-3.028165306528088352e-01,1.486446764345229071e-02,-8.344820577783153975e-03
5.020000000000000018e-01,-2.744700782031755382e-01,-1.816814053907294946e-01,3.344776832219121393e-02
5.030000000000000027e-01,4.292573991886335268e-03,-1.364031627215468168e-01,1.227297814104672119e-01
5.040000000000000036e-01,2.659409680426765288e-01,-4.378862642528469351e-02,1.362649080818833236e-01
5.050000000000000044e-01,2.871970015528725328e-01,8.679204101218536416e-02,1.157368625283178976e-04
5.060000000000000053e-01,9.464435560191511443e-02,8.206441373885406398e-02,-1.298554148003960296e-01
5.070000000000000062e-01,-1.672807012552798012e-01,3.334378029010450872e-04,-1.943627807497181892e-01
5.080000000000000071e-01,-2.629972419619696078e-01,-1.356539982756023617e-02,-2.372234234149555449e-02
5.090000000000000080e-01,-1.609085141419032416e-01,3.706803486979245998e-02,1.019625772047289408e-01
5.100000000000000089e-01,5.990210833919779043e-02,7.034353167137048779e-02,2.220549491370013562e-01
5.110000000000000098e-01,1.134735562911152740e-01,1.858128946587971758e-02,1.524266476037555162e-01
5.120000000000000107e-01,6.972798068091677626e-02,-9.930237543988398863e-02,-6.386298038423643408e-02
5.130000000000000115e-01,2.026482959192009436e-02,-1.570086208078870227e-01,-1.333994001295241982e-01
5.140000000000000124e-01,-1.887224452198866045e-02,-9.798596493797524787e-02,-1.529941616769453505e-01
5.150000000000000133e-01,4.320804290110945994e-02,6.953768844335979360e-02,-9.408499420174586819e-03
5.160000000000000142e-01,5.465822954238346021e-02,2.097623583074572362e-01,8.335916774173977861e-02
5.170000000000000151e-01,-3.069777178970544904e-02,1.959640839935020973e-01,9.476623340820983232e-02
5.180000000000000160e-01,-1.387576220888613321e-01,-3.409719865878391154e-02,5.209355601815715553e-02
5.190000000000000169e-01,-1.958843457165004298e-01,-1.887213889574037295e-01,-3.167739245165642620e-02
5.200000000000000178e-01,-4.930638355310180271e-02,-2.539619084222643486e-01,-3.120675509091647495e-02
5.210000000000000187e-01,2.117435261189303530e-01,-9.550407602857143019e-02,2.464205291271459944e-02
5.220000000000000195e-01,2.985413322181186269e-01,1.317843495597720016e-01,-3.603994829735839619e-03
5.230000000000000204e-01,1.289919149980780777e-01,2.197828925270327582e-01,-2.386173697545081879e-02
5.240000000000000213e-01,-1.616089584526411438e-01,1.385503060979478840e-01,-6.609586578130344225e-02
5.250000000000000222e-01,-3.314467274390517360e-01,-9.161086449348228300e-02,-6.905967262399713424e-02
5.260000000000000231e-01,-2.578510206566928531e-01,-1.765019381706674495e-01,1.792761110474760250e-02
5.270000000000000240e-01,2.354031813028889530e-02,-1.376334682560742262e-01,1.328681582767990421e-01
5.280000000000000249e-01,2.862583061027947351e-01,-9.946223041468450765e-03,1.418826827402410451e-01
5.290000000000000258e-01,2.755650104491477737e-01,5.884124517373964108e-02,3.195153439748309177e-02
5.300000000000000266e-01,7.548190289054873547e-02,2.952943330526789506e-02,-1.190043226671088222e-01
5.310000000000000275e-01,-1.398742939174726085e-01,-2.797847962424254015e-03,-1.777712810110095576e-01
5.320000000000000284e-01,-2.318918528772058174e-01,2.277907981865980730e-02,-1.122594984628913217e-01
5.330000000000000293e-01,-1.045596314254314541e-01,6.134831324007031933e-02,8.865183954679919931e-02
5.340000000000000302e-01,4.917780211574923621e-02,9.083678835707210963e-02,1.813504433681415451e-01
5.350000000000000311e-01,1.252007760813294845e-01,2.267830439853460098e-02,1.333609628298699223e-01
5.360000000000000320e-01,7.295510442772945581e-02,-1.602118833989041868e-01,-5.856326737118335360e-03
5.370000000000000329e-01,-9.254542203941302798e-04,-1.893855229450992772e-01,-1.655806205795296304e-01
5.380000000000000338e-01,-7.271320853882155474e-03,-6.408238472827040844e-02,-1.295544035856289189e-01
5.390000000000000346e-01,4.768171304547751121e-02,1.544739744256484748e-01,-7.610546239955252867e-02
5.400000000000000355e-01,7.366987019787644975e-02,2.311636929293464926e-01,3.963575886277981297e-02
5.410000000000000364e-01,-5.007930363323904316e-02,1.329749756906513647e-01,9.179136184071691462e-02
5.420000000000000373e-01,-1.452087670258282726e-01,-8.826070126132970484e-02,4.188769066799553215e-02
5.430000000000000382e-01,-1.845886307491276801e-01,-2.362191767864422476e-01,5.413417479160188102e-05
5.440000000000000391e-01,3.794792712036092371e-03,-2.452699433313807187e-01,1.021155825901919924e-02
5.450000000000000400e-01,2.137070212691647708e-01,9.839384410427724423e-03,-8.442422594186715229e-03
5.460000000000000409e-01,3.051900375621071082e-01,1.817863049594496128e-01,5.107482355958540415e-02
5.470000000000000417e-01,1.149565466330536578e-01,2.396475337168631481e-01,-3.547236689187505815e-02
5.480000000000000426e-01,-1.907369123899229080e-01,8.722685832918176951e-02,-6.288970985259902113e-02
5.490000000000000435e-01,-3.043641511846605918e-01,-8.823704422366979161e-02,-1.020967598049708214e-01
5.500000000000000444e-01,-2.542641236141510164e-01,-1.503931741489044627e-01,5.970039029148950516e-03
5.510000000000000453e-01,4.502851131561202980e-02,-6.404672195512066402e-02,1.397630584922671393e-01
5.520000000000000462e-01,2.496686781386804332e-01,3.817235486934360961e-02,1.319977704919233774e-01
5.530000000000000471e-01,2.833073011068162894e-01,3.675677960193966115e-02,5.635355260624710276e-04
5.540000000000000480e-01,8.595527413944964445e-02,1.788116347120165261e-02,-8.782762299824360686e-02
5.550000000000000488e-01,-1.598766039415830398e-01,-1.961066751890318954e-02,-2.061095473137863898e-01
5.560000000000000497e-01,-2.149976858050170192e-01,2.314252226357541367e-02,-1.158090334817677841e-01
5.570000000000000506e-01,-1.026527271872004071e-01,1.104298187210996651e-01,7.039233218479262755e-02
5.580000000000000515e-01,6.759191367135017336e-02,8.821165029220943976e-02,1.767977131157427717e-01
5.590000000000000524e-01,9.685689775173321470e-02,-3.707271590490361646e-02,1.907323434399275930e-01
5.600000000000000533e-01,3.736830500246186848e-02,-1.777872896568070959e-01,5.169923151668407747e-03
5.610000000000000542e-01,-1.274477601085546169e-02,-1.634390480508856047e-01,-1.166165474385019440e-01
5.620000000000000551e-01,5.912944069056004504e-02,8.016173130718659556e-03,-1.156171071111212062e-01
5.629999999999999449e-01,7.995250020067226626e-02,1.509241600336369837e-01,-9.531295645838576414e-02
5.639999999999999458e-01,4.258539045669078316e-02,2.385901156635666098e-01,5.479349323797562399e-02
5.649999999999999467e-01,-5.947610516210041776e-02,6.624070179067989561e-02,7.197944734683375811e-02
5.659999999999999476e-01,-2.034958785895609190e-01,-1.433549903001350434e-01,4.805561910621669597e-02
5.669999999999999485e-01,-1.770419455050397106e-01,-2.578872266109600297e-01,-1.081581957961874965e-02
5.679999999999999494e-01,-2.003349757556986688e-02,-1.749201593671690091e-01,-6.758573203466138393e-03
5.689999999999999503e-01,2.252410490930202291e-01,5.588243966440051280e-02,2.110530165960766702e-02
5.699999999999999512e-01,2.946465623365936426e-01,1.908318019999099280e-01,3.441999630019657724e-02
5.709999999999999520e-01,1.356109030435939111e-01,1.818000925682851932e-01,2.179809960844417832e-02
5.719999999999999529e-01,-1.996882650558125527e-01,-7.208883915218312725e-03,-7.718469638197060501e-02
5.729999999999999538e-01,-3.257232585643918266e-01,-1.368260513214337448e-01,-7.912412841320866363e-02
5.739999999999999547e-01,-2.274479895436595511e-01,-1.219387791296172585e-01,-1.503385424188249941e-02
5.749999999999999556e-01,7.830251821418918179e-02,-2.511769037691730794e-02,1.261471922544661339e-01
5.759999999999999565e-01,2.376598064448288139e-01,1.374612761724380329e-02,1.538824391813723158e-01
5.769999999999999574e-01,3.019408033390231227e-01,9.556105541650525281e-03,6.148370906983885442e-02
5.779999999999999583e-01,3.224141235658060933e-02,-3.484351510959447090e-02,-8.355045492246244987e-02
5.789999999999999591e-01,-1.576639127059092926e-01,-2.120834935877940336e-02,-1.776059572812506149e-01
5.799999999999999600e-01,-1.992243456672585789e-01,8.603159178695635179e-02,-1.615238287014768570e-01
5.809999999999999609e-01,-7.677136621546205852e-02,1.110597230740436037e-01,1.038336092618599542e-02
5.819999999999999618e-01,4.936499616832589615e-02,5.799605015321570439e-02,1.621079984853081024e-01
5.829999999999999627e-01,7.508838669251810538e-02,-1.110273778376088955e-01,1.954028755236667525e-01
5.839999999999999636e-01,-1.872115715848952922e-02,-2.160469754473572646e-01,5.078688232138343916e-02
5.849999999999999645e-01,-2.012579592743678897e-02,-1.147828770658802094e-01,-1.153373260121137028e-01
5.859999999999999654e-01,1.437730824345368440e-02,6.224970794113193762e-02,-1.544260366163741072e-01
5.869999999999999662e-01,1.354747919725116934e-01,2.570841135198161931e-01,-9.827669451610361595e-02
5.879999999999999671e-01,4.927204709683860595e-02,2.096764418470290769e-01,-7.779274147259136393e-04
5.889999999999999680e-01,-6.760906888347008314e-02,2.484543511679764005e-02,5.965128212601788354e-02
5.899999999999999689e-01,-1.846058599013149781e-01,-1.892065819563528706e-01,1.856329505713871439e-02
5.909999999999999698e-01,-1.862878989571996324e-01,-2.399469977685792510e-01,-2.388053376557717957e-03
5.919999999999999707e-01,2.500127180469209967e-02,-1.121337100981876778e-01,6.465358580996533044e-03
5.929999999999999716e-01,2.596639416541637879e-01,9.467560578570209662e-02,1.981603044500485425e-02
5.939999999999999725e-01,3.031490406653022940e-01,2.083586925260224043e-01,3.559552789840709358e-02
5.949999999999999734e-01,7.740804373232940128e-02,1.295590896395640013e-01,2.094294152469488874e-03
5.959999999999999742e-01,-1.773798728076460829e-01,-1.764613413081661183e-02,-8.268182296396060782e-02
5.969999999999999751e-01,-3.315356044901143773e-01,-1.202308098060806962e-01,-1.197793304274525072e-01
5.979999999999999760e-01,-1.890372167135954407e-01,-9.952455548849629963e-02,-3.181271259255977896e-02
5.989999999999999769e-01,7.154511602151361616e-02,-1.523737958258531561e-02,1.162298001809209530e-01
5.999999999999999778e-01,2.864167841321994534e-01,3.448312306376556668e-02,1.938265355012812885e-01
6.009999999999999787e-01,2.293368018141668241e-01,-2.105859867602480340e-02,9.917837380541748293e-02
6.019999999999999796e-01,6.201823266816451630e-02,-8.552577463428721882e-02,-6.092111936355913693e-02
6.029999999999999805e-01,-1.453958387651447803e-01,4.673385890498563122e-02,-1.763480209853007796e-01
6.039999999999999813e-01,-1.652771186743030862e-01,9.165583903799501275e-02,-1.829851912085071197e-01
6.049999999999999822e-01,-7.961617325313674609e-02,1.278421795823089513e-01,-2.630069534207745210e-02
6.059999999999999831e-01,1.957036888601964772e-02,1.305382882050583858e-02,1.477830193287619498e-01
6.069999999999999840e-01,6.589836593880293858e-02,-1.579471395798406341e-01,1.872679382460019915e-01
6.079999999999999849e-01,1.043864275651246176e-02,-2.375955057500727385e-01,8.152089695445248474e-02
6.089999999999999858e-01,-9.480061297051494210e-03,-7.909783470023011576e-02,-8.137245567329083606e-02
6.099999999999999867e-01,5.551862246313443022e-02,1.541439622964153322e-01,-1.436260145695821833e-01
6.109999999999999876e-01,1.233793659764354511e-01,2.750091062132429265e-01,-7.479075425270072242e-02
6.119999999999999885e-01,4.421866425998999262e-02,1.506545399104762817e-01,4.576306708960474240e-04
6.129999999999999893e-01,-8.841096785836034810e-02,-4.776411511143727195e-02,1.005053564366854418e-01
6.139999999999999902e-01,-2.182699511034612017e-01,-2.389495716883760779e-01,2.693030959250395512e-02
6.149999999999999911e-01,-1.661632075933087149e-01,-2.266121580700647953e-01,-1.079851659698387312e-02
6.159999999999999920e-01,3.450822439930251173e-02,-2.655617207490994572e-02,-8.256119138043740632e-03
6.169999999999999929e-01,2.659050727318379437e-01,1.684724377554575048e-01,1.347327281701411576e-02
6.179999999999999938e-01,2.895907120962191716e-01,1.980415881267869327e-01,6.683625823327515869e-02
6.189999999999999947e-01,6.673436194202114757e-02,1.017216577330854327e-01,1.981692418118210369e-03
6.199999999999999956e-01,-2.124371452548904915e-01,-8.522600586249948207e-02,-8.248121246646034077e-02
6.209999999999999964e-01,-3.240583912712651782e-01,-1.179679571933899829e-01,-1.093458775100318164e-01
6.219999999999999973e-01,-1.891964587482439508e-01,-3.861575065708457849e-02,-7.552037640289123444e-02
6.229999999999999982e-01,1.113085367049475860e-01,2.611511420356640075e-03,8.970567238392057607e-02
6.239999999999999991e-01,2.424389315832362057e-01,3.579889733205490060e-02,1.913125702121299399e-01
6.250000000000000000e-01,2.478195789158008089e-01,-3.179024166679602498e-02,1.389094545839327510e-01
6.260000000000000009e-01,3.246564873024074954e-02,-4.021562196281882468e-02,-1.823299471017765863e-02
6.270000000000000018e-01,-1.610304179025180971e-01,6.594202312233256313e-02,-1.767392011643208471e-01
6.280000000000000027e-01,-1.719677431446236249e-01,1.279994275395191783e-01,-1.657025297051155366e-01
6.290000000000000036e-01,-6.596566200962189486e-02,9.679767817012679965e-02,-5.774698387724450099e-02
6.300000000000000044e-01,3.660388471273875316e-02,-5.565550878803660756e-02,1.038899929724231425e-01
6.310000000000000053e-01,4.522878051305598279e-02,-1.620972559434507576e-01,1.930469231394549290e-01
6.320000000000000062e-01,-6.648049862376203926e-03,-1.920821391069381379e-01,1.130030989084417903e-01
6.330000000000000071e-01,-2.069405784073023030e-02,-2.717913280073469551e-02,-1.844393554501956231e-02
6.340000000000000080e-01,6.816680744371701739e-02,2.269345515508355005e-01,-1.284028521906867004e-01
6.350000000000000089e-01,1.478401653494519075e-01,2.583393370941099443e-01,-7.518773493335402514e-02
6.360000000000000098e-01,8.549268888292285706e-02,1.195173265495952930e-01,-3.318255288330683450e-02
6.370000000000000107e-01,-9.540774328052141484e-02,-1.200582956848186833e-01,5.565760009173818801e-02
6.380000000000000115e-01,-2.330211711999053970e-01,-2.305322744126599710e-01,5.419424097226419046e-02
6.390000000000000124e-01,-1.739495548471341746e-01,-1.905225306118198680e-01,-9.392838985132236345e-04
6.400000000000000133e-01,7.886744001477653809e-02,3.298267791983198333e-02,-3.165633337191769980e-02
6.410000000000000142e-01,2.642525733024660428e-01,1.860371402033919597e-01,4.249612232089419739e-02
6.420000000000000151e-01,2.743820071385650872e-01,1.712330983655503402e-01,6.308861504528104347e-02
6.430000000000000160e-01,7.808836365428127591e-02,3.289678228335343041e-02,3.297670256126463556e-02
6.440000000000000169e-01,-2.372639858118682499e-01,-1.086594203741954451e-01,-7.647982319583819522e-02
6.450000000000000178e-01,-3.474910918547922667e-01,-1.001399607242654949e-01,-1.188516326995176925e-01
6.460000000000000187e-01,-1.566077604195136586e-01,-1.762590553209916755e-02,-8.458877727154752446e-02
6.470000000000000195e-01,1.252502650662108419e-01,1.614050729383435454e-02,5.761445304053143535e-02
6.480000000000000204e-01,2.849363509958033891e-01,-2.712044721072661042e-03,1.555092885458738972e-01
6.490000000000000213e-01,1.960852929321241778e-01,-6.180898318006770864e-02,1.762790239186012853e-01
6.500000000000000222e-01,-9.023820838826298457e-03,-2.655590944443007514e-02,2.859118841699780436e-02
6.510000000000000231e-01,-1.393500523890857101e-01,1.084526805756306223e-01,-1.708557807104640058e-01
6.520000000000000240e-01,-1.350877191822077716e-01,1.380805299056075131e-01,-1.744669929892360694e-01
6.530000000000000249e-01,-1.681389204344233695e-02,8.582259823870740101e-02,-1.038875158369051699e-01
6.540000000000000258e-01,2.544700013637877373e-02,-9.163081114513675629e-02,1.171834869136310908e-01
6.550000000000000266e-01,1.927971219618137416e-02,-2.166131701951344302e-01,1.869200599728051693e-01
6.560000000000000275e-01,-1.446457935087220453e-02,-1.566701220729199151e-01,1.258937919529632965e-01
6.570000000000000284e-01,8.399848539247183055e-03,4.792338778877178185e-02,-3.040364003092524327e-03
6.580000000000000293e-01,1.008866698998118344e-01,2.075497344142919198e-01,-1.257679446090623765e-01
6.590000000000000302e-01,1.507201673708477296e-01,2.547949118875761920e-01,-8.826650224102369768e-02
6.600000000000000311e-01,4.715197337578393849e-02,1.732843822750138735e-02,-1.555902003407729807e-02
6.610000000000000320e-01,-1.302684150973817678e-01,-1.668388194619704057e-01,4.398014805325756865e-02
6.620000000000000329e-01,-2.648983154821593078e-01,-2.407112841347550658e-01,3.168853534772969605e-02
6.630000000000000338e-01,-2.230952811052199225e-01,-1.439949573885179746e-01,2.503338195875023584e-02
6.640000000000000346e-01,7.049228469208697334e-02,8.625474780840283739e-02,7.158640176247631909e-03
6.650000000000000355e-01,2.939465864825951402e-01,1.805415137625333011e-01,3.486142881837014929e-02
6.660000000000000364e-01,2.997669342754740174e-01,1.542748301782863873e-01,6.215604863322444357e-02
6.670000000000000373e-01,8.740304607808828397e-03,1.943360940271581308e-02,2.020912400021862912e-02
6.680000000000000382e-01,-2.404369411052448835e-01,-8.040360135072714687e-02,-8.754340838470803243e-02
6.690000000000000391e-01,-3.075356637196644538e-01,-6.181792022117275215e-02,-1.233805433587400330e-01
6.700000000000000400e-01,-1.347342439852637352e-01,1.948602071205991423e-02,-8.354636759165247339e-02
6.710000000000000409e-01,9.702233064609895596e-02,2.562804949720668204e-02,5.682755493075206804e-02
6.720000000000000417e-01,2.702288471791546298e-01,-3.925959617337521773e-02,1.627822174281424450e-01
6.730000000000000426e-01,1.602077755714782781e-01,-4.391616278727563522e-02,1.938369035434431842e-01
6.740000000000000435e-01,-3.742700237313158988e-03,-1.204360013973998327e-02,3.847280272350007968e-02
6.750000000000000444e-01,-1.488327674860168426e-01,1.236578825849176388e-01,-1.240859685775864280e-01
6.760000000000000453e-01,-1.278768028582025484e-01,1.638365774273480846e-01,-1.814015214149967414e-01
6.770000000000000462e-01,-2.599902992334553534e-02,-2.492686709207379055e-03,-1.215207925797648081e-01
6.780000000000000471e-01,4.599400292644342109e-02,-1.419076391631151068e-01,8.485532371080284353e-02
6.790000000000000480e-01,-2.635211306427094960e-02,-2.040989608188183702e-01,1.760560161806385693e-01
6.800000000000000488e-01,-3.197978038255491068e-02,-1.315114768034872095e-01,1.481030220133198183e-01
6.810000000000000497e-01,-1.401072906883746999e-02,1.034239870706261111e-01,1.361643515526886859e-03
6.820000000000000506e-01,6.352831508880128764e-02,2.677970268654609742e-01,-1.271037016215651183e-01
6.830000000000000515e-01,1.624851490852130542e-01,2.189266852135395569e-01,-9.475499539083699629e-02
6.840000000000000524e-01,6.359881476773367182e-02,-8.795921904004027833e-03,-3.865737731907050584e-02
6.850000000000000533e-01,-1.349543960230601136e-01,-2.276106498243254950e-01,4.263742367081588963e-02
6.860000000000000542e-01,-2.520021226188470798e-01,-2.294294666488977952e-01,3.020602927213368247e-02
6.870000000000000551e-01,-1.584500562024911130e-01,-3.929645003612493998e-02,2.725554615855735373e-04
6.879999999999999449e-01,7.575093681473511753e-02,1.039602481324289618e-01,-1.773830369607848692e-02
6.889999999999999458e-01,2.918546344932735348e-01,1.636035113815558217e-01,1.459770809389754342e-02
6.899999999999999467e-01,2.852164746130397832e-01,7.237908282429279805e-02,6.196374550147527860e-02
6.909999999999999476e-01,2.186967952048909924e-02,-4.736531346170515244e-02,2.806822204911964963e-02
6.919999999999999485e-01,-2.291552996879236137e-01,-8.598424110770135076e-02,-4.786019704458557844e-02
6.929999999999999494e-01,-2.855595823798356969e-01,-9.026500241130674257e-03,-1.184461454325847485e-01
6.939999999999999503e-01,-1.400327915515595933e-01,8.309484801005358190e-03,-1.150212388296287663e-01
6.949999999999999512e-01,1.466776265104285382e-01,-2.835953101749084590e-02,4.696905371175587318e-02
6.959999999999999520e-01,2.508059674266763794e-01,-6.505610200381899133e-02,1.260189534336893236e-01
6.969999999999999529e-01,1.709547172430967987e-01,-8.336748923033752978e-02,1.745037693518385613e-01
6.979999999999999538e-01,-5.437098816195949647e-02,5.483612145059057336e-02,7.513975188313917752e-02
6.989999999999999547e-01,-1.439113926455211079e-01,1.518252516090881910e-01,-1.256791340461558826e-01
6.999999999999999556e-01,-9.910575410161655274e-02,1.422806797069771090e-01,-1.902482853240750060e-01
7.009999999999999565e-01,-7.860770616821041723e-03,-3.572599250988890696e-02,-1.163835724906030489e-01
7.019999999999999574e-01,2.397461965898099734e-02,-2.436974089663085097e-01,4.257790725490644135e-02
7.029999999999999583e-01,1.578296676413395300e-02,-2.348100129181350526e-01,1.577137105599444866e-01
7.039999999999999591e-01,-4.758928013775254318e-02,-4.071775326770440268e-02,1.545906853956242055e-01
7.049999999999999600e-01,1.542999636159198343e-02,1.670654773968095475e-01,-1.073122215348075621e-02
7.059999999999999609e-01,1.314877312907892781e-01,2.544571889461924030e-01,-4.734631470178093937e-02
7.069999999999999618e-01,1.643302853337893221e-01,1.155603266054363448e-01,-9.634585660620417769e-02
7.079999999999999627e-01,7.089354622665981764e-02,-8.109838110796338539e-02,-4.051636717291667855e-02
7.089999999999999636e-01,-1.569689637354043099e-01,-2.241421109360556829e-01,1.294295776355583807e-02
7.099999999999999645e-01,-2.489227998430610933e-01,-1.570791800457820020e-01,3.383584737990458224e-02
7.109999999999999654e-01,-1.623107313084862224e-01,7.047554727053995062e-04,-8.644342899433489231e-04
7.119999999999999662e-01,1.194064830795887183e-01,1.495472279900496304e-01,-5.352871662101126894e-03
7.129999999999999671e-01,3.170283080929894859e-01,1.479231881152140160e-01,4.300967352727105841e-02
7.139999999999999680e-01,2.572763285585564774e-01,3.846413712768797372e-02,6.937639290277648751e-02
7.149999999999999689e-01,-1.515122986507987969e-02,-5.747479126684439110e-02,5.716107815837890432e-02
7.159999999999999698e-01,-3.012619281498964963e-01,-5.476801628584521825e-02,-6.318065687677361982e-04
7.169999999999999707e-01,-3.151741969295033252e-01,-4.617509006823267647e-04,-1.416225082613054020e-01
7.179999999999999716e-01,-1.015754788821637972e-01,1.787203893541376015e-02,-1.128096274958619999e-01
7.189999999999999725e-01,1.343315014438147548e-01,-6.228803076513608067e-02,-3.900130544479554068e-02
7.199999999999999734e-01,2.387498196766601744e-01,-4.026340140621312291e-02,1.294350046611337512e-01
7.209999999999999742e-01,1.238421094307384923e-01,-3.432061271345101389e-02,1.877355180739321561e-01
7.219999999999999751e-01,-2.540408467460640932e-02,9.008584860174241593e-02,8.468521870920361905e-02
7.229999999999999760e-01,-1.310586323572784651e-01,1.652371237284477601e-01,-9.114462805392455069e-02
7.239999999999999769e-01,-1.017115696714487733e-01,1.120564129850867147e-01,-2.023191178193991524e-01
7.249999999999999778e-01,3.736279859440666973e-03,-7.768563089307754799e-02,-1.357102963744047097e-01
7.259999999999999787e-01,1.542691920602565214e-02,-2.367781009513101331e-01,-1.017290367874575802e-02
7.269999999999999796e-01,-4.424928701875072146e-02,-1.903238713566709761e-01,1.555154250785215631e-01
7.279999999999999805e-01,-7.358656728264650893e-02,1.403629590526077851e-02,1.560909978600228398e-01
7.289999999999999813e-01,1.698522488977336625e-02,2.029785637553072342e-01,6.925292740282415482e-02
7.299999999999999822e-01,1.376280186134388461e-01,2.366874125440607546e-01,-6.411977127589180148e-02
7.309999999999999831e-01,1.455122183890141252e-01,5.393079876367887909e-02,-1.303957445285829075e-01
7.319999999999999840e-01,3.338285279228773300e-02,-1.153828242209104793e-01,-5.047394566342344735e-02
7.329999999999999849e-01,-2.124746220618875803e-01,-2.578216260387801717e-01,1.008365851355736125e-03
7.339999999999999858e-01,-3.071210198622418841e-01,-1.293281314385992531e-01,3.278316624394121692e-02
7.349999999999999867e-01,-1.409188404615485668e-01,7.403134800093788548e-02,-2.489489966094117143e-02
7.359999999999999876e-01,1.512682666445971658e-01,1.206754123627764436e-01,3.319123741066690430e-03
7.369999999999999885e-01,3.238888801928798133e-01,8.364657897794237906e-02,3.756352629630942824e-02
7.379999999999999893e-01,2.523483709945784637e-01,3.210401062906256819e-02,5.190927627976846953e-02
7.389999999999999902e-01,1.251825783501483774e-03,-3.872012483754089934e-02,5.484890643977613500e-02
7.399999999999999911e-01,-2.312516399494330133e-01,-3.776886920889027666e-02,-2.410480960866824215e-02
7.409999999999999920e-01,-3.013576660393580409e-01,-5.355352780168849518e-03,-1.155880594520072857e-01
7.419999999999999929e-01,-7.141941894613407227e-02,-2.930859116124401656e-02,-1.610792788206870940e-01
7.429999999999999938e-01,1.793400453041719411e-01,-7.077274953672238467e-02,-5.621018129411913672e-02
7.439999999999999947e-01,2.279073961424037398e-01,-8.132455043423464369e-02,1.383973249118490567e-01
7.449999999999999956e-01,1.202422636552041985e-01,1.266597288099618850e-02,1.950551553741425859e-01
7.459999999999999964e-01,-3.046415782625874757e-02,1.372407327245986075e-01,1.231708432937106135e-01
7.469999999999999973e-01,-1.033941544818304248e-01,1.897066181096257187e-01,-5.224243651262218402e-02
7.479999999999999982e-01,-7.092384367080802055e-02,3.949621713382642924e-02,-1.894584283276720127e-01
7.489999999999999991e-01,-8.071585753784306719e-03,-1.783955067114887105e-01,-1.694653420289011503e-01
7.500000000000000000e-01,-8.182400521172522936e-03,-2.885511778506728575e-01,-4.437783587585800160e-02
7.510000000000000009e-01,-8.394415557132818562e-02,-1.591850117680744803e-01,1.191204351715168808e-01
7.520000000000000018e-01,-4.834470498713025477e-02,8.388024994283212188e-02,1.494381429040972098e-01
7.530000000000000027e-01,2.472343416255313661e-02,2.585381885577476280e-01,7.297276336851936385e-02
7.540000000000000036e-01,1.825788134455548495e-01,2.166012771292331607e-01,-3.415956873415533501e-02
7.550000000000000044e-01,2.035252940530568044e-01,1.422195513166435443e-02,-7.680378530445584884e-02
7.560000000000000053e-01,3.306570021628436884e-02,-1.930084281158505055e-01,-6.860518285500662172e-02
7.570000000000000062e-01,-1.791657412130790161e-01,-1.899259572181817290e-01,1.727681531684572419e-02
7.580000000000000071e-01,-2.788063420760587552e-01,-5.395236943208587405e-02,1.317503012428580290e-02
7.590000000000000080e-01,-1.558406415746919627e-01,6.280748453325807334e-02,1.489705208807622951e-02
7.600000000000000089e-01,1.164013087068781066e-01,1.383455471472424814e-01,-4.739563624479135873e-02
7.610000000000000098e-01,3.044643621745813378e-01,5.621785420172624448e-02,1.032744439448399568e-02
7.620000000000000107e-01,1.972705351786774308e-01,-4.178975575500153833e-02,7.569459281490123481e-02
7.630000000000000115e-01,-4.244586995279253649e-02,-1.340063966712889791e-02,6.831113466077096130e-02
7.640000000000000124e-01,-2.677909997263400732e-01,-1.675402363473086145e-02,1.328399343737609456e-02
7.650000000000000133e-01,-2.576200338190430816e-01,1.069963863408739807e-02,-1.026081026026287174e-01
7.660000000000000142e-01,-8.156790241397116059e-02,-6.222616592364120514e-02,-1.550443459131113644e-01
7.670000000000000151e-01,1.236175246927792570e-01,-1.385634482393725553e-01,-4.778340844313778979e-02
7.680000000000000160e-01,2.270352593550322429e-01,-6.707334366493260258e-02,8.173567190767347390e-02
7.690000000000000169e-01,1.257112021376871613e-01,6.560240035178677154e-02,1.715970787805942699e-01
7.700000000000000178e-01,-5.422215348042323108e-02,2.175888811757700769e-01,1.439271087292360307e-01
7.710000000000000187e-01,-9.138679954709306996e-02,1.702491853859529891e-01,-8.919444875044381035e-03
7.720000000000000195e-01,-2.899498628782166011e-03,-1.265990658908994551e-02,-1.667732730774997008e-01
7.730000000000000204e-01,3.146382749675740841e-03,-2.010938848598709527e-01,-1.633063596310326548e-01
7.740000000000000213e-01,-4.955646337919558664e-02,-2.416581078177307829e-01,-6.273488436838307869e-02
7.750000000000000222e-01,-4.846669692904878590e-02,-6.342954900047856337e-02,1.050554747218201274e-01
7.760000000000000231e-01,-8.337241853681685855e-02,1.677433926517532814e-01,1.487196838873273974e-01
7.770000000000000240e-01,4.778875421133939316e-02,2.744183072321859096e-01,8.271626270850579443e-02
7.780000000000000249e-01,1.737778115644324772e-01,1.166107022640293506e-01,-3.681521704856007687e-02
7.790000000000000258e-01,1.723043826382425481e-01,-7.206990226260009957e-02,-9.720351612973313071e-02
7.800000000000000266e-01,4.745384095783919919e-03,-2.045566820016005982e-01,-7.755906363218890986e-02
7.810000000000000275e-01,-2.269309605694273257e-01,-1.923235892494933041e-01,-1.149180550847944682e-02
7.820000000000000284e-01,-3.015837650469881948e-01,6.498072379548787934e-03,-1.091237416104233124e-02
7.830000000000000293e-01,-1.199693540254753166e-01,1.128775032447013604e-01,-1.403561007145020904e-02
7.840000000000000302e-01,1.633572874966378874e-01,9.832573148047672740e-02,-3.673798507594374513e-02
7.850000000000000311e-01,3.160265452347288950e-01,2.585035806307172876e-02,-1.262750444974186995e-02
7.860000000000000320e-01,2.118206693424394826e-01,-3.331165207945727819e-02,5.293678241422764691e-02
7.870000000000000329e-01,-6.104760900090511200e-02,-3.001804051073556079e-02,8.918371170936785497e-02
7.880000000000000338e-01,-2.716529189641569975e-01,4.554346067869666226e-02,5.069301742177701603e-02
7.890000000000000346e-01,-2.348090259219476617e-01,4.143576587848257428e-03,-8.092112912214204090e-02
7.900000000000000355e-01,-9.351071469892408006e-02,-8.420464498558706545e-02,-1.785358106340201312e-01
7.910000000000000364e-01,1.814654997991602958e-01,-1.014418677655674755e-01,-8.892798593193836088e-02
7.920000000000000373e-01,1.810697383834048713e-01,-3.078293285440081989e-02,4.413197582101841682e-02
7.930000000000000382e-01,9.648969002557060415e-02,1.514668881376070586e-01,1.859689716677974114e-01
7.940000000000000391e-01,-1.324365092638913645e-02,2.039851265556828774e-01,1.819846503475013588e-01
7.950000000000000400e-01,-6.012540382002597161e-02,1.341098377042712342e-01,1.889085654107553695e-03
7.960000000000000409e-01,-2.601716530019631060e-02,-6.036119928372268850e-02,-1.626460949697898506e-01
7.970000000000000417e-01,-4.792566452540896957e-03,-2.367406988255756073e-01,-1.765801125057429311e-01
7.980000000000000426e-01,-3.548049228593112142e-02,-2.235920612961821152e-01,-8.880646701632581574e-02
7.990000000000000435e-01,-1.191193032957033882e-01,-7.925467423090073668e-03,5.303385891449631517e-02
8.000000000000000444e-01,-6.259368553883064290e-02,2.082642263121665671e-01,1.030840845499804981e-01
8.010000000000000453e-01,6.653078423597369451e-02,2.261846474734105772e-01,9.188668186723850106e-02
8.020000000000000462e-01,2.182824221079638083e-01,6.818746424408489437e-02,1.209459223117364916e-02
8.030000000000000471e-01,2.111601968198287271e-01,-9.420903666436196422e-02,-6.194629471427934991e-02
8.040000000000000480e-01,1.607936242561913351e-02,-2.351837810866465872e-01,-4.333107243479766141e-02
8.050000000000000488e-01,-2.362768751107538756e-01,-1.295726589760716474e-01,-2.117787171913871475e-02
8.060000000000000497e-01,-2.880672086411538713e-01,2.984957632337761207e-02,-6.688272949704883626e-03
8.070000000000000506e-01,-1.244986219551240669e-01,7.323914958173086132e-02,-3.134674932996994040e-02
8.080000000000000515e-01,1.548947778585362534e-01,6.365936779852691962e-02,-4.176440180829759513e-02
8.090000000000000524e-01,3.362148976038355497e-01,-8.626239940498488940e-03,-3.231662824001337031e-02
8.100000000000000533e-01,2.044781132774410870e-01,-3.292626188086002909e-02,8.398581774001105671e-02
8.110000000000000542e-01,-4.910863737047923422e-02,2.234235583456259736e-02,9.005341402928650207e-02
8.120000000000000551e-01,-2.928842430241735961e-01,3.331677921439622075e-02,4.033592321742621167e-02
8.129999999999999449e-01,-2.657362171825024544e-01,2.078591574332700235e-04,-8.521218743534181295e-02
8.139999999999999458e-01,-3.408104921816688254e-02,-9.796248475897140207e-02,-1.794578942908105212e-01
8.149999999999999467e-01,1.458479810576043534e-01,-1.327806346396840365e-01,-1.322867582049164215e-01
8.159999999999999476e-01,1.436225145531092595e-01,4.276031832071227473e-03,3.692470647549973839e-02
8.169999999999999485e-01,7.950424017127760701e-02,1.850103696710336254e-01,1.929392523924117753e-01
8.179999999999999494e-01,-2.137221545804036602e-02,2.216574782725958537e-01,2.009685615174239548e-01
8.189999999999999503e-01,-9.047160543363090557e-02,7.764648921696438999e-02,6.333025322046557937e-02
8.199999999999999512e-01,-4.475610192949762423e-02,-1.542974925563664057e-01,-1.269106317662602179e-01
8.209999999999999520e-01,4.799562531436947672e-03,-2.376899550443404285e-01,-2.085790217248591760e-01
8.219999999999999529e-01,-5.257695200051640261e-02,-1.387057733951961580e-01,-1.291864019072358483e-01
8.229999999999999538e-01,-1.190754855244889193e-01,6.231297754953778190e-02,5.030815473475680477e-02
8.239999999999999547e-01,-5.237916911296167793e-02,1.788590501741874617e-01,9.138536539176284057e-02
8.249999999999999556e-01,7.723405368627640766e-02,2.335169109523809738e-01,9.590922020085275446e-02
8.259999999999999565e-01,2.227751886543409554e-01,-2.011693198229418458e-02,1.302652798842335660e-02
8.269999999999999574e-01,1.833324999715859049e-01,-1.407308813743694265e-01,-7.423189275196326320e-02
8.279999999999999583e-01,-3.894773596666683407e-02,-1.965295880936421546e-01,-8.831329923221181710e-02
8.289999999999999591e-01,-2.498549854178767071e-01,-6.608349774832200652e-02,-2.027439886687237847e-02
8.299999999999999600e-01,-3.250466054335243715e-01,1.034949503125003473e-01,8.897619429975521174e-03
8.309999999999999609e-01,-6.657739924917556451e-02,1.327448378840383469e-01,-3.137175407388627379e-02
8.319999999999999618e-01,2.089783107846298893e-01,3.990751224664945002e-02,-5.290650432350001847e-02
8.329999999999999627e-01,3.254908379219709769e-01,-2.423019260530483512e-02,4.846375270436845649e-03
8.339999999999999636e-01,1.858765578767751780e-01,4.964439430032731825e-04,7.621917176349805867e-02
8.349999999999999645e-01,-8.239400711547172074e-02,2.792330546086973370e-02,1.293711645955629430e-01
8.359999999999999654e-01,-2.621879947613151018e-01,6.745617301650917719e-02,9.315651906199079457e-02
8.369999999999999662e-01,-2.534780641683315738e-01,-6.589766016718547059e-02,-4.821372180244310607e-02
8.379999999999999671e-01,-1.682232619257679682e-02,-1.644933687437785397e-01,-1.586609790819011601e-01
8.389999999999999680e-01,1.506462926313806294e-01,-1.077855198990570335e-01,-1.389629111089595304e-01
8.399999999999999689e-01,1.438619817854222827e-01,6.997945977155087260e-02,-2.228500486473220313e-02
8.409999999999999698e-01,6.852103535059109185e-02,1.938096883143614890e-01,1.477825265762163498e-01
8.419999999999999707e-01,-3.402320241813449470e-02,2.007451872840378404e-01,1.780974893360900979e-01
8.429999999999999716e-01,-4.132249904031396609e-02,2.133981698996177331e-02,7.758010213534699551e-02
8.439999999999999725e-01,-3.279936878648630205e-03,-2.027301039953735839e-01,-1.026969751690033766e-01
8.449999999999999734e-01,-1.135391224866504067e-02,-2.531797133416213708e-01,-1.937134809573761718e-01
8.459999999999999742e-01,-8.010436927330721879e-02,-1.284997556723974921e-01,-1.150433880778479190e-01
8.469999999999999751e-01,-1.170509993158916628e-01,1.143400797872005797e-01,1.322640654012200573e-02
8.479999999999999760e-01,-7.639517031928713675e-02,2.363932156442790644e-01,9.799124914947013321e-02
8.489999999999999769e-01,8.217623188731849881e-02,1.443690204442869551e-01,1.115585702121991152e-01
8.499999999999999778e-01,2.442522910157365335e-01,-2.961533526808771827e-02,2.810369659147804455e-02
8.509999999999999787e-01,1.783060801660582839e-01,-1.639394026921414671e-01,-2.922489468383313374e-02
8.519999999999999796e-01,-2.146554384016978456e-02,-1.612060260517837740e-01,-5.707454022959343454e-02
8.529999999999999805e-01,-3.217048477575232823e-01,1.852880862158913511e-02,9.393521406774303856e-04
8.539999999999999813e-01,-2.912600772994992093e-01,8.379492291631780720e-02,1.184850560703529492e-03
8.549999999999999822e-01,-9.947245423375050688e-02,8.335180825935700755e-02,1.950801183109662253e-03
8.559999999999999831e-01,2.132795487781619925e-01,1.135715910246322229e-02,-4.848612670810771574e-02
8.569999999999999840e-01,3.168514672352578110e-01,-1.309472878474743536e-02,-3.733663466681670651e-02
8.579999999999999849e-01,1.545209412253200076e-01,2.821808112971870008e-02,4.819301235667039496e-02
8.589999999999999858e-01,-1.117101717807376104e-01,8.136212076518033187e-02,1.032333010634199216e-01
8.599999999999999867e-01,-2.493233822868252958e-01,1.781191257476882894e-02,7.539468083988712377e-02
8.609999999999999876e-01,-2.123111719501845074e-01,-1.001955855355665115e-01,-3.464780456275823317e-02
8.619999999999999885e-01,-3.718657448367350404e-02,-1.235361467113726269e-01,-1.561477984666153618e-01
8.629999999999999893e-01,1.406162928785450184e-01,-7.321081670470330760e-02,-1.694587408786166483e-01
8.639999999999999902e-01,1.242430051219048509e-01,8.141168278589509810e-02,-5.210998482788208735e-02
8.649999999999999911e-01,4.087538844489248951e-02,1.955112260373970401e-01,1.122813823472643968e-01
8.659999999999999920e-01,-6.733619981905535068e-02,1.457955834494101266e-01,1.760158699096810442e-01
8.669999999999999929e-01,-3.787671914727908790e-02,-5.781648996459589490e-02,1.269319060657387310e-01
8.679999999999999938e-01,3.937137928247505178e-03,-2.375555424093742651e-01,-8.264106392222562991e-02
8.689999999999999947e-01,2.018073034363411511e-02,-2.328577423618189979e-01,-1.602180371485914245e-01
8.699999999999999956e-01,-1.172500211181871504e-01,-4.687530451710493484e-02,-1.475983182684297290e-01
8.709999999999999964e-01,-1.558045118020693898e-01,1.970335548647727253e-01,-1.264566805297441705e-02
8.719999999999999973e-01,-7.432934297595315820e-02,2.424777839563019566e-01,1.103344519393453377e-01
8.729999999999999982e-01,1.303367047037379822e-01,1.199731250105804808e-01,1.264469079804826923e-01
8.739999999999999991e-01,2.614697298229574640e-01,-9.783921431008896219e-02,5.129616029050591830e-02
8.750000000000000000e-01,1.801711066513643766e-01,-1.589947216957322274e-01,-2.254766832476323007e-02
8.760000000000000009e-01,-4.291469112270491354e-02,-1.120244571241394427e-01,-3.228805290357417146e-02
8.770000000000000018e-01,-2.784334951736878727e-01,1.478079130693014075e-02,-2.336724184129948360e-03
8.780000000000000027e-01,-2.726260809243615246e-01,8.554746676146933460e-02,-4.697579953341080028e-03
8.790000000000000036e-01,-7.465552948087034180e-02,4.022695297879887860e-02,-3.882840656399082907e-02
8.800000000000000044e-01,2.529596340167690194e-01,-1.551080972279611329e-02,-4.724740247339889038e-02
8.810000000000000053e-01,2.984647005439662881e-01,-1.242413931807609048e-02,-4.849211807966861271e-02
8.820000000000000062e-01,1.329094921803217755e-01,6.025957977339167077e-02,3.828987569109260775e-02
8.830000000000000071e-01,-1.258157944111985005e-01,3.477616410243078438e-02,1.115756222056240449e-01
8.840000000000000080e-01,-2.774346933313399099e-01,-1.975575654487919663e-02,8.731666633802460942e-02
8.850000000000000089e-01,-1.719663476482971021e-01,-1.308623065433367483e-01,-3.759452085916530073e-02
8.860000000000000098e-01,2.222539289021169956e-02,-1.791579884151907887e-01,-1.435242442168303267e-01
8.870000000000000107e-01,1.148678341269844805e-01,-3.163187973887893190e-02,-1.696454338136732520e-01
8.880000000000000115e-01,1.004511249667465328e-01,1.755872760426961943e-01,-8.265093837622458639e-02
8.890000000000000124e-01,2.419809966126032844e-02,2.144080908025568222e-01,1.095608115063808619e-01
8.900000000000000133e-01,-2.033338405536766133e-02,1.169785891489778379e-01,1.982430724550700574e-01
8.910000000000000142e-01,2.708050337846843250e-02,-1.214589169492921450e-01,1.439061358642131083e-01
8.920000000000000151e-01,4.722811461145071110e-02,-2.688875663628880197e-01,-3.888217169517723011e-03
8.930000000000000160e-01,-2.502008264111448346e-02,-2.012986930594586887e-01,-1.234189514135787952e-01
8.940000000000000169e-01,-1.176167780835084692e-01,5.643655987976054639e-02,-1.488534479403361144e-01
8.950000000000000178e-01,-1.776874281522076993e-01,2.408144637097165142e-01,-3.162851381713538412e-02
8.960000000000000187e-01,-5.711713428760446104e-02,1.733217891890019846e-01,8.071152916266562116e-02
8.970000000000000195e-01,1.304587654753598391e-01,2.989402977091027563e-02,1.160802679693651029e-01
8.980000000000000204e-01,2.525056753725440362e-01,-1.330146576284154392e-01,6.404922410976460201e-02
8.990000000000000213e-01,1.964461254268971002e-01,-1.409680991541867601e-01,-2.212268437474973135e-02
9.000000000000000222e-01,-9.605264649900145668e-02,-4.634740717881062622e-02,-6.366843249202869259e-02
9.010000000000000231e-01,-3.038272282734836294e-01,2.960518024930535244e-02,1.579004071870863946e-02
9.020000000000000240e-01,-2.649580425165865005e-01,4.692948926002911414e-02,2.468724727542228464e-02
9.030000000000000249e-01,-3.737332793212132936e-02,2.603319183838992065e-02,-3.375559607234361603e-02
9.040000000000000258e-01,2.557411673274345709e-01,-1.561971533476748039e-02,-4.279509820172254508e-02
9.050000000000000266e-01,3.106626100417482772e-01,6.369640903179637180e-03,-5.568183484380517800e-02
9.060000000000000275e-01,1.130123026740357389e-01,5.674960741034244111e-02,3.120786588139322706e-02
9.070000000000000284e-01,-1.191641554983912665e-01,5.368202268143060923e-02,1.299827713737601864e-01
9.080000000000000293e-01,-2.272802448813333875e-01,-5.666734595011206632e-02,1.478128888633417071e-01
9.090000000000000302e-01,-1.487767072359546805e-01,-1.842263801209008400e-01,1.719530265578008213e-02
9.100000000000000311e-01,3.944824652985753910e-02,-1.297046792226956013e-01,-1.112825986174483112e-01
9.110000000000000320e-01,1.346953140692666029e-01,4.928831873431303162e-02,-1.632754704580464955e-01
9.120000000000000329e-01,8.181315531042308853e-02,2.057996737257820341e-01,-1.018108855428861703e-01
9.130000000000000338e-01,-3.796215558124575121e-03,2.128421633492700860e-01,8.540948147387392164e-02
9.140000000000000346e-01,-3.188577771105265135e-02,6.921777387148733696e-02,1.825444219892374542e-01
9.150000000000000355e-01,2.880719233874037485e-02,-1.726733053294788045e-01,1.532648375544905239e-01
9.160000000000000364e-01,5.223789343190021750e-02,-2.656120842958540340e-01,1.744348638758955834e-03
9.170000000000000373e-01,3.869578761880540247e-03,-1.306714799514404057e-01,-1.203215197456988378e-01
9.180000000000000382e-01,-1.171230537896890966e-01,1.317061323805531481e-01,-1.323710818003464296e-01
9.190000000000000391e-01,-1.446021471865727992e-01,2.186942008855196629e-01,-5.536969030304587230e-02
9.200000000000000400e-01,-1.001382406807504594e-01,1.240040175707967929e-01,8.850209406213707664e-02
9.210000000000000409e-01,1.664256219293716588e-01,-2.206885656769188783e-02,1.186209608185963410e-01
9.220000000000000417e-01,3.016804738683244724e-01,-1.181557610815240772e-01,8.674926650219390301e-02
9.230000000000000426e-01,1.695791311481573138e-01,-1.651477184323008607e-01,-1.137838828190437107e-02
9.240000000000000435e-01,-7.996469137545240968e-02,-2.347447944725491314e-02,-3.096738957755638955e-02
9.250000000000000444e-01,-3.183929118967636085e-01,4.285751350373880747e-02,-1.844630730549444778e-02
9.260000000000000453e-01,-2.513910122105101341e-01,6.229087376169190754e-02,1.029075223318435747e-02
9.270000000000000462e-01,-4.672848661860255076e-02,-3.168088651384332044e-02,-2.543858772650118075e-02
9.280000000000000471e-01,2.480726928197518888e-01,-2.569344591236077339e-03,-7.195378041550316850e-02
9.290000000000000480e-01,3.042553461354630673e-01,5.315788984098973602e-02,-5.117859009471395493e-02
9.300000000000000488e-01,1.022323840451179050e-01,5.351888964826378298e-02,4.055741091271821558e-03
9.310000000000000497e-01,-1.185766629523661436e-01,3.810723802102287255e-02,8.501547839242795668e-02
9.320000000000000506e-01,-2.008064838207082592e-01,-1.274925097244468120e-01,1.730719006034189822e-01
9.330000000000000515e-01,-1.422622529915684442e-01,-1.585766751519104012e-01,2.025988161936113918e-02
9.340000000000000524e-01,2.555066860758253844e-02,-1.289635113011479428e-01,-1.058232418316168155e-01
9.350000000000000533e-01,1.103291790272167144e-01,9.127845097357591142e-02,-1.812983291261987817e-01
9.360000000000000542e-01,9.501684488596469358e-02,2.612538651685873958e-01,-7.560204847779951332e-02
9.370000000000000551e-01,-3.416099848387122405e-03,1.532915475754647316e-01,5.325790267314720050e-02
9.379999999999999449e-01,-2.672442086103971742e-02,-2.701914140468396688e-02,1.933462391497877408e-01
9.389999999999999458e-01,5.603696419920163596e-02,-2.300614977904131830e-01,1.766503409627352972e-01
9.399999999999999467e-01,8.485702283232178511e-02,-2.407050230876975339e-01,2.265948540694821822e-02
9.409999999999999476e-01,-2.325894261749612488e-02,-4.091907850377705935e-02,-1.311873283796455847e-01
9.419999999999999485e-01,-1.412486711511541926e-01,1.357517147925148271e-01,-1.728920600385283335e-01
9.429999999999999494e-01,-1.860763672999849183e-01,2.196709443747104917e-01,-7.200484863867021024e-02
9.439999999999999503e-01,-5.872439819071324091e-02,6.656964550023007632e-02,3.104684208270971219e-02
9.449999999999999512e-01,1.569615773659476243e-01,-6.896573519935267349e-02,8.675538042862258881e-02
9.459999999999999520e-01,2.853575210090191216e-01,-1.419969358184427211e-01,7.870738095353782549e-02
9.469999999999999529e-01,1.746567405540439544e-01,-1.068252207922999880e-01,-1.265718860227090653e-02
9.479999999999999538e-01,-7.451942662321557609e-02,-1.372621859944979719e-02,-2.784981499193225213e-02
9.489999999999999547e-01,-3.492642506605641572e-01,4.843197486881553604e-02,-2.719166503481482058e-03
9.499999999999999556e-01,-2.645600882855297376e-01,3.804693953696114406e-02,4.882617865753887537e-03
9.509999999999999565e-01,-3.065359078142178197e-03,2.798734648065698966e-02,8.128815134874562212e-03
9.519999999999999574e-01,2.556159772098184901e-01,3.166785591352884455e-02,-6.240119465209101324e-02
9.529999999999999583e-01,2.515629804203365905e-01,1.098215333850875025e-01,-8.646217880510675968e-02
9.539999999999999591e-01,1.141265209431317762e-01,7.832045468751222539e-02,-5.803816184761561789e-03
9.549999999999999600e-01,-1.287732967926263905e-01,-1.370026232290390972e-02,1.224226527263764797e-01
9.559999999999999609e-01,-2.071020870375260003e-01,-1.333900487249665423e-01,1.755961084927095128e-01
9.569999999999999618e-01,-1.124966540559751288e-01,-1.916559412196497392e-01,5.607096915613154348e-02
9.579999999999999627e-01,3.534316240097286344e-02,-4.080319993075873924e-02,-6.329091096176830966e-02
9.589999999999999636e-01,1.432245660590736880e-01,1.774599981634903123e-01,-1.847610048432500873e-01
9.599999999999999645e-01,7.000185663543137538e-02,2.510113828414173298e-01,-1.571976872626756616e-01
9.609999999999999654e-01,-2.236695678782528798e-02,1.086601932461821740e-01,4.190881972739791961e-02
9.619999999999999662e-01,-3.494729650740194607e-03,-9.902888675286276865e-02,1.591916836987476991e-01
9.629999999999999671e-01,1.113096138070362590e-01,-2.358095185642328506e-01,1.609486497056361876e-01
9.639999999999999680e-01,5.844523502802292242e-02,-2.043880695817821558e-01,5.789206276987066135e-02
9.649999999999999689e-01,-4.075361935841839700e-02,3.938374123340327229e-03,-1.090142477230913592e-01
9.659999999999999698e-01,-1.749384245755367384e-01,1.776257637183943361e-01,-1.622847813689622387e-01
9.669999999999999707e-01,-1.903830180518812365e-01,1.976894809497071193e-01,-1.102632898725893484e-01
9.679999999999999716e-01,-5.836788061233778163e-02,3.968987642655660841e-02,2.092152814769672117e-02
9.689999999999999725e-01,1.969120837655719269e-01,-5.389248801686130630e-02,1.089276129601140924e-01
9.699999999999999734e-01,3.141934588915090143e-01,-1.302103054085725353e-01,7.544029013872047273e-02
9.709999999999999742e-01,1.692634245271675275e-01,-3.837087757744546412e-02,1.447956036985986999e-03
9.719999999999999751e-01,-1.145126822692444507e-01,1.750956717258294465e-02,-6.943433279425406147e-03
9.729999999999999760e-01,-3.355087443484984777e-01,1.629547478147263390e-02,-3.241739045225625060e-02
9.739999999999999769e-01,-2.696000607190820464e-01,-1.395724288827710283e-02,3.491396328112567060e-02
9.749999999999999778e-01,2.132620906070791314e-02,-4.384862293305725328e-02,1.392962390314416224e-02
9.759999999999999787e-01,2.061120949344180386e-01,5.399361456762302031e-02,-8.817043870692929664e-02
9.769999999999999796e-01,2.725463048069103889e-01,1.208688196157788192e-01,-1.302621286016745483e-01
9.779999999999999805e-01,6.948985659321663122e-02,8.102715776242881696e-02,-3.275663543687413332e-02
9.789999999999999813e-01,-1.431486332548094764e-01,-7.326064400138831978e-02,9.005644979501294112e-02
9.799999999999999822e-01,-2.343300341769872785e-01,-2.044004946182556293e-01,1.051220961968212519e-01
9.809999999999999831e-01,-1.227155221096864340e-01,-1.617726860476329798e-01,1.065813285607708355e-01
9.819999999999999840e-01,1.998860977947791370e-02,1.819440643084953638e-02,-6.070668864475550069e-02
9.829999999999999849e-01,9.444672139833919233e-02,2.280953846731012258e-01,-1.594452391952438097e-01
9.839999999999999858e-01,5.606968651958959410e-02,2.177192555000692087e-01,-1.761650885981505266e-01
9.849999999999999867e-01,7.332756513453136948e-03,7.608485061430415863e-02,-2.962168459500701470e-02
9.859999999999999876e-01,2.281975783236313976e-02,-1.546529733514009630e-01,1.436817766205494284e-01
9.869999999999999885e-01,7.637590081955242249e-02,-2.269520828432701476e-01,1.978073821260558085e-01
9.879999999999999893e-01,7.525219842583284746e-02,-1.579904396381718035e-01,1.168494733384303208e-01
9.889999999999999902e-01,-4.431301797363350337e-02,6.057641394921979561e-02,-4.829764568207240566e-02
9.899999999999999911e-01,-1.810307404313786228e-01,2.157398520256676444e-01,-1.092660241437821700e-01
9.909999999999999920e-01,-1.697403569536649059e-01,1.558683219177522394e-01,-9.213862440045823832e-02
9.919999999999999929e-01,-3.066345391232156575e-02,1.074067784614877834e-02,3.856554759304481480e-04
9.929999999999999938e-01,2.196636372223313149e-01,-1.095324512140340156e-01,3.499757980063319257e-02
9.939999999999999947e-01,3.098862581750323475e-01,-9.676464158944281246e-02,1.443921174870444607e-02
9.949999999999999956e-01,1.474857183975458175e-01,-1.084512671347949084e-02,2.642253448854922637e-02
9.959999999999999964e-01,-1.326426265331950849e-01,1.998907710886951156e-02,-2.438944248526538419e-02
9.969999999999999973e-01,-3.290378400631241984e-01,-4.408557713794072040e-03,2.288906741846972581e-03
9.979999999999999982e-01,-2.548966707656689645e-01,-3.938633455459875088e-02,5.771675194700202557e-03
9.989999999999999991e-01,3.335989320894775650e-02,1.044497011752013732e-02,2.980191159079535745e-02
1.000000000000000000e+00,2.898739409784621412e-01,7.376758986521046724e-02,-6.422704872223659878e-02
1.000999999999999890e+00,2.257852621311523811e-01,1.146331539419332274e-01,-8.597957344956266845e-02
1.002000000000000002e+00,3.562780506096282357e-02,5.208623521669910467e-02,-4.235798091878539839e-02
1.002999999999999892e+00,-1.309621623217786801e-01,-1.162042428011439837e-01,7.368947937839893936e-02
1.004000000000000004e+00,-1.881346951719264360e-01,-2.237211629308182570e-01,1.600790436067850708e-01
1.004999999999999893e+00,-6.206048397719159115e-02,-1.169739235676108130e-01,1.262820214072581382e-01
1.006000000000000005e+00,5.095051047562162289e-02,9.674671101149663610e-02,-2.272646830726683317e-02
1.006999999999999895e+00,8.259685738532004939e-02,2.718737076293993860e-01,-1.731547569883403470e-01
1.008000000000000007e+00,2.456882761428311190e-02,2.312910056475340759e-01,-1.690319724815611546e-01
1.008999999999999897e+00,-7.797870784260956672e-03,1.614423838945085524e-02,-3.049636867678998456e-02
1.010000000000000009e+00,2.244541640060167612e-02,-2.275993359985631348e-01,1.246288526423282861e-01
1.010999999999999899e+00,1.205384137299565367e-01,-2.372025997933228658e-01,2.036845105083371632e-01
1.012000000000000011e+00,9.983238796770661783e-02,-1.056353966950939055e-01,1.175746756639524382e-01
1.012999999999999901e+00,-6.856568650430902578e-02,1.308362935568698482e-01,-3.364476651476534796e-02
1.014000000000000012e+00,-2.330944112921330968e-01,1.877814284161931913e-01,-9.262465123444225956e-02
1.014999999999999902e+00,-2.079448641450596102e-01,1.294353726236340263e-01,-1.208881748071174572e-01
1.016000000000000014e+00,-7.845396204644153326e-03,-6.435967143172482974e-02,-2.397513068249369772e-02
1.016999999999999904e+00,2.284443774803029403e-01,-8.257183609278394287e-02,4.611449015164412885e-02
1.018000000000000016e+00,3.074751226530165749e-01,-5.259152950060982934e-02,9.807215771607086241e-02
1.018999999999999906e+00,1.137577710576815476e-01,9.071170723689361837e-03,4.996253184151538615e-03
1.020000000000000018e+00,-1.455693875503787094e-01,3.335576346578839058e-02,-2.952613442355882592e-03
1.020999999999999908e+00,-3.114205675070415014e-01,-2.057169433965313349e-02,-8.444132775783635275e-03
1.022000000000000020e+00,-2.236061215194516116e-01,-5.706044090109552852e-02,3.106936145897002538e-02
1.022999999999999909e+00,4.936425618633803053e-02,2.312227485865352844e-02,3.937949237474135805e-02
1.024000000000000021e+00,2.791426471998256220e-01,1.099212544769310324e-01,-8.068499061872412559e-02
1.024999999999999911e+00,2.536146127761377267e-01,1.393640018647086254e-01,-9.073945055228843648e-02
1.026000000000000023e+00,4.163760691506662032e-02,4.614681899568462073e-03,-8.225538365292368870e-02
1.026999999999999913e+00,-1.541532510790613042e-01,-1.833391787392926187e-01,7.063551857532289480e-02
1.028000000000000025e+00,-1.558368784985414146e-01,-2.197189102479628064e-01,1.615722648495767078e-01
1.028999999999999915e+00,-8.558051379887056387e-02,-7.320731924672331525e-02,1.446546390707136032e-01
1.030000000000000027e+00,4.928299694666081476e-02,1.885194561338995600e-01,1.266180264072013992e-02
1.030999999999999917e+00,4.763713855468546671e-02,2.501604646846753432e-01,-1.359366075973897914e-01
1.032000000000000028e+00,-1.884155889343791176e-02,2.066340006935233897e-01,-1.579866606445726740e-01
1.032999999999999918e+00,-1.041561274004801189e-02,-8.533464393992097607e-02,-9.533722314178540158e-02
1.034000000000000030e+00,6.342131926179925272e-02,-2.239326312562950894e-01,9.095863465114532864e-02
1.034999999999999920e+00,1.317020054303686682e-01,-1.911400953851629947e-01,2.052011928247770012e-01
1.036000000000000032e+00,7.331779910451172166e-02,-1.060766020441111443e-02,1.334524598904905102e-01
1.036999999999999922e+00,-9.477822962048070010e-02,1.783756320719145361e-01,-2.644509141647215580e-02
1.038000000000000034e+00,-2.653037465681892249e-01,1.599569715909102963e-01,-1.078198700390978482e-01
1.038999999999999924e+00,-2.116984367058259986e-01,3.723703675394388068e-02,-1.212894832728051708e-01
1.040000000000000036e+00,4.180840434270764218e-03,-6.849909522085992353e-02,-3.349035197081633858e-02
1.040999999999999925e+00,2.606910238996419382e-01,-9.960385300318948254e-02,5.481686502563003910e-02
1.042000000000000037e+00,3.199409587248546183e-01,-4.536049123378790154e-02,4.336443561982104844e-02
1.042999999999999927e+00,1.227569689537006264e-01,7.730745390831260389e-03,1.085124854422444933e-02
1.044000000000000039e+00,-2.073645128986686403e-01,1.609368013212741227e-02,-2.989821008709291419e-02
1.044999999999999929e+00,-3.530082449112403875e-01,-6.911323316312019405e-02,3.624680180048214101e-02
1.046000000000000041e+00,-2.020641823513692759e-01,-2.796737175619331411e-02,4.021155520122271509e-02
1.046999999999999931e+00,9.241813623084507712e-02,5.882746389832693018e-02,3.186996555359530164e-02
1.048000000000000043e+00,2.867376828048594506e-01,1.490790313376925968e-01,-6.121446376871497730e-02
1.048999999999999932e+00,2.376901180170094552e-01,7.318396249504452444e-02,-1.166234334673103695e-01
1.050000000000000044e+00,1.886346996921952832e-02,-6.264825754457423179e-02,-1.147585964119050145e-01
1.050999999999999934e+00,-1.488821049320834256e-01,-2.301302900273920204e-01,4.614345164916617420e-02
1.052000000000000046e+00,-1.642258171369929132e-01,-2.025984534364134171e-01,1.397799598798382115e-01
1.052999999999999936e+00,-3.416910339164633270e-02,3.323581219930877694e-04,1.613422981040752990e-01
1.054000000000000048e+00,4.214863611220160539e-02,2.149282167663926491e-01,7.253816099023559227e-02
1.054999999999999938e+00,2.249787026601634404e-02,2.495258923443894050e-01,-1.321614485291294494e-01
1.056000000000000050e+00,-2.727369274349356748e-02,9.510652933542672327e-02,-1.986037647864095090e-01
1.056999999999999940e+00,-1.404106371063459924e-02,-1.217990010388467909e-01,-1.304701618557523590e-01
1.058000000000000052e+00,7.205019981475317692e-02,-2.313534624178436028e-01,9.180254517182889762e-02
1.058999999999999941e+00,1.320917335605399090e-01,-1.539619163066849872e-01,1.335195936373813341e-01
1.060000000000000053e+00,8.064840207472953604e-02,6.186812779938795359e-02,1.312449523803433105e-01
1.060999999999999943e+00,-8.449087883188353965e-02,1.661322796183482553e-01,5.853375999184919770e-03
1.062000000000000055e+00,-2.271110938449345806e-01,1.472573250312490534e-01,-1.156086433244385286e-01
1.062999999999999945e+00,-1.792492959548513953e-01,4.245420807565342819e-02,-1.496427943264299898e-01
1.064000000000000057e+00,1.828863251919236529e-02,-6.073345608944852314e-02,-6.658287716817183621e-02
1.064999999999999947e+00,2.701849359267327610e-01,-5.015271392870663397e-02,3.604729228337447133e-02
1.066000000000000059e+00,2.953664989404136687e-01,-1.781628553323719513e-02,5.985075259082598548e-02
1.066999999999999948e+00,4.826221053665157024e-02,-1.995602260760227179e-03,2.505187620592055214e-02
1.068000000000000060e+00,-1.896558072801985406e-01,-4.563701835989456002e-02,-1.166519281897315276e-02
1.068999999999999950e+00,-3.083019221189665093e-01,-6.377697489849443180e-02,-2.602223307141432809e-03
1.070000000000000062e+00,-1.871363574420340514e-01,1.816784204156857152e-02,3.356700878300696717e-02
1.070999999999999952e+00,8.681554899521909396e-02,1.105788026317014172e-01,4.751523558308514555e-02
1.072000000000000064e+00,2.409447656551271799e-01,1.456549508092938594e-01,-2.029816300359770995e-02
1.072999999999999954e+00,2.214121741432214796e-01,7.306676210381607417e-02,-8.223127897265102015e-02
1.074000000000000066e+00,1.182396065052752042e-02,-1.367954475240055201e-01,-1.125844875474868029e-01
1.074999999999999956e+00,-1.313289545624730936e-01,-2.323002276335536520e-01,-1.878627856016609277e-03
1.076000000000000068e+00,-1.394561727836123310e-01,-1.577278237985256237e-01,1.323440303009583985e-01
1.076999999999999957e+00,-4.911113860206588883e-02,5.181823027859839420e-02,1.546595264384310331e-01
1.078000000000000069e+00,1.260429397130983196e-02,2.493663887870099793e-01,7.696112639596719429e-02
1.078999999999999959e+00,5.007905705635695703e-03,2.162839054884718726e-01,-8.007924923602294243e-02
1.080000000000000071e+00,-2.519524489681778529e-02,5.789715859633267486e-02,-2.037836052203452208e-01
1.080999999999999961e+00,-3.524280901531440940e-02,-1.724624541003910716e-01,-1.353304339856098715e-01
1.082000000000000073e+00,1.166609376201467874e-01,-2.170729681741666861e-01,3.082572149961898544e-02
1.082999999999999963e+00,1.464056179264462132e-01,-8.074341376198886089e-02,1.492623703176295114e-01
1.084000000000000075e+00,7.350371059170425492e-02,1.089248265409977490e-01,1.536367726498779618e-01
1.084999999999999964e+00,-1.425112995269647576e-01,2.033062549408662101e-01,5.770372161419043237e-03
1.086000000000000076e+00,-2.566661750144239584e-01,1.050526924323052502e-01,-8.962506401818179369e-02
1.086999999999999966e+00,-1.639394636350857137e-01,-3.642159274085366230e-03,-1.180748579068242043e-01
1.088000000000000078e+00,3.995918250972099045e-02,-9.517848074058370134e-02,-7.738976336994925209e-02
1.088999999999999968e+00,2.610010358411750109e-01,-4.116535657332296566e-02,-2.287319124968107266e-04
1.090000000000000080e+00,2.995695589870554509e-01,1.353257128722395314e-02,5.029684281383570155e-02
1.090999999999999970e+00,4.184516363671055006e-02,-3.073071325957157582e-02,-5.881182327676350019e-03
1.092000000000000082e+00,-2.241494890103130910e-01,-2.063424469932951394e-02,5.066727550276901339e-03
1.092999999999999972e+00,-3.202594554128041504e-01,-4.393479518573455145e-02,9.830687948368471707e-03
1.094000000000000083e+00,-1.897085891320635376e-01,1.126441935985761887e-02,7.203421885964822469e-02
1.094999999999999973e+00,9.727690316562084827e-02,1.387268191862894851e-01,6.807328361865548627e-02
1.096000000000000085e+00,2.580688455128130054e-01,1.377092988978098065e-01,-8.821370856817832215e-03
1.096999999999999975e+00,2.053544438226601598e-01,1.791779313472957949e-02,-1.005925758761042899e-01
1.098000000000000087e+00,4.522707840007132371e-03,-1.717747017255032427e-01,-1.640813273987017651e-01
1.098999999999999977e+00,-1.247901657482632931e-01,-2.417038062049902403e-01,-3.461369381266830858e-02
1.100000000000000089e+00,-1.020182573713111079e-01,-9.639807277173043087e-02,1.193140329711501607e-01
1.100999999999999979e+00,-3.474180092689202470e-02,1.059353607778871220e-01,2.051629463428032707e-01
1.102000000000000091e+00,-6.617930112920398025e-03,2.489840907852335916e-01,8.208398567804703339e-02
1.102999999999999980e+00,-2.744307658784877341e-02,1.689255033772385783e-01,-8.297977115070100107e-02
1.104000000000000092e+00,-1.956496457595502045e-02,-4.818175082049206553e-02,-2.039762684852992614e-01
1.104999999999999982e+00,1.246577579706261958e-03,-2.020880959540835853e-01,-1.608003093008633366e-01
1.106000000000000094e+00,1.027873643622195382e-01,-2.016359684665583185e-01,-8.349869629565858861e-03
1.106999999999999984e+00,1.700306039522182511e-01,3.068381479580385620e-03,1.131006753862057179e-01
1.108000000000000096e+00,7.431424678347757495e-02,1.482947113058976640e-01,1.404699884902007589e-01
1.108999999999999986e+00,-1.384723588100537639e-01,1.488210357717456300e-01,5.015571382286329594e-02
1.110000000000000098e+00,-2.595102838833251990e-01,6.467587913320363424e-02,-4.678029562411641779e-02
1.110999999999999988e+00,-1.797417945430764552e-01,-4.503144086332214885e-02,-1.271656309389962713e-01
1.112000000000000099e+00,7.958372220924075924e-02,-2.302578427689402213e-02,-4.932200254441927029e-02
1.112999999999999989e+00,2.945145916493470128e-01,2.344283772551564518e-02,2.613660681934996260e-02
1.114000000000000101e+00,2.755102645363112779e-01,1.684039235036931617e-04,6.579518698417752276e-02
1.114999999999999991e+00,6.316938538540234349e-02,-1.101700718331132846e-02,1.798205376463469021e-02
1.116000000000000103e+00,-2.112454423973761930e-01,-1.102615803333974048e-01,-4.161712430183717171e-02
1.116999999999999993e+00,-2.983129163437041598e-01,-1.953377772309529761e-02,2.837949946408771518e-02
1.118000000000000105e+00,-1.291138385413580503e-01,7.895288573201354743e-02,7.954624395388612546e-02
1.118999999999999995e+00,1.078367208393505583e-01,1.569547369059162423e-01,7.161966786657006367e-02
1.120000000000000107e+00,2.324998646441892858e-01,1.068782183356970644e-01,-1.308173559335724066e-02
1.120999999999999996e+00,1.611742498228656284e-01,-7.357200188903556537e-02,-8.426115492787865369e-02
1.122000000000000108e+00,-2.819806515238664976e-02,-2.245868085516359580e-01,-1.283699396097056356e-01
1.122999999999999998e+00,-1.220261119080768147e-01,-2.087068478993992227e-01,-5.322265555961717270e-02
1.124000000000000110e+00,-8.780266901015816583e-02,-2.841333566705118996e-02,1.396002455652056717e-01
1.125000000000000000e+00,-1.998483413919901336e-02,1.791424604531091924e-01,1.868733395563675348e-01
1.125999999999999890e+00,1.162698297778875720e-02,2.595328099863912219e-01,1.591053486203366785e-01
1.127000000000000002e+00,-3.090537071275163347e-02,1.134919899085871237e-01,-3.195228231819417092e-02
1.127999999999999892e+00,-5.206575253685156307e-02,-7.403483901868543327e-02,-1.915139065053146628e-01
1.129000000000000004e+00,2.609961008738017479e-02,-2.405183186031142062e-01,-1.320607749565508027e-01
1.129999999999999893e+00,1.302923905794457493e-01,-1.590156443839596534e-01,-2.059657908452607392e-02
1.131000000000000005e+00,1.580177164330098527e-01,3.678858588549311498e-02,1.406478955513126294e-01
1.131999999999999895e+00,8.677842063804035166e-02,1.449365270392015959e-01,1.466522193809175756e-01
1.133000000000000007e+00,-1.579245953139992442e-01,1.226193495645368503e-01,8.818668876775798138e-02
1.133999999999999897e+00,-2.863688095620847696e-01,-7.622575555292353255e-03,-1.702164500925386695e-02
1.135000000000000009e+00,-1.815387365781876705e-01,-5.061134435845379698e-02,-1.251808732534455681e-01
1.135999999999999899e+00,8.810414510025098289e-02,-2.005721291779738111e-02,-7.451283547028889065e-02
1.137000000000000011e+00,2.974811865097869434e-01,1.556070112388011073e-02,-6.004986878035374794e-03
1.137999999999999901e+00,3.058236586375714383e-01,-1.351125408871521258e-02,4.398679060857667994e-02
1.139000000000000012e+00,1.405156284015111889e-02,-5.484584278339610375e-02,3.020451067497200576e-02
1.139999999999999902e+00,-2.332510513819852083e-01,-7.995721392985156994e-02,-4.043873689271388489e-02
1.141000000000000014e+00,-3.025141477939952139e-01,-2.528592923267579048e-02,7.677710061606194021e-03
1.141999999999999904e+00,-1.471307270591254157e-01,1.208782556865077989e-01,3.958792983572255453e-02
1.143000000000000016e+00,1.343024549229790143e-01,1.807198049935796191e-01,5.651145463324375867e-02
1.143999999999999906e+00,2.108218174922039667e-01,9.943063385562662948e-02,1.816505073204623816e-02
1.145000000000000018e+00,1.511195878414990645e-01,-7.895284297557640663e-02,-9.404821988273386058e-02
1.145999999999999908e+00,-1.786359004855734428e-02,-2.695529023940946844e-01,-1.539452710286194348e-01
1.147000000000000020e+00,-1.146904758640198696e-01,-1.767414924446866487e-01,-5.410210118578899496e-02
1.147999999999999909e+00,-7.273205726350014111e-02,5.093474912134199339e-02,6.360669762834866847e-02
1.149000000000000021e+00,-7.436145297681060265e-03,2.156625937516145342e-01,2.060595228387963607e-01
1.149999999999999911e+00,-9.645108885116096195e-03,2.494114470364555414e-01,1.410864676775269722e-01
1.151000000000000023e+00,-9.177757696541405386e-02,5.028665275786249611e-02,-7.096410286888848225e-04
1.151999999999999913e+00,-9.405042437098215524e-02,-1.725648105938107912e-01,-1.507321938261006744e-01
1.153000000000000025e+00,-8.636802938088272708e-03,-2.121513775951174019e-01,-1.673857447808392851e-01
1.153999999999999915e+00,1.513443234416796124e-01,-1.231009165890901702e-01,-7.124452351710237885e-02
1.155000000000000027e+00,1.832752904016360929e-01,6.660339555488584140e-02,8.548465814171436750e-02
1.155999999999999917e+00,7.265210112966788425e-02,1.347905514077639699e-01,1.735003610859572054e-01
1.157000000000000028e+00,-1.746267217328990318e-01,1.005182918609740239e-01,1.172273680593153150e-01
1.157999999999999918e+00,-3.050197823840966604e-01,-2.592011697281892957e-02,-3.422255956579460523e-02
1.159000000000000030e+00,-1.727815234558957858e-01,-3.939102837227134724e-02,-1.020835881524191080e-01
1.159999999999999920e+00,1.035526123192891945e-01,1.965522606772326323e-03,-6.631561349881433254e-02
1.161000000000000032e+00,3.072414670490786204e-01,1.992865601516953869e-02,1.027201904624290216e-02
1.161999999999999922e+00,2.576519781356041428e-01,1.515049020510804770e-02,2.055144899818899668e-02
1.163000000000000034e+00,3.619421536591430066e-02,-1.097174546794001532e-01,1.474112032895357437e-02
1.163999999999999924e+00,-2.527533517515946349e-01,-9.362794707121580018e-02,-3.980677726413410500e-02
1.165000000000000036e+00,-3.024105461901703262e-01,4.406557148275716540e-02,-1.333373162552501951e-03
1.165999999999999925e+00,-1.219281353939819373e-01,1.771340324884129458e-01,7.055584706887543800e-02
1.167000000000000037e+00,1.176717554903600749e-01,1.527500398265535797e-01,7.863310195831432758e-02
1.167999999999999927e+00,2.011867514713626404e-01,4.428161014400314871e-02,5.052068751372981031e-02
1.169000000000000039e+00,1.414846116925985442e-01,-1.716495218840067283e-01,-1.164782879104416385e-01
1.169999999999999929e+00,-1.693144660079664784e-02,-2.832816349800479916e-01,-1.522687384499328000e-01
1.171000000000000041e+00,-9.547892761902845860e-02,-1.486615678622588699e-01,-1.007134368125867929e-01
1.171999999999999931e+00,-2.425204363191161422e-02,1.004428149118767322e-01,5.505953356056484532e-02
1.173000000000000043e+00,2.123855481764778605e-02,2.603656652625021550e-01,1.863719820722363751e-01
1.173999999999999932e+00,-2.493668264736400089e-02,1.833764992299769248e-01,1.516859790205881964e-01
1.175000000000000044e+00,-6.596445913612923595e-02,-5.039932698141946776e-02,2.099797557062240555e-02
1.175999999999999934e+00,-6.213855415821142175e-02,-2.018020927265130327e-01,-1.491565849085403905e-01
1.177000000000000046e+00,3.723584245303266510e-02,-1.592497942197469152e-01,-1.926386364747249003e-01
1.177999999999999936e+00,1.888087067092982518e-01,-2.227436275656975717e-02,-8.331501268012955763e-02
1.179000000000000048e+00,2.175958539426877947e-01,5.687867627239020368e-02,1.087530501570210112e-01
1.179999999999999938e+00,3.320074118609336877e-02,1.253478526214701905e-01,1.424029665603782913e-01
1.181000000000000050e+00,-2.083298803661073062e-01,4.438347909463682961e-02,1.158826431493533704e-01
