time,acc_x,acc_y,acc_z
0.000000000000000000e+00,-1.297747707260652750e-01,-1.985373900989414186e-01,4.432402978625309478e-03
1.000000000000000021e-03,-1.667993312192338762e-01,-2.265229926818116690e-01,-6.348737336439783281e-03
2.000000000000000042e-03,-1.686867805096887718e-01,-2.352656092933130827e-01,-1.961775055854936278e-02
3.000000000000000062e-03,-1.893880342345015677e-01,-2.523430461388567192e-01,-2.971379473078430977e-02
4.000000000000000083e-03,-2.150779203709943244e-01,-2.545066460256967811e-01,-3.529021733427477325e-02
5.000000000000000104e-03,-2.400241743232957303e-01,-2.631339077968040674e-01,-5.915087378905462684e-02
6.000000000000000125e-03,-2.638200783517866133e-01,-2.842011206705999382e-01,-7.724442831250963315e-02
7.000000000000000146e-03,-2.888294208954577669e-01,-2.947393847958155177e-01,-8.558474547375768959e-02
8.000000000000000167e-03,-2.763031626692462051e-01,-3.130241393914587889e-01,-1.127833971429133553e-01
8.999999999999999320e-03,-3.024466169896457002e-01,-3.010114939208133333e-01,-1.261099083696610446e-01
1.000000000000000021e-02,-3.097002323501237830e-01,-3.293822759648112330e-01,-1.207501714952986943e-01
1.099999999999999936e-02,-3.428647416323731267e-01,-3.244637679226348714e-01,-1.423994866027625539e-01
1.200000000000000025e-02,-3.550153132278301427e-01,-3.341388855751744047e-01,-1.435981579968300947e-01
1.299999999999999940e-02,-3.661864548400351471e-01,-3.300825372315894235e-01,-1.625881852389937376e-01
1.400000000000000029e-02,-3.879810498153744014e-01,-3.285485138843449171e-01,-1.781457639914495183e-01
1.499999999999999944e-02,-3.963835859018874364e-01,-3.443008084126769064e-01,-1.773418238372823641e-01
1.600000000000000033e-02,-4.035432102125040554e-01,-3.328136385792732077e-01,-2.050669281230934893e-01
1.700000000000000122e-02,-4.077633864885398252e-01,-3.457581141511220091e-01,-2.021478117793068519e-01
1.799999999999999864e-02,-4.054663475476782408e-01,-3.470675842198104877e-01,-2.048600293402245420e-01
1.899999999999999953e-02,-4.165511442988261703e-01,-3.334967507795015829e-01,-2.134547450276210734e-01
2.000000000000000042e-02,-4.331333280857083134e-01,-3.423240842198646550e-01,-2.312250282955288505e-01
2.100000000000000130e-02,-4.258968121275739094e-01,-3.164985257041935673e-01,-2.468281995568880338e-01
2.199999999999999872e-02,-4.267955443711841657e-01,-3.243288977610492840e-01,-2.435512746893020997e-01
2.299999999999999961e-02,-4.221088769838489685e-01,-3.315609734195238967e-01,-2.272162798838270603e-01
2.400000000000000050e-02,-4.227374008037576569e-01,-3.115720870589046010e-01,-2.480084183091225136e-01
2.500000000000000139e-02,-4.271793441290466231e-01,-3.129099545463837617e-01,-2.471755184367740443e-01
2.599999999999999881e-02,-4.115019896997282323e-01,-2.903801139423196620e-01,-2.521184670024361196e-01
2.699999999999999969e-02,-4.157015842140685535e-01,-2.873868891290656813e-01,-2.636708931570923564e-01
2.800000000000000058e-02,-4.061194390955452649e-01,-2.753313227273672115e-01,-2.533426036012814686e-01
2.900000000000000147e-02,-4.078281973333147681e-01,-2.589102125098420304e-01,-2.611875781683264952e-01
2.999999999999999889e-02,-4.005938734518619260e-01,-2.340710533866824927e-01,-2.444639858568639357e-01
3.099999999999999978e-02,-3.761244139966649636e-01,-2.402070586114268824e-01,-2.524649188781546427e-01
3.200000000000000067e-02,-3.537385350938058171e-01,-2.170394600490705150e-01,-2.577834826689468506e-01
3.300000000000000155e-02,-3.586786248263387211e-01,-1.870500529329887363e-01,-2.583553038557179216e-01
3.400000000000000244e-02,-3.390380654282676987e-01,-1.851455419494137944e-01,-2.442364892681520294e-01
3.500000000000000333e-02,-3.405766499766197941e-01,-1.651735450805116023e-01,-2.522358252763591269e-01
3.599999999999999728e-02,-3.208113283792429771e-01,-1.463978943561875801e-01,-2.322399270483838651e-01
3.699999999999999817e-02,-2.864280459957554981e-01,-1.255432113608706546e-01,-2.392337794541526397e-01
3.799999999999999906e-02,-2.866610561622181530e-01,-1.135498761468110990e-01,-2.122910423742787600e-01
3.899999999999999994e-02,-2.486298013571826282e-01,-8.928639085364060979e-02,-2.113559816440408190e-01
4.000000000000000083e-02,-2.456378637553104649e-01,-7.494927004418944216e-02,-2.224004766501508634e-01
4.100000000000000172e-02,-2.235010347244550943e-01,-4.464300042023450210e-02,-2.095020536741805661e-01
4.200000000000000261e-02,-1.975597987901357988e-01,-3.986808324602725967e-02,-1.907975939011270494e-01
4.299999999999999656e-02,-1.731969850133252553e-01,-2.339006092576069451e-02,-1.779702121924600366e-01
4.399999999999999745e-02,-1.525797020057560183e-01,-3.884212482460519186e-03,-1.715808711207954529e-01
4.499999999999999833e-02,-1.238038677787549197e-01,1.997613882947623862e-02,-1.611223422200665223e-01
4.599999999999999922e-02,-9.866413128750496642e-02,4.362969419982219016e-02,-1.325065433214018540e-01
4.700000000000000011e-02,-7.832971306108339749e-02,5.343548358462878178e-02,-1.332699563239487794e-01
4.800000000000000100e-02,-5.417970851111802988e-02,7.571581766029436555e-02,-1.370305077646562231e-01
4.900000000000000189e-02,-3.722442222860675165e-02,1.025493093171109954e-01,-1.149975953829534547e-01
5.000000000000000278e-02,-1.666143750687578209e-02,1.098775626721070625e-01,-1.057238860061260194e-01
5.099999999999999672e-02,2.174572483227313335e-02,1.459374295997144522e-01,-8.126700836367974079e-02
5.199999999999999761e-02,4.041561392521560159e-02,1.376625670298540216e-01,-6.380036534406646753e-02
5.299999999999999850e-02,5.462232517256504494e-02,1.625002662684011945e-01,-6.607929767848319536e-02
5.399999999999999939e-02,7.227490588416533857e-02,1.899988635421943906e-01,-5.084177575136334531e-02
5.500000000000000028e-02,1.082197463929543413e-01,1.859260066171866954e-01,-2.288018957456793359e-02
5.600000000000000117e-02,1.252923101639162595e-01,2.079770398360521466e-01,-3.339082621418967833e-02
5.700000000000000205e-02,1.566337558353929904e-01,2.439034537085789933e-01,6.770957687887811140e-03
5.800000000000000294e-02,1.731509321138764435e-01,2.442266947068396921e-01,6.846734844847269554e-03
5.899999999999999689e-02,1.982917777309857466e-01,2.502182110064024023e-01,1.731621198435449871e-02
5.999999999999999778e-02,2.147732710722125848e-01,2.742854276985542961e-01,3.159170801114426913e-02
6.099999999999999867e-02,2.360341988406928770e-01,2.854389764928180750e-01,5.876584418528101733e-02
6.199999999999999956e-02,2.391061189808364462e-01,3.010819924980395745e-01,7.764364433190003301e-02
6.300000000000000044e-02,2.695522228674960274e-01,2.956340540546505968e-01,6.944445932274202760e-02
6.400000000000000133e-02,2.973957598806892255e-01,3.093220190079653542e-01,8.337829896831086551e-02
6.500000000000000222e-02,2.939533868194131871e-01,3.203982294288081345e-01,1.099929471135985548e-01
6.600000000000000311e-02,3.349324031819049807e-01,3.345890741137366731e-01,1.307057098561839881e-01
6.700000000000000400e-02,3.362081444936585450e-01,3.290300145278182709e-01,1.316362155305881854e-01
6.800000000000000488e-02,3.431272995732618236e-01,3.295469229247749432e-01,1.503198933862224529e-01
6.900000000000000577e-02,3.644574413235933119e-01,3.419770599210931739e-01,1.549413529569532710e-01
7.000000000000000666e-02,3.821091982735360104e-01,3.324591290424114831e-01,1.776869696320341752e-01
7.099999999999999367e-02,3.858915597138249387e-01,3.335379396186829437e-01,1.904549388178974623e-01
7.199999999999999456e-02,3.944994277112596759e-01,3.442487006944626171e-01,1.849851693613012160e-01
7.299999999999999545e-02,4.050079818952960764e-01,3.341007907096234519e-01,1.943453662750983524e-01
7.399999999999999634e-02,4.095862241183558239e-01,3.373593827111000532e-01,2.057260003983087393e-01
7.499999999999999722e-02,4.057165227633082738e-01,3.356395463665484136e-01,2.031777765583976936e-01
7.599999999999999811e-02,4.327601088660775752e-01,3.385292172748534112e-01,2.329772389946601630e-01
7.699999999999999900e-02,4.203491674294443370e-01,3.427347934888793635e-01,2.200072762621450295e-01
7.799999999999999989e-02,4.158934254067123693e-01,3.086903882677397570e-01,2.367904366220973389e-01
7.900000000000000078e-02,4.274593927812117000e-01,3.098997374834704943e-01,2.329497006479419041e-01
8.000000000000000167e-02,4.184029260166806652e-01,3.149440783600762628e-01,2.493026930138684261e-01
8.100000000000000255e-02,4.186897520829614416e-01,2.928294183898959568e-01,2.464993630369296806e-01
8.200000000000000344e-02,4.180749024632324784e-01,2.978539313340896055e-01,2.457524446917577765e-01
8.300000000000000433e-02,4.118658046033725206e-01,2.768687968165931546e-01,2.503260053098432247e-01
8.400000000000000522e-02,3.912443581697851447e-01,2.580798847034230237e-01,2.514030371488005788e-01
8.500000000000000611e-02,3.924603361543059776e-01,2.493279913310580131e-01,2.388887197412953856e-01
8.599999999999999312e-02,3.959083866656654682e-01,2.442453726317861673e-01,2.698714506857093909e-01
8.699999999999999400e-02,3.711016347896623491e-01,2.331778184902875140e-01,2.437307134388697338e-01
8.799999999999999489e-02,3.618042238024368751e-01,2.188927262255664086e-01,2.606324426888618206e-01
8.899999999999999578e-02,3.581915213200096981e-01,1.824633517687075934e-01,2.513952210714082702e-01
8.999999999999999667e-02,3.483449778116266549e-01,1.696191791819506023e-01,2.500203998650302184e-01
9.099999999999999756e-02,3.134115639087579619e-01,1.627241395912216726e-01,2.594390351430116426e-01
9.199999999999999845e-02,3.208568239580415482e-01,1.476286037911152815e-01,2.418813074310360023e-01
9.299999999999999933e-02,2.831873468042543363e-01,1.223799597391058147e-01,2.357258445204675201e-01
9.400000000000000022e-02,2.657879217689835261e-01,9.715862118042940809e-02,2.226317811143377623e-01
9.500000000000000111e-02,2.566277401615389420e-01,8.689422875037017269e-02,2.280233316569116042e-01
9.600000000000000200e-02,2.374896306403331547e-01,6.123891449551480820e-02,2.126412956239293051e-01
9.700000000000000289e-02,2.198118579305306242e-01,3.328174114033168735e-02,1.961843362458527140e-01
9.800000000000000377e-02,2.024674968224663696e-01,3.087567616493445272e-02,2.028059537278962821e-01
9.900000000000000466e-02,1.619905862187784595e-01,1.300856947482986921e-02,1.893936079632094760e-01
1.000000000000000056e-01,1.700345068890216638e-01,-1.008343262212159884e-02,1.776693249462361346e-01
1.010000000000000064e-01,1.288854369681254330e-01,-2.883823678540619467e-02,1.626732135629529175e-01
1.019999999999999934e-01,1.143168650334444314e-01,-5.143749818226876769e-02,1.479108137555108782e-01
1.029999999999999943e-01,7.572528302723487148e-02,-8.060961083143038108e-02,1.483666989003702141e-01
1.039999999999999952e-01,5.838944645607965084e-02,-9.049320381660758139e-02,1.263183314022482406e-01
1.049999999999999961e-01,3.491529903541833874e-02,-1.222531703172368422e-01,1.203915578293973943e-01
1.059999999999999970e-01,1.467767049891936446e-02,-1.198855446995512330e-01,1.057663703808851829e-01
1.069999999999999979e-01,-1.036383629472996913e-02,-1.531720614308870465e-01,7.925181848383992811e-02
1.079999999999999988e-01,-3.225291969696294364e-02,-1.413230448322728150e-01,7.510979743539422659e-02
1.089999999999999997e-01,-6.067059526984984463e-02,-1.803736106742156176e-01,7.187045665206635847e-02
1.100000000000000006e-01,-7.829162330906079548e-02,-1.833556499002650941e-01,5.284979493069701106e-02
1.110000000000000014e-01,-1.079286704921254142e-01,-2.277223048299285291e-01,3.830947691581951253e-02
1.120000000000000023e-01,-1.342146732981515656e-01,-2.231318213644258586e-01,1.894908709876820183e-02
1.130000000000000032e-01,-1.533763094691975581e-01,-2.299967799053362350e-01,-3.352273783889185132e-03
1.140000000000000041e-01,-1.724365883998625615e-01,-2.552679898297114391e-01,8.478353377722215589e-03
1.150000000000000050e-01,-2.009810256062355693e-01,-2.697909545992800417e-01,-8.931655926294461423e-03
1.160000000000000059e-01,-2.158939964250480015e-01,-2.765697598535364343e-01,-3.796368426938999396e-02
1.170000000000000068e-01,-2.518379789156775517e-01,-2.882049022489659440e-01,-4.418872986724959456e-02
1.179999999999999938e-01,-2.721422105129026603e-01,-2.989479841855826603e-01,-6.912096502044413893e-02
1.189999999999999947e-01,-2.837259113409403288e-01,-3.143680306005196545e-01,-7.277368026674305157e-02
1.199999999999999956e-01,-2.968456613610757633e-01,-3.173122020256492481e-01,-9.267499320064251367e-02
1.209999999999999964e-01,-3.147092556304371680e-01,-3.224234205996330260e-01,-1.058184243928001061e-01
1.219999999999999973e-01,-3.330268387686021736e-01,-3.318007109350508688e-01,-1.164507993857377410e-01
1.229999999999999982e-01,-3.619572369325830818e-01,-3.494187001818482852e-01,-1.134203319297938523e-01
1.239999999999999991e-01,-3.583023309685335334e-01,-3.250781308780119061e-01,-1.515341031179651132e-01
1.250000000000000000e-01,-3.744438894109898275e-01,-3.392680752206611583e-01,-1.508259390712689552e-01
1.260000000000000009e-01,-3.704201122196731366e-01,-3.455677275467430865e-01,-1.603873380733337461e-01
1.270000000000000018e-01,-3.804738967875575528e-01,-3.349407442332568152e-01,-1.745516553159597029e-01
1.280000000000000027e-01,-4.018266781112107000e-01,-3.427866280075080319e-01,-1.911303500063213090e-01
1.290000000000000036e-01,-4.157203118409607545e-01,-3.332675732078743125e-01,-1.864811735193434572e-01
1.300000000000000044e-01,-4.237385492800946341e-01,-3.256783700916954238e-01,-2.033759002361504586e-01
1.310000000000000053e-01,-4.140586130144254251e-01,-3.272443092689040767e-01,-2.188678456472275546e-01
1.320000000000000062e-01,-4.227811784768784054e-01,-3.252981077243482511e-01,-2.288660837954115124e-01
1.330000000000000071e-01,-4.101272426077698374e-01,-3.175279086712559096e-01,-2.224664167816820248e-01
1.340000000000000080e-01,-4.190326086853591314e-01,-3.235502878498661139e-01,-2.354792444610819546e-01
1.350000000000000089e-01,-4.223811419915519116e-01,-3.137193909061737895e-01,-2.417083884975369523e-01
1.360000000000000098e-01,-4.171821057391404408e-01,-2.984194366366431650e-01,-2.449473149317311360e-01
1.370000000000000107e-01,-4.236781546271977117e-01,-2.927798610358822162e-01,-2.386546765983008633e-01
1.380000000000000115e-01,-4.364694755877399635e-01,-2.903236966295669186e-01,-2.408018791418465587e-01
1.390000000000000124e-01,-4.154307068699400474e-01,-2.873691716613505087e-01,-2.618330559759672882e-01
1.400000000000000133e-01,-4.091427856731268409e-01,-2.570789236204496508e-01,-2.668129856675303113e-01
1.409999999999999865e-01,-3.974912857857199056e-01,-2.390906266606974417e-01,-2.603461145876443950e-01
1.419999999999999873e-01,-4.005260432374697643e-01,-2.236539410448420140e-01,-2.633019131568988258e-01
1.429999999999999882e-01,-4.014903640435312782e-01,-2.188848274867145893e-01,-2.671786382406886040e-01
1.439999999999999891e-01,-3.625672302196953911e-01,-2.054276665398790669e-01,-2.420770594343768789e-01
1.449999999999999900e-01,-3.535565557025225902e-01,-1.706031952875431967e-01,-2.548738984586910172e-01
1.459999999999999909e-01,-3.268795983330219923e-01,-1.463307899303508963e-01,-2.466143782892342706e-01
1.469999999999999918e-01,-3.336495630477318564e-01,-1.475945768058508634e-01,-2.407572999930661650e-01
1.479999999999999927e-01,-3.137249519795237140e-01,-1.157607175370689023e-01,-2.405576675956153376e-01
1.489999999999999936e-01,-2.912220760739783754e-01,-1.015397767461368311e-01,-2.357261140636984775e-01
1.499999999999999944e-01,-2.651423052959878124e-01,-8.594083020602205636e-02,-2.210220675606800189e-01
1.509999999999999953e-01,-2.666277904736697457e-01,-6.119903771452165492e-02,-2.255440761412945971e-01
1.519999999999999962e-01,-2.420450242495805759e-01,-5.344448162131740232e-02,-2.175425424476523650e-01
1.529999999999999971e-01,-2.103417864187303588e-01,-3.005965788220853196e-02,-2.035755961179205875e-01
1.539999999999999980e-01,-2.010219481106472472e-01,-1.616577271314325465e-02,-1.869591677691463949e-01
1.549999999999999989e-01,-1.745872886570424831e-01,5.430985965987425619e-03,-1.924587755610119022e-01
1.559999999999999998e-01,-1.729199629173044650e-01,2.847044800546847179e-02,-1.805326891209904083e-01
1.570000000000000007e-01,-1.257085836911387700e-01,4.292324955485435356e-02,-1.657904182884312461e-01
1.580000000000000016e-01,-1.123244738221281375e-01,6.307174001680508624e-02,-1.630451694889084036e-01
1.590000000000000024e-01,-7.057015304701166891e-02,8.883103362986262408e-02,-1.419453839056212252e-01
1.600000000000000033e-01,-4.725637308454562480e-02,1.190062205524754640e-01,-1.341662786353254588e-01
1.610000000000000042e-01,-2.516097493365524254e-02,9.944908722234747922e-02,-1.323913972651935833e-01
1.620000000000000051e-01,-1.136489212108702726e-02,1.424662977812583831e-01,-1.168481559542472459e-01
1.630000000000000060e-01,3.920559478242766245e-03,1.481354077420427018e-01,-9.232350450202171654e-02
1.640000000000000069e-01,3.439050687849935090e-02,1.647742982060679540e-01,-8.974163916249902617e-02
1.650000000000000078e-01,5.456104281708669401e-02,1.857596844696834393e-01,-7.970424227694650199e-02
1.660000000000000087e-01,8.373559374830558122e-02,2.019307487511126098e-01,-5.119030911171058851e-02
1.670000000000000095e-01,1.014102252406819948e-01,2.212783439649079753e-01,-4.155682702430259223e-02
1.680000000000000104e-01,1.221402454437487684e-01,2.280649742013889647e-01,-2.885684229218003771e-02
1.690000000000000113e-01,1.450976830071981916e-01,2.408593849190796277e-01,-1.253077860044890524e-02
1.700000000000000122e-01,1.749290499123473952e-01,2.599757858643242936e-01,-2.095798641675119135e-03
1.710000000000000131e-01,1.918432294989664000e-01,2.882152381442538158e-01,1.378125536787998436e-02
1.719999999999999862e-01,2.201850671044576213e-01,2.896088301317721325e-01,4.441820702625672024e-02
1.729999999999999871e-01,2.550380005683140494e-01,2.944462364046850911e-01,3.701607552375481974e-02
1.739999999999999880e-01,2.665389709091011694e-01,3.104575742511684333e-01,5.131811790849433869e-02
1.749999999999999889e-01,2.732958213614973264e-01,3.185476688106311238e-01,5.911259332396696931e-02
1.759999999999999898e-01,2.916291561697968437e-01,3.232121416073945319e-01,8.452783733532702459e-02
1.769999999999999907e-01,3.145577463120838857e-01,3.272864173066248883e-01,8.617031893886389904e-02
1.779999999999999916e-01,3.363765953160080535e-01,3.389869088297582378e-01,1.070965167082878200e-01
1.789999999999999925e-01,3.505305267128606683e-01,3.236946509379378112e-01,1.156933842504019178e-01
1.799999999999999933e-01,3.565184421016977523e-01,3.330718225620167283e-01,1.219847040824347667e-01
1.809999999999999942e-01,3.683659393957003370e-01,3.354483031516503067e-01,1.336933082612688783e-01
1.819999999999999951e-01,3.806093879095957533e-01,3.531789887095611591e-01,1.712770492022648305e-01
1.829999999999999960e-01,3.936212587605310564e-01,3.414771195351029576e-01,1.641489189481569189e-01
1.839999999999999969e-01,3.957566188484242797e-01,3.468849003306819778e-01,1.781610532970570038e-01
1.849999999999999978e-01,4.044129394824753643e-01,3.482853082167507441e-01,1.885890858150598426e-01
1.859999999999999987e-01,4.174993423861546038e-01,3.328451533366412751e-01,2.036209483187940428e-01
1.869999999999999996e-01,4.246965370487130742e-01,3.186384076434594648e-01,2.064649514230131599e-01
1.880000000000000004e-01,4.274968037977834867e-01,3.159116592013602731e-01,2.096219681831240911e-01
1.890000000000000013e-01,4.244027214823958838e-01,3.244053211861781527e-01,2.245667924329808052e-01
1.900000000000000022e-01,4.348336031143004710e-01,3.211233338802240711e-01,2.351378607053694336e-01
1.910000000000000031e-01,4.321470779191800005e-01,3.115180738203909283e-01,2.412278030377960625e-01
1.920000000000000040e-01,4.229813304384055228e-01,2.935060017163194646e-01,2.475961664225479752e-01
1.930000000000000049e-01,4.224350180210646455e-01,2.824628728613719497e-01,2.498009992148366165e-01
1.940000000000000058e-01,4.278904027933349563e-01,2.690471403474974932e-01,2.467411676466171599e-01
1.950000000000000067e-01,4.134120086770072255e-01,2.644375090087787705e-01,2.554033389904172835e-01
1.960000000000000075e-01,3.997312392989049723e-01,2.447129242373329849e-01,2.413880910269394497e-01
1.970000000000000084e-01,3.896423627172435067e-01,2.416589881312960209e-01,2.450857504577319546e-01
1.980000000000000093e-01,3.879055361995080720e-01,2.174379129976411751e-01,2.617272280047878708e-01
1.990000000000000102e-01,3.724103088462361599e-01,2.036707075091906127e-01,2.557449014785321273e-01
2.000000000000000111e-01,3.634905733876765410e-01,1.949335330780339881e-01,2.542446202846939673e-01
2.010000000000000120e-01,3.659025346772774578e-01,1.687955159486589363e-01,2.500890666469662293e-01
2.020000000000000129e-01,3.469855579544531277e-01,1.612224546063388553e-01,2.509497560409724159e-01
2.030000000000000138e-01,3.228884976686711705e-01,1.223727652523668163e-01,2.412352386365846646e-01
2.039999999999999869e-01,3.061762618599808139e-01,1.218952990515883711e-01,2.556897859747986335e-01
2.049999999999999878e-01,2.941223077533052233e-01,9.862269074428749172e-02,2.414250829915114138e-01
2.059999999999999887e-01,2.780500883854115091e-01,8.164301371885406000e-02,2.263633904825112231e-01
2.069999999999999896e-01,2.484702970086933582e-01,6.423450110502536281e-02,2.235303876618222330e-01
2.079999999999999905e-01,2.292333056489064824e-01,3.398361626222567294e-02,2.256125899704842508e-01
2.089999999999999913e-01,2.136699141641255073e-01,1.653904889418897350e-02,2.104315100674170880e-01
2.099999999999999922e-01,2.013918100435617142e-01,3.065103356786739487e-03,2.117748926187083547e-01
2.109999999999999931e-01,1.852879667188008506e-01,-2.150419355071286204e-02,2.043159279637755399e-01
2.119999999999999940e-01,1.450349633363443858e-01,-2.934735356732806957e-02,1.916328951365565969e-01
2.129999999999999949e-01,1.219157919585221739e-01,-5.623002467539550686e-02,1.671036378786425192e-01
2.139999999999999958e-01,1.137254740459823915e-01,-7.726902554381065436e-02,1.632651893227495821e-01
2.149999999999999967e-01,8.407702861459905030e-02,-9.407470605409037900e-02,1.533464890219161103e-01
2.159999999999999976e-01,4.223653838460594834e-02,-1.059003988195454521e-01,1.296858535335206064e-01
2.169999999999999984e-01,3.449308216908165969e-02,-1.234587767080813497e-01,1.215627635700436970e-01
2.179999999999999993e-01,9.817884621489386676e-03,-1.503036824614271405e-01,1.075345772904022917e-01
2.190000000000000002e-01,-2.826920016398017793e-02,-1.780784718019568502e-01,9.993233818989806505e-02
2.200000000000000011e-01,-3.482966372576568048e-02,-1.833150456768864456e-01,9.298716033403671422e-02
2.210000000000000020e-01,-6.405129498283607115e-02,-2.020411770774354354e-01,5.918094255237384832e-02
2.220000000000000029e-01,-9.305556420906757609e-02,-2.145822751869071177e-01,7.652131286697702595e-02
2.230000000000000038e-01,-1.165402743122688350e-01,-2.357434259811010402e-01,4.950418269531825510e-02
2.240000000000000047e-01,-1.453218136636444946e-01,-2.370684810445982671e-01,3.963498149792493014e-02
2.250000000000000056e-01,-1.652667334117019771e-01,-2.745689430356580418e-01,2.079839994700911909e-02
2.260000000000000064e-01,-1.848448689541065670e-01,-2.718958161843206267e-01,3.669003967066808685e-03
2.270000000000000073e-01,-1.978416400109235529e-01,-2.864596349614864090e-01,-6.998545642275152663e-04
2.280000000000000082e-01,-2.235458185411521859e-01,-2.911855428156468473e-01,-1.308773411315397074e-02
2.290000000000000091e-01,-2.579354404703431691e-01,-2.928001421478168553e-01,-4.142895172490116545e-02
2.300000000000000100e-01,-2.605107543149183802e-01,-3.100834996917583020e-01,-5.238798635101514500e-02
2.310000000000000109e-01,-2.785935438430267586e-01,-3.214314772561365774e-01,-6.558882298845838954e-02
2.320000000000000118e-01,-2.935689682950105017e-01,-3.195372926809385006e-01,-6.692279367301977311e-02
2.330000000000000127e-01,-3.059881132561935169e-01,-3.276007179789778290e-01,-8.215713091537492352e-02
2.340000000000000135e-01,-3.222470975694540773e-01,-3.167230975752803324e-01,-9.874642722138995965e-02
2.349999999999999867e-01,-3.499190333470548198e-01,-3.292339674377919856e-01,-1.045129960011595555e-01
2.359999999999999876e-01,-3.546959747882420522e-01,-3.419206637937077797e-01,-1.219951016280979572e-01
2.369999999999999885e-01,-3.604431062693227439e-01,-3.347319858667669457e-01,-1.381306490665860642e-01
2.379999999999999893e-01,-3.942534293590197469e-01,-3.460145935096530234e-01,-1.467627141909043920e-01
2.389999999999999902e-01,-3.881966807839694611e-01,-3.473769764482700362e-01,-1.720893736014498521e-01
2.399999999999999911e-01,-4.072627103667791904e-01,-3.393275212343749847e-01,-1.767754160243987793e-01
2.409999999999999920e-01,-4.308470278000724463e-01,-3.308717929474811470e-01,-1.756443700424428767e-01
2.419999999999999929e-01,-4.174803510622330793e-01,-3.468035078677828009e-01,-1.900663273787578100e-01
2.429999999999999938e-01,-4.310608190155817976e-01,-3.241041006538158964e-01,-2.083650193327237776e-01
2.439999999999999947e-01,-4.182117866681033802e-01,-3.238705089961362305e-01,-2.205910316848471442e-01
2.449999999999999956e-01,-4.282717224497984976e-01,-3.242216396269763101e-01,-2.117353725507683526e-01
2.459999999999999964e-01,-4.300999507220849560e-01,-3.001847117366935880e-01,-2.261412507675373273e-01
2.469999999999999973e-01,-4.265279773917785566e-01,-3.045590107212571285e-01,-2.404890885088717400e-01
2.479999999999999982e-01,-4.075953206885523095e-01,-2.790669540151186068e-01,-2.489010769786350885e-01
2.489999999999999991e-01,-4.279876477018468850e-01,-2.730645713578593314e-01,-2.406835354911208147e-01
2.500000000000000000e-01,-4.196676730317672743e-01,-2.605927270678193852e-01,-2.316796633050710319e-01
2.510000000000000009e-01,-4.155421048148573715e-01,-2.400411097179596942e-01,-2.374549038054491190e-01
2.520000000000000018e-01,-4.144609467567513805e-01,-2.338626083359554853e-01,-2.445296776633815172e-01
2.530000000000000027e-01,-4.022554175945469157e-01,-2.316527093515830249e-01,-2.710471863749672750e-01
2.540000000000000036e-01,-3.880793414890696957e-01,-2.117228660628710235e-01,-2.659835421630743491e-01
2.550000000000000044e-01,-3.797995000634711849e-01,-2.011987041905356766e-01,-2.567974127525344263e-01
2.560000000000000053e-01,-3.780940765369897871e-01,-1.821127100753984207e-01,-2.424003698424311848e-01
2.570000000000000062e-01,-3.571717867917529321e-01,-1.552195737647126539e-01,-2.501557556227490542e-01
2.580000000000000071e-01,-3.362856563158076462e-01,-1.449144074238439550e-01,-2.533722110410136508e-01
2.590000000000000080e-01,-3.206306527592125422e-01,-1.219863509055618828e-01,-2.477266689819061785e-01
2.600000000000000089e-01,-3.061116633652198882e-01,-1.030527859668395468e-01,-2.421150228686705375e-01
2.610000000000000098e-01,-2.887746865592825118e-01,-8.632786404630825305e-02,-2.461600686441727803e-01
2.620000000000000107e-01,-2.744227908495344148e-01,-4.023946272682350084e-02,-2.385633252078838418e-01
2.630000000000000115e-01,-2.635544069690885505e-01,-3.821749623817775887e-02,-2.328202072981847282e-01
2.640000000000000124e-01,-2.254345651142325713e-01,-3.454814319897267505e-02,-2.162216049034514087e-01
2.650000000000000133e-01,-2.136560995286103937e-01,-1.621038727279099784e-02,-2.137121273894641849e-01
2.660000000000000142e-01,-1.849771237886479180e-01,1.477000139184549143e-02,-2.107143451565755277e-01
2.670000000000000151e-01,-1.672610924489859596e-01,2.518479967102549288e-02,-2.076578399586997414e-01
2.680000000000000160e-01,-1.474541937747577414e-01,4.541609598363964551e-02,-1.819848606599869523e-01
2.690000000000000169e-01,-1.147419222741252048e-01,6.231543757142742057e-02,-1.676590278837974679e-01
2.700000000000000178e-01,-9.909565181960400260e-02,9.302776920536202920e-02,-1.773277303473860533e-01
2.710000000000000187e-01,-7.427140270445881098e-02,1.067652065022852426e-01,-1.601771918138482909e-01
2.720000000000000195e-01,-5.117204272497006406e-02,1.291779334258336964e-01,-1.420580616398525453e-01
2.730000000000000204e-01,-2.871640201499348413e-02,1.401353859603552965e-01,-1.310507329760186301e-01
2.740000000000000213e-01,-2.232111274055146796e-03,1.656677273988629295e-01,-1.215030830919057170e-01
2.750000000000000222e-01,1.512150172117608833e-02,1.744012839650106728e-01,-1.116837336292764993e-01
2.760000000000000231e-01,5.653943713067133281e-02,1.828329960211596550e-01,-1.038783258460214409e-01
2.770000000000000240e-01,8.001667072078183507e-02,2.094352376893171552e-01,-9.581565370198699694e-02
2.780000000000000249e-01,9.449280426222503304e-02,2.285218250202089019e-01,-8.024105740262819919e-02
2.790000000000000258e-01,1.162937303685158547e-01,2.424985525187584590e-01,-5.447969646636702939e-02
2.800000000000000266e-01,1.511123257864635805e-01,2.531320624791116858e-01,-5.846445945685851964e-02
2.810000000000000275e-01,1.552422066590450067e-01,2.759538106909816269e-01,-2.900525009789483785e-02
2.819999999999999729e-01,1.746365075520700250e-01,2.773064544311413249e-01,-1.128619065636775505e-02
2.829999999999999738e-01,2.142298350551160857e-01,2.788118452728157171e-01,-8.275840274325201029e-03
2.839999999999999747e-01,2.420551721420117763e-01,2.992131395292016438e-01,1.128421648766607215e-02
2.849999999999999756e-01,2.367355744767772052e-01,3.156086737535225839e-01,4.117735819117974982e-02
2.859999999999999765e-01,2.690748629000746517e-01,3.124658655965920628e-01,3.967568249714822914e-02
2.869999999999999774e-01,2.831332918106249652e-01,3.250273434385297366e-01,6.419141614438238219e-02
2.879999999999999782e-01,3.005953852183549380e-01,3.299020309560193875e-01,6.117662757600764861e-02
2.889999999999999791e-01,3.244547244813674736e-01,3.324558772704079845e-01,7.782686122529569595e-02
2.899999999999999800e-01,3.404865486892973969e-01,3.457537439810582369e-01,9.284434772315350304e-02
2.909999999999999809e-01,3.481522973756125960e-01,3.289312472268464127e-01,1.039111808004715976e-01
2.919999999999999818e-01,3.643198057384040567e-01,3.551801362191754907e-01,1.352755233789273703e-01
2.929999999999999827e-01,3.692348548610475123e-01,3.520394842069786145e-01,1.388130839178468023e-01
2.939999999999999836e-01,3.782544559028745979e-01,3.295732213981135694e-01,1.417222817287485115e-01
2.949999999999999845e-01,3.853213201652824771e-01,3.362166999732773554e-01,1.582599337485236513e-01
2.959999999999999853e-01,3.925132311865255907e-01,3.510391530728923515e-01,1.679950392735144460e-01
2.969999999999999862e-01,4.071830343411227959e-01,3.344920021534397159e-01,1.825568676242450283e-01
2.979999999999999871e-01,4.186385332207513965e-01,3.184789974449229732e-01,1.913741085766451910e-01
2.989999999999999880e-01,4.360509533169701912e-01,3.297708996931889014e-01,2.049346646313886522e-01
2.999999999999999889e-01,4.157724219134715238e-01,3.104009972230708514e-01,2.157811694427382021e-01
3.009999999999999898e-01,4.312117833998697081e-01,3.178267699158482396e-01,2.099687581343354092e-01
3.019999999999999907e-01,4.335692169438306043e-01,3.119294344492943294e-01,2.221316268492344870e-01
3.029999999999999916e-01,4.247054266305871906e-01,2.894196149042506661e-01,2.377120297260522652e-01
3.039999999999999925e-01,4.171316904648208479e-01,2.832899771934226929e-01,2.362924847579095655e-01
3.049999999999999933e-01,4.182762668038552678e-01,2.726015752863313324e-01,2.421425274228744262e-01
3.059999999999999942e-01,4.185618029402166651e-01,2.580875608772336127e-01,2.552441210347699552e-01
3.069999999999999951e-01,4.180042408214501015e-01,2.525603737191975950e-01,2.418601156678273079e-01
3.079999999999999960e-01,4.075373542477574995e-01,2.454129751358944678e-01,2.590647242743037149e-01
3.089999999999999969e-01,4.063149319891715683e-01,2.047250321150477226e-01,2.470443735448121791e-01
3.099999999999999978e-01,3.851000867374635428e-01,2.069094132834356503e-01,2.646832334582748802e-01
3.109999999999999987e-01,3.697727080909494202e-01,1.837464404064773904e-01,2.449390127404755813e-01
3.119999999999999996e-01,3.576752324460205079e-01,1.672668336481548668e-01,2.462455652015685392e-01
3.130000000000000004e-01,3.501121770230922747e-01,1.349128684412825574e-01,2.540847430721089872e-01
3.140000000000000013e-01,3.227878060023959828e-01,1.224375559140102321e-01,2.534953768514696670e-01
3.150000000000000022e-01,3.159711310677039142e-01,1.032811285411362051e-01,2.380950690390274960e-01
3.160000000000000031e-01,3.016511755029855357e-01,9.289486494361406943e-02,2.491537356022069383e-01
3.170000000000000040e-01,2.905614728478691511e-01,6.593938638217684833e-02,2.317247321747626099e-01
3.180000000000000049e-01,2.584952657846559809e-01,5.818770460605082739e-02,2.365472824460769785e-01
3.190000000000000058e-01,2.527083631007233100e-01,3.439575205067060132e-02,2.456084995604893850e-01
3.200000000000000067e-01,2.219652495884963106e-01,1.998819084281114322e-02,2.351376885292835450e-01
3.210000000000000075e-01,2.033266435313074716e-01,-9.710421485907953093e-03,2.125112635689632434e-01
3.220000000000000084e-01,1.956466287347499999e-01,-9.365927056860880173e-03,2.209195591058566166e-01
3.230000000000000093e-01,1.787801370923375044e-01,-4.576367435581316090e-02,2.107262697699633647e-01
3.240000000000000102e-01,1.560335330583695057e-01,-6.593236195788182430e-02,1.922354944607555516e-01
3.250000000000000111e-01,1.274440660223477018e-01,-8.543787724629324509e-02,1.800654787746600594e-01
3.260000000000000120e-01,9.100815238456515244e-02,-9.362237941420503695e-02,1.869050079851952151e-01
3.270000000000000129e-01,7.475774674091775762e-02,-1.206487134689911561e-01,1.596050602164816035e-01
3.280000000000000138e-01,7.097908029605065616e-02,-1.582789013893589614e-01,1.535361038110407972e-01
3.290000000000000147e-01,1.550876958551266650e-02,-1.568265307873714653e-01,1.497093232378076122e-01
3.300000000000000155e-01,9.467330095163080470e-04,-1.611732361475808617e-01,1.401734679644108805e-01
3.310000000000000164e-01,-6.957240577655318496e-03,-1.914169381899847033e-01,1.295680256617361137e-01
3.320000000000000173e-01,-4.543596059184055319e-02,-2.038672896802724011e-01,1.056939882605307107e-01
3.330000000000000182e-01,-5.841435795360427202e-02,-2.247465035823992541e-01,1.001394951432939689e-01
3.340000000000000191e-01,-1.046067502864011095e-01,-2.609090715198207344e-01,7.416409735382706314e-02
3.350000000000000200e-01,-1.101010395351396109e-01,-2.614457551033436689e-01,6.497598430705313344e-02
3.360000000000000209e-01,-1.427066391496792652e-01,-2.791669717899915582e-01,6.031935025922290777e-02
3.370000000000000218e-01,-1.668041206045057512e-01,-2.727351854242499041e-01,3.883525324536886425e-02
3.380000000000000226e-01,-1.906110968250590287e-01,-2.814756877916388400e-01,1.864865210336364570e-02
3.390000000000000235e-01,-1.929239782239656475e-01,-3.031622210414763874e-01,7.183260251258763267e-03
3.400000000000000244e-01,-2.206465180409909466e-01,-3.055186432914808736e-01,-9.349734054529148727e-03
3.410000000000000253e-01,-2.372656815059421831e-01,-3.128880835762616330e-01,-2.124926061610630385e-02
3.420000000000000262e-01,-2.715816429273789079e-01,-3.170049665796981775e-01,-3.212173898658191029e-02
3.430000000000000271e-01,-2.809299534844499902e-01,-3.205548332668292089e-01,-5.317468305234260284e-02
3.439999999999999725e-01,-2.963155042977532738e-01,-3.373228673812690981e-01,-6.102421240016057263e-02
3.449999999999999734e-01,-3.308893146181015599e-01,-3.379263572179853070e-01,-6.976394516442405158e-02
3.459999999999999742e-01,-3.319973105681276460e-01,-3.233910425924743648e-01,-8.515473952029045668e-02
3.469999999999999751e-01,-3.475145570809408113e-01,-3.455902147676665481e-01,-9.682542136429866941e-02
3.479999999999999760e-01,-3.687167223141481487e-01,-3.434371018039325540e-01,-1.247777277849721755e-01
3.489999999999999769e-01,-3.626019168648471069e-01,-3.380756423066063610e-01,-1.159443061886226006e-01
3.499999999999999778e-01,-3.862958028703756819e-01,-3.363656545120161656e-01,-1.390067199639375140e-01
3.509999999999999787e-01,-3.971262600041181035e-01,-3.391291675964678842e-01,-1.639477151421552537e-01
3.519999999999999796e-01,-3.983026098286955308e-01,-3.307690511290933277e-01,-1.719325928053115626e-01
3.529999999999999805e-01,-4.284354017741409115e-01,-3.184507260190830302e-01,-1.776233462931151863e-01
3.539999999999999813e-01,-4.230014783997687600e-01,-3.309964232752788948e-01,-1.856748193509437928e-01
3.549999999999999822e-01,-4.233844762923086313e-01,-3.171122206950759970e-01,-1.986175452869860525e-01
3.559999999999999831e-01,-4.224857883589678287e-01,-3.048384160884198280e-01,-1.986702843688052944e-01
3.569999999999999840e-01,-4.250160261531266692e-01,-3.043902764709917608e-01,-2.149526947713214786e-01
3.579999999999999849e-01,-4.274411394022087363e-01,-2.924781749839948652e-01,-2.100608522070637751e-01
3.589999999999999858e-01,-4.339124741276579877e-01,-2.798284302243363442e-01,-2.348294125348569794e-01
3.599999999999999867e-01,-4.340960737509108047e-01,-2.751100025889477441e-01,-2.266189415518574946e-01
3.609999999999999876e-01,-4.242029293267834400e-01,-2.574792934084438323e-01,-2.417551844709231457e-01
3.619999999999999885e-01,-4.180692959043328383e-01,-2.406536013913136152e-01,-2.416802298443983810e-01
3.629999999999999893e-01,-3.977485427013536246e-01,-2.200735720414381258e-01,-2.496054236818465721e-01
3.639999999999999902e-01,-4.049302769735843022e-01,-2.227986122945901648e-01,-2.463455100779272655e-01
3.649999999999999911e-01,-3.934420731489300938e-01,-2.120662298636031007e-01,-2.554247403960752671e-01
3.659999999999999920e-01,-4.000756111298032769e-01,-1.959642534885788767e-01,-2.521248067380869040e-01
3.669999999999999929e-01,-3.766761735167549197e-01,-1.790045502451259596e-01,-2.654471237707823339e-01
3.679999999999999938e-01,-3.689741761042700241e-01,-1.561205229887988322e-01,-2.518896382452981419e-01
3.689999999999999947e-01,-3.519781628791185946e-01,-1.356397021900009603e-01,-2.467492747345980675e-01
3.699999999999999956e-01,-3.303442116716702737e-01,-1.159201595152577341e-01,-2.602595093083411859e-01
3.709999999999999964e-01,-3.183020871538654872e-01,-9.741445497590141278e-02,-2.487175860672717620e-01
3.719999999999999973e-01,-3.042117263921214620e-01,-7.195513788866715610e-02,-2.426696776439239700e-01
3.729999999999999982e-01,-2.766344763903673121e-01,-7.405061928507648827e-02,-2.515077973785903587e-01
3.739999999999999991e-01,-2.786855341176452394e-01,-4.373572310219880910e-02,-2.572665092455505009e-01
3.750000000000000000e-01,-2.461063746658916918e-01,-2.378178940261280183e-02,-2.253409885335083407e-01
3.760000000000000009e-01,-2.298751570498216157e-01,2.938859480529510543e-03,-2.405073322182220419e-01
3.770000000000000018e-01,-2.094706448775707219e-01,9.639899912417182123e-03,-2.254813221590824535e-01
3.780000000000000027e-01,-1.861276860532401767e-01,2.507648841300902376e-02,-2.255799653379313707e-01
3.790000000000000036e-01,-1.627257128076919912e-01,6.061970956488814399e-02,-2.049386991399888558e-01
3.800000000000000044e-01,-1.355149319304920497e-01,8.772004419833988320e-02,-1.870499405349787814e-01
3.810000000000000053e-01,-1.266729597562827048e-01,9.850640213415917668e-02,-1.942155709706914757e-01
3.820000000000000062e-01,-1.095390018244635083e-01,1.127482554489517980e-01,-1.888778504087898769e-01
3.830000000000000071e-01,-7.029961462082623402e-02,1.292547980566671473e-01,-1.611607248644122414e-01
3.840000000000000080e-01,-4.800905240583466793e-02,1.433289816799124816e-01,-1.603990495054217202e-01
3.850000000000000089e-01,-1.211430890245788865e-02,1.718799536743319534e-01,-1.506648794073472131e-01
3.860000000000000098e-01,-6.771773513153211792e-03,1.673354295160369987e-01,-1.230274634396261585e-01
3.870000000000000107e-01,1.406942150986265419e-02,1.984193232117271166e-01,-1.168898032411347654e-01
3.880000000000000115e-01,5.123869087517418652e-02,2.105433228589557171e-01,-1.162831818083851360e-01
3.890000000000000124e-01,7.819045487823909901e-02,2.317622193289995414e-01,-9.525551871930176828e-02
3.900000000000000133e-01,8.046953521206071103e-02,2.434989400377551572e-01,-8.003810612910676470e-02
3.910000000000000142e-01,1.058482703685920678e-01,2.489361243911109578e-01,-6.419351652412592923e-02
3.920000000000000151e-01,1.364699860718188718e-01,2.630664958728091141e-01,-6.406124458067434524e-02
3.930000000000000160e-01,1.724262771072516132e-01,2.897181878740588412e-01,-5.310902147445181049e-02
3.940000000000000169e-01,1.969966929436746672e-01,2.897150600488734851e-01,-2.877690403944797859e-02
3.950000000000000178e-01,2.054566204632229109e-01,3.069306872245108342e-01,-2.302550480518884835e-02
3.960000000000000187e-01,2.362412946006939574e-01,3.001739496440121169e-01,-4.618513888168751524e-03
3.970000000000000195e-01,2.600172270096982596e-01,3.030991619953857796e-01,1.283149774830238780e-02
3.980000000000000204e-01,2.671244554733935850e-01,3.396393392775476361e-01,2.579864233518949085e-02
3.990000000000000213e-01,3.002084099585642374e-01,3.250046899996537064e-01,4.279804510376067350e-02
4.000000000000000222e-01,3.042699949206150722e-01,3.298214977700327788e-01,5.619296539111905825e-02
4.010000000000000231e-01,3.110986199081949843e-01,3.372422295115706237e-01,7.655908003232815562e-02
4.020000000000000240e-01,3.282646491509778053e-01,3.463126409769932690e-01,1.010188730026563841e-01
4.030000000000000249e-01,3.434097903045468803e-01,3.434745633463631154e-01,9.558000488152135210e-02
4.040000000000000258e-01,3.635912385619961551e-01,3.451530039910752912e-01,1.003894042087574018e-01
4.050000000000000266e-01,3.704695500294712396e-01,3.417134138340534033e-01,1.167808776506181617e-01
4.060000000000000275e-01,3.987221539330567111e-01,3.370511979154445781e-01,1.434458045650479907e-01
4.069999999999999729e-01,3.958263653560087914e-01,3.347402147353832347e-01,1.533348179303037351e-01
4.079999999999999738e-01,4.059797533190022123e-01,3.365396537263413146e-01,1.707564720035996686e-01
4.089999999999999747e-01,4.043312729430693087e-01,3.258555435325803384e-01,1.678973466386809998e-01
4.099999999999999756e-01,4.176764358544043376e-01,3.199753481744243566e-01,1.826678522639085533e-01
4.109999999999999765e-01,4.308195773537578654e-01,3.139596348317877372e-01,2.035784588908260972e-01
4.119999999999999774e-01,4.254394967494499746e-01,3.085291395141663839e-01,2.026562545054941267e-01
4.129999999999999782e-01,4.248539180180152530e-01,2.896109506973738590e-01,1.939468819726461180e-01
4.139999999999999791e-01,4.293271077657142554e-01,2.984316971608392266e-01,2.008623073488826349e-01
4.149999999999999800e-01,4.239669523633911585e-01,2.697599502291730400e-01,2.319273819845541207e-01
4.159999999999999809e-01,4.339745732730923566e-01,2.874343375862113970e-01,2.234324099354215720e-01
4.169999999999999818e-01,4.098338464414091331e-01,2.495406874706203315e-01,2.439831435167268692e-01
4.179999999999999827e-01,4.266187536780262080e-01,2.373411942556656884e-01,2.422596553190424218e-01
4.189999999999999836e-01,4.103282631977152040e-01,2.200239367962919246e-01,2.447509998905845197e-01
4.199999999999999845e-01,4.156894648255431424e-01,2.114456121074793360e-01,2.522052882210739644e-01
4.209999999999999853e-01,3.884153290271447068e-01,1.912599839287811021e-01,2.561559703793756526e-01
4.219999999999999862e-01,3.852396306304837759e-01,1.730708012786881800e-01,2.549503563511926751e-01
4.229999999999999871e-01,3.702887569368875642e-01,1.458041510907147065e-01,2.606204069161249248e-01
4.239999999999999880e-01,3.608008037460372908e-01,1.417718898551748874e-01,2.526174891159580493e-01
4.249999999999999889e-01,3.567109654329640445e-01,1.318197126379243023e-01,2.580530353899097573e-01
4.259999999999999898e-01,3.285260317712159206e-01,9.741242176674272391e-02,2.433158510996968338e-01
4.269999999999999907e-01,3.048281793357983660e-01,7.968363325902877436e-02,2.451734176423396028e-01
4.279999999999999916e-01,3.072696680224069055e-01,7.506740594409912204e-02,2.648102831100442867e-01
4.289999999999999925e-01,2.849424570564687009e-01,3.431844315586988353e-02,2.480430148927950662e-01
4.299999999999999933e-01,2.638478411691206893e-01,4.077448074969643177e-02,2.333055452789414286e-01
4.309999999999999942e-01,2.399132521323340261e-01,1.942461527128378634e-02,2.292492018373756268e-01
4.319999999999999951e-01,2.272460991386800744e-01,-1.931937976880305358e-02,2.317300577509586179e-01
4.329999999999999960e-01,2.115676915212173215e-01,-3.147849086190714768e-02,2.151414876985583702e-01
4.339999999999999969e-01,1.843086518771781257e-01,-5.370519623423689742e-02,2.267934904303197940e-01
4.349999999999999978e-01,1.441422249093117502e-01,-7.189687865169677727e-02,2.042677923440760768e-01
4.359999999999999987e-01,1.403193491598463960e-01,-7.889316363475637472e-02,1.908181054392456277e-01
4.369999999999999996e-01,1.280758021110975087e-01,-1.028363144950753677e-01,1.883749349315747557e-01
4.380000000000000004e-01,1.027507014179238481e-01,-1.274183475024015522e-01,1.905114545524677627e-01
4.390000000000000013e-01,7.155806249480224646e-02,-1.367127698878059794e-01,1.779122482918911452e-01
4.400000000000000022e-01,4.283776538223707520e-02,-1.622085558296064434e-01,1.650516096860128457e-01
4.410000000000000031e-01,1.960675525648917367e-02,-1.739383992394858969e-01,1.455301978133696217e-01
4.420000000000000040e-01,-1.901119204564572993e-02,-1.952306480161614122e-01,1.454082852561553729e-01
4.430000000000000049e-01,-2.975085655283777816e-02,-2.175601894486498544e-01,1.291277218899320733e-01
4.440000000000000058e-01,-4.639313512176808374e-02,-2.181515697462610148e-01,1.169927736870613882e-01
4.450000000000000067e-01,-7.880780371015856656e-02,-2.263637659160647464e-01,1.185803793509600107e-01
4.460000000000000075e-01,-1.101291442010490645e-01,-2.444946184402092271e-01,9.510603291910517398e-02
4.470000000000000084e-01,-1.285839739525010406e-01,-2.531953183632181248e-01,8.276711448882440036e-02
4.480000000000000093e-01,-1.438416831466555190e-01,-2.725872820507770355e-01,6.397398598019513050e-02
4.490000000000000102e-01,-1.693587576626855717e-01,-2.847872967789483178e-01,4.983808932315945961e-02
4.500000000000000111e-01,-1.998951432032666231e-01,-2.963473383845173226e-01,4.159038350723143901e-02
4.510000000000000120e-01,-2.063124072887495830e-01,-3.254004804251375282e-01,1.343517522137847517e-02
4.520000000000000129e-01,-2.322209695849516975e-01,-3.122679705524551430e-01,1.295131965643236266e-02
4.530000000000000138e-01,-2.576497443459106473e-01,-3.271536721354884603e-01,-1.009853674679477183e-02
4.540000000000000147e-01,-2.716526142313572256e-01,-3.373466074454402608e-01,-2.744262214186630328e-02
4.550000000000000155e-01,-2.940189921180779709e-01,-3.304950691851321065e-01,-3.974014467317043414e-02
4.560000000000000164e-01,-3.142534225158891692e-01,-3.314772963420100083e-01,-4.242205426722012174e-02
4.570000000000000173e-01,-3.332256444843538778e-01,-3.437724814357491221e-01,-7.285489273405573729e-02
4.580000000000000182e-01,-3.356196907657819639e-01,-3.504663612705078424e-01,-7.577367590349209925e-02
4.590000000000000191e-01,-3.571950330764572246e-01,-3.421478587110985403e-01,-1.016069939449129739e-01
4.600000000000000200e-01,-3.838172756052185552e-01,-3.555078328268448939e-01,-1.039575016463634566e-01
4.610000000000000209e-01,-3.710798056174726134e-01,-3.430908616267012712e-01,-1.109040315057339410e-01
4.620000000000000218e-01,-4.024087626398242246e-01,-3.427346286728081837e-01,-1.376766663940364732e-01
4.630000000000000226e-01,-4.071074269568150106e-01,-3.292579622612878398e-01,-1.388310679357559196e-01
4.640000000000000235e-01,-4.146679047079495639e-01,-3.303285202908316509e-01,-1.539334440651357327e-01
4.650000000000000244e-01,-4.128932171109447880e-01,-3.233564999550685437e-01,-1.696374535759354318e-01
4.660000000000000253e-01,-4.283436492894838188e-01,-3.267618071038499439e-01,-1.912597563704439563e-01
4.670000000000000262e-01,-4.268553948427358802e-01,-3.057164926451912956e-01,-1.824650931563701062e-01
4.680000000000000271e-01,-4.320498476730011417e-01,-2.864874275760252997e-01,-1.809347196553051651e-01
4.689999999999999725e-01,-4.204398951545393892e-01,-2.975401390524902712e-01,-2.040849183405083200e-01
4.699999999999999734e-01,-4.315849744963008994e-01,-2.794354695591545479e-01,-2.132625786401347034e-01
4.709999999999999742e-01,-4.347721826321334637e-01,-2.725865880482630232e-01,-2.124585411298286208e-01
4.719999999999999751e-01,-4.165453676741501243e-01,-2.450274263581892487e-01,-2.114049679464626297e-01
4.729999999999999760e-01,-4.202957975767142029e-01,-2.399880241777370415e-01,-2.346542742799215264e-01
4.739999999999999769e-01,-4.156344143336531127e-01,-2.342481054417199504e-01,-2.366530973482933731e-01
4.749999999999999778e-01,-4.156528133745606701e-01,-2.005192704518723723e-01,-2.466695219839693531e-01
4.759999999999999787e-01,-4.014884359816294768e-01,-1.894146398019546929e-01,-2.541854246971913533e-01
4.769999999999999796e-01,-3.879058093573838906e-01,-1.840642206585276219e-01,-2.552865878906913077e-01
4.779999999999999805e-01,-3.751773342830333480e-01,-1.648049552417950314e-01,-2.566256926671471317e-01
4.789999999999999813e-01,-3.831007204326755677e-01,-1.299856555578216555e-01,-2.663718748302038031e-01
4.799999999999999822e-01,-3.596518256566401672e-01,-1.372448449402079995e-01,-2.623090691756667647e-01
4.809999999999999831e-01,-3.492860468865939816e-01,-1.048602374455717690e-01,-2.540365188093671178e-01
4.819999999999999840e-01,-3.358143040084118347e-01,-9.043635519707617088e-02,-2.677699962393274014e-01
4.829999999999999849e-01,-3.142556550462761722e-01,-6.674453601772871447e-02,-2.477135698148266729e-01
4.839999999999999858e-01,-2.985122996840463561e-01,-5.472769000414598461e-02,-2.597284206071395207e-01
4.849999999999999867e-01,-2.868801678094569652e-01,-3.742636847435506370e-02,-2.532566805741978677e-01
4.859999999999999876e-01,-2.556847438294601593e-01,-8.387874299332995914e-03,-2.439973571675111419e-01
4.869999999999999885e-01,-2.548433471726291311e-01,5.430528202451189931e-03,-2.395200104004202579e-01
4.879999999999999893e-01,-2.253721290792894405e-01,1.844274658319246946e-02,-2.264572221022626564e-01
4.889999999999999902e-01,-2.042565719111274214e-01,4.869823330645738774e-02,-2.208954206563175648e-01
4.899999999999999911e-01,-1.673594013683936399e-01,6.255870397984754361e-02,-2.243125685008807435e-01
4.909999999999999920e-01,-1.602670408760420440e-01,7.308325356452531618e-02,-2.203152678097289319e-01
4.919999999999999929e-01,-1.414006067614759776e-01,9.996781480939656572e-02,-2.121059461071336527e-01
4.929999999999999938e-01,-1.132677301812756304e-01,1.098580001103032777e-01,-2.041649368518670404e-01
4.939999999999999947e-01,-9.793920946667399041e-02,1.266858936669011948e-01,-1.937653479504573006e-01
4.949999999999999956e-01,-5.767278508483218019e-02,1.581436218125650550e-01,-1.802455905357440713e-01
4.959999999999999964e-01,-4.055955661567683945e-02,1.613234669809500699e-01,-1.711510387601626881e-01
4.969999999999999973e-01,-8.484255162076102114e-03,1.960280015457388503e-01,-1.582490101007831829e-01
4.979999999999999982e-01,2.186386455090634246e-03,2.031888995347909954e-01,-1.491890021670626287e-01
4.989999999999999991e-01,2.877388998960954750e-02,2.169588674340219847e-01,-1.346282307046667293e-01
5.000000000000000000e-01,5.573353882137626475e-02,2.432094383026110473e-01,-1.218184249780168427e-01
5.010000000000000009e-01,7.648402626470289511e-02,2.549532939295269807e-01,-1.069688791777015091e-01
5.020000000000000018e-01,8.960351544075328967e-02,2.569995399708331907e-01,-9.899915303472686667e-02
5.030000000000000027e-01,1.220775518384949743e-01,2.700230839451415177e-01,-6.532053496294289163e-02
5.040000000000000036e-01,1.353815233486626579e-01,2.772342932976458174e-01,-7.330269656863709626e-02
5.050000000000000044e-01,1.642292176270604698e-01,2.911994394164926225e-01,-5.286890328034668518e-02
5.060000000000000053e-01,1.895303891321076517e-01,2.977701909384052326e-01,-3.891272660265045896e-02
5.070000000000000062e-01,2.219683118892731566e-01,3.139866242198951496e-01,-2.304071823523257470e-02
5.080000000000000071e-01,2.385634556704246678e-01,3.039528997527340404e-01,-9.749263570411496882e-03
5.090000000000000080e-01,2.479138829752975393e-01,3.281175283326549508e-01,7.010209482177996200e-03
5.100000000000000089e-01,2.758937264549853330e-01,3.292112600698290370e-01,1.617003571990670296e-02
5.110000000000000098e-01,2.952065607142796977e-01,3.340587286329096961e-01,2.207727396892406740e-02
5.120000000000000107e-01,3.046200527786232515e-01,3.386680126508268551e-01,4.186502206735469994e-02
5.130000000000000115e-01,3.321525784039266460e-01,3.483756675063572894e-01,7.492900289109291623e-02
5.140000000000000124e-01,3.379296475407170819e-01,3.611732871687678981e-01,7.223962649148479853e-02
5.150000000000000133e-01,3.486155531452667655e-01,3.515406145062159315e-01,8.704371425378513993e-02
5.160000000000000142e-01,3.790565526316089784e-01,3.357199535200950935e-01,9.511180652098555344e-02
5.170000000000000151e-01,3.839819397364053755e-01,3.468252890353558104e-01,1.119440581413160135e-01
5.180000000000000160e-01,3.749842264842089268e-01,3.479651646269765752e-01,1.143378543423519134e-01
5.190000000000000169e-01,3.996401253028358802e-01,3.199864649049111165e-01,1.417645176917617655e-01
5.200000000000000178e-01,4.124185312543368065e-01,3.330145852244800753e-01,1.469813867299266941e-01
5.210000000000000187e-01,4.147820926799053454e-01,3.156224029628726946e-01,1.600579202536566437e-01
5.220000000000000195e-01,4.267190215108284668e-01,3.223651790963360519e-01,1.677710256313619808e-01
5.230000000000000204e-01,4.223298687555662179e-01,3.105767387416798475e-01,1.866721419170569995e-01
5.240000000000000213e-01,4.258980716024435287e-01,2.946685774626912613e-01,1.676698119235912887e-01
5.250000000000000222e-01,4.287576927777765334e-01,2.807938443642029602e-01,2.042476157287884675e-01
5.260000000000000231e-01,4.266731466213982693e-01,2.646278592579676681e-01,1.901314592901371114e-01
5.270000000000000240e-01,4.302395192041996719e-01,2.694768429821514655e-01,2.234392935656108192e-01
5.280000000000000249e-01,4.183044961802698247e-01,2.414707400892888711e-01,2.065566530526022904e-01
5.290000000000000258e-01,4.135070678014516887e-01,2.412671285647332298e-01,2.418856568044137345e-01
5.300000000000000266e-01,4.170522106926812800e-01,2.353792794529510624e-01,2.313879314232364925e-01
5.310000000000000275e-01,4.127832463256105866e-01,1.961896729475584578e-01,2.373843421711149815e-01
5.320000000000000284e-01,3.912500493722608774e-01,1.847915719635886134e-01,2.419094738221710672e-01
5.330000000000000293e-01,3.892483360970686590e-01,1.720555209842117572e-01,2.462636397012426537e-01
5.340000000000000302e-01,3.792309319881130847e-01,1.607382511916232992e-01,2.493855711044519474e-01
5.350000000000000311e-01,3.684241205880326442e-01,1.263175102763764712e-01,2.447367069904187453e-01
5.360000000000000320e-01,3.681096642092488436e-01,9.895824276841083678e-02,2.498017984628443378e-01
5.370000000000000329e-01,3.435180408434027055e-01,9.321659135890759951e-02,2.501928015775868319e-01
5.380000000000000338e-01,3.291937862542238524e-01,8.289846668512322603e-02,2.464523112273807326e-01
5.390000000000000346e-01,3.209321614220804753e-01,5.392756733746158909e-02,2.523674299957201494e-01
5.400000000000000355e-01,2.872877259289082774e-01,4.330035141231080437e-02,2.505792677782938127e-01
5.410000000000000364e-01,2.815927724326663939e-01,2.416930307447988022e-02,2.551325771225028127e-01
5.420000000000000373e-01,2.600900835281753087e-01,-5.740678971900083777e-03,2.596082488042835146e-01
5.430000000000000382e-01,2.493933633458237098e-01,-1.325331752937762737e-02,2.416395370459989700e-01
5.440000000000000391e-01,2.278775132022107242e-01,-4.642431341447118137e-02,2.354777751542005138e-01
5.450000000000000400e-01,1.988220145559179419e-01,-5.518790371767050285e-02,2.311584995273211762e-01
5.460000000000000409e-01,1.661656162076432519e-01,-7.094311780070849949e-02,2.326023450021314776e-01
5.470000000000000417e-01,1.537500035421234812e-01,-8.060938705554253347e-02,2.367127747269485161e-01
5.480000000000000426e-01,1.284543928433870275e-01,-1.125715112788071293e-01,2.117656611765172947e-01
5.490000000000000435e-01,1.007229727007991071e-01,-1.272252416675174469e-01,2.145723350282332242e-01
5.500000000000000444e-01,8.125481836688513981e-02,-1.500246245706375881e-01,1.817051936908987420e-01
5.510000000000000453e-01,6.633205579515437378e-02,-1.576093332225219079e-01,1.967449353779253951e-01
5.520000000000000462e-01,2.119937895222310381e-02,-1.851218965611716727e-01,1.683151032080114629e-01
5.530000000000000471e-01,1.075620011571206194e-02,-2.048443137890722798e-01,1.558195187397978521e-01
5.540000000000000480e-01,-1.060377813953691448e-02,-2.188977814046338954e-01,1.457353554289474995e-01
5.550000000000000488e-01,-4.181206820843786504e-02,-2.153737658117391152e-01,1.528836988881007719e-01
5.560000000000000497e-01,-5.868448715432104251e-02,-2.467441491408410847e-01,1.269176075042439122e-01
5.570000000000000506e-01,-9.576389588477923764e-02,-2.516390808653432565e-01,1.156870627464932078e-01
5.580000000000000515e-01,-1.104359036825405399e-01,-2.679319162759511985e-01,1.147430975023191191e-01
5.590000000000000524e-01,-1.273792864303344985e-01,-2.811594134583529914e-01,9.215049490605953242e-02
5.600000000000000533e-01,-1.462908041337378784e-01,-2.857581068451045536e-01,7.485516532695236924e-02
5.610000000000000542e-01,-1.816918832446086929e-01,-3.033708690587176293e-01,6.274741207549858202e-02
5.620000000000000551e-01,-1.921265455772477038e-01,-3.147313767900566384e-01,4.193414859359468477e-02
5.629999999999999449e-01,-2.244604230338003714e-01,-3.146528778973060603e-01,3.319277265787895503e-02
5.639999999999999458e-01,-2.297207694461178562e-01,-3.297778873936058064e-01,2.303380213473418467e-02
5.649999999999999467e-01,-2.556759504436340591e-01,-3.346253211568608887e-01,-5.765726722091377675e-03
5.659999999999999476e-01,-2.740175695474696416e-01,-3.256184262751438130e-01,-1.132935230097104756e-02
5.669999999999999485e-01,-2.920321345925229739e-01,-3.371514388031034426e-01,-3.317939732532615427e-02
5.679999999999999494e-01,-2.994546222562914917e-01,-3.359332866677485763e-01,-5.020551411785255380e-02
5.689999999999999503e-01,-3.307592499163997113e-01,-3.221119367886540186e-01,-6.391115383992103383e-02
5.699999999999999512e-01,-3.421485416305397043e-01,-3.500917030824364784e-01,-5.805794460332199675e-02
5.709999999999999520e-01,-3.404827883254934462e-01,-3.421639085811221115e-01,-7.735653163230088447e-02
5.719999999999999529e-01,-3.654643362155535202e-01,-3.497974427603398606e-01,-9.294639280146115012e-02
5.729999999999999538e-01,-3.758509690752475652e-01,-3.391383833320000263e-01,-1.039600545264399295e-01
5.739999999999999547e-01,-3.904978953698980404e-01,-3.271631285835595593e-01,-1.253574561673620746e-01
5.749999999999999556e-01,-3.977506979482391403e-01,-3.291198778355394206e-01,-1.313885208139893568e-01
5.759999999999999565e-01,-4.035544540562439608e-01,-3.206529992162674980e-01,-1.481702694578513890e-01
5.769999999999999574e-01,-4.227198621654185140e-01,-3.003406021673102333e-01,-1.624096493236102112e-01
5.779999999999999583e-01,-4.167268526900957948e-01,-2.987678813291577140e-01,-1.604709467113326349e-01
5.789999999999999591e-01,-4.345932485685025659e-01,-2.953459147231968229e-01,-1.642959983349460140e-01
5.799999999999999600e-01,-4.216776971280145614e-01,-2.850770713599442563e-01,-1.822272136486897953e-01
5.809999999999999609e-01,-4.319795285157537745e-01,-2.641637080935437809e-01,-1.982204709452770608e-01
5.819999999999999618e-01,-4.336118780964914876e-01,-2.652125813240025498e-01,-2.097351957783932797e-01
5.829999999999999627e-01,-4.337387731864452700e-01,-2.520073125923142365e-01,-2.221413963944852132e-01
5.839999999999999636e-01,-4.387251111446677232e-01,-2.338010282408696239e-01,-2.357523824142911950e-01
5.849999999999999645e-01,-4.317591929036052045e-01,-2.302268149445020340e-01,-2.102741305474550293e-01
5.859999999999999654e-01,-4.177932864537959867e-01,-2.109973307088779670e-01,-2.403960909989203143e-01
5.869999999999999662e-01,-4.108710271585029328e-01,-1.879083417357711172e-01,-2.393240917350763497e-01
5.879999999999999671e-01,-4.097506494059559023e-01,-1.665944948659804914e-01,-2.422170000725458738e-01
5.889999999999999680e-01,-3.888791849351409535e-01,-1.411777810215989470e-01,-2.481823717603505730e-01
5.899999999999999689e-01,-3.848570298971766279e-01,-1.449872114976805959e-01,-2.529671681404825345e-01
5.909999999999999698e-01,-3.651268336840346462e-01,-1.291065156885872200e-01,-2.647679252279805384e-01
5.919999999999999707e-01,-3.571184469644126391e-01,-9.945415486136192917e-02,-2.629348757237470746e-01
5.929999999999999716e-01,-3.434811355583815562e-01,-9.297608882870525560e-02,-2.535845597626982806e-01
5.939999999999999725e-01,-3.323262042549613438e-01,-6.911288809424860624e-02,-2.473738101170591674e-01
5.949999999999999734e-01,-3.108002942502450794e-01,-4.495072453673715912e-02,-2.705358816108538456e-01
5.959999999999999742e-01,-2.924528724282729475e-01,-1.555027087632584668e-02,-2.576871824280907997e-01
5.969999999999999751e-01,-2.787029969932932616e-01,-2.404283973096288558e-03,-2.482682183551249699e-01
5.979999999999999760e-01,-2.558080080562181724e-01,1.903078106617753576e-02,-2.535092473783603917e-01
5.989999999999999769e-01,-2.306941494186448838e-01,1.834012517034543793e-02,-2.354416998715865295e-01
5.999999999999999778e-01,-2.004482888177649413e-01,5.496580356675117435e-02,-2.379994999770245756e-01
6.009999999999999787e-01,-1.919921083135354700e-01,6.482461383895400664e-02,-2.363324865486084725e-01
6.019999999999999796e-01,-1.785982923260582278e-01,8.077692449079544590e-02,-2.340725068516317786e-01
6.029999999999999805e-01,-1.571197550231678008e-01,1.036143914771999186e-01,-2.296651431286844403e-01
6.039999999999999813e-01,-1.335164697141860979e-01,1.082030709620911413e-01,-2.171908551019144928e-01
6.049999999999999822e-01,-1.113844427339079762e-01,1.411003852972848027e-01,-2.032777536584632339e-01
6.059999999999999831e-01,-8.695705655720996352e-02,1.662210323350897800e-01,-2.004883915232082703e-01
6.069999999999999840e-01,-5.765911220253434194e-02,1.800018633360132014e-01,-1.913042220878622135e-01
6.079999999999999849e-01,-3.756413865840880356e-02,1.808079031649966473e-01,-1.759190815245280370e-01
6.089999999999999858e-01,-9.343951515758170193e-03,2.032642494512124920e-01,-1.761860791479148702e-01
6.099999999999999867e-01,1.633478907201059080e-02,2.115671119319963434e-01,-1.394723138706305821e-01
6.109999999999999876e-01,4.397296601419829754e-02,2.470356932211339451e-01,-1.474517972552067957e-01
6.119999999999999885e-01,7.973039211827769035e-02,2.412019572663419986e-01,-1.266370135120111762e-01
6.129999999999999893e-01,8.064531296266282123e-02,2.751944088678615619e-01,-1.304723157520612797e-01
6.139999999999999902e-01,1.074326550625446103e-01,2.624713315531594371e-01,-1.130975607244737308e-01
6.149999999999999911e-01,1.377285118082524074e-01,2.982528202997710154e-01,-8.836755291104242405e-02
6.159999999999999920e-01,1.596863185081333902e-01,3.022367735543475264e-01,-9.164352162223358966e-02
6.169999999999999929e-01,1.747480956117534456e-01,3.089290451321689002e-01,-6.451857341186377492e-02
6.179999999999999938e-01,1.912738287758170286e-01,3.177424113830038532e-01,-4.918797050141483773e-02
6.189999999999999947e-01,2.196629999003875677e-01,3.124776282349888135e-01,-4.028069976246964612e-02
6.199999999999999956e-01,2.440409088740693455e-01,3.226522298807709133e-01,-2.057455585413004231e-02
6.209999999999999964e-01,2.623147694727021029e-01,3.350968508426941384e-01,-4.152461456101212006e-03
6.219999999999999973e-01,2.790605776223812340e-01,3.369103883651000664e-01,7.244344102811110103e-03
6.229999999999999982e-01,2.962916363184765478e-01,3.378556513292930163e-01,-3.736929672123835266e-03
6.239999999999999991e-01,3.103721325063161784e-01,3.412144072863192434e-01,3.411857867291450547e-02
6.250000000000000000e-01,3.172230100714805157e-01,3.413425787738619821e-01,4.613980054428744315e-02
6.260000000000000009e-01,3.460488046210496993e-01,3.427105670485010025e-01,5.741190364891397835e-02
6.270000000000000018e-01,3.625035064849371214e-01,3.478379419278736506e-01,7.926766908373955589e-02
6.280000000000000027e-01,3.731082627290318587e-01,3.502600378250044222e-01,8.963410623956395706e-02
6.290000000000000036e-01,3.765577791254394180e-01,3.514302791696199413e-01,1.074579386719328317e-01
6.300000000000000044e-01,3.931689403296905194e-01,3.284040927663469667e-01,1.158622203472465390e-01
6.310000000000000053e-01,3.925055628654335882e-01,3.288474832996308161e-01,1.313885173429480413e-01
6.320000000000000062e-01,4.060873485694325158e-01,3.148097579156231007e-01,1.429616967618940748e-01
6.330000000000000071e-01,4.175034876742014789e-01,3.046193768887690001e-01,1.513022889337687638e-01
6.340000000000000080e-01,4.181656518916561649e-01,2.976965026665056580e-01,1.692856082960341457e-01
6.350000000000000089e-01,4.220747590618482703e-01,2.893708771770243104e-01,1.790318525177597431e-01
6.360000000000000098e-01,4.289216439510065704e-01,2.796221907409098817e-01,1.759300257561276226e-01
6.370000000000000107e-01,4.339422158518995709e-01,2.566893325613403554e-01,1.892593749245667367e-01
6.380000000000000115e-01,4.172801364265040225e-01,2.647963717768688219e-01,1.988681864621602013e-01
6.390000000000000124e-01,4.294720048649753874e-01,2.516146366240689103e-01,2.139503525686572982e-01
6.400000000000000133e-01,4.173949294273308075e-01,2.294278787613162618e-01,2.196577192888718166e-01
6.410000000000000142e-01,4.203743616919660697e-01,2.172035462624773983e-01,2.427863254066131848e-01
6.420000000000000151e-01,4.164925951173718000e-01,1.976433472359259147e-01,2.343295530245310676e-01
6.430000000000000160e-01,4.063985228031308794e-01,1.829567821799939209e-01,2.369854756153731423e-01
6.440000000000000169e-01,3.925222994485766392e-01,1.694623751805520717e-01,2.474496670899606343e-01
6.450000000000000178e-01,3.823506875812924255e-01,1.444445178630785476e-01,2.457459041448447346e-01
6.460000000000000187e-01,3.691416565147219164e-01,1.332198121701740068e-01,2.522931964113007686e-01
6.470000000000000195e-01,3.563841965626652897e-01,1.014408111949886004e-01,2.517317049038556576e-01
6.480000000000000204e-01,3.551583727403624380e-01,1.060505882780003184e-01,2.498780113627908361e-01
6.490000000000000213e-01,3.397812872875003443e-01,8.018551181115712856e-02,2.579620753578446002e-01
6.500000000000000222e-01,3.227909375755374510e-01,5.369734422134052332e-02,2.552588732637186553e-01
6.510000000000000231e-01,3.231212165608579046e-01,2.929291614983471279e-02,2.635126580451714884e-01
6.520000000000000240e-01,2.960717909002050785e-01,8.297534038741186113e-03,2.543638404883852844e-01
6.530000000000000249e-01,2.738501962179863969e-01,-6.648816127125287828e-03,2.435192726806190144e-01
6.540000000000000258e-01,2.578813984322832487e-01,-3.412830932055403027e-02,2.470553680701031707e-01
6.550000000000000266e-01,2.431256420154434272e-01,-3.580718340605041489e-02,2.466600551682317788e-01
6.560000000000000275e-01,2.181659289204943009e-01,-6.368975387946279598e-02,2.281913106146631343e-01
6.570000000000000284e-01,1.989369400660128684e-01,-9.230198889109621219e-02,2.465846652441240350e-01
6.580000000000000293e-01,1.735502271527041007e-01,-9.021291188487781665e-02,2.320136795449142808e-01
6.590000000000000302e-01,1.615739156925538600e-01,-1.197318916023586421e-01,2.400706358314192435e-01
6.600000000000000311e-01,1.336950348817943779e-01,-1.429482921480856594e-01,2.185102613638501279e-01
6.610000000000000320e-01,1.016388360717138672e-01,-1.587427267148926457e-01,2.024258469180862385e-01
6.620000000000000329e-01,7.668819117875770586e-02,-1.653251053953873617e-01,1.971502344216748137e-01
6.630000000000000338e-01,5.061572021581620812e-02,-1.865506543221419344e-01,1.944884816425374030e-01
6.640000000000000346e-01,3.895618207281869444e-02,-2.253566640405343657e-01,1.976813050642428071e-01
6.650000000000000355e-01,1.315546382579408508e-02,-2.320054452819629576e-01,1.778418690971554916e-01
6.660000000000000364e-01,-1.527591001300192264e-02,-2.310303323164417666e-01,1.678200723519661652e-01
6.670000000000000373e-01,-3.746112013109485078e-02,-2.491708861375657169e-01,1.542078913076501689e-01
6.680000000000000382e-01,-7.114011371357283064e-02,-2.479864928091388698e-01,1.526673993551146968e-01
6.690000000000000391e-01,-8.615545395992356414e-02,-2.741981072365926586e-01,1.419167350627403290e-01
6.700000000000000400e-01,-1.065555391782118250e-01,-2.882870621262822453e-01,1.181221929954191785e-01
6.710000000000000409e-01,-1.366717965325158768e-01,-2.980844167743108564e-01,1.027403544227569049e-01
6.720000000000000417e-01,-1.546573037171526110e-01,-2.990102529884650640e-01,9.356766924801361573e-02
6.730000000000000426e-01,-1.853453767785804285e-01,-3.204842482145353610e-01,6.869743847728539132e-02
6.740000000000000435e-01,-2.047518929789000630e-01,-3.148560664287199384e-01,6.224403891095324493e-02
6.750000000000000444e-01,-2.126239789415644010e-01,-3.258253231988497145e-01,3.544787942330113878e-02
6.760000000000000453e-01,-2.425224299980938414e-01,-3.386458783864462752e-01,2.969677573953946950e-02
6.770000000000000462e-01,-2.520022374445736735e-01,-3.364299081896481303e-01,1.891211517674382808e-02
6.780000000000000471e-01,-2.703173070057831584e-01,-3.489562128109321426e-01,4.142223684587401089e-03
6.790000000000000480e-01,-2.879982288832990123e-01,-3.551256353612988748e-01,-1.116759465246367281e-02
6.800000000000000488e-01,-3.024436958800418851e-01,-3.288925642382600767e-01,-2.965302131542422656e-02
6.810000000000000497e-01,-3.317732414695023779e-01,-3.323073583040734857e-01,-4.076937731611304100e-02
6.820000000000000506e-01,-3.279685440544021224e-01,-3.498095004822035503e-01,-5.797919789386355577e-02
6.830000000000000515e-01,-3.629209879214060908e-01,-3.449590915943098191e-01,-7.016484607716137745e-02
6.840000000000000524e-01,-3.728284128003654940e-01,-3.267442874876489434e-01,-7.956767232641384635e-02
6.850000000000000533e-01,-3.759204844072954743e-01,-3.327339857070003015e-01,-1.019230598142337463e-01
6.860000000000000542e-01,-3.748146205419604082e-01,-3.240546224263636255e-01,-1.067800554886447623e-01
6.870000000000000551e-01,-4.117417051238314585e-01,-3.141941734481902282e-01,-1.280612782576848740e-01
6.879999999999999449e-01,-4.048895397638117011e-01,-3.113752909859570095e-01,-1.403013123241357574e-01
6.889999999999999458e-01,-4.185322150216729264e-01,-3.103258038042400191e-01,-1.472292260706963285e-01
6.899999999999999467e-01,-4.162978755828507516e-01,-2.889486940418908856e-01,-1.538225928063609582e-01
6.909999999999999476e-01,-4.227951989200220417e-01,-2.983076484608084833e-01,-1.758134566557361944e-01
6.919999999999999485e-01,-4.342321033771723293e-01,-2.527630722888995485e-01,-1.733861281587892045e-01
6.929999999999999494e-01,-4.282464524344918311e-01,-2.551975822205116429e-01,-1.890785729441535890e-01
6.939999999999999503e-01,-4.223450915223986857e-01,-2.595372480540998894e-01,-1.882063203332521029e-01
6.949999999999999512e-01,-4.170423198375892149e-01,-2.207796627749161189e-01,-2.110976303767196360e-01
6.959999999999999520e-01,-4.179131660499207368e-01,-2.157298891207523328e-01,-2.248601163229916877e-01
6.969999999999999529e-01,-4.229977179260713260e-01,-2.139244762326298621e-01,-2.107061495790024108e-01
6.979999999999999538e-01,-4.143625840372721636e-01,-1.859671599750615800e-01,-2.343848221245233288e-01
6.989999999999999547e-01,-4.146258509127391800e-01,-1.537220838063544093e-01,-2.269752377955894240e-01
6.999999999999999556e-01,-4.055940054051899168e-01,-1.484981213392835009e-01,-2.370691483386280218e-01
7.009999999999999565e-01,-3.870905800277439912e-01,-1.300602344593542181e-01,-2.469952492747142236e-01
7.019999999999999574e-01,-3.794918764615665130e-01,-1.200968032270706143e-01,-2.462598310991355732e-01
7.029999999999999583e-01,-3.641378257648263950e-01,-1.133685471191718530e-01,-2.483183109747548467e-01
7.039999999999999591e-01,-3.542727338138816351e-01,-7.425177297771201612e-02,-2.607651651845824814e-01
7.049999999999999600e-01,-3.435409338332496842e-01,-5.323752474117689898e-02,-2.557794029799885793e-01
7.059999999999999609e-01,-3.265143704868824770e-01,-4.144884648986608966e-02,-2.601455148161863073e-01
7.069999999999999618e-01,-3.061535291079627297e-01,-2.511213576465145744e-02,-2.501992354406761265e-01
7.079999999999999627e-01,-2.793272170185673309e-01,-2.244056595488939324e-03,-2.441905859341141349e-01
7.089999999999999636e-01,-2.749050915954649454e-01,-4.219790498692042695e-03,-2.571581748357993913e-01
7.099999999999999645e-01,-2.507573980566820127e-01,3.083434585559164179e-02,-2.443023819934021790e-01
7.109999999999999654e-01,-2.425555510373633428e-01,5.905768603847568604e-02,-2.539625415917936002e-01
7.119999999999999662e-01,-2.125804630903088410e-01,8.143537791651055124e-02,-2.467825671446838010e-01
7.129999999999999671e-01,-1.957259459464183171e-01,1.011425792060293150e-01,-2.535915527019020344e-01
7.139999999999999680e-01,-1.685901937207251455e-01,1.055140078622173461e-01,-2.422895111102154053e-01
7.149999999999999689e-01,-1.462090918560301489e-01,1.197015321230542884e-01,-2.128981178898979587e-01
7.159999999999999698e-01,-1.225381301193328165e-01,1.399891195075086692e-01,-2.220369901388755951e-01
7.169999999999999707e-01,-1.050929866138357732e-01,1.662444642970951625e-01,-2.082138376024078585e-01
7.179999999999999716e-01,-7.950384894940050462e-02,1.886152552853986586e-01,-2.053418726656363602e-01
7.189999999999999725e-01,-6.229298193221267238e-02,1.893544929701455048e-01,-2.000945663487466164e-01
7.199999999999999734e-01,-4.109193633451093536e-02,2.068635810894312310e-01,-1.768271865093903050e-01
7.209999999999999742e-01,-1.247607660755523269e-02,2.141757838854898843e-01,-1.752968416532728058e-01
7.219999999999999751e-01,2.267430637664687512e-02,2.513361640087335980e-01,-1.697971181118664574e-01
7.229999999999999760e-01,3.295892501123672685e-02,2.587287117618984333e-01,-1.580625707779002853e-01
7.239999999999999769e-01,5.338180564303237480e-02,2.688357753222802571e-01,-1.486001037173868555e-01
7.249999999999999778e-01,8.994408697745172321e-02,2.768122587976395432e-01,-1.354204059362736356e-01
7.259999999999999787e-01,1.168622596859009710e-01,2.854770075260458784e-01,-1.159099928660654727e-01
7.269999999999999796e-01,1.278245461331087851e-01,3.011591992870488732e-01,-1.103846772181510394e-01
7.279999999999999805e-01,1.478325747826711445e-01,3.138844405831580642e-01,-8.994607808667307025e-02
7.289999999999999813e-01,1.823048944812887262e-01,3.195523051540662962e-01,-8.261053199598308860e-02
7.299999999999999822e-01,2.001799582547692524e-01,3.172771923256411108e-01,-6.371336886964260038e-02
7.309999999999999831e-01,2.266114024942155192e-01,3.323461553886019049e-01,-5.142112476247438779e-02
7.319999999999999840e-01,2.447809770399250739e-01,3.376726396733755742e-01,-4.346719501517568029e-02
7.329999999999999849e-01,2.633081704124919931e-01,3.390471189424045795e-01,-1.150322066399541571e-02
7.339999999999999858e-01,2.791490704364596454e-01,3.519889002288296709e-01,-1.856342031943961079e-02
7.349999999999999867e-01,2.997428435107272193e-01,3.485827672582662573e-01,-2.481357398420787255e-03
7.359999999999999876e-01,3.213270012712499124e-01,3.444703593910345973e-01,1.699902391610899968e-02
7.369999999999999885e-01,3.286987919596944807e-01,3.418181662282382960e-01,2.965289209834642836e-02
7.379999999999999893e-01,3.510376279717652981e-01,3.440277533685346389e-01,5.313818707401964103e-02
7.389999999999999902e-01,3.728530821564327580e-01,3.362501655429220304e-01,6.131103684982165680e-02
7.399999999999999911e-01,3.729074084162650182e-01,3.293789533168370864e-01,7.760267329119138746e-02
7.409999999999999920e-01,3.820125028304033887e-01,3.357633950109449872e-01,8.760094881826448188e-02
7.419999999999999929e-01,3.906761034097292473e-01,3.330338655549108240e-01,9.998249348593410413e-02
7.429999999999999938e-01,4.114568920099178628e-01,3.121861271690375972e-01,1.048427819419344570e-01
7.439999999999999947e-01,4.023866512156696884e-01,3.134694798770026325e-01,1.398986726507825962e-01
7.449999999999999956e-01,4.153345111404357914e-01,3.009840499804466996e-01,1.406426154626914671e-01
7.459999999999999964e-01,4.177421315368582411e-01,2.931138513838175141e-01,1.551883555705624584e-01
7.469999999999999973e-01,4.387064703015291500e-01,2.703380915538458051e-01,1.459111225793449373e-01
7.479999999999999982e-01,4.342042560528558970e-01,2.596599198936677122e-01,1.706925456563800902e-01
7.489999999999999991e-01,4.254623331824488597e-01,2.488658587070435857e-01,1.859581861932634306e-01
7.500000000000000000e-01,4.330567564023797833e-01,2.217071042780479062e-01,1.937794217783624651e-01
7.510000000000000009e-01,4.152112741592999257e-01,2.257135780467463271e-01,2.092522121839852089e-01
7.520000000000000018e-01,4.349981414178947237e-01,2.050281055667189933e-01,2.011644839989909228e-01
7.530000000000000027e-01,4.182400251212331499e-01,1.851397244040443868e-01,2.078745892635914805e-01
7.540000000000000036e-01,4.178147151195879538e-01,1.795169196806313261e-01,2.218205815641398349e-01
7.550000000000000044e-01,4.154959793153348291e-01,1.598164233899469211e-01,2.256926920021369021e-01
7.560000000000000053e-01,4.011933418887430047e-01,1.348598253218539211e-01,2.328542252329895423e-01
7.570000000000000062e-01,3.901537477860969050e-01,1.340460643763512483e-01,2.465917415183866146e-01
7.580000000000000071e-01,3.674199711872594420e-01,1.047576625314227405e-01,2.520741226843762894e-01
7.590000000000000080e-01,3.655004509507441268e-01,8.129119706879694984e-02,2.568999984046889118e-01
7.600000000000000089e-01,3.430054072898710005e-01,6.341048326562123694e-02,2.649288975201258278e-01
7.610000000000000098e-01,3.358595961221999548e-01,5.753343096179541066e-02,2.504736690202829519e-01
7.620000000000000107e-01,3.259665449849795116e-01,2.153503399976221602e-02,2.620865996964267808e-01
7.630000000000000115e-01,3.033143002591350834e-01,-4.586233741167836629e-03,2.448704695770713702e-01
7.640000000000000124e-01,2.871122563147293083e-01,-1.305044912614471489e-02,2.576343487653742215e-01
7.650000000000000133e-01,2.634048617190464792e-01,-3.210201254753240058e-02,2.574850015796588676e-01
7.660000000000000142e-01,2.514594000522573647e-01,-5.020422775507651925e-02,2.541694705012915168e-01
7.670000000000000151e-01,2.229166174368778786e-01,-7.100444450415195619e-02,2.451554242406960293e-01
7.680000000000000160e-01,1.985517577232583930e-01,-9.033480266796654889e-02,2.501631930134349258e-01
7.690000000000000169e-01,2.017223907702896668e-01,-1.067357639662906976e-01,2.412705914837381671e-01
7.700000000000000178e-01,1.515902509183781333e-01,-1.210494063752693417e-01,2.531188826931105029e-01
7.710000000000000187e-01,1.436240895230876391e-01,-1.490179295719143149e-01,2.338790472923028274e-01
7.720000000000000195e-01,1.226561785663428245e-01,-1.764754084669397094e-01,2.153142406823748967e-01
7.730000000000000204e-01,1.056859982448266067e-01,-1.611254124809512189e-01,2.191013098482853805e-01
7.740000000000000213e-01,7.581712244003196988e-02,-1.910347213911491315e-01,2.160598899004495255e-01
7.750000000000000222e-01,5.982893625089910628e-02,-2.154921533598947725e-01,2.093099508811079312e-01
7.760000000000000231e-01,2.378407477001004411e-02,-2.333455965756259798e-01,1.928951369788156622e-01
7.770000000000000240e-01,3.823760320068458982e-03,-2.453768557572289510e-01,1.738496942164007575e-01
7.780000000000000249e-01,-2.575462805409750588e-02,-2.563714660414128654e-01,1.768735459316758962e-01
7.790000000000000258e-01,-4.306769091553577095e-02,-2.648019178710048771e-01,1.587956989101156069e-01
7.800000000000000266e-01,-7.149958595290115126e-02,-2.664117198551106958e-01,1.441201735112050963e-01
7.810000000000000275e-01,-7.869784966970692908e-02,-2.859879130430624250e-01,1.309307494093056856e-01
7.820000000000000284e-01,-1.112617305520224725e-01,-2.976375818942155194e-01,1.342050974655732143e-01
7.830000000000000293e-01,-1.331894628662688429e-01,-3.042996220676572605e-01,1.063264653733163867e-01
7.840000000000000302e-01,-1.520307539507118055e-01,-3.107900082207593617e-01,9.938473555287544170e-02
7.850000000000000311e-01,-1.874917937720450567e-01,-3.214042428353530156e-01,8.400314392031810184e-02
7.860000000000000320e-01,-1.991591898589087084e-01,-3.276840397369171209e-01,7.118562114201258673e-02
7.870000000000000329e-01,-2.239534937378068191e-01,-3.322277422528115420e-01,6.216214483973051680e-02
7.880000000000000338e-01,-2.414554862534627755e-01,-3.345739388013360682e-01,4.191913618960393245e-02
7.890000000000000346e-01,-2.675287361744329573e-01,-3.345880947810156991e-01,3.564215508898325308e-02
7.900000000000000355e-01,-2.757947799114788823e-01,-3.455021207454929133e-01,2.295224241705169990e-02
7.910000000000000364e-01,-2.943564525250109143e-01,-3.443168177536375385e-01,1.576398269870232099e-02
7.920000000000000373e-01,-3.291722167877659810e-01,-3.409427642192678909e-01,-2.586162632223835706e-03
7.930000000000000382e-01,-3.285563588904734100e-01,-3.373068802635632579e-01,-2.567526401366393082e-02
7.940000000000000391e-01,-3.554273161820873939e-01,-3.310699901816849811e-01,-2.735529804688675848e-02
7.950000000000000400e-01,-3.562643666497455897e-01,-3.276147617777524501e-01,-5.895874624311289725e-02
7.960000000000000409e-01,-3.779818239904852439e-01,-3.322665490642585095e-01,-6.871729094974927954e-02
7.970000000000000417e-01,-3.808480782311808310e-01,-3.206438364048286860e-01,-7.942873601653367699e-02
7.980000000000000426e-01,-4.022668360775231156e-01,-3.152517907532093044e-01,-9.311411417182291483e-02
7.990000000000000435e-01,-3.947583969234302326e-01,-3.135274038788955497e-01,-1.077436569922027298e-01
8.000000000000000444e-01,-4.161161549315567365e-01,-3.009106340660693824e-01,-1.249151684122797035e-01
8.010000000000000453e-01,-4.234723954477017105e-01,-2.874482394953554731e-01,-1.277210191009788276e-01
8.020000000000000462e-01,-4.196919815217051153e-01,-2.747517118544472448e-01,-1.433682454146410490e-01
8.030000000000000471e-01,-4.287922446855761405e-01,-2.700049561856301406e-01,-1.458382481876082104e-01
8.040000000000000480e-01,-4.323341318228264285e-01,-2.527996382336180070e-01,-1.709602274519981258e-01
8.050000000000000488e-01,-4.308518996836419035e-01,-2.489276648991489704e-01,-1.787672432258453070e-01
8.060000000000000497e-01,-4.283240695806638798e-01,-2.241265940044434302e-01,-1.781819591343348219e-01
8.070000000000000506e-01,-4.326234851517361535e-01,-2.082574988063513599e-01,-1.833465408166236321e-01
8.080000000000000515e-01,-4.173207339911744196e-01,-1.875576545314625865e-01,-2.024875057818303903e-01
8.090000000000000524e-01,-4.084847311437544426e-01,-1.864044616243511754e-01,-2.030678267994641684e-01
8.100000000000000533e-01,-4.105825754383919945e-01,-1.582099088151263377e-01,-2.171217849805655853e-01
8.110000000000000542e-01,-4.056420034328072077e-01,-1.472476982021548864e-01,-2.194702725076587146e-01
8.120000000000000551e-01,-4.205698098569767285e-01,-1.232658175090519254e-01,-2.405711378838505110e-01
8.129999999999999449e-01,-3.813563582727991230e-01,-1.059912645549201810e-01,-2.445453300582880740e-01
8.139999999999999458e-01,-3.779046299439359768e-01,-9.366155135748541194e-02,-2.454775881057031373e-01
8.149999999999999467e-01,-3.641711873809888034e-01,-7.758128511112885595e-02,-2.500090043493585767e-01
8.159999999999999476e-01,-3.386598199476489324e-01,-5.232395914357988037e-02,-2.648205678124995188e-01
8.169999999999999485e-01,-3.377531484377964688e-01,-4.918682715649667220e-02,-2.554922812057843218e-01
8.179999999999999494e-01,-3.128153196537866720e-01,-1.874248656766759960e-02,-2.480753322816468265e-01
8.189999999999999503e-01,-2.952291116004600591e-01,1.985790296865365054e-03,-2.465083470722279901e-01
8.199999999999999512e-01,-2.886211025200784985e-01,2.449815639808347947e-02,-2.571012890276313523e-01
8.209999999999999520e-01,-2.609897830137121177e-01,4.942733427284122516e-02,-2.611396090713169471e-01
8.219999999999999529e-01,-2.546000880623093265e-01,6.540957247325275559e-02,-2.654372323294378888e-01
8.229999999999999538e-01,-2.285558984107679270e-01,9.510771738430248701e-02,-2.573978343418517611e-01
8.239999999999999547e-01,-1.969039056031336443e-01,9.175889798884409587e-02,-2.603833459492612690e-01
8.249999999999999556e-01,-1.900711517096895231e-01,1.206490971129381695e-01,-2.445931871975892125e-01
8.259999999999999565e-01,-1.709627223551393738e-01,1.351091957493739115e-01,-2.418939856743565209e-01
8.269999999999999574e-01,-1.415413485465433219e-01,1.467660059144440254e-01,-2.363383295650650084e-01
8.279999999999999583e-01,-1.384787482118734481e-01,1.798248533838295027e-01,-2.397931632450680806e-01
8.289999999999999591e-01,-9.396343743352969513e-02,1.783412627387456761e-01,-2.138510951581649999e-01
8.299999999999999600e-01,-7.319241278069531231e-02,1.991072865103592215e-01,-2.201781010023101948e-01
8.309999999999999609e-01,-5.003071064142546043e-02,2.146678792057781782e-01,-1.999356293112337091e-01
8.319999999999999618e-01,-1.359336815563815665e-02,2.324598808085562296e-01,-2.111195663657710608e-01
8.329999999999999627e-01,1.528319708557884663e-03,2.432674776414231743e-01,-1.937233360756681344e-01
8.339999999999999636e-01,2.331141856776492577e-02,2.630810527832050383e-01,-1.797344009140184606e-01
8.349999999999999645e-01,4.444137793695705080e-02,2.841675628562959077e-01,-1.604470615361382468e-01
8.359999999999999654e-01,6.817454149729365587e-02,2.759087022615125395e-01,-1.573055140310829492e-01
8.369999999999999662e-01,9.766237832345896208e-02,2.829017485575038848e-01,-1.459025430479862218e-01
8.379999999999999671e-01,1.270089446222651131e-01,3.002199499429500373e-01,-1.343479132044884117e-01
8.389999999999999680e-01,1.487849728387700132e-01,3.099112234844876301e-01,-1.216051399528524368e-01
8.399999999999999689e-01,1.511937885346869292e-01,3.182155943861820213e-01,-1.088676763641345663e-01
8.409999999999999698e-01,1.849314679825544983e-01,3.255987250674524658e-01,-9.734254980365106280e-02
8.419999999999999707e-01,2.037294187818582403e-01,3.267820067634466530e-01,-6.916009437118328385e-02
8.429999999999999716e-01,2.330447237318723774e-01,3.490094695535331804e-01,-7.470964837936819314e-02
8.439999999999999725e-01,2.372973495037963843e-01,3.260455152545519431e-01,-5.003644620514333119e-02
8.449999999999999734e-01,2.628824425386831476e-01,3.457080645525640872e-01,-3.737517098141487915e-02
8.459999999999999742e-01,2.797082422703071058e-01,3.468598650988051757e-01,-1.405006551282961258e-02
8.469999999999999751e-01,3.073558721483614087e-01,3.457971195888974170e-01,1.493129152736628190e-03
8.479999999999999760e-01,3.132181825305390688e-01,3.480994485381452286e-01,5.318099813162822410e-03
8.489999999999999769e-01,3.228115557402828073e-01,3.324101547122835787e-01,1.690059913441877698e-02
8.499999999999999778e-01,3.443624445022216429e-01,3.337259989273694272e-01,3.766467066916263928e-02
8.509999999999999787e-01,3.617798284758305671e-01,3.285540224975757040e-01,4.089509159032968938e-02
8.519999999999999796e-01,3.738847573506230981e-01,3.214901644357819332e-01,6.263349532760538463e-02
8.529999999999999805e-01,3.880065846179026057e-01,3.218650486048107995e-01,8.115219120145408804e-02
8.539999999999999813e-01,3.885012629156773811e-01,2.993455839448631584e-01,8.673659939560898757e-02
8.549999999999999822e-01,4.004093951620901204e-01,3.137593279039931349e-01,1.021701726703947155e-01
8.559999999999999831e-01,4.206947106454781982e-01,2.980840621693170989e-01,1.179287510283601181e-01
8.569999999999999840e-01,4.190082000263616879e-01,2.894801797525445863e-01,1.202827579577726291e-01
8.579999999999999849e-01,4.305156881748020692e-01,2.690318369458841730e-01,1.319303472118394938e-01
8.589999999999999858e-01,4.339296986072314066e-01,2.658968703669226108e-01,1.519106454033890830e-01
8.599999999999999867e-01,4.351446526807603021e-01,2.384985207442398003e-01,1.649399854827900413e-01
8.609999999999999876e-01,4.255911999056332662e-01,2.177048983024925388e-01,1.697847496537346901e-01
8.619999999999999885e-01,4.368786395255680466e-01,2.169670396970892479e-01,1.844522149199502303e-01
8.629999999999999893e-01,4.393010848164503046e-01,2.064766835077698204e-01,1.955214260871067922e-01
8.639999999999999902e-01,4.325854885076869105e-01,1.852782467827333857e-01,2.057489698839143066e-01
8.649999999999999911e-01,4.172281801117280198e-01,1.733167941851888327e-01,2.070155041384388328e-01
8.659999999999999920e-01,4.004552560959844798e-01,1.562456737101370063e-01,2.217551001243840969e-01
8.669999999999999929e-01,4.025250164836045585e-01,1.395870843606545064e-01,2.261112019351881330e-01
8.679999999999999938e-01,4.116495522937033691e-01,1.339781270500522703e-01,2.344521166219755703e-01
8.689999999999999947e-01,3.929714597762969941e-01,1.067318793272227090e-01,2.358177758597876650e-01
8.699999999999999956e-01,3.751128116772408649e-01,8.987941527642218098e-02,2.447247146406320573e-01
8.709999999999999964e-01,3.567594631825815044e-01,6.004923208373489502e-02,2.700852303062464266e-01
8.719999999999999973e-01,3.450296049744971949e-01,5.166804891679334377e-02,2.449519798666509873e-01
8.729999999999999982e-01,3.438695156487160398e-01,1.341362512575188133e-02,2.489941959240498381e-01
8.739999999999999991e-01,3.173843184957634844e-01,9.226183594232825053e-03,2.673860583657162171e-01
8.750000000000000000e-01,2.916770801597604601e-01,-1.700233465298894506e-02,2.497175388253946304e-01
8.760000000000000009e-01,2.872775606345290833e-01,-4.517508701102233848e-02,2.479132574037787862e-01
8.770000000000000018e-01,2.595684759704741662e-01,-7.054366614402569902e-02,2.684028522672589623e-01
8.780000000000000027e-01,2.410111613980421841e-01,-7.176300551049905052e-02,2.526277389257238770e-01
8.790000000000000036e-01,2.315209721162498069e-01,-8.951968311947060275e-02,2.469953447619389897e-01
8.800000000000000044e-01,2.061564366815874239e-01,-1.197394320361101494e-01,2.614349379279764518e-01
8.810000000000000053e-01,1.829912373737845599e-01,-1.263818530889303515e-01,2.437415567007562567e-01
8.820000000000000062e-01,1.615893290776701241e-01,-1.492935538241461357e-01,2.538516180038358772e-01
8.830000000000000071e-01,1.422309133009589666e-01,-1.631098657893770010e-01,2.404778323746497581e-01
8.840000000000000080e-01,1.327676181587614801e-01,-1.903069025552333038e-01,2.402845485555203664e-01
8.850000000000000089e-01,8.270536531542474479e-02,-1.964056573102872794e-01,2.309367584025526499e-01
8.860000000000000098e-01,8.995418374388923499e-02,-2.182563808621085233e-01,2.146661381183904704e-01
8.870000000000000107e-01,4.227426930240926750e-02,-2.355080148639751014e-01,2.157389406396444387e-01
8.880000000000000115e-01,2.759020244756325499e-02,-2.344866563623939082e-01,1.944492194853884304e-01
8.890000000000000124e-01,-3.196850055385164983e-03,-2.507594471952926951e-01,1.996787647029900081e-01
8.900000000000000133e-01,-2.636063640700211930e-02,-2.707510873491130177e-01,1.812969394364658260e-01
8.910000000000000142e-01,-5.941875661344506176e-02,-2.853111701438620362e-01,1.604178683670197392e-01
8.920000000000000151e-01,-6.381619198392515790e-02,-2.811413579756569803e-01,1.626222048168277923e-01
8.930000000000000160e-01,-8.891676774230233837e-02,-2.957970796525886126e-01,1.523471077435764598e-01
8.940000000000000169e-01,-1.367157870296521194e-01,-3.139013127255361746e-01,1.396265004925653641e-01
8.950000000000000178e-01,-1.469165388888962753e-01,-3.253866936158642531e-01,1.258258686685583827e-01
8.960000000000000187e-01,-1.635389321255182327e-01,-3.329862181481131334e-01,1.108467765417403827e-01
8.970000000000000195e-01,-1.925089639203283187e-01,-3.379640471536838331e-01,8.879466380255757185e-02
8.980000000000000204e-01,-2.142735529045874665e-01,-3.304454406674137146e-01,8.273037079039510799e-02
8.990000000000000213e-01,-2.254111703279796930e-01,-3.339380437078792729e-01,7.958185635575396044e-02
9.000000000000000222e-01,-2.483423665109404099e-01,-3.453049945982638591e-01,5.539441029925527143e-02
9.010000000000000231e-01,-2.745281163177590855e-01,-3.396284032702535094e-01,3.855897356379961449e-02
9.020000000000000240e-01,-2.845214634263509290e-01,-3.483909153159186478e-01,3.500297288794138040e-02
9.030000000000000249e-01,-3.043286092404939303e-01,-3.471517779959002459e-01,1.192854472422146157e-02
9.040000000000000258e-01,-3.221051127068196851e-01,-3.362980338068599084e-01,1.791248134118004348e-02
9.050000000000000266e-01,-3.240270262959853431e-01,-3.233773317557106508e-01,-1.176035967266843979e-02
9.060000000000000275e-01,-3.450988420313731986e-01,-3.389022820950267634e-01,-2.458323706971469666e-02
9.070000000000000284e-01,-3.621218219538367422e-01,-3.371401698699843519e-01,-3.489393175490723698e-02
9.080000000000000293e-01,-3.686506681101507366e-01,-3.210647776531851405e-01,-6.078627562737719953e-02
9.090000000000000302e-01,-3.724879701655672282e-01,-3.080738851525233191e-01,-5.647643747284738364e-02
9.100000000000000311e-01,-3.945201242679914344e-01,-3.056419199218457505e-01,-8.884597068878966053e-02
9.110000000000000320e-01,-4.086397975245064096e-01,-2.973804089290240094e-01,-1.009940444099662604e-01
9.120000000000000329e-01,-4.183167367730120656e-01,-2.852044710719202070e-01,-1.092422516467150689e-01
9.130000000000000338e-01,-4.231185808620919198e-01,-2.825392563398662626e-01,-1.219062785569866719e-01
9.140000000000000346e-01,-4.327985689235452349e-01,-2.564712784351840247e-01,-1.148019619612227760e-01
9.150000000000000355e-01,-4.214690419613051908e-01,-2.533460817080641636e-01,-1.486895751450876546e-01
9.160000000000000364e-01,-4.257318703039992269e-01,-2.456727099074903775e-01,-1.646558676009799160e-01
9.170000000000000373e-01,-4.155355151398956726e-01,-2.098628408340647844e-01,-1.749361545862294087e-01
9.180000000000000382e-01,-4.200608127613532083e-01,-2.105083443514557118e-01,-1.871832742439077102e-01
9.190000000000000391e-01,-4.195657391066187070e-01,-1.911990818834632955e-01,-1.833938721808464622e-01
9.200000000000000400e-01,-4.173583173189862605e-01,-1.691151024679779236e-01,-2.003000983619446784e-01
9.210000000000000409e-01,-4.052936877042060404e-01,-1.579931961516268246e-01,-2.006793957394973071e-01
9.220000000000000417e-01,-4.128809859484046663e-01,-1.537345849104684026e-01,-2.253398794743472766e-01
9.230000000000000426e-01,-4.132872119206821848e-01,-1.265464237419509919e-01,-2.256327251686025825e-01
9.240000000000000435e-01,-3.878917632422290152e-01,-1.071660887323231670e-01,-2.176941014407760278e-01
9.250000000000000444e-01,-3.977158812421361933e-01,-8.495052186411759798e-02,-2.465131787844186406e-01
9.260000000000000453e-01,-3.761225562112539555e-01,-6.596248784272661092e-02,-2.522690711695891319e-01
9.270000000000000462e-01,-3.612988406488094606e-01,-5.766677844355093396e-02,-2.524439079269331643e-01
9.280000000000000471e-01,-3.399040559831700281e-01,-2.873125388847541303e-02,-2.475026925334813110e-01
9.290000000000000480e-01,-3.348393712412954248e-01,-1.499517527791567433e-02,-2.501632796836411599e-01
9.300000000000000488e-01,-3.245163548404134124e-01,5.400895200050393093e-03,-2.489328765157166057e-01
9.310000000000000497e-01,-3.058558115158346302e-01,2.428580317974611547e-02,-2.654952097626460672e-01
9.320000000000000506e-01,-2.831490388361992405e-01,3.554633197192382660e-02,-2.594290207931883585e-01
9.330000000000000515e-01,-2.602227971692245290e-01,6.045119356944265304e-02,-2.483861077101564285e-01
9.340000000000000524e-01,-2.445586719009086030e-01,7.349392993274818375e-02,-2.549209989157807388e-01
9.350000000000000533e-01,-2.210087300576880631e-01,9.473007823907014791e-02,-2.501894083159421078e-01
9.360000000000000542e-01,-2.085045091770232895e-01,1.363830127342953447e-01,-2.536659061667639325e-01
9.370000000000000551e-01,-1.782878670840612745e-01,1.426623723162281088e-01,-2.472676812446617800e-01
9.379999999999999449e-01,-1.542215475412902215e-01,1.510312348369306779e-01,-2.448681031383384832e-01
9.389999999999999458e-01,-1.347824033575736324e-01,1.898827564426006087e-01,-2.502036581971036067e-01
9.399999999999999467e-01,-1.310230554079727383e-01,2.006049327135004667e-01,-2.435217821016724404e-01
9.409999999999999476e-01,-1.008332614907949815e-01,2.065870608731214808e-01,-2.245650394515804060e-01
9.419999999999999485e-01,-7.685553837611276695e-02,2.256213130732318273e-01,-2.294944488858982334e-01
9.429999999999999494e-01,-5.083596006020012215e-02,2.400762019423851035e-01,-2.163735501882558254e-01
9.439999999999999503e-01,-1.504361294872611464e-02,2.417799143366112791e-01,-2.005100157060346333e-01
9.449999999999999512e-01,-5.669411143821680328e-03,2.514105129879463663e-01,-2.009400223226698867e-01
9.459999999999999520e-01,2.461229539067650782e-02,2.695315496584202997e-01,-1.844207484996451818e-01
9.469999999999999529e-01,5.293501918934877259e-02,2.983519512844978183e-01,-1.754694662844338837e-01
9.479999999999999538e-01,6.372301920296734312e-02,2.931960541060346093e-01,-1.682696873461251297e-01
9.489999999999999547e-01,1.129104242367543337e-01,2.970045417379935104e-01,-1.487506795519425995e-01
9.499999999999999556e-01,1.136890645992349042e-01,3.023959559259032370e-01,-1.345458629281311436e-01
9.509999999999999565e-01,1.543011710549598292e-01,3.248725432954897019e-01,-1.160563589374273702e-01
9.519999999999999574e-01,1.700996978357178779e-01,3.326813668903841892e-01,-1.113712031456301627e-01
9.529999999999999583e-01,1.935727141024616571e-01,3.324123432444002768e-01,-1.116990424429346734e-01
9.539999999999999591e-01,2.097392852490321535e-01,3.363526572527217318e-01,-8.260065136268833486e-02
9.549999999999999600e-01,2.356123894993978340e-01,3.401527084691885472e-01,-8.019313960743336411e-02
9.559999999999999609e-01,2.478929459008075153e-01,3.585346282093697101e-01,-6.483041847811471525e-02
9.569999999999999618e-01,2.702958565544013037e-01,3.313663232717947715e-01,-4.011411712018459613e-02
9.579999999999999627e-01,2.843350646178789409e-01,3.442098792075904967e-01,-3.838752613854988505e-02
9.589999999999999636e-01,3.059191110464060115e-01,3.326801831732819625e-01,-2.581098331684419239e-02
9.599999999999999645e-01,3.247074473065846290e-01,3.412267149709556358e-01,-1.829320417057916362e-03
9.609999999999999654e-01,3.345849868254313075e-01,3.300773036054586718e-01,2.085640209429345977e-03
9.619999999999999662e-01,3.591993710353862945e-01,3.408639684333286679e-01,1.760060879078017074e-02
9.629999999999999671e-01,3.749605129726315544e-01,3.295087807941151636e-01,4.428156176418512890e-02
9.639999999999999680e-01,3.770955269101395890e-01,3.178508737235978265e-01,5.909390261623420626e-02
9.649999999999999689e-01,3.831732750972048351e-01,3.055327644529958198e-01,6.516149091161629880e-02
9.659999999999999698e-01,3.892414120651659371e-01,2.926462342774098779e-01,6.996535549072550875e-02
9.669999999999999707e-01,4.069108171518800443e-01,2.786145288075319582e-01,7.817169188216598064e-02
9.679999999999999716e-01,4.106038382505892703e-01,2.774699175320010647e-01,9.690195706762144701e-02
9.689999999999999725e-01,4.033982762194554539e-01,2.652672452762560029e-01,1.101316082921293404e-01
9.699999999999999734e-01,4.262641220296822797e-01,2.551344531675276417e-01,1.279642421921267648e-01
9.709999999999999742e-01,4.270463018169772806e-01,2.422824895704405734e-01,1.481737570613065602e-01
9.719999999999999751e-01,4.217576014076059865e-01,2.115870128293337316e-01,1.467198563799883282e-01
9.729999999999999760e-01,4.335381201653071837e-01,2.174266178382791015e-01,1.640499166587207625e-01
9.739999999999999769e-01,4.315790007206445345e-01,1.892674998865815084e-01,1.780934310666601461e-01
9.749999999999999778e-01,4.332466933216611027e-01,1.770004229412301677e-01,1.811942151134747769e-01
9.759999999999999787e-01,4.139136378940717065e-01,1.635890485839729125e-01,1.908066492891989374e-01
9.769999999999999796e-01,4.166939073597790699e-01,1.483669235585534096e-01,2.113084016753056515e-01
9.779999999999999805e-01,4.150230417917154524e-01,1.249933270015811254e-01,2.042216374078818231e-01
9.789999999999999813e-01,3.853277945164936824e-01,1.110083157690101990e-01,2.140167207007235839e-01
9.799999999999999822e-01,3.894331341812942160e-01,8.673300571406478143e-02,2.278087463435735927e-01
9.809999999999999831e-01,3.816511786024561759e-01,6.797604019935810094e-02,2.424391479320809339e-01
9.819999999999999840e-01,3.798858330880172662e-01,5.384780866564197604e-02,2.280096910751485961e-01
9.829999999999999849e-01,3.561774348428548564e-01,4.426309231505547864e-02,2.367763943922870928e-01
9.839999999999999858e-01,3.458948711200653392e-01,1.686577039490326155e-02,2.345910107972986325e-01
9.849999999999999867e-01,3.321339490156403618e-01,-1.162582461712026970e-02,2.408920527634433317e-01
9.859999999999999876e-01,3.401033554893772570e-01,-2.509519379338187237e-02,2.727868075021749883e-01
9.869999999999999885e-01,2.967630187932369656e-01,-5.059127795149635093e-02,2.607881317422240386e-01
9.879999999999999893e-01,2.796121927234425653e-01,-7.175537318834067368e-02,2.565214498621487538e-01
9.889999999999999902e-01,2.645013425769013882e-01,-7.968300030027344882e-02,2.512331125619871597e-01
9.899999999999999911e-01,2.437005394194335928e-01,-1.042645724506317262e-01,2.500461657777701685e-01
9.909999999999999920e-01,2.383284354196843757e-01,-1.086494813593067155e-01,2.642607307742130263e-01
9.919999999999999929e-01,2.001832866164338365e-01,-1.465432940607696577e-01,2.516950692294424585e-01
9.929999999999999938e-01,1.868359514670300259e-01,-1.585989052157726342e-01,2.551872412401907098e-01
9.939999999999999947e-01,1.713849795008945964e-01,-1.691153761499810948e-01,2.400957836426436398e-01
9.949999999999999956e-01,1.245399459416008658e-01,-1.890455585653271486e-01,2.473852101466446907e-01
9.959999999999999964e-01,1.090304999071380621e-01,-2.194680807063540962e-01,2.474202973586941967e-01
9.969999999999999973e-01,8.875038428240740462e-02,-2.138119975691646912e-01,2.393190757169315896e-01
9.979999999999999982e-01,8.277330183278458486e-02,-2.406348748278401284e-01,2.345222618248037350e-01
9.989999999999999991e-01,4.184323557636351193e-02,-2.489507836261514173e-01,2.186558998710494139e-01
1.000000000000000000e+00,3.116426772658400027e-02,-2.594778408928377633e-01,1.992666357141667788e-01
1.000999999999999890e+00,1.391454544316371575e-03,-2.635080836239073743e-01,2.049184710419985345e-01
1.002000000000000002e+00,-3.250446517429275706e-02,-2.815686557302228277e-01,1.864710695827608566e-01
1.002999999999999892e+00,-5.416367938023088080e-02,-2.893028422831823154e-01,1.750787745188025490e-01
1.004000000000000004e+00,-6.569643963171151180e-02,-3.098815662610859833e-01,1.667629849227254268e-01
1.004999999999999893e+00,-8.098640639423397569e-02,-3.224475021108699768e-01,1.596397465393754045e-01
1.006000000000000005e+00,-1.163895188371106698e-01,-3.045036004680892749e-01,1.461405490771938431e-01
1.006999999999999895e+00,-1.477530341718862883e-01,-3.247187501261017406e-01,1.328157086216316396e-01
1.008000000000000007e+00,-1.657090909869965156e-01,-3.417310454282196930e-01,1.255086777189630687e-01
1.008999999999999897e+00,-1.925020506881449378e-01,-3.441895008827951519e-01,1.085965991223665911e-01
1.010000000000000009e+00,-2.045435118933291996e-01,-3.382917884393490948e-01,9.855409853955908461e-02
1.010999999999999899e+00,-2.419283618161434113e-01,-3.509614989809891616e-01,9.049722783101572798e-02
1.012000000000000011e+00,-2.545693767550339937e-01,-3.411647511482474582e-01,6.840318367241744746e-02
1.012999999999999901e+00,-2.754625661985090068e-01,-3.358243677445035269e-01,5.430743341721513268e-02
1.014000000000000012e+00,-2.882948517695930191e-01,-3.244359628142933771e-01,4.844560647622285499e-02
1.014999999999999902e+00,-3.129591394276419747e-01,-3.433516557770452948e-01,2.819215922293019302e-02
1.016000000000000014e+00,-3.206085925054792396e-01,-3.352724085717576075e-01,2.364466316541548319e-02
1.016999999999999904e+00,-3.592518644843522013e-01,-3.297158137407948386e-01,4.891579528871986202e-03
1.018000000000000016e+00,-3.623312628159859883e-01,-3.407777684646008387e-01,-1.080702175919740458e-02
1.018999999999999906e+00,-3.573872918697749146e-01,-3.052947468319091029e-01,-3.089386134892559144e-02
1.020000000000000018e+00,-3.811163406943819387e-01,-3.018200197355904169e-01,-3.608828920345572011e-02
1.020999999999999908e+00,-3.868765173314312467e-01,-3.105442109734372069e-01,-5.448102777327542418e-02
1.022000000000000020e+00,-4.027984522172537996e-01,-2.958292621270282585e-01,-6.866374122937436708e-02
1.022999999999999909e+00,-4.174788472171663822e-01,-2.933807909121333712e-01,-8.194497333266065331e-02
1.024000000000000021e+00,-4.124718840592838665e-01,-2.702709607840481643e-01,-8.176868248622876090e-02
1.024999999999999911e+00,-4.244654171716419899e-01,-2.652248557380668115e-01,-1.232228943167220092e-01
1.026000000000000023e+00,-4.339796450534849082e-01,-2.530809381282947967e-01,-1.189190505823376209e-01
1.026999999999999913e+00,-4.176754163059231972e-01,-2.225885659568872799e-01,-1.298221924538206784e-01
1.028000000000000025e+00,-4.230267036046373441e-01,-2.117469646626891910e-01,-1.483264706084917450e-01
1.028999999999999915e+00,-4.189840767241445052e-01,-2.043535786614266436e-01,-1.581378446771390112e-01
1.030000000000000027e+00,-4.296596234309876250e-01,-1.864923228325231497e-01,-1.571565360176459814e-01
1.030999999999999917e+00,-4.258395422057741908e-01,-1.835468120452134477e-01,-1.683417914562495288e-01
1.032000000000000028e+00,-4.125980748717127944e-01,-1.443897763039511395e-01,-1.798837541193236966e-01
1.032999999999999918e+00,-4.118225239233510027e-01,-1.243916431173292120e-01,-1.987993959696736368e-01
1.034000000000000030e+00,-4.117585405889673256e-01,-1.067655208505219194e-01,-2.144341255580680117e-01
1.034999999999999920e+00,-3.981135824868683448e-01,-1.041716888229888976e-01,-2.122817506147518518e-01
1.036000000000000032e+00,-4.077806498684811709e-01,-7.944119047836603609e-02,-2.095636162523933088e-01
1.036999999999999922e+00,-3.826117481862166270e-01,-4.826652331951997860e-02,-2.258073859000957750e-01
1.038000000000000034e+00,-3.773342568844887390e-01,-4.358812521252140165e-02,-2.433350379790973073e-01
1.038999999999999924e+00,-3.752721978942703540e-01,-1.233066763482023806e-02,-2.381224648969211266e-01
1.040000000000000036e+00,-3.476871437885287186e-01,-5.388972167650173811e-03,-2.509323148991294272e-01
1.040999999999999925e+00,-3.178354518786113969e-01,2.476195508909199983e-02,-2.488954424115074615e-01
1.042000000000000037e+00,-3.201120244314090146e-01,3.235076008164099182e-02,-2.559386790049495430e-01
1.042999999999999927e+00,-2.993936133452606008e-01,5.656235674709217398e-02,-2.625076353332029266e-01
1.044000000000000039e+00,-2.855791406096273022e-01,5.715709938937293261e-02,-2.584332716261519836e-01
1.044999999999999929e+00,-2.621878065676827019e-01,8.295103843604338667e-02,-2.289148904132530249e-01
1.046000000000000041e+00,-2.341465759656141121e-01,1.111467181114638159e-01,-2.423417164323026229e-01
1.046999999999999931e+00,-2.109321932305495417e-01,1.266797753026419060e-01,-2.666826733538986138e-01
1.048000000000000043e+00,-1.987349272073358486e-01,1.426841547683037059e-01,-2.540890614369449296e-01
1.048999999999999932e+00,-1.788150944659645525e-01,1.638278806255536180e-01,-2.487611442408826368e-01
1.050000000000000044e+00,-1.670575299785255485e-01,1.803980041791346522e-01,-2.471440931760878756e-01
1.050999999999999934e+00,-1.347916018542541228e-01,1.849374797696884676e-01,-2.338048051743611966e-01
1.052000000000000046e+00,-1.220722032376286847e-01,2.146595132238142134e-01,-2.473738808670032374e-01
1.052999999999999936e+00,-8.571693063761441633e-02,2.250788037018231769e-01,-2.255674066505207742e-01
1.054000000000000048e+00,-7.283418639729295763e-02,2.433604723645230727e-01,-2.375286804945994090e-01
1.054999999999999938e+00,-4.628926667385537680e-02,2.425352807780213615e-01,-2.189679237426281344e-01
1.056000000000000050e+00,-2.091644098201813837e-02,2.676334290815562955e-01,-2.085077592639045518e-01
1.056999999999999940e+00,4.110249633591665959e-03,2.676155607342761145e-01,-2.009731591925932315e-01
1.058000000000000052e+00,2.200101180822161898e-02,2.888758599996145704e-01,-2.071804700181053560e-01
1.058999999999999941e+00,5.748305452698247026e-02,3.077149091847563578e-01,-1.969820659350556280e-01
1.060000000000000053e+00,8.039188837693567180e-02,3.183301811386780589e-01,-1.773892979884269805e-01
1.060999999999999943e+00,1.037248591062594760e-01,3.068437096785917029e-01,-1.665885355257022693e-01
1.062000000000000055e+00,1.301808234456929281e-01,3.243615503411798051e-01,-1.501976686986301046e-01
1.062999999999999945e+00,1.518171589005982147e-01,3.208176832342562457e-01,-1.555494316920867925e-01
1.064000000000000057e+00,1.667447713981829172e-01,3.343773432626216402e-01,-1.278399764924116888e-01
1.064999999999999947e+00,1.961030440800325680e-01,3.375829455533919665e-01,-1.093961436224482470e-01
1.066000000000000059e+00,2.337253920374096072e-01,3.356831645489596339e-01,-1.180948257634027859e-01
1.066999999999999948e+00,2.288378578154920961e-01,3.521846496926482883e-01,-9.398623968421616903e-02
1.068000000000000060e+00,2.604956561494680689e-01,3.321221026528775599e-01,-7.161974661567838130e-02
1.068999999999999950e+00,2.666710230473235410e-01,3.533162294160104855e-01,-6.695967145901679518e-02
1.070000000000000062e+00,2.818583098012698573e-01,3.448678989869257694e-01,-5.411552247581583736e-02
1.070999999999999952e+00,3.039331130368671530e-01,3.434892752178103081e-01,-4.656852983557178971e-02
1.072000000000000064e+00,3.209597665683774914e-01,3.343078379549224155e-01,-2.681090585123686865e-02
1.072999999999999954e+00,3.207318249131165255e-01,3.314770579547019480e-01,-1.023307088415429701e-02
1.074000000000000066e+00,3.516983204420520703e-01,3.212301650130053310e-01,2.693744397388631202e-03
1.074999999999999956e+00,3.688919308934368591e-01,3.012064754838647551e-01,8.768519752763966404e-03
1.076000000000000068e+00,3.823643371732133311e-01,2.938209018340378065e-01,3.041661694063749199e-02
1.076999999999999957e+00,3.826312327093526200e-01,2.929185735415821279e-01,5.301143462041685295e-02
1.078000000000000069e+00,3.972860582786965078e-01,2.878395845694165511e-01,5.265327948332788194e-02
1.078999999999999959e+00,4.167389076214284560e-01,2.664104268148157484e-01,8.121430025512819950e-02
1.080000000000000071e+00,4.108669684152394530e-01,2.715060715042084682e-01,9.082334844136157048e-02
1.080999999999999961e+00,4.244337439595822214e-01,2.367391483970257005e-01,1.054470441435215455e-01
1.082000000000000073e+00,4.247264565051173113e-01,2.466199410190863250e-01,1.208078947421871718e-01
1.082999999999999963e+00,4.113045077195464638e-01,2.195024489437749637e-01,1.196413367904642644e-01
1.084000000000000075e+00,4.187610050743841295e-01,2.099952213852744332e-01,1.510029549347191857e-01
1.084999999999999964e+00,4.130909340602318958e-01,1.913372288770017471e-01,1.628341019219994301e-01
1.086000000000000076e+00,4.332720626609145032e-01,1.665826648481051886e-01,1.544505011763551150e-01
1.086999999999999966e+00,4.230495207233450627e-01,1.611484408544842928e-01,1.763659391598571824e-01
1.088000000000000078e+00,4.310021614260858280e-01,1.374551059082078919e-01,1.824165305489343358e-01
1.088999999999999968e+00,4.114508410113236758e-01,1.224839030934869039e-01,1.997620059942532000e-01
1.090000000000000080e+00,4.163115971870189891e-01,9.663647490813102869e-02,1.985753906255927903e-01
1.090999999999999970e+00,3.991456723076340363e-01,8.014033405373281738e-02,2.200467039550936532e-01
1.092000000000000082e+00,3.983006759008907993e-01,5.660227712411820128e-02,2.230168774654999464e-01
1.092999999999999972e+00,3.767062759332741040e-01,4.306124173979003489e-02,2.367664730443510834e-01
1.094000000000000083e+00,3.790379307650026952e-01,2.888895113524319810e-02,2.405596594168672442e-01
1.094999999999999973e+00,3.547644892918030424e-01,8.129025786607039714e-03,2.417062226039895512e-01
1.096000000000000085e+00,3.468193620417825973e-01,-1.339990798727765629e-02,2.387489972417022044e-01
1.096999999999999975e+00,3.319381322525389866e-01,-2.379995259839275817e-02,2.463006698429021923e-01
1.098000000000000087e+00,3.133954463820120551e-01,-4.705851063753150459e-02,2.486941168089698839e-01
1.098999999999999977e+00,3.010864397032403383e-01,-5.348722896947771116e-02,2.534057795503252275e-01
1.100000000000000089e+00,2.711142312502253793e-01,-9.665226530266968208e-02,2.619421983740747306e-01
1.100999999999999979e+00,2.690846152629557397e-01,-1.141973885890863183e-01,2.445254811368015313e-01
1.102000000000000091e+00,2.413140044392071137e-01,-1.262071933069504603e-01,2.502496226672966673e-01
1.102999999999999980e+00,2.225213280724870346e-01,-1.460775984060496135e-01,2.479408972629470465e-01
1.104000000000000092e+00,2.086385696947918866e-01,-1.600518918396826862e-01,2.658750497133182678e-01
1.104999999999999982e+00,1.797249603230082482e-01,-1.748562339310087421e-01,2.598808321329659221e-01
1.106000000000000094e+00,1.562159802915689677e-01,-1.887282551740540049e-01,2.490417087751619907e-01
1.106999999999999984e+00,1.159609411785668953e-01,-2.159477137289019522e-01,2.653120127129003358e-01
1.108000000000000096e+00,1.075300062875671481e-01,-2.206286524481682887e-01,2.377415188661008705e-01
1.108999999999999986e+00,8.303463391871200583e-02,-2.397172175235253444e-01,2.455351693821354320e-01
1.110000000000000098e+00,5.516004213019334856e-02,-2.471322659186297177e-01,2.178480253518493004e-01
1.110999999999999988e+00,3.241550574390137524e-02,-2.630961771739824262e-01,2.170088269079892829e-01
1.112000000000000099e+00,2.454009841772344241e-02,-2.837206034818781086e-01,2.365378863863479009e-01
1.112999999999999989e+00,-8.738703268736295812e-03,-2.779685844042488196e-01,2.077345743267785538e-01
1.114000000000000101e+00,-1.959273462877908142e-02,-2.999170440367319723e-01,1.972521211687733034e-01
1.114999999999999991e+00,-6.786970219033841567e-02,-3.121380252706433267e-01,2.109423982605613812e-01
1.116000000000000103e+00,-8.197507245027446654e-02,-3.188635572581436373e-01,1.786368714239496003e-01
1.116999999999999993e+00,-1.147018863566183211e-01,-3.381798441372332320e-01,1.674271121052224587e-01
1.118000000000000105e+00,-1.198398121616562756e-01,-3.260897736655689050e-01,1.589516102494973326e-01
1.118999999999999995e+00,-1.484330380485271161e-01,-3.301772938375752697e-01,1.510183817960062957e-01
1.120000000000000107e+00,-1.647592861245641693e-01,-3.375538911600069469e-01,1.347787921839028735e-01
1.120999999999999996e+00,-1.890701456759289745e-01,-3.303066885564272526e-01,1.219597273499741230e-01
1.122000000000000108e+00,-2.195346216078032375e-01,-3.386398534761528301e-01,1.166128785343251567e-01
1.122999999999999998e+00,-2.516612250470066647e-01,-3.355108830548961252e-01,9.905012283882487500e-02
1.124000000000000110e+00,-2.518329334938180231e-01,-3.446508508571136109e-01,9.587555438456560331e-02
1.125000000000000000e+00,-2.741541412202898598e-01,-3.346708913290695198e-01,6.122401179338664290e-02
1.125999999999999890e+00,-3.037733525935658596e-01,-3.369695706321834683e-01,6.066581786497998730e-02
1.127000000000000002e+00,-3.229771947791229558e-01,-3.238043300209236808e-01,5.375833469324289154e-02
1.127999999999999892e+00,-3.248480226890063105e-01,-3.232022544094583227e-01,3.452855967930362063e-02
1.129000000000000004e+00,-3.427871587799974917e-01,-3.290313888342486504e-01,2.448197730460360128e-02
1.129999999999999893e+00,-3.602276698767369334e-01,-3.141689066243179562e-01,-2.365566563014800516e-03
1.131000000000000005e+00,-3.676842973099525569e-01,-3.119976801491787799e-01,-1.196942952679913054e-02
1.131999999999999895e+00,-3.720312625999716571e-01,-3.122638936132032805e-01,-2.394228552673772353e-02
1.133000000000000007e+00,-3.997716904319139619e-01,-2.972957580018235069e-01,-5.002407176565559083e-02
1.133999999999999897e+00,-4.033568240323578968e-01,-2.765407607082728259e-01,-5.824354374074587615e-02
1.135000000000000009e+00,-4.084004325778082256e-01,-2.597811857174445738e-01,-7.323201184243004203e-02
1.135999999999999899e+00,-4.077350201481070857e-01,-2.520312926118454255e-01,-9.135159501401354798e-02
1.137000000000000011e+00,-4.247943446403171230e-01,-2.464426094669205647e-01,-9.915941787365803450e-02
1.137999999999999901e+00,-4.250693766832169818e-01,-2.232817045071451012e-01,-1.150632225537150527e-01
1.139000000000000012e+00,-4.413236286218928384e-01,-2.073803495255640839e-01,-1.152071335576017735e-01
1.139999999999999902e+00,-4.247548781746680047e-01,-1.981093610481637068e-01,-1.223239138901285189e-01
1.141000000000000014e+00,-4.181044348304261415e-01,-1.747813551298074142e-01,-1.481859243730677400e-01
1.141999999999999904e+00,-4.234943866355000974e-01,-1.710634034171542306e-01,-1.616157713988410072e-01
1.143000000000000016e+00,-4.215042301532161417e-01,-1.342990626141675470e-01,-1.711997315545309151e-01
1.143999999999999906e+00,-4.171006126590515728e-01,-1.308676369508509629e-01,-1.850410975405517022e-01
1.145000000000000018e+00,-4.117056879927723512e-01,-1.009315944164753676e-01,-1.917206466739173332e-01
1.145999999999999908e+00,-3.991889494189706511e-01,-9.170724267532776031e-02,-2.079969819395265651e-01
1.147000000000000020e+00,-3.932835748972359213e-01,-6.791964448402895704e-02,-2.005123887286852369e-01
1.147999999999999909e+00,-4.178956178765133589e-01,-4.946021456409274014e-02,-2.337767991861019190e-01
1.149000000000000021e+00,-3.785012446968262778e-01,-2.412596613022440981e-02,-2.323508445977290615e-01
1.149999999999999911e+00,-3.690940135261837063e-01,-7.563326952287054324e-03,-2.334275372494551415e-01
1.151000000000000023e+00,-3.533163854273136395e-01,3.816649917773804520e-03,-2.343957996500745378e-01
1.151999999999999913e+00,-3.446467755801266297e-01,2.630509602985021261e-02,-2.461055670253849692e-01
1.153000000000000025e+00,-3.135564972392076988e-01,3.496595443275012788e-02,-2.445669656938712910e-01
1.153999999999999915e+00,-2.976095701185467179e-01,5.660275736159894183e-02,-2.345927769206929969e-01
1.155000000000000027e+00,-2.964943836478609041e-01,8.186043489685444763e-02,-2.533743487058884858e-01
1.155999999999999917e+00,-2.865499168663716012e-01,9.132546684243612878e-02,-2.590575855189416465e-01
1.157000000000000028e+00,-2.653195687561947791e-01,1.099263504188840723e-01,-2.628830935029263238e-01
1.157999999999999918e+00,-2.422074027004147145e-01,1.412380092513813856e-01,-2.397400816418532032e-01
1.159000000000000030e+00,-2.278770182637188668e-01,1.515147223919879327e-01,-2.699714238082627227e-01
1.159999999999999920e+00,-2.032851057541008588e-01,1.796723514070956707e-01,-2.628020844718046423e-01
1.161000000000000032e+00,-1.728930187002487850e-01,1.865315623593691019e-01,-2.551913331780781280e-01
1.161999999999999922e+00,-1.553822288617421887e-01,1.994479220549935927e-01,-2.546702792594668918e-01
1.163000000000000034e+00,-1.233015075215546236e-01,2.189714213909410845e-01,-2.421581251407064761e-01
1.163999999999999924e+00,-1.017591753997187515e-01,2.237381253672555137e-01,-2.470287665710442504e-01
1.165000000000000036e+00,-9.209274389809105066e-02,2.549727838656685730e-01,-2.375838578292950032e-01
1.165999999999999925e+00,-4.679394974762033504e-02,2.600467346118371381e-01,-2.268656175525213259e-01
1.167000000000000037e+00,-2.933493723974198164e-02,2.634351250257460086e-01,-2.325279634732904110e-01
1.167999999999999927e+00,-1.313622931297283095e-02,2.838846404401351720e-01,-2.106265146015355860e-01
1.169000000000000039e+00,1.149264693574711220e-02,2.982038066962007239e-01,-2.166722585157893899e-01
1.169999999999999929e+00,2.928649108703181361e-02,3.060382119872076534e-01,-2.056097323945370314e-01
1.171000000000000041e+00,5.511623189717079069e-02,3.112499637785590134e-01,-2.016163367510067639e-01
1.171999999999999931e+00,8.251681567826581187e-02,3.176762972071792701e-01,-1.827675577493206582e-01
1.173000000000000043e+00,1.155965547620829287e-01,3.283057603067300878e-01,-1.627735145907300285e-01
1.173999999999999932e+00,1.362592648033880138e-01,3.253289677396290491e-01,-1.669091363977079634e-01
1.175000000000000044e+00,1.468073782850636277e-01,3.331197433166155908e-01,-1.577402051221146462e-01
1.175999999999999934e+00,1.743302593764549380e-01,3.374626720393240076e-01,-1.385062768185204851e-01
1.177000000000000046e+00,1.851955112762724009e-01,3.477178861292389844e-01,-1.159325440093544879e-01
1.177999999999999936e+00,2.015679599507051167e-01,3.378758890399209958e-01,-1.126987280979630940e-01
1.179000000000000048e+00,2.460136690349179756e-01,3.405900774583084378e-01,-1.123484750189866765e-01
1.179999999999999938e+00,2.576428982289992176e-01,3.447090212292294176e-01,-9.604991745754283550e-02
