time,acc_x,acc_y,acc_z
0.000000000000000000e+00,5.999027121676792085e-01,4.305824796972749779e-01,4.327176257039075935e-01
1.000000000000000021e-03,2.431528596375468476e-01,1.393242577940027871e-01,2.128176606231396151e-01
2.000000000000000042e-03,9.351691960992418971e-04,1.522683776478454300e-02,-3.044256461117273230e-03
3.000000000000000062e-03,8.773626173402494788e-02,1.492554133720941090e-01,4.077457988527434518e-02
4.000000000000000083e-03,2.680680751099781545e-01,2.063814152967695936e-01,1.511821585161105541e-01
5.000000000000000104e-03,6.294821782236940944e-02,-4.256535030839278533e-02,8.556049329939907633e-02
6.000000000000000125e-03,-4.457096805259018191e-01,-4.348392193816701945e-01,-1.522117459736221645e-01
7.000000000000000146e-03,-7.693986110503612252e-01,-6.187253165300919955e-01,-4.307062652664557789e-01
8.000000000000000167e-03,-6.525005745759328013e-01,-3.832742759891533679e-01,-4.222568212042925317e-01
8.999999999999999320e-03,-5.316432090778805408e-02,1.016236947611016822e-01,-1.251013668678113422e-01
1.000000000000000021e-02,5.118985345010972354e-01,4.725741208116281400e-01,2.170043440358413178e-01
1.099999999999999936e-02,6.607261714424004229e-01,4.853670233697987002e-01,4.259137169214337604e-01
1.200000000000000025e-02,3.998613134544738434e-01,2.567883691620692632e-01,3.295525313944972501e-01
1.299999999999999940e-02,1.391783583905036037e-01,5.792335288059728693e-02,1.004807262274977908e-01
1.400000000000000029e-02,-3.300414914109053854e-02,-1.694438508199577753e-02,1.753375172554904465e-02
1.499999999999999944e-02,-7.216643187986171437e-02,-1.918732743195599583e-02,-2.927832401470889523e-02
1.600000000000000033e-02,-1.277641404552570803e-01,-1.667249707799784986e-01,-5.121652185593605217e-02
1.700000000000000122e-02,-3.184634699967697768e-01,-2.927405035517882115e-01,-1.546258826016821686e-01
1.799999999999999864e-02,-5.186059578366082334e-01,-4.185148598402921860e-01,-2.485349561727642764e-01
1.899999999999999953e-02,-5.087901632177521671e-01,-3.074421414860546986e-01,-3.150412011365434362e-01
2.000000000000000042e-02,-1.652518240429812768e-01,1.484252822666942001e-02,-1.855421546750314898e-01
2.100000000000000130e-02,3.278262955596349393e-01,4.080440897823263136e-01,8.728882972422637165e-02
2.199999999999999872e-02,6.686830815063476985e-01,5.922830978475025487e-01,3.398258049583420259e-01
2.299999999999999961e-02,6.847770258121627096e-01,4.354650675836928553e-01,4.341286685700928016e-01
2.400000000000000050e-02,2.849321524830978891e-01,5.989699464421260194e-02,2.801033151581824310e-01
2.500000000000000139e-02,-2.058671892526864333e-01,-2.904684054492696066e-01,1.050475612963195108e-03
2.599999999999999881e-02,-4.095025511658005879e-01,-3.226637895664281608e-01,-2.221783795488020408e-01
2.699999999999999969e-02,-2.887175924340595334e-01,-1.711990006635005501e-01,-2.511462628330494717e-01
2.800000000000000058e-02,-1.451852569016779393e-01,-1.095893149491641433e-01,-1.421469633576123437e-01
2.900000000000000147e-02,-1.815723535522186516e-01,-2.714100587001513909e-01,-1.127472021399925362e-01
2.999999999999999889e-02,-3.320409415477802995e-01,-3.172288499697225594e-01,-1.834843121184791259e-01
3.099999999999999978e-02,-2.856287137526153930e-01,-6.503126257387817355e-02,-2.200100125347953239e-01
3.200000000000000067e-02,1.926620708953893646e-01,4.192394653553790373e-01,-5.763147635636217680e-02
3.300000000000000155e-02,7.264132040211065400e-01,7.047583665976590028e-01,2.700014127818770038e-01
3.400000000000000244e-02,8.832895046987786491e-01,5.163914793797551583e-01,5.355307481191877716e-01
3.500000000000000333e-02,3.398030498157036949e-01,-2.837146478056205845e-02,4.181542239813968997e-01
3.599999999999999728e-02,-3.374294811641997405e-01,-4.771868374655082734e-01,9.930411939808045721e-03
3.699999999999999817e-02,-6.987896149443824090e-01,-4.759483252898930039e-01,-3.631043695650511549e-01
3.799999999999999906e-02,-3.971038551954047535e-01,-1.265188482059802499e-01,-3.940819631169409365e-01
3.899999999999999994e-02,-4.128936878349159789e-02,4.650177956807331064e-02,-1.741893810458399194e-01
4.000000000000000083e-02,1.323715632158209768e-02,-1.426317765426991790e-01,2.180950166596667267e-02
4.100000000000000172e-02,-2.345141329752777615e-01,-3.015746639320093236e-01,-4.223357415784058377e-02
4.200000000000000261e-02,-3.072146769586082127e-01,-8.521111820543092463e-02,-1.615777855829501342e-01
4.299999999999999656e-02,1.286630042420335296e-01,4.159245128301717331e-01,-1.152853152631528183e-01
4.399999999999999745e-02,7.763088645299024426e-01,7.502842507426814578e-01,2.034760176293940737e-01
4.499999999999999833e-02,8.958911641388581648e-01,4.748247279696317102e-01,5.117337221613211806e-01
4.599999999999999922e-02,3.552442470317130896e-01,-1.426566616592559456e-01,4.925881880130482671e-01
4.700000000000000011e-02,-4.423249031058832381e-01,-5.778457970010171252e-01,4.773968873223360249e-02
4.800000000000000100e-02,-7.681103400398604508e-01,-4.866632469422784157e-01,-3.344949641543726870e-01
4.900000000000000189e-02,-5.096992594357165896e-01,-1.598397281520970992e-01,-4.818293403059691338e-01
5.000000000000000278e-02,-5.669838685352305424e-02,4.115030713021678582e-02,-2.054347790512513761e-01
5.099999999999999672e-02,5.623313515093040366e-02,-7.802009703319479073e-02,1.604892579041709497e-02
5.199999999999999761e-02,-1.028887095510587352e-01,-2.013857832961883643e-01,4.107281086808849124e-02
5.299999999999999850e-02,-1.751308882442362269e-01,7.190056239922212877e-02,-9.180566071791150529e-02
5.399999999999999939e-02,1.985802234726511961e-01,4.327009108648223745e-01,-8.072120623643476434e-02
5.500000000000000028e-02,6.248509564121157434e-01,6.342585691178044272e-01,1.710780842297386362e-01
5.600000000000000117e-02,7.439083475848635718e-01,3.737420085725277064e-01,4.285324649215834225e-01
5.700000000000000205e-02,3.033673523525060034e-01,-1.561780941488699337e-01,3.936535970662793371e-01
5.800000000000000294e-02,-3.570596436892476411e-01,-5.601821359190162219e-01,5.709943874017388288e-02
5.899999999999999689e-02,-6.990961248738768452e-01,-5.254248853931613450e-01,-2.849492110462515382e-01
5.999999999999999778e-02,-5.591714899948490025e-01,-2.683421640984627321e-01,-4.576311453599286594e-01
6.099999999999999867e-02,-2.382013175037966113e-01,9.135865577464395053e-04,-3.198969409747477455e-01
6.199999999999999956e-02,5.270318866975141209e-02,7.412425009905111717e-02,-8.759603045719185910e-02
6.300000000000000044e-02,1.085265195184397374e-01,9.533805865361340282e-02,8.395834368023015470e-02
6.400000000000000133e-02,1.079422621797314630e-01,1.520459629435603199e-01,8.157539918720413397e-02
6.500000000000000222e-02,2.258612666513086231e-01,3.137518578959687665e-01,1.038314416915971233e-01
6.600000000000000311e-02,4.104167604468150765e-01,4.000216577727895295e-01,1.431065049021806590e-01
6.700000000000000400e-02,5.030909276577770761e-01,2.313809444359311018e-01,2.308553338598111904e-01
6.800000000000000488e-02,3.226085197049527453e-01,-5.776505251551680709e-02,2.694997470790099769e-01
6.900000000000000577e-02,-1.863636392606264625e-01,-4.259097802033243174e-01,1.384122235308561100e-01
7.000000000000000666e-02,-6.185260987681583389e-01,-6.015721901291277707e-01,-1.441672980747734090e-01
7.099999999999999367e-02,-7.456985575971892821e-01,-3.981825775531979694e-01,-3.605382736610984185e-01
7.199999999999999456e-02,-4.806054079936780132e-01,-2.187108692636614837e-02,-4.368546023372468778e-01
7.299999999999999545e-02,7.058571456330456351e-02,3.415771303161369565e-01,-2.438347805942039925e-01
7.399999999999999634e-02,4.289825787725281558e-01,3.422985007521963108e-01,1.289098687527371820e-02
7.499999999999999722e-02,4.472082813563295622e-01,1.836295505726928401e-01,2.645871509909116792e-01
7.599999999999999811e-02,2.416204255772355369e-01,9.339547294727759685e-02,2.618505646331024672e-01
7.699999999999999900e-02,1.257438212622858098e-01,1.468434185020983662e-01,1.512645693218321596e-01
7.799999999999999989e-02,1.926792402971057305e-01,2.323724425069239596e-01,5.351500142990021913e-02
7.900000000000000078e-02,2.661376760038276501e-01,5.019503259451133133e-03,1.288047391540019793e-01
8.000000000000000167e-02,1.956420176115674509e-02,-4.146872512501715291e-01,1.200701710142750706e-01
8.100000000000000255e-02,-5.081192687354378901e-01,-7.157229321196111327e-01,-3.683164645858598971e-04
8.200000000000000344e-02,-8.447257941484996868e-01,-4.785511534194090699e-01,-2.903281402338253603e-01
8.300000000000000433e-02,-6.350866104314006888e-01,4.391141871421919141e-02,-5.174202854515166372e-01
8.400000000000000522e-02,8.184336794195609666e-02,5.386287798930825543e-01,-3.881964771973179795e-01
8.500000000000000611e-02,6.592379612899404995e-01,5.312292498510061689e-01,2.380954005349958380e-02
8.599999999999999312e-02,6.733272556313313340e-01,1.465541419218172603e-01,3.915342744261226526e-01
8.699999999999999400e-02,2.540253090843341277e-01,-4.262362864377547411e-02,4.471949656170424725e-01
8.799999999999999489e-02,-9.910173184319238937e-02,4.595246274181793295e-02,1.945734000316303169e-01
8.899999999999999578e-02,3.207467228026064654e-02,2.391395435902289868e-01,-4.482041231931073455e-02
8.999999999999999667e-02,2.181711498479682043e-01,3.263234424035021258e-02,-8.599965327087491854e-03
9.099999999999999756e-02,9.203568461914084231e-02,-4.129698533918513270e-01,1.296948437177207480e-01
9.199999999999999845e-02,-4.538018123185479369e-01,-7.194785110265345951e-01,8.784288692615237204e-02
9.299999999999999933e-02,-8.670557381989146828e-01,-4.484845915354113144e-01,-2.114738236161620433e-01
9.400000000000000022e-02,-6.898483992017969690e-01,1.637056943922149954e-01,-4.932984643483299680e-01
9.500000000000000111e-02,7.898544803199426811e-02,6.239436839951527647e-01,-4.802745050885253164e-01
9.600000000000000200e-02,7.626852358338388482e-01,5.582758753582247602e-01,-2.666839749224839996e-03
9.700000000000000289e-02,7.782635287234076493e-01,1.379215071316724217e-01,4.007070103844098674e-01
9.800000000000000377e-02,2.469129866903971016e-01,-1.277236635062427850e-01,4.871500879738499545e-01
9.900000000000000466e-02,-1.235895122653719730e-01,-4.558485084873845766e-02,2.099045940844820046e-01
1.000000000000000056e-01,-1.117516848399875556e-01,8.241072495968833345e-02,-4.343486834744989672e-02
1.010000000000000064e-01,9.576583479317866965e-02,-3.778329172842764122e-02,-9.891316040377112762e-02
1.019999999999999934e-01,7.014254472701072010e-03,-4.093885714293158395e-01,-5.556414333020000219e-04
1.029999999999999943e-01,-3.895523802649576428e-01,-6.313436622890806760e-01,2.100935713950641617e-02
1.039999999999999952e-01,-7.211848811328065434e-01,-3.459712481655539129e-01,-1.645742831716491550e-01
1.049999999999999961e-01,-5.297762318419124705e-01,1.950974200278810800e-01,-4.274248687121247059e-01
1.059999999999999970e-01,9.567690704177202188e-02,5.794530987876992389e-01,-3.654070223469673140e-01
1.069999999999999979e-01,6.756053576972482766e-01,5.436105284420236217e-01,-5.146002715139143258e-02
1.079999999999999988e-01,7.667466451403649463e-01,2.099922807111150869e-01,3.491787869873317351e-01
1.089999999999999997e-01,4.010952286300182856e-01,-5.482883981163003129e-02,4.852621133760911531e-01
1.100000000000000006e-01,-6.986567763985738339e-03,-1.487053208558482553e-01,3.233021807639933631e-01
1.110000000000000014e-01,-2.141729570223349088e-01,-1.198988326224859763e-01,6.697531704616450920e-02
1.120000000000000023e-01,-2.279848642411543003e-01,-1.712732903403555162e-01,-9.216308718259479116e-02
1.130000000000000032e-01,-1.804305900330605006e-01,-2.884217654347266402e-01,-1.359817196710818021e-01
1.140000000000000041e-01,-2.945580666576831375e-01,-3.585986489816584966e-01,-1.003175246367974394e-01
1.150000000000000050e-01,-4.322037514601568819e-01,-2.286894124654638150e-01,-1.618178467415467836e-01
1.160000000000000059e-01,-3.576816499170841768e-01,1.316384577953493562e-01,-2.174261466432617362e-01
1.170000000000000068e-01,1.847466372248560487e-02,4.748663454227471381e-01,-2.705701690672028259e-01
1.179999999999999938e-01,4.876763180073021564e-01,5.963988042607222262e-01,-7.324626639144000972e-02
1.189999999999999947e-01,7.247916808329204486e-01,3.749989208819963227e-01,1.931456337498479170e-01
1.199999999999999956e-01,5.889817935804583238e-01,-3.651734684469822717e-02,3.933807507560255767e-01
1.209999999999999964e-01,1.621544846323750844e-01,-3.528540163048227152e-01,4.070962019455292569e-01
1.219999999999999973e-01,-3.486666257692958015e-01,-4.115946813342598598e-01,2.222805899262672857e-01
1.229999999999999982e-01,-5.290486295026737285e-01,-2.355716053079537908e-01,-8.343313396499971168e-02
1.239999999999999991e-01,-4.039936426726451479e-01,-9.225418220637106315e-02,-2.860316902658464611e-01
1.250000000000000000e-01,-1.695271629972926741e-01,-1.238652115705231455e-01,-3.075620215746048824e-01
1.260000000000000009e-01,-1.103591349109554476e-01,-1.724607793985647453e-01,-1.597466295847430051e-01
1.270000000000000018e-01,-1.501397016092766157e-01,3.033084640439784319e-02,-7.812277437373424394e-02
1.280000000000000027e-01,-8.426981084690890467e-02,4.133258379369813551e-01,-8.349004370842995348e-02
1.290000000000000036e-01,2.653977088493771896e-01,6.612450260700156734e-01,-1.043528220104446291e-01
1.300000000000000044e-01,6.702770363209246129e-01,4.799952058186533477e-01,5.456725687405290098e-02
1.310000000000000053e-01,7.760501245582613894e-01,-9.768661694071482937e-02,2.958505967577839124e-01
1.320000000000000062e-01,2.699412148895878327e-01,-5.676807334669113914e-01,4.702908011158007384e-01
1.330000000000000071e-01,-4.848634515547817769e-01,-5.590755119288115527e-01,3.592197276475757040e-01
1.340000000000000080e-01,-7.977927665539346069e-01,-2.009106326995953040e-01,-5.045964159615699135e-02
1.350000000000000089e-01,-5.259162864711246499e-01,1.163599451827501130e-01,-3.896094127389698181e-01
1.360000000000000098e-01,-3.323576619025211953e-02,2.908041145079154691e-02,-4.482644212540031203e-01
1.370000000000000107e-01,1.889058866212386389e-01,-1.073951607131185815e-01,-1.842580336255386086e-01
1.380000000000000115e-01,-1.258503117904786681e-02,-2.331333793827956857e-02,7.297091638686176163e-02
1.390000000000000124e-01,-1.419360406012231401e-01,3.948469701378949925e-01,1.015483216428679641e-01
1.400000000000000133e-01,1.474931386132595224e-01,6.719044227671594482e-01,-3.784651353844391275e-02
1.409999999999999865e-01,6.855768159413265783e-01,4.169864533748756097e-01,-4.327097398539325041e-02
1.419999999999999873e-01,8.084014840528795931e-01,-1.825679609194394981e-01,1.937310847651814993e-01
1.429999999999999882e-01,2.790835862820914559e-01,-6.947735883575341109e-01,4.582565669616157078e-01
1.439999999999999891e-01,-5.648259824503484294e-01,-5.985657115450431220e-01,3.801999130145984340e-01
1.449999999999999900e-01,-9.201333792769603726e-01,-1.515944831351827837e-01,-2.299905753244982538e-03
1.459999999999999909e-01,-6.379855937209817363e-01,1.647341824669845411e-01,-4.449634132848428458e-01
1.469999999999999918e-01,-4.958751544062492932e-03,1.229293373558508762e-01,-5.367787800870571502e-01
1.479999999999999927e-01,3.084430202281263633e-01,-4.697764437195901810e-02,-2.858164071958226304e-01
1.489999999999999936e-01,1.152117872276770261e-01,5.290595961665880975e-02,8.495114196269397400e-02
1.499999999999999944e-01,-4.683358652272035655e-02,3.487194455485221889e-01,1.726392857003807846e-01
1.509999999999999953e-01,1.301324894574777125e-01,5.386736403396014117e-01,6.295521902855089058e-02
1.519999999999999962e-01,5.674657496704246240e-01,3.055794112974189458e-01,-4.874353533384872400e-03
1.529999999999999971e-01,6.768032996647898036e-01,-2.316206007318919180e-01,1.325016150785076896e-01
1.539999999999999980e-01,2.084018004803948054e-01,-6.332233883494493565e-01,3.657371530096652501e-01
1.549999999999999989e-01,-4.966820063958968801e-01,-5.842601794601803844e-01,3.513346199360628530e-01
1.559999999999999998e-01,-8.283971746780806056e-01,-1.934871725664817910e-01,9.081319394915573356e-03
1.570000000000000007e-01,-6.061281788296613016e-01,1.305876588177540820e-01,-3.594075212724471280e-01
1.580000000000000016e-01,-1.126207436090903291e-01,2.230808249828395706e-01,-5.151463837858700767e-01
1.590000000000000024e-01,2.426899144673171083e-01,1.438051396490378775e-01,-3.254402945453739315e-01
1.600000000000000033e-01,3.059728273635183293e-01,1.816826188183077173e-01,2.513514171895310165e-02
1.610000000000000042e-01,2.157938234570350167e-01,2.853262112265466111e-01,1.573350387679589291e-01
1.620000000000000051e-01,2.186075366727219804e-01,3.186495175774542443e-01,1.609608002342775013e-01
1.630000000000000060e-01,3.467590325210559432e-01,1.235367031799949750e-01,1.366769219641251198e-01
1.640000000000000069e-01,3.591973277132850528e-01,-2.213264183589965239e-01,1.356637091271474527e-01
1.650000000000000078e-01,1.350454587968558662e-01,-4.910013351174561391e-01,1.811218752136095345e-01
1.660000000000000087e-01,-3.185206171812912657e-01,-5.481167630148620074e-01,2.128304301502198792e-01
1.670000000000000095e-01,-6.355086119684031365e-01,-3.290138516344598973e-01,5.825889240012573078e-02
1.680000000000000104e-01,-6.510868602047643616e-01,1.144692626643400712e-01,-2.149739901087298066e-01
1.690000000000000113e-01,-3.417641660275159143e-01,4.093202530104226300e-01,-4.335689592199815645e-01
1.700000000000000122e-01,1.730868826867126842e-01,4.016493762337944862e-01,-3.932346824934998542e-01
1.710000000000000131e-01,5.431743926230283570e-01,2.332398906997663890e-01,-1.469702164615323547e-01
1.719999999999999862e-01,5.322010365124559828e-01,4.068465765748718876e-02,1.713999101857968110e-01
1.729999999999999871e-01,2.593479898695545405e-01,2.578292446386946241e-02,3.218301698917133691e-01
1.739999999999999880e-01,7.184505034796949408e-02,7.438327360813991318e-02,3.022296249123987977e-01
1.749999999999999889e-01,5.504223897969036383e-02,-5.392877323480958773e-02,1.650121639263566475e-01
1.759999999999999898e-01,9.008413460459623046e-02,-3.740989780283210941e-01,5.781456107178301052e-02
1.769999999999999907e-01,-1.004423103140130447e-01,-6.086090159736776695e-01,3.448165018825520567e-02
1.779999999999999916e-01,-4.676484190506962069e-01,-4.419549966979589573e-01,2.835611994354336057e-02
1.789999999999999925e-01,-7.157435458167522579e-01,1.254360266895254428e-01,-6.976753994229756284e-02
1.799999999999999933e-01,-5.017897815201913803e-01,5.974644151195807051e-01,-3.089582097453739129e-01
1.809999999999999942e-01,1.715321406696250217e-01,5.862899278811398718e-01,-4.502742044668820998e-01
1.819999999999999951e-01,7.388101056143796530e-01,2.088765407849275391e-01,-2.761734646803362669e-01
1.829999999999999960e-01,7.802362546045695790e-01,-1.306093420572259634e-01,8.384621212222501119e-02
1.839999999999999969e-01,2.721687393874873129e-01,-1.370121252148603641e-01,4.319311068543938981e-01
1.849999999999999978e-01,-1.658933763543471995e-01,3.651189128758710462e-02,4.604319349464829902e-01
1.859999999999999987e-01,-1.982158397459783949e-01,-9.014980039434122546e-04,1.719795963633748981e-01
1.869999999999999996e-01,1.452499912167271208e-02,-3.719540474306863853e-01,-7.012979056505687370e-02
1.880000000000000004e-01,-9.641861364082026514e-03,-5.998582529181302192e-01,-1.553289757047227326e-01
1.890000000000000013e-01,-3.965886537406867474e-01,-4.158354581540148476e-01,-2.106400078402052845e-02
1.900000000000000022e-01,-7.633373608834743695e-01,2.324061612598003479e-01,1.701108712568269107e-02
1.910000000000000031e-01,-5.506852305806758663e-01,6.929779855916001763e-01,-2.012076109682086333e-01
1.920000000000000040e-01,1.723380894274569863e-01,6.431543695763697333e-01,-4.324472866077003763e-01
1.930000000000000049e-01,8.084237305967273413e-01,1.283891006764485143e-01,-3.675843420544246953e-01
1.940000000000000058e-01,8.319330188532729764e-01,-2.192149246893805581e-01,3.828890450111326060e-02
1.950000000000000067e-01,2.847418646705336398e-01,-2.217482531785553435e-01,4.585383418106205311e-01
1.960000000000000075e-01,-2.837691371514801109e-01,-1.772869932882351757e-02,5.378526971319931294e-01
1.970000000000000084e-01,-3.221475011019239165e-01,-5.374215981029505096e-02,2.725490359549563868e-01
1.980000000000000093e-01,-7.651613075404312125e-02,-3.179831505563270877e-01,-1.185508166237554117e-01
1.990000000000000102e-01,-1.594914915732480740e-03,-5.069435392833913090e-01,-2.126660835991326659e-01
2.000000000000000111e-01,-2.945557951718708600e-01,-2.770674343858696709e-01,-1.180663344462063030e-01
2.010000000000000120e-01,-6.250093160356958721e-01,2.813978562118159554e-01,4.560291373344744180e-03
2.020000000000000129e-01,-4.058539051210769966e-01,6.655380828962240702e-01,-1.215705075517321820e-01
2.030000000000000138e-01,1.811357459080123744e-01,6.030287381076312458e-01,-3.049365295950546839e-01
2.039999999999999869e-01,7.554328394493610155e-01,1.451677640362686039e-01,-3.059597732553366867e-01
2.049999999999999878e-01,8.230301076321216991e-01,-2.150913034232623533e-01,1.908661625316543375e-02
2.059999999999999887e-01,3.443166474395549792e-01,-3.187343527976613800e-01,3.867923273594955913e-01
2.069999999999999896e-01,-1.950499610080946300e-01,-1.891287161023271768e-01,4.987988527886589862e-01
2.079999999999999905e-01,-4.122361135082406869e-01,-1.505617075366735558e-01,3.170363475092200511e-01
2.089999999999999913e-01,-2.849265528952530935e-01,-2.380270873425392453e-01,-3.796307797388056432e-02
2.099999999999999922e-01,-1.955962327298067516e-01,-2.614631758428732633e-01,-2.416917645505784473e-01
2.109999999999999931e-01,-2.327776070959201304e-01,-1.131080654351868248e-01,-2.234125640080592834e-01
2.119999999999999940e-01,-3.297991365739005865e-01,1.973847252175094658e-01,-1.017818223141065820e-01
2.129999999999999949e-01,-2.215852751798191855e-01,5.247803401854501670e-01,-1.169450693723553814e-01
2.139999999999999958e-01,1.732875864597522575e-01,5.182670117422046863e-01,-1.667750701340368069e-01
2.149999999999999967e-01,5.503601391237326057e-01,2.478077069054698267e-01,-1.531523651433279454e-01
2.159999999999999976e-01,7.133298520967322753e-01,-1.262516196004955793e-01,6.325161070083325579e-03
2.169999999999999984e-01,4.385061741733035090e-01,-4.184823562109498130e-01,2.651105648046855889e-01
2.179999999999999993e-01,-4.783129401766583744e-02,-4.565518981096854945e-01,4.490000940407231633e-01
2.190000000000000002e-01,-4.863507263051081164e-01,-2.384244890356884972e-01,3.205983180586755021e-01
2.200000000000000011e-01,-5.994280453790886698e-01,-2.558624381831786990e-02,8.964247856662720115e-02
2.210000000000000020e-01,-4.081661739273176326e-01,7.336083314302314397e-03,-1.833917106571139044e-01
2.220000000000000029e-01,-1.131676188792013482e-01,-8.941660520054751579e-03,-3.492143427513508258e-01
2.230000000000000038e-01,3.256564310016399344e-02,1.184435065892475020e-01,-3.075046471790724434e-01
2.240000000000000047e-01,3.890367725111017194e-02,3.723266439870879796e-01,-1.378082743486756245e-01
2.250000000000000056e-01,7.146284038924281823e-02,5.546951913513371579e-01,-2.167595403188787070e-03
2.260000000000000064e-01,2.978294013866113477e-01,3.756747977583239084e-01,2.032006553260968379e-02
2.270000000000000073e-01,6.028003592107554764e-01,-1.719808346230540796e-01,1.980306199275935070e-02
2.280000000000000082e-01,6.028578019708792368e-01,-6.162794695525365407e-01,1.039173532353144247e-01
2.290000000000000091e-01,1.350777757182284322e-01,-6.471875077359277029e-01,2.685155389388949043e-01
2.300000000000000100e-01,-5.263080585355991436e-01,-1.961607005361752365e-01,3.843622273561376756e-01
2.310000000000000109e-01,-8.731484751113112175e-01,2.114452732502863086e-01,2.578465614342684287e-01
2.320000000000000118e-01,-5.919705312551638565e-01,2.075714697577271950e-01,-1.258502571613805410e-01
2.330000000000000127e-01,-8.169491822500927689e-03,5.156719703684376627e-02,-4.501307335262744180e-01
2.340000000000000135e-01,3.181008544548820649e-01,4.301230515624667600e-02,-4.856945278663324927e-01
2.349999999999999867e-01,1.893806528818147150e-01,2.732956475048292089e-01,-1.966570865740118190e-01
2.359999999999999876e-01,1.841870011291434073e-02,5.537488369056177140e-01,1.272629045188783115e-01
2.369999999999999885e-01,1.233494150058644240e-01,3.952523717807009951e-01,1.978336754649941687e-01
2.379999999999999893e-01,4.952219165051078287e-01,-2.183441079038912491e-01,7.365887662202887098e-02
2.389999999999999902e-01,6.658417552091794311e-01,-7.197403839390268399e-01,9.259567780531925349e-03
2.399999999999999911e-01,1.951700075588508054e-01,-6.690164272128219514e-01,1.534853590564232151e-01
2.409999999999999920e-01,-6.019616568196296535e-01,-1.619760963998097825e-01,3.481869247250277688e-01
2.419999999999999929e-01,-9.574257548667646223e-01,3.136980699899762914e-01,3.189837969124957873e-01
2.429999999999999938e-01,-6.406610440282239916e-01,2.840757655463523323e-01,-9.551734593227806380e-02
2.439999999999999947e-01,6.422065856689232466e-02,1.024649933930502077e-01,-4.778813082625151809e-01
2.449999999999999956e-01,4.586584094040936366e-01,2.898018588291436173e-02,-5.764355415634333513e-01
2.459999999999999964e-01,2.913460588663311368e-01,2.607358905337064936e-01,-2.412862444860212618e-01
2.469999999999999973e-01,5.112031236840414855e-02,4.392349277537703767e-01,1.690649490999155957e-01
2.479999999999999982e-01,8.032848372746284604e-02,2.314634445159474418e-01,2.983602425493154242e-01
2.489999999999999991e-01,4.161410437265424256e-01,-3.155568522047016433e-01,1.521310321541946287e-01
2.500000000000000000e-01,5.395449866276366135e-01,-7.152010402772731590e-01,1.000554869639310590e-02
2.510000000000000009e-01,1.090376121677847643e-01,-6.261608131651424936e-01,1.044505794223399286e-01
2.520000000000000018e-01,-5.795536042195730264e-01,-1.276346166977130603e-01,3.126843123967481541e-01
2.530000000000000027e-01,-9.273476372301788784e-01,2.816847646892484680e-01,2.788378273813938435e-01
2.540000000000000036e-01,-6.259625696726828226e-01,3.678541649605324704e-01,-5.290537422194506456e-02
2.550000000000000044e-01,2.123730360285181612e-02,2.356213206614061750e-01,-4.056179872377781992e-01
2.560000000000000053e-01,4.460952992192526723e-01,1.380113430051284895e-01,-5.396770868173348390e-01
2.570000000000000062e-01,4.504750101111753002e-01,1.496701054219714278e-01,-2.705344265109659307e-01
2.580000000000000071e-01,2.495367414954361429e-01,1.763247697677455539e-01,1.119433008718407341e-01
2.590000000000000080e-01,1.418224788984494000e-01,4.919876242620770113e-02,2.817105100114664640e-01
2.600000000000000089e-01,2.378164036566728090e-01,-2.773311755470768136e-01,2.563872827716119907e-01
2.610000000000000098e-01,2.441133223506564420e-01,-5.060804986531743932e-01,1.304439282269612421e-01
2.620000000000000107e-01,3.840405568115343258e-03,-5.094134588590918389e-01,6.872589648798160811e-02
2.630000000000000115e-01,-4.151715823480962020e-01,-2.211426983669294855e-01,1.360740182537951148e-01
2.640000000000000124e-01,-6.767630534603242820e-01,2.268237415702293036e-01,1.380124945189306618e-01
2.650000000000000133e-01,-5.918874652445397233e-01,4.520548328028899943e-01,-4.148944691027868503e-02
2.660000000000000142e-01,-1.503179332003948820e-01,4.675142939738610726e-01,-2.968541593806746648e-01
2.670000000000000151e-01,3.649415560646359635e-01,2.319238604023682315e-01,-4.343385149436966297e-01
2.680000000000000160e-01,6.117303627687169509e-01,9.070726528405995484e-03,-2.996628829583288245e-01
2.690000000000000169e-01,5.137189535308620547e-01,-5.114612393616577157e-02,-4.912652867078860786e-02
2.700000000000000178e-01,2.025254154178480481e-01,-5.358447874629538449e-02,2.231990500811371625e-01
2.710000000000000187e-01,-4.435267101566665870e-02,-1.462399123962337399e-01,3.784642050715724682e-01
2.720000000000000195e-01,-1.091299509119445788e-01,-3.237357129338980788e-01,3.007424785630818942e-01
2.730000000000000204e-01,-9.875085235607916623e-02,-4.729042551269572736e-01,1.392385070061493424e-01
2.740000000000000213e-01,-2.022651728371325230e-01,-3.022679876409042898e-01,-6.271024744298002440e-02
2.750000000000000222e-01,-4.442303813948355606e-01,1.877573042505348289e-01,-9.083814750770395630e-02
2.760000000000000231e-01,-5.433324762853175560e-01,6.241946478485598249e-01,-7.626126244657022157e-02
2.770000000000000240e-01,-3.111449825097981625e-01,6.075067820978929944e-01,-1.603001768543896588e-01
2.780000000000000249e-01,2.943029306727668604e-01,2.256961914462563279e-01,-2.714186879816113396e-01
2.790000000000000258e-01,8.007824761482528197e-01,-2.201305965430152001e-01,-3.267628133140054736e-01
2.800000000000000266e-01,7.734225840553868858e-01,-2.844893623033946661e-01,-1.755249630287985529e-01
2.810000000000000275e-01,2.734163777874305534e-01,-1.414139970232608512e-01,1.705137718082303799e-01
2.819999999999999729e-01,-3.031018626458263920e-01,-4.162463952981087373e-02,4.765634850293353764e-01
2.829999999999999738e-01,-3.996832778407515829e-01,-2.356813612783552614e-01,4.902618764853639566e-01
2.839999999999999747e-01,-1.702208147982016417e-01,-4.735081599816151621e-01,2.081508469831835906e-01
2.849999999999999756e-01,-1.827258005929434034e-02,-3.336378090728761570e-01,-1.451888242212674707e-01
2.859999999999999765e-01,-2.497395083095405310e-01,2.288516489805489662e-01,-2.540322239886181332e-01
2.869999999999999774e-01,-5.520178662037105166e-01,7.126581066137853693e-01,-1.084158321105418710e-01
2.879999999999999782e-01,-4.231472286308334829e-01,6.794579199844218431e-01,-2.684324135094630359e-02
2.889999999999999791e-01,2.265048526720624678e-01,1.469547398788481896e-01,-1.171539783994550166e-01
2.899999999999999800e-01,8.691914842231518445e-01,-3.816984501722942569e-01,-3.078893315903871164e-01
2.909999999999999809e-01,9.057264560487200411e-01,-3.871014231447427179e-01,-2.453318765289135839e-01
2.919999999999999818e-01,2.495615378093245518e-01,-1.512212103877741687e-01,1.089911543165520830e-01
2.929999999999999827e-01,-4.095561524879999804e-01,5.622777126806852155e-04,4.944907899135497220e-01
2.939999999999999836e-01,-5.664149625619816497e-01,-1.669387540676919024e-01,5.517181770453962741e-01
2.949999999999999845e-01,-2.348033175493558777e-01,-3.719768548269604125e-01,2.368114302921916769e-01
2.959999999999999853e-01,-1.535731911771832589e-02,-2.359747225290677874e-01,-2.207297312787854238e-01
2.969999999999999862e-01,-1.900940684382347312e-01,2.803616768088161293e-01,-3.619451973441332182e-01
2.979999999999999871e-01,-4.270148105869283617e-01,6.972611959542236448e-01,-1.939179496461541363e-01
2.989999999999999880e-01,-3.083213010121853004e-01,5.710269952871424026e-01,-2.553337045021651999e-02
2.999999999999999889e-01,2.845953757760179559e-01,9.406345845018271312e-02,-3.896940677528463320e-02
3.009999999999999898e-01,8.300614829711220333e-01,-3.676154481536380580e-01,-2.250011415321379327e-01
3.019999999999999907e-01,8.378008925762532311e-01,-4.381505841135786006e-01,-2.377665644644931520e-01
3.029999999999999916e-01,2.754695903566211634e-01,-2.848117254321896885e-01,4.818847573060958123e-02
3.039999999999999925e-01,-3.797377564436932307e-01,-9.318155136844716302e-02,4.574379304363581644e-01
3.049999999999999933e-01,-6.152365784174448349e-01,-1.162709313602402761e-01,5.522167117927241353e-01
3.059999999999999942e-01,-4.062835165615448219e-01,-1.501186218234164538e-01,2.867341543173628771e-01
3.069999999999999951e-01,-1.351390120670860617e-01,-1.889120417749658165e-02,-1.380093841599174254e-01
3.079999999999999960e-01,-8.677918391391035990e-02,2.880244417405176671e-01,-4.017579465457748467e-01
3.089999999999999969e-01,-1.948762520767515216e-01,5.442733878843835083e-01,-2.730733999169789317e-01
3.099999999999999978e-01,-1.010441925041971056e-01,4.711263019477567315e-01,-1.141638679612356072e-01
3.109999999999999987e-01,2.599151364064634651e-01,1.538275322935997169e-01,-4.691598711164867569e-02
3.119999999999999996e-01,6.255142763473257039e-01,-2.697446996985209400e-01,-9.635244188645551711e-02
3.130000000000000004e-01,6.624371898518485180e-01,-5.148751747847190030e-01,-8.467847140218967561e-02
3.140000000000000013e-01,3.081131538507497769e-01,-4.540708478708045948e-01,7.755334228828290877e-02
3.150000000000000022e-01,-2.459270706115885274e-01,-1.892587487624113884e-01,3.085810325289164435e-01
3.160000000000000031e-01,-5.801140793168042542e-01,3.621520464652504961e-02,4.200280994276139879e-01
3.170000000000000040e-01,-5.988171955799311830e-01,1.268678888433348306e-01,2.819152294096705647e-01
3.180000000000000049e-01,-3.447082494947324438e-01,1.118562431386916772e-01,-1.778356463114137698e-02
3.190000000000000058e-01,-2.520044434602937422e-02,1.775267654685662166e-01,-2.955497884862151592e-01
3.200000000000000067e-01,1.248707563296065221e-01,3.048491777822435744e-01,-3.831389677194529386e-01
3.210000000000000075e-01,1.865571473322442386e-01,3.932186994924036227e-01,-2.880736510541350714e-01
3.220000000000000084e-01,1.669908581403810044e-01,2.373742938123535595e-01,-8.418017911310267387e-02
3.230000000000000093e-01,3.050662776246341190e-01,-2.069318871045656150e-01,7.648594980332114324e-02
3.240000000000000102e-01,4.846563675770454993e-01,-6.101997492839285053e-01,1.184762340518417251e-01
3.250000000000000111e-01,4.258106961933516565e-01,-6.280685225965411123e-01,1.092639262241184989e-01
3.260000000000000120e-01,-1.181291152186313489e-02,-1.819402838057730676e-01,1.416771041580429102e-01
3.270000000000000129e-01,-5.796194723981122898e-01,2.459691178363880848e-01,2.387946230350820598e-01
3.280000000000000138e-01,-8.323579281090145443e-01,3.667541487251541055e-01,2.671682678339521444e-01
3.290000000000000147e-01,-5.391613357670439477e-01,1.621391015831366578e-01,1.230194880134677510e-01
3.300000000000000155e-01,6.975773574011637224e-02,1.132747642962404419e-02,-2.018820644412998577e-01
3.310000000000000164e-01,4.711594771771045465e-01,1.614885588801667216e-01,-4.546059702039434436e-01
3.320000000000000173e-01,3.994052318833092308e-01,3.894142513947835282e-01,-4.438047232988719393e-01
3.330000000000000182e-01,9.657859569981942782e-02,2.712062272201484769e-01,-1.675983951759117963e-01
3.340000000000000191e-01,5.648550074741417321e-02,-2.607633055192060123e-01,1.640878621732122233e-01
3.350000000000000200e-01,3.330962774439840679e-01,-7.360866827128900169e-01,3.115884315573892449e-01
3.360000000000000209e-01,4.567783601516750558e-01,-6.750087766568595438e-01,1.898200931205318021e-01
3.370000000000000218e-01,9.029989994703604972e-02,-1.373221185411590273e-01,5.204895439423550679e-02
3.380000000000000226e-01,-6.012329056255530935e-01,4.221206259764251345e-01,1.009217853880142179e-01
3.390000000000000235e-01,-9.713364839620920455e-01,4.990775008665457868e-01,2.173142283632223115e-01
3.400000000000000244e-01,-5.976806349423706699e-01,2.099801530534613214e-01,1.835335887681847633e-01
3.410000000000000253e-01,1.803929140074060911e-01,1.013413317964635338e-02,-1.342085825937247567e-01
3.420000000000000262e-01,6.215595706289860356e-01,1.064235708034486361e-01,-4.633095974736665124e-01
3.430000000000000271e-01,5.153731543329062026e-01,2.935292746431906741e-01,-5.345602233685827764e-01
3.439999999999999725e-01,1.283527038502330908e-01,2.106144837461531583e-01,-2.132192014872220376e-01
3.449999999999999734e-01,-4.539506456318970901e-02,-2.982407949465529784e-01,2.677550004306514797e-01
3.459999999999999742e-01,2.314673827281509555e-01,-6.887637493585805348e-01,4.259475007653925616e-01
3.469999999999999751e-01,3.858003089872735214e-01,-6.175495222825110320e-01,2.606819512937028072e-01
3.479999999999999760e-01,5.068536940290121334e-02,-6.512990037288808598e-02,3.136996720480440815e-02
3.489999999999999769e-01,-5.737706675911296017e-01,4.251491257522282408e-01,1.318694982133904701e-02
3.499999999999999778e-01,-8.981455600906598224e-01,5.220976899191204224e-01,1.775077963154272631e-01
3.509999999999999787e-01,-5.199471726134146099e-01,2.567752211079545321e-01,2.031591327176323902e-01
3.519999999999999796e-01,1.548257241193766176e-01,5.540020344833668925e-02,-7.886995676997320126e-02
3.529999999999999805e-01,6.424457361699916769e-01,3.817038252677201760e-02,-4.342736076890238994e-01
3.539999999999999813e-01,5.984743424981624482e-01,1.127583512416814732e-01,-5.234089594568145376e-01
3.549999999999999822e-01,2.411217735817519914e-01,-5.127334849092060219e-04,-2.452049924165363992e-01
3.559999999999999831e-01,3.073232591929624460e-02,-2.920525936007973278e-01,2.011203099247599047e-01
3.569999999999999840e-01,7.048589116779573061e-02,-5.360135436819215560e-01,3.992295673472675555e-01
3.579999999999999849e-01,1.111100052407385658e-01,-4.540912827033351529e-01,3.010527793313858003e-01
3.589999999999999858e-01,-1.054445117380229391e-01,-7.125263108609110330e-02,1.197210798887230060e-01
3.599999999999999867e-01,-4.507539196296133088e-01,3.334855288571127452e-01,-3.187453010028522965e-02
3.609999999999999876e-01,-6.978666853662007785e-01,5.686462061358948938e-01,5.076413951121772072e-02
3.619999999999999885e-01,-4.904962623354705564e-01,4.494790330328066186e-01,5.745934481241014857e-02
3.629999999999999893e-01,1.983173252400015005e-02,1.369838449296970906e-01,-8.573839376259169420e-02
3.639999999999999902e-01,5.261950359134863753e-01,-8.169161796663394759e-02,-3.276347766956206331e-01
3.649999999999999911e-01,6.812825472912139579e-01,-1.903105320742052298e-01,-4.062782200930511456e-01
3.659999999999999920e-01,4.811045037474985242e-01,-1.904336178548102498e-01,-2.412883892003971631e-01
3.669999999999999929e-01,1.222327768452422248e-01,-1.793897310917764720e-01,9.111217264744490840e-02
3.679999999999999938e-01,-1.736707197429789851e-01,-3.147018864914668534e-01,3.499495845582405451e-01
3.689999999999999947e-01,-2.253343971124111000e-01,-3.541374624993236520e-01,4.150367566808720876e-01
3.699999999999999956e-01,-2.181097809588142256e-01,-1.559790236150664922e-01,2.681270761703196670e-01
3.709999999999999964e-01,-2.517532363887731162e-01,2.456132001596945391e-01,2.689539894448804425e-02
3.719999999999999973e-01,-3.764447327342488325e-01,6.059920681238861739e-01,-8.985637876807149593e-02
3.729999999999999982e-01,-4.053263752516880203e-01,5.784627173257679278e-01,-1.521453335993421807e-01
3.739999999999999991e-01,-1.427300888082340680e-01,1.664552469441428206e-01,-1.333535914230015995e-01
3.750000000000000000e-01,3.431215452482888062e-01,-2.936694874369271679e-01,-1.611322589020137697e-01
3.760000000000000009e-01,7.849763541460044181e-01,-4.451807631777202623e-01,-2.136220636874584800e-01
3.770000000000000018e-01,7.008703044455101283e-01,-2.644777472660611584e-01,-2.413899894455049100e-01
3.780000000000000027e-01,1.880907592921469418e-01,-4.319935329538648200e-02,-6.309038155507837309e-02
3.790000000000000036e-01,-3.644920567365438901e-01,-8.529676702501462482e-02,2.117088448634792675e-01
3.800000000000000044e-01,-5.527882843087269515e-01,-3.282000892469839060e-01,4.606371198624280572e-01
3.810000000000000053e-01,-3.147382638053030091e-01,-2.079787738111078255e-01,4.188834960349080982e-01
3.820000000000000062e-01,-4.696595054856531753e-02,2.477596709743744574e-01,1.247414053984307464e-01
3.830000000000000071e-01,-1.165720480797549086e-01,6.814849211176169375e-01,-2.401010862860871176e-01
3.840000000000000080e-01,-3.197424683808444135e-01,6.372154780416173780e-01,-3.639383334071787379e-01
3.850000000000000089e-01,-2.695862054804955554e-01,1.302892463168910386e-01,-2.094791164243864912e-01
3.860000000000000098e-01,2.740499643217179093e-01,-4.330038411375250473e-01,-3.491713033336717176e-02
3.870000000000000107e-01,8.482936760692114664e-01,-5.346459070615724452e-01,-7.878050384205004253e-02
3.880000000000000115e-01,8.445479498080457059e-01,-2.500105154115248585e-01,-1.961473035436833712e-01
3.890000000000000124e-01,2.035316441433494272e-01,4.548814060542651777e-02,-1.489423292383822428e-01
3.900000000000000133e-01,-5.393433135345029328e-01,-1.114998772924122306e-02,1.300546245199222239e-01
3.910000000000000142e-01,-7.498717689410472342e-01,-2.166018452125207383e-01,4.667685558351964970e-01
3.920000000000000151e-01,-3.581498602267518816e-01,-1.545145018534572479e-01,5.086451105478155821e-01
3.930000000000000160e-01,1.652150446212409529e-02,2.987338293326783911e-01,1.582456262516106771e-01
3.940000000000000169e-01,3.120655136099661012e-02,6.815543146855835843e-01,-2.840972583371775273e-01
3.950000000000000178e-01,-2.008267350842296572e-01,5.532837475811218653e-01,-4.712505089500730882e-01
3.960000000000000187e-01,-2.101677422093903291e-01,4.580669915217332189e-02,-3.001260943929729419e-01
3.970000000000000195e-01,2.683531535497083453e-01,-4.720737779334052142e-01,-9.330399848097937002e-03
3.980000000000000204e-01,8.026384630521422592e-01,-5.818354609389404519e-01,6.637040757477565001e-02
3.990000000000000213e-01,7.885025921883830335e-01,-3.067857640686694198e-01,-9.047047387420056874e-02
4.000000000000000222e-01,1.871589219894522760e-01,-2.068637931573783992e-02,-1.354885363756786754e-01
4.010000000000000231e-01,-5.141791219186917505e-01,3.887795000255204331e-02,7.828673813134238990e-02
4.020000000000000240e-01,-7.587725020111532048e-01,-4.462417435695173462e-02,4.075882358180712428e-01
4.030000000000000249e-01,-4.800578377499409855e-01,2.346292264238748759e-02,5.257349871029476374e-01
4.040000000000000258e-01,-6.692367522659226076e-02,2.764166938262163642e-01,2.020981166140958796e-01
4.050000000000000266e-01,7.291490342823725435e-02,4.829377361818114056e-01,-2.545091294866370091e-01
4.060000000000000275e-01,-2.671397380392651066e-02,4.077946490721230943e-01,-4.780080599086826698e-01
4.069999999999999729e-01,-2.583070948474657652e-02,1.601836806587069936e-02,-3.509472232818711679e-01
4.079999999999999738e-01,2.775609899753784249e-01,-4.233484643030114292e-01,-1.078346051772306607e-01
4.089999999999999747e-01,5.798138173136462292e-01,-5.717511386245904825e-01,5.968119711057167515e-02
4.099999999999999756e-01,5.863565675836757141e-01,-4.167922496522490361e-01,1.171112318390000150e-02
4.109999999999999765e-01,1.358838938245591765e-01,-9.530382285935652675e-02,-3.192922312645000288e-02
4.119999999999999774e-01,-3.959336518739071109e-01,1.626807394915664728e-01,1.090877188475700421e-01
4.129999999999999782e-01,-7.091334985308954675e-01,2.452936541987667252e-01,2.897676719602245710e-01
4.139999999999999791e-01,-6.049687897309163898e-01,2.258746842060355697e-01,3.831806986011531135e-01
4.149999999999999800e-01,-2.519151946018664545e-01,2.259546562505289347e-01,1.996226528963728764e-01
4.159999999999999809e-01,9.731400106383221449e-02,2.739748730059523574e-01,-1.305331421773225087e-01
4.169999999999999818e-01,2.786723004593260611e-01,2.742177244701631267e-01,-3.594909167707088238e-01
4.179999999999999827e-01,2.972794243342998244e-01,8.820838114231996374e-02,-4.111197620785783102e-01
4.189999999999999836e-01,2.530565201580631252e-01,-2.611268464406950596e-01,-2.175606113875092340e-01
4.199999999999999845e-01,3.070377659905027534e-01,-5.974692405201168510e-01,7.410584597103884140e-03
4.209999999999999853e-01,3.306076952774597566e-01,-5.589282301487172866e-01,1.503331572823199125e-01
4.219999999999999862e-01,2.376451957299903495e-01,-1.641086990954676861e-01,1.940037514516233796e-01
4.229999999999999871e-01,-1.746131407229205845e-01,3.276157570335294644e-01,1.391914434780853749e-01
4.239999999999999880e-01,-6.393605581480494848e-01,4.629906881077979208e-01,1.536213845173667047e-01
4.249999999999999889e-01,-7.732060021609153955e-01,2.909458481890517256e-01,1.952724482835806463e-01
4.259999999999999898e-01,-4.762115954015096464e-01,5.219785022508755673e-02,1.462766366834135079e-01
4.269999999999999907e-01,1.788009782142122306e-01,4.660096052384174459e-02,3.358205501648264812e-02
4.279999999999999916e-01,5.789930947908353831e-01,1.871398623657202498e-01,-2.632246561702372700e-01
4.289999999999999925e-01,5.358343309855893022e-01,1.359740286242351881e-01,-4.392491319674015071e-01
4.299999999999999933e-01,1.935692421148416387e-01,-2.508306386703950674e-01,-3.837010487698103711e-01
4.309999999999999942e-01,1.186160577056056230e-02,-6.750504202887962490e-01,-9.653148802015087959e-02
4.319999999999999951e-01,1.161319765206603877e-01,-6.549473549924907934e-01,2.622069963341597809e-01
4.329999999999999960e-01,2.350201338912367433e-01,-1.141456885441371472e-01,3.857368813339911995e-01
4.339999999999999969e-01,-1.909982311094093541e-02,4.832313383075517166e-01,2.493998347583651631e-01
4.349999999999999978e-01,-5.729933766670125550e-01,6.184081342130761660e-01,1.338371767712254884e-02
4.359999999999999987e-01,-8.929441371355745227e-01,3.149711714658198214e-01,-2.485637148386541078e-03
4.369999999999999996e-01,-5.278512822124731274e-01,-6.523993987135716377e-02,9.996490323732638850e-02
4.380000000000000004e-01,2.297289382656597656e-01,-1.074725366200451615e-01,1.012464319589319178e-01
4.390000000000000013e-01,7.653389844147586718e-01,1.420592666328519826e-01,-1.258285059703007358e-01
4.400000000000000022e-01,6.651081037957355946e-01,9.090494073042924839e-02,-4.618918775164383428e-01
4.410000000000000031e-01,1.524877631273594547e-01,-2.625253154008941325e-01,-4.751587321439979528e-01
4.420000000000000040e-01,-1.791267089719633387e-01,-6.256283432577218750e-01,-1.442712148585791609e-01
4.430000000000000049e-01,-1.017150404814765041e-02,-5.788310748715498333e-01,3.226419360925074087e-01
4.440000000000000058e-01,1.785626422109827527e-01,-5.283885099426865496e-03,4.901692668512290796e-01
4.450000000000000067e-01,4.597779313874051504e-03,5.120754584287916522e-01,2.893274507895875480e-01
4.460000000000000075e-01,-5.295476638546056103e-01,6.349531653625922756e-01,2.188148510928279375e-02
4.470000000000000084e-01,-8.422722121913450710e-01,2.798504052295101019e-01,-8.283931821420680019e-02
4.480000000000000093e-01,-4.876915205371429862e-01,-2.906954796252017928e-02,6.719662760989569480e-03
4.490000000000000102e-01,2.735169809353264481e-01,-1.423404976650209652e-01,1.076625322271444335e-01
4.500000000000000111e-01,8.211530319318167681e-01,-2.875513737838218675e-02,-6.916508392957300411e-02
4.510000000000000120e-01,7.136712737495357617e-01,-5.900170401392560576e-02,-3.737014581579327088e-01
4.520000000000000129e-01,2.177905599053154839e-01,-2.599841989951941490e-01,-4.646238674682002245e-01
4.530000000000000138e-01,-1.470945576423197121e-01,-4.859335759948532618e-01,-1.778664232439073067e-01
4.540000000000000147e-01,-1.522597977602058728e-01,-3.743927862441182586e-01,2.829867263561001156e-01
4.550000000000000155e-01,-3.436698277516969657e-02,3.218614362867509848e-02,5.029762650774000088e-01
4.560000000000000164e-01,-1.133863576739250617e-01,4.652968499851749540e-01,3.556402826888058200e-01
4.570000000000000173e-01,-4.502801987691725238e-01,6.047205520839518123e-01,7.562282446650503420e-02
4.580000000000000182e-01,-6.163455266494688445e-01,3.760261064468886083e-01,-9.299756636765042772e-02
4.590000000000000191e-01,-3.714664280749911396e-01,5.394030108273778490e-02,-5.957736188650668979e-02
4.600000000000000200e-01,1.866468539912646551e-01,-2.061426987570831038e-01,-3.950962484046410816e-02
4.610000000000000209e-01,6.486665227889948371e-01,-2.455777978074470680e-01,-1.107803298047677354e-01
4.620000000000000218e-01,6.835313708658345977e-01,-2.000872384998808318e-01,-2.836435432557948277e-01
4.630000000000000226e-01,3.975208306285641369e-01,-2.013783154817830046e-01,-3.608953103026630305e-01
4.640000000000000235e-01,-3.095072504694236504e-02,-2.419307638031978902e-01,-1.622688240377150315e-01
4.650000000000000244e-01,-3.203522851078980938e-01,-2.177372900856777427e-01,1.555742312722972476e-01
4.660000000000000253e-01,-3.737167315012570046e-01,-4.044459076632296590e-02,4.500311899777854063e-01
4.670000000000000262e-01,-3.049235686657442712e-01,3.077081499905780504e-01,4.224464981979827449e-01
4.680000000000000271e-01,-2.359646081295992681e-01,6.066390638884148201e-01,1.911957179573069432e-01
4.689999999999999725e-01,-2.912193407828547742e-01,5.313196447138668344e-01,-5.472880161752768924e-02
4.699999999999999734e-01,-2.215071825538538763e-01,1.049153144563570589e-01,-2.131924629755244383e-01
4.709999999999999742e-01,1.775180636337815240e-02,-3.563013234597716128e-01,-2.218652375751401784e-01
4.719999999999999751e-01,4.625684527204707019e-01,-5.128209893160382560e-01,-1.832215241071782352e-01
4.729999999999999760e-01,7.245745327545808356e-01,-3.306985966199432747e-01,-1.467612924308644429e-01
4.739999999999999769e-01,6.043001278153780076e-01,-5.659627301721080472e-02,-1.689088363811897253e-01
4.749999999999999778e-01,6.572797570985895732e-02,1.386914637604019090e-02,-1.291433260576216047e-01
4.759999999999999787e-01,-4.902596578904992453e-01,-1.073182667723934086e-01,5.564085468460568118e-02
4.769999999999999796e-01,-6.475904188565033692e-01,-7.041465543533473315e-02,3.060574645934586724e-01
4.779999999999999805e-01,-3.805478043932471466e-01,2.280881530852835459e-01,4.635138676764403165e-01
4.789999999999999813e-01,-2.506266614438383555e-02,5.980200838900462390e-01,3.743539121256270197e-01
4.799999999999999822e-01,2.742074428563856178e-02,6.060422194112651262e-01,5.958101172778686866e-02
4.809999999999999831e-01,-9.804448997254358589e-02,7.124897325283757743e-02,-2.957192853508308628e-01
4.819999999999999840e-01,-8.730865117810060472e-02,-4.923260224907110016e-01,-3.817084677608478249e-01
4.829999999999999849e-01,2.764915500485317090e-01,-6.944432748832050084e-01,-2.415771321788695025e-01
4.839999999999999858e-01,7.659366527408059122e-01,-3.451444941979189274e-01,-1.650668492404543455e-02
4.849999999999999867e-01,7.217363564841636769e-01,9.310425028625457511e-02,2.512492337070253504e-02
4.859999999999999876e-01,1.306933479207305904e-01,1.570363537959739431e-01,-4.134153659358897476e-02
4.869999999999999885e-01,-6.258187570864693905e-01,-4.838514223555837046e-02,-4.892436925327004610e-02
4.879999999999999893e-01,-8.661569278064992217e-01,-9.382610859033205242e-02,1.333439544276366628e-01
4.889999999999999902e-01,-4.445131923387998785e-01,2.400641551173306465e-01,4.167214359912065347e-01
4.899999999999999911e-01,7.558122064680772301e-02,5.837105571482867905e-01,4.400698460545944823e-01
4.909999999999999920e-01,2.156941338796039831e-01,5.168453548548347376e-01,1.375414244986709333e-01
4.919999999999999929e-01,-1.371694019183876921e-02,-4.787614676000585302e-03,-3.535837045413977586e-01
4.929999999999999938e-01,-9.692282723381753784e-02,-5.737449982654333480e-01,-5.168422535587323674e-01
4.939999999999999947e-01,2.200259527623946720e-01,-7.019174434573334231e-01,-3.468762387552171145e-01
4.949999999999999956e-01,6.933745376262372417e-01,-3.361828477338210663e-01,1.549950310692939023e-02
4.959999999999999964e-01,7.129414813237706650e-01,8.185947378354359316e-02,1.656298964950408126e-01
4.969999999999999973e-01,5.542074176819782733e-02,2.136205890560687881e-01,5.429945133790164274e-02
4.979999999999999982e-01,-6.557984431304503259e-01,7.867282058117597288e-02,-4.951336753866091012e-02
4.989999999999999991e-01,-8.964324950964088767e-01,7.063714794269437824e-02,7.164624796168943266e-02
5.000000000000000000e-01,-4.876989926036030543e-01,2.498315662251919533e-01,3.439038735154136273e-01
5.010000000000000009e-01,7.916485066300012197e-02,4.583517060453178305e-01,4.360449527579667861e-01
5.020000000000000018e-01,3.061098142062660399e-01,3.201213265453886070e-01,1.757368072209843646e-01
5.030000000000000027e-01,1.615902435397116310e-01,-8.550842588736021210e-02,-2.961285258127016040e-01
5.040000000000000036e-01,5.969026645118587909e-02,-5.031867907394687034e-01,-5.713399623172052966e-01
5.050000000000000044e-01,2.321068532803666484e-01,-6.145670939371488117e-01,-3.946816693084626015e-01
5.060000000000000053e-01,5.063975522337108570e-01,-3.847845653383517028e-01,-1.044207197285413127e-02
5.070000000000000062e-01,5.092000303239685444e-01,1.047190479958533954e-02,1.953709497562776121e-01
5.080000000000000071e-01,4.041574461178124716e-02,2.592856941399872550e-01,1.549494478213241933e-01
5.090000000000000080e-01,-5.309699003989027943e-01,3.067027684705918578e-01,5.434622214620359049e-02
5.100000000000000089e-01,-7.749027406413306895e-01,2.196750308621689685e-01,7.563844883807877006e-02
5.110000000000000098e-01,-5.560453110980697611e-01,1.871222165568005025e-01,2.536686598257295033e-01
5.120000000000000107e-01,-1.013660766492560650e-01,1.920934259670970257e-01,3.461509337314486734e-01
5.130000000000000115e-01,3.111123668157436684e-01,1.186637472775396718e-01,1.357803459486117970e-01
5.140000000000000124e-01,3.985345468067839625e-01,-2.447908010908319762e-02,-1.964009494440712711e-01
5.150000000000000133e-01,3.217829482278254938e-01,-3.380506177997987249e-01,-4.597552035982238605e-01
5.160000000000000142e-01,2.316363468120875568e-01,-5.500733510100210832e-01,-4.156919354060374938e-01
5.170000000000000151e-01,1.941059528097584530e-01,-5.007732903858381768e-01,-1.512683051944432311e-01
5.180000000000000160e-01,1.843731459386896421e-01,-5.629708004918645980e-02,1.144938541469026627e-01
5.190000000000000169e-01,6.198556187547770574e-02,3.963743774227475036e-01,2.718705205753388365e-01
5.200000000000000178e-01,-3.045344455933843286e-01,5.412265753360472331e-01,1.925302303263228265e-01
5.210000000000000187e-01,-6.466892166308116918e-01,3.587814837931838641e-01,1.598955360109383383e-01
5.220000000000000195e-01,-6.674047731049667087e-01,3.480280898416638485e-02,1.397171036922172926e-01
5.230000000000000204e-01,-2.706184823466663003e-01,-7.025391452709878193e-02,1.279543922681570522e-01
5.240000000000000213e-01,2.887358003558284647e-01,2.709872136928896322e-02,7.937339699855647246e-02
5.250000000000000222e-01,6.828830671115375672e-01,4.810498542551146228e-02,-1.082410522447955492e-01
5.260000000000000231e-01,5.834648017990203828e-01,-2.146049535240589223e-01,-3.098583276304656131e-01
5.270000000000000240e-01,1.905142757972539680e-01,-5.662421629136674683e-01,-4.209180949860719112e-01
5.280000000000000249e-01,-1.005756342237199841e-01,-5.253329579270195060e-01,-3.194871252690475449e-01
5.290000000000000258e-01,-7.879737737844566547e-02,-6.491140891910393562e-02,1.587751377662263014e-02
5.300000000000000266e-01,5.659489668427128070e-03,5.451313626701312920e-01,3.052402104008516970e-01
5.310000000000000275e-01,-9.087926617809280461e-02,7.150057513464224135e-01,4.219832972806892291e-01
5.320000000000000284e-01,-4.828039579918806390e-01,3.494124680817255468e-01,2.522274432537311983e-01
5.330000000000000293e-01,-7.593354125120694853e-01,-1.187458401682226494e-01,1.370477643043692406e-02
5.340000000000000302e-01,-4.315895906693161255e-01,-2.402177836176299652e-01,-9.103580821615439578e-02
5.350000000000000311e-01,3.189084075994579326e-01,-3.688171674325262800e-02,-7.708404724931559523e-03
5.360000000000000320e-01,8.824895843708397969e-01,3.312392658877195972e-02,1.374452563522527218e-02
5.370000000000000329e-01,7.525440178957188975e-01,-2.263085910781646171e-01,-1.571091558540239908e-01
5.380000000000000338e-01,1.620584671499644969e-01,-5.218710143323630479e-01,-3.835884563645792222e-01
5.390000000000000346e-01,-3.177645810935573745e-01,-4.810676382729009992e-01,-4.013488288246207514e-01
5.400000000000000355e-01,-2.623860528112212931e-01,2.965891033844490071e-02,-8.216102796928746732e-02
5.410000000000000364e-01,1.815822926568535708e-02,6.114432307877675221e-01,3.480346424525290749e-01
5.420000000000000373e-01,-4.736242412903710064e-02,7.348961818704301541e-01,5.652568853315537156e-01
5.430000000000000382e-01,-4.285058810506024995e-01,3.145237079777269407e-01,3.283722502096821372e-01
5.440000000000000391e-01,-7.022541807077377074e-01,-1.366444414347799119e-01,-3.697540455044676100e-02
5.450000000000000400e-01,-3.930953990879383908e-01,-2.970570022302509994e-01,-1.895757307756403276e-01
5.460000000000000409e-01,3.472814843245872196e-01,-1.590695098675654340e-01,-1.006860607654296580e-01
5.470000000000000417e-01,9.162332853331789373e-01,-6.062628480102808665e-02,1.560902358107943075e-02
5.480000000000000426e-01,7.750645717467442575e-01,-2.062715539373550233e-01,-6.055678401648734860e-02
5.490000000000000435e-01,1.558436776992607742e-01,-3.879544903531985112e-01,-2.781860253332067989e-01
5.500000000000000444e-01,-3.222928619543189988e-01,-2.836684713804897284e-01,-4.051844110307566416e-01
5.510000000000000453e-01,-3.440343696604571400e-01,8.716281957884498832e-02,-1.001290360988855155e-01
5.520000000000000462e-01,-1.328997934898617783e-01,5.498374672914402295e-01,3.370584628910197611e-01
5.530000000000000471e-01,-1.043286674426995297e-01,6.377040752815708036e-01,5.447830146244176941e-01
5.540000000000000480e-01,-3.416180635355990369e-01,3.139947531212008980e-01,3.986340095021592145e-01
5.550000000000000488e-01,-5.025223344228887390e-01,-1.109012494875600136e-01,-3.368594645821247624e-02
5.560000000000000497e-01,-2.680830132461557436e-01,-3.610165850942293475e-01,-2.644488850995069251e-01
5.570000000000000506e-01,3.165235611938601035e-01,-3.413563086251358292e-01,-2.078819718025369523e-01
5.580000000000000515e-01,7.535892308790180794e-01,-2.007585324684015571e-01,-5.805188786067342482e-02
5.590000000000000524e-01,7.017697281739015969e-01,-1.742848331812223150e-01,-7.012773838620929567e-02
5.600000000000000533e-01,2.773663098016302953e-01,-1.343483258604031005e-01,-2.357097839085519342e-01
5.610000000000000542e-01,-2.252116214205494571e-01,-9.963925728002397120e-02,-2.757588748084838781e-01
5.620000000000000551e-01,-4.639153446159344774e-01,7.977163815344628928e-02,-9.116515695070633030e-02
5.629999999999999449e-01,-3.966190645193911068e-01,3.499451507831348174e-01,2.404493580074412995e-01
5.639999999999999458e-01,-2.730959966204941081e-01,5.421805346160990524e-01,4.845308517474303800e-01
5.649999999999999467e-01,-1.618947879065403272e-01,4.241797886693002284e-01,4.044716714674811420e-01
5.659999999999999476e-01,-1.769913005106566739e-01,4.716782748486953933e-03,1.304847826791241672e-01
5.669999999999999485e-01,-7.451954649960518262e-02,-4.255531944505285824e-01,-1.842033133395434008e-01
5.679999999999999494e-01,1.796168007616961437e-01,-5.542648136657818414e-01,-2.898258366271442288e-01
5.689999999999999503e-01,4.916961257547849407e-01,-3.605795139136216965e-01,-2.148927916872708788e-01
5.699999999999999512e-01,6.703161852097558882e-01,-2.758226060485654760e-02,-1.183219289576369626e-01
5.709999999999999520e-01,4.192640168217965368e-01,1.633753370791262427e-01,-1.197893273413153797e-01
5.719999999999999529e-01,-1.082337239281386115e-01,5.066491515695346198e-02,-8.645654542819619648e-02
5.729999999999999538e-01,-5.981784077670642130e-01,8.992377392726994337e-03,1.578521355076331970e-02
5.739999999999999547e-01,-6.781539155535479813e-01,1.984736671641515737e-01,1.387733344914247324e-01
5.749999999999999556e-01,-4.348570011097221966e-01,4.597574914907878174e-01,3.034356757803777227e-01
5.759999999999999565e-01,3.115992169603807802e-02,4.691159924451597241e-01,3.747674850763255683e-01
5.769999999999999574e-01,1.979784938471172706e-01,4.671689649591018872e-02,2.439599664650496103e-01
5.779999999999999583e-01,9.229871895953019323e-02,-5.577462062083291539e-01,-8.904230413691098522e-02
5.789999999999999591e-01,2.747653564901159084e-02,-7.424473431012132973e-01,-3.693996171351152658e-01
5.799999999999999600e-01,2.888347954139647844e-01,-3.654951520962747002e-01,-4.123920695046198182e-01
5.809999999999999609e-01,6.172737953630865748e-01,1.332862260141428890e-01,-2.533073071439725932e-01
5.819999999999999618e-01,5.862028497586729836e-01,3.284256374851778348e-01,2.352196478384731282e-02
5.829999999999999627e-01,2.250314137078704077e-02,1.429398798769380419e-01,1.236994995396995534e-01
5.839999999999999636e-01,-6.881501642919790607e-01,-2.834716956538665955e-02,8.038823463374797362e-02
5.849999999999999645e-01,-9.247877572238553112e-01,1.641894139772241412e-01,3.062586261520426970e-02
5.859999999999999654e-01,-4.767655444446440849e-01,4.571899328971991694e-01,1.584270732478778587e-01
5.869999999999999662e-01,1.886026579399669723e-01,4.409938439555362577e-01,3.432293465392710075e-01
5.879999999999999671e-01,4.129769706972361010e-01,-3.222825950179371984e-02,3.385154247667971905e-01
5.889999999999999680e-01,2.227661159880856001e-01,-6.195379483376447505e-01,3.331086134800231163e-02
5.899999999999999689e-01,-1.450646751435573888e-02,-7.007803278736356445e-01,-3.636304195345285706e-01
5.909999999999999698e-01,1.344910856225801088e-01,-3.469453820455130066e-01,-5.618298781266459763e-01
5.919999999999999707e-01,5.432199075592560877e-01,2.073740698961761275e-01,-3.120621084316974603e-01
5.929999999999999716e-01,5.659460812330061596e-01,3.810785745405849689e-01,5.120407238646975528e-02
5.939999999999999725e-01,1.515334936571944083e-02,2.321790249808458884e-01,2.766436771608182243e-01
5.949999999999999734e-01,-7.287196526422633491e-01,6.198710470167018843e-02,1.575503546587288806e-01
5.959999999999999742e-01,-9.684822924431432112e-01,1.472485229460423484e-01,-1.806066854331742078e-02
5.969999999999999751e-01,-5.085076442874919556e-01,3.440217034628714754e-01,4.107164264748688898e-02
5.979999999999999760e-01,2.224818784774206526e-01,2.650558761929890372e-01,2.673970726317744240e-01
5.989999999999999769e-01,4.890484661452526582e-01,-1.606868549577924743e-01,3.236806311797995050e-01
5.999999999999999778e-01,3.516439304956536782e-01,-5.371714896446910803e-01,6.923991792588916894e-02
6.009999999999999787e-01,8.834797955722184515e-02,-6.036470251973370393e-01,-3.809557101641610211e-01
6.019999999999999796e-01,1.218068760097249514e-01,-2.958447525428518077e-01,-5.628436362395428105e-01
6.029999999999999805e-01,3.535719449516821489e-01,1.357275152138339158e-01,-3.869702990536336151e-01
6.039999999999999813e-01,3.659511188692348704e-01,4.187104937236879598e-01,3.973662719649687092e-02
6.049999999999999822e-01,-7.451681962778837487e-02,3.597262557731876198e-01,3.176864489354514487e-01
6.059999999999999831e-01,-6.224713511000107280e-01,2.560092490548309674e-01,2.528556294170449803e-01
6.069999999999999840e-01,-8.097186456934039045e-01,1.107073167958665810e-01,7.640209314723106493e-02
6.079999999999999849e-01,-4.858466049177434520e-01,1.053982328768770932e-01,2.454219566792261234e-02
6.089999999999999858e-01,1.240810502579987318e-01,4.042755887324511743e-02,1.924506233897427254e-01
6.099999999999999867e-01,4.781913256411196578e-01,-1.209840017361847458e-01,2.311013761295717672e-01
6.109999999999999876e-01,5.176864817133904895e-01,-3.727225305911275877e-01,6.755210488346023723e-02
6.119999999999999885e-01,3.289113726165462936e-01,-5.120721232462719374e-01,-2.941054067401939753e-01
6.129999999999999893e-01,1.458936471031349047e-01,-3.332815435583322272e-01,-4.840000759867968960e-01
6.139999999999999902e-01,9.521328313187017722e-02,9.291799730591234971e-03,-4.055139900668304209e-01
6.149999999999999911e-01,3.798654943462342198e-02,4.594741194440967180e-01,-5.216636712511420887e-02
6.159999999999999920e-01,-1.178919130651590874e-01,5.991077733116342285e-01,2.543030746621933180e-01
6.169999999999999929e-01,-3.818020942477338697e-01,3.523663354559065097e-01,2.999876892643449366e-01
6.179999999999999938e-01,-6.118303829922534520e-01,-2.207610126823894570e-02,2.842252659672255821e-01
6.189999999999999947e-01,-5.397490026838571708e-01,-2.135004527527108176e-01,1.200527542189151753e-01
6.199999999999999956e-01,-1.282161019521768919e-01,-1.480074309998126447e-01,3.890198475783578080e-02
6.209999999999999964e-01,4.224590586843667284e-01,-6.930711377800001516e-02,4.674984342578732827e-02
6.219999999999999973e-01,7.247009217143695059e-01,-2.088487968435226716e-01,-2.464656674464571831e-02
6.229999999999999982e-01,5.746122852680523030e-01,-4.320325790931510701e-01,-1.656963460796049559e-01
6.239999999999999991e-01,1.582951418130368604e-01,-4.271821163590134307e-01,-3.240393434513321180e-01
6.250000000000000000e-01,-1.875347299903802334e-01,-7.602022406186370942e-03,-3.624213853713976752e-01
6.260000000000000009e-01,-2.427172048553270789e-01,5.593643658617210024e-01,-1.846164161327525643e-01
6.270000000000000018e-01,-1.269026782462806258e-01,7.495722712770218621e-01,1.136355592031272066e-01
6.280000000000000027e-01,-1.206086231306828793e-01,3.828517219027376406e-01,3.647779033037890639e-01
6.290000000000000036e-01,-3.884042176819499925e-01,-2.079373537937721506e-01,4.513538954057153552e-01
6.300000000000000044e-01,-5.570863545933641969e-01,-4.262710379192700683e-01,2.253419268513799645e-01
6.310000000000000053e-01,-2.662711129333112381e-01,-2.176028121329569298e-01,-4.146967710748537123e-02
6.320000000000000062e-01,3.747601147245732678e-01,-2.447585961553585838e-03,-1.797371842335163672e-01
6.330000000000000071e-01,9.095686158973572688e-01,-1.029623786626918530e-01,-1.429241864007355367e-01
6.340000000000000080e-01,7.444458230292475553e-01,-4.111139122787919598e-01,-5.558376383574255286e-02
6.350000000000000089e-01,1.080072002738994424e-01,-3.867183424311238515e-01,-1.568350605984843160e-01
6.360000000000000098e-01,-4.624050889253396579e-01,5.371024530384102547e-02,-3.083173367295364287e-01
6.370000000000000107e-01,-4.360874208361805726e-01,6.149998933785123523e-01,-3.113467113072510561e-01
6.380000000000000115e-01,-1.326317896353589876e-01,7.596978592904277683e-01,-1.569697147870975640e-02
6.390000000000000124e-01,8.179310177349423741e-03,3.354905960242106633e-01,3.738059486293775491e-01
6.400000000000000133e-01,-2.655694460598990725e-01,-2.727343770700909054e-01,5.749272727138590167e-01
6.410000000000000142e-01,-4.923591904604156522e-01,-4.704186837227863349e-01,2.987473134428422772e-01
6.420000000000000151e-01,-2.677034604938074436e-01,-2.688935268287603320e-01,-9.875054614891284888e-02
6.430000000000000160e-01,3.953342285179628490e-01,-2.419848897646704675e-02,-3.160864877456857625e-01
6.440000000000000169e-01,9.533502757153319296e-01,-9.274546852607791492e-02,-2.200572034321511550e-01
6.450000000000000178e-01,7.939239415400766164e-01,-2.576053717424842682e-01,-3.563645153619904998e-02
6.460000000000000187e-01,8.369610425219392580e-02,-2.337460519667331205e-01,-2.928006188665430859e-02
6.470000000000000195e-01,-5.220143643562077385e-01,1.064838457012679956e-01,-2.463212421812137343e-01
6.480000000000000204e-01,-5.660838353371115961e-01,5.700656960526764294e-01,-2.907585422302985112e-01
6.490000000000000213e-01,-2.494583947202353991e-01,6.336195800472316231e-01,-3.531511051995275818e-02
6.500000000000000222e-01,-3.164205871137814458e-02,2.559083122664262966e-01,3.697048316408756974e-01
6.510000000000000231e-01,-1.618720301161603314e-01,-2.312843644872484283e-01,5.894407121904349234e-01
6.520000000000000240e-01,-3.337203087893659270e-01,-4.710077907289196841e-01,3.729687143478723210e-01
6.530000000000000249e-01,-1.425788647386372621e-01,-4.347362995499633453e-01,-4.373298982477996644e-02
6.540000000000000258e-01,3.684346304137183226e-01,-2.275665585615608000e-01,-3.628703493642903011e-01
6.550000000000000266e-01,7.885990069148807180e-01,-5.896008745501753884e-02,-3.009591150216504585e-01
6.560000000000000275e-01,6.728858334610828829e-01,-3.837802291815523015e-02,-9.184970719078811019e-02
6.570000000000000284e-01,1.769769215968278464e-01,3.138528500278831013e-02,-7.911227582870411501e-03
6.580000000000000293e-01,-4.343532473164908869e-01,1.733632186755279803e-01,-1.032470151880271608e-01
6.590000000000000302e-01,-6.104489647115013407e-01,3.839218576623249501e-01,-2.078664689898600260e-01
6.600000000000000311e-01,-4.620482235886123057e-01,4.748862325123763273e-01,-2.587422621702111653e-02
6.610000000000000320e-01,-1.814029276279464920e-01,2.805067982146283168e-01,2.980621770804545712e-01
6.620000000000000329e-01,-4.121844099910026288e-02,-9.941561104924159786e-02,4.884030302928349943e-01
6.630000000000000338e-01,-3.994150830591165768e-02,-4.832509692818774960e-01,3.798580282313973600e-01
6.640000000000000346e-01,2.458272485334829158e-02,-6.044005770471192474e-01,3.239853478892601446e-02
6.650000000000000355e-01,2.839752684364565960e-01,-3.400449276643525698e-01,-2.947878699512927470e-01
6.660000000000000364e-01,5.195145555176502450e-01,8.654893676750098977e-03,-3.651093483173125653e-01
6.670000000000000373e-01,5.514943633370337217e-01,2.524947944537431210e-01,-2.458889476158127307e-01
6.680000000000000382e-01,2.644350186360703847e-01,2.221674237245767625e-01,-6.424700620759746239e-02
6.690000000000000391e-01,-2.070915374842883239e-01,1.341443290398781074e-01,-1.238999771926574053e-02
6.700000000000000400e-01,-6.736894742171993800e-01,1.504274643363975039e-01,9.783534815117945344e-03
6.710000000000000409e-01,-7.051231277755396487e-01,3.494012539885108515e-01,2.385139821141696662e-02
6.720000000000000417e-01,-3.505461533844422273e-01,3.698120962731363259e-01,1.780426800488964512e-01
6.730000000000000426e-01,8.892231550879524382e-02,-5.830100244141484672e-02,3.247685563608326831e-01
6.740000000000000435e-01,3.698248892405831545e-01,-5.508926341907072199e-01,3.108149653119888778e-01
6.750000000000000444e-01,2.927266658208030892e-01,-7.303013579394798116e-01,1.410081810903740518e-01
6.760000000000000453e-01,1.506386073120211666e-01,-3.857017212054474897e-01,-1.506773715382330459e-01
6.770000000000000462e-01,2.373574477278631301e-01,2.124163379899676185e-01,-3.940515917065233742e-01
6.780000000000000471e-01,4.319822213299628899e-01,4.533817261020128830e-01,-4.286744112487239633e-01
6.790000000000000480e-01,3.603638905711943341e-01,3.172834695240080993e-01,-1.853104013547474116e-01
6.800000000000000488e-01,-9.938498033128401188e-02,5.694656010865482842e-02,6.262899028411432478e-02
6.810000000000000497e-01,-7.018011565904671567e-01,4.366173272369607006e-02,1.972493426556247154e-01
6.820000000000000506e-01,-9.025795225020515344e-01,2.766258601783562754e-01,1.485968537884436724e-01
6.830000000000000515e-01,-4.444341603360763560e-01,3.111944723265525625e-01,6.510768214183126901e-02
6.840000000000000524e-01,2.708352706348639560e-01,-7.729639997528918449e-02,1.425575111388648897e-01
6.850000000000000533e-01,6.259810127544934710e-01,-6.257794811434106430e-01,2.253657009581506998e-01
6.860000000000000542e-01,3.905134472965209880e-01,-7.407196313836509338e-01,2.465895463081693439e-01
6.870000000000000551e-01,3.190741829045367489e-02,-2.947853612273249602e-01,-1.018731388458995850e-02
6.879999999999999449e-01,3.958386767353198887e-02,3.008859246968621504e-01,-4.017357199092074227e-01
6.889999999999999458e-01,3.016122247112433818e-01,5.538418417323300869e-01,-5.489028117735547108e-01
6.899999999999999467e-01,4.228453312981134693e-01,3.613474093450009805e-01,-3.062206231238567278e-01
6.909999999999999476e-01,-5.278876232655065059e-02,7.353831785859901715e-02,1.200877055126874510e-01
6.919999999999999485e-01,-7.616573529250018071e-01,9.086249295503735432e-03,3.655741190224342518e-01
6.929999999999999494e-01,-9.418471929529267372e-01,1.902532744305671375e-01,2.694383572719940556e-01
6.939999999999999503e-01,-4.516109595135400223e-01,1.988458010191313241e-01,9.025915999614771146e-02
6.949999999999999512e-01,3.419728992456793626e-01,-1.359792428135484788e-01,-7.255049184157943412e-04
6.959999999999999520e-01,7.030871735082055984e-01,-5.696236929746678612e-01,1.364531483402411371e-01
6.969999999999999529e-01,4.730045042355248142e-01,-6.319299079132323360e-01,2.319307120486810703e-01
6.979999999999999538e-01,9.717197490134235616e-02,-2.116822172805750690e-01,4.100761063163092107e-02
6.989999999999999547e-01,-2.417574529058973132e-02,2.715315845653079596e-01,-3.629746911371291018e-01
6.999999999999999556e-01,1.757635153699352304e-01,5.206632321573013700e-01,-5.954406214466707592e-01
7.009999999999999565e-01,2.803806877958741062e-01,4.096853854949240037e-01,-3.495919726940566186e-01
7.019999999999999574e-01,-1.136838629284045443e-01,1.806116237249391077e-01,1.244401577337730103e-01
7.029999999999999583e-01,-6.238688743661712222e-01,-2.115687524992092283e-02,4.283258958971995489e-01
7.039999999999999591e-01,-7.896386601672935601e-01,9.616027411080826579e-03,3.453110143308765201e-01
7.049999999999999600e-01,-3.890359862378817146e-01,-7.476062684132749048e-02,9.938280688612431690e-02
7.059999999999999609e-01,2.590736183468231313e-01,-2.086714611528213414e-01,-1.991300261210864758e-02
7.069999999999999618e-01,6.585303440156337063e-01,-3.907457376439374408e-01,4.988597784144922082e-02
7.079999999999999627e-01,5.545324650175496028e-01,-4.038954835663437493e-01,1.275352472869088760e-01
7.089999999999999636e-01,2.726474950709716905e-01,-2.797886130520813586e-01,8.985945706413303244e-03
7.099999999999999645e-01,2.997079032565020881e-02,1.909256709934358809e-01,-2.943858082146400545e-01
7.109999999999999654e-01,-6.057031855560166683e-02,5.258270918585037368e-01,-4.837697095954728299e-01
7.119999999999999662e-01,-3.356887558337663668e-02,5.749686705676168019e-01,-3.312121620081919238e-01
7.129999999999999671e-01,-2.001361736934730851e-01,3.131250536102949122e-01,2.869164297631474417e-02
7.139999999999999680e-01,-4.042098823181806688e-01,-7.327282171704035951e-02,3.690100543602503613e-01
7.149999999999999689e-01,-5.048678488001064890e-01,-3.179039293107473463e-01,4.240737761817071627e-01
7.159999999999999698e-01,-3.539632723270865200e-01,-2.551039691515711305e-01,2.252038305228759585e-01
7.169999999999999707e-01,8.410160939736721630e-02,-1.439523198781722246e-01,3.855285855422649344e-02
7.179999999999999716e-01,5.409521619815249593e-01,-1.344308604760508508e-01,-3.714953051421594765e-02
7.189999999999999725e-01,7.404329936983086169e-01,-2.765487598958930038e-01,-4.182750765488095490e-03
7.199999999999999734e-01,5.091550560576837414e-01,-2.234354259129756326e-01,-8.118796709808281942e-02
7.209999999999999742e-01,4.350574507053723422e-02,6.742040413595339066e-02,-1.970479290785934479e-01
7.219999999999999751e-01,-3.236628609954070313e-01,5.607461183394504278e-01,-3.274120975024188418e-01
7.229999999999999760e-01,-3.926532531140233262e-01,7.249692402922434109e-01,-2.873532858550124081e-01
7.239999999999999769e-01,-2.478861060739116495e-01,3.607188793754453338e-01,-6.507973034033506798e-02
7.249999999999999778e-01,-1.705984887263732042e-01,-2.218780217072940375e-01,2.376837626118585289e-01
7.259999999999999787e-01,-2.784524111619647857e-01,-5.324861091624778497e-01,4.292278405907697936e-01
7.269999999999999796e-01,-3.534056541999014422e-01,-3.773302626080469180e-01,3.860075303218457043e-01
7.279999999999999805e-01,-1.205369024081629631e-01,-6.607318637821556206e-02,1.385349024781919458e-01
7.289999999999999813e-01,4.582607804952093522e-01,3.047727457460584679e-03,-1.251719406903151199e-01
7.299999999999999822e-01,8.813299821299293013e-01,-2.099846169318667355e-01,-2.200596849850909864e-01
7.309999999999999831e-01,6.983896454116893526e-01,-2.590557923652928585e-01,-2.175049519918895446e-01
7.319999999999999840e-01,4.956206581806847644e-02,8.193600045627523476e-02,-1.147431325644451550e-01
7.329999999999999849e-01,-5.781247212409319491e-01,5.701682935014356080e-01,-1.420824975492130660e-01
7.339999999999999858e-01,-6.322810556094112799e-01,7.191555749787894580e-01,-1.830214597058492931e-01
7.349999999999999867e-01,-2.811145142174845679e-01,2.901279834078034914e-01,-1.472998082993317859e-01
7.359999999999999876e-01,4.962462610262588503e-02,-3.153532833492566079e-01,9.580939934145316084e-02
7.369999999999999885e-01,-8.594370779547753914e-02,-6.260026927053664592e-01,3.943441763077439322e-01
7.379999999999999893e-01,-3.042562195109206336e-01,-4.013246584485535839e-01,5.136809660687302603e-01
7.389999999999999902e-01,-1.824597546780373225e-01,-2.107775117665293060e-02,2.486229405595654363e-01
7.399999999999999911e-01,4.084856281233058550e-01,6.166346831104461274e-02,-1.516526264550045744e-01
7.409999999999999920e-01,8.820192293736518474e-01,-8.863306528816426721e-02,-3.918789040955513170e-01
7.419999999999999929e-01,7.362613542716793802e-01,-1.213295382916627502e-01,-3.085084178005249034e-01
7.429999999999999938e-01,-7.003673667690796939e-03,1.331641727176272882e-01,-8.716943079292792385e-02
7.439999999999999947e-01,-6.686648132556455293e-01,5.291333393129901141e-01,3.581145767764501442e-02
7.449999999999999956e-01,-7.242702501648925484e-01,5.864900150108233179e-01,-1.016014312685632054e-01
7.459999999999999964e-01,-2.938501704770840051e-01,2.183311059243064622e-01,-1.982969453722072395e-01
7.469999999999999973e-01,4.231843551636919887e-02,-3.444494048799454089e-01,1.303946988603608623e-02
7.479999999999999982e-01,-1.119139583735370008e-02,-5.555277580765278778e-01,3.653416874787405177e-01
7.489999999999999991e-01,-1.281001899711188829e-01,-4.489798577943549529e-01,5.238010886462904914e-01
7.500000000000000000e-01,-8.305818049610826093e-02,-1.447398298772522574e-01,3.363079998907655410e-01
7.510000000000000009e-01,3.859228028325809023e-01,5.523504250154113310e-02,-1.077630005213062458e-01
7.520000000000000018e-01,7.498816628624476177e-01,8.267511869647020673e-02,-4.532625223438274675e-01
7.530000000000000027e-01,6.191708312558491523e-01,1.129804503653770026e-01,-4.170553061290098174e-01
7.540000000000000036e-01,2.168448053124760050e-02,1.845403972224116396e-01,-1.147021299731106198e-01
7.550000000000000044e-01,-5.888317046425145529e-01,3.576926957048097711e-01,6.794285016186661641e-02
7.560000000000000053e-01,-7.604286652586212947e-01,3.932935108889977216e-01,-9.113834568022373406e-03
7.570000000000000062e-01,-4.454033894512828273e-01,1.648975812877192249e-01,-9.385596722684423632e-02
7.580000000000000071e-01,-7.216096096670604476e-02,-2.441513502097901189e-01,-1.161306582432487626e-03
7.590000000000000080e-01,1.154645017601240858e-01,-5.454603309399399524e-01,2.784902057967216238e-01
7.600000000000000089e-01,1.063792308796790986e-01,-5.509463330545111281e-01,4.646996983574436801e-01
7.610000000000000098e-01,1.294076159919878288e-01,-2.817924909525930666e-01,3.232863345330762583e-01
7.620000000000000107e-01,3.353732139620170805e-01,1.212849165250475675e-01,-9.299854960752301780e-02
7.630000000000000115e-01,4.799312264463460043e-01,3.049376465031701233e-01,-4.042988926844259256e-01
7.640000000000000124e-01,4.563730245246979123e-01,3.100535997008583844e-01,-4.368609507473723008e-01
7.650000000000000133e-01,7.979500864050835529e-02,1.695147129389515117e-01,-2.325733792346190987e-01
7.660000000000000142e-01,-4.190548807469093306e-01,1.250258096334513624e-01,-8.583947377551094313e-03
7.670000000000000151e-01,-7.107725935728619326e-01,2.013722149504965364e-01,8.326699867204094552e-02
7.680000000000000160e-01,-6.209729209336790623e-01,1.618688018630469461e-01,9.293465148368501572e-02
7.690000000000000169e-01,-2.193377281957854807e-01,-9.238138091194283974e-02,9.929689349538592391e-02
7.700000000000000178e-01,2.480693044755029053e-01,-5.172727709421286457e-01,2.144956466264157091e-01
7.710000000000000187e-01,4.374840166095861349e-01,-6.709316804953355806e-01,3.078985709393551873e-01
7.720000000000000195e-01,3.695609082906229914e-01,-3.414105758097180088e-01,2.329545542436094463e-01
7.730000000000000204e-01,1.940308885346197221e-01,2.583624607584728561e-01,1.912961786995657013e-02
7.740000000000000213e-01,1.490416783976058201e-01,5.533929122646045196e-01,-2.508828878007300367e-01
7.750000000000000222e-01,2.320395638366257729e-01,4.146352816379314521e-01,-4.482219310862484152e-01
7.760000000000000231e-01,1.847360545725895142e-01,6.773916647269469238e-02,-3.646507692179719040e-01
7.770000000000000240e-01,-1.910637717112277090e-01,-5.294085947472164377e-02,-1.125766642969956294e-01
7.780000000000000249e-01,-6.730990456565026925e-01,1.237223519853869330e-01,1.467849719029079847e-01
7.790000000000000258e-01,-8.185171693882989929e-01,2.018433664513489822e-01,2.760024395999847169e-01
7.800000000000000266e-01,-3.682264542984481914e-01,-1.062021788025653141e-01,2.394298799791668708e-01
7.810000000000000275e-01,3.425762757972091177e-01,-5.460408486921516369e-01,1.159314972630291207e-01
7.820000000000000284e-01,7.318253739772012656e-01,-6.933027483169922345e-01,9.162510704987847365e-02
7.830000000000000293e-01,5.267184584852591112e-01,-2.604435403691503503e-01,1.327750342890531843e-01
7.840000000000000302e-01,6.996639775856894339e-02,3.717987315581815499e-01,7.909473656552046261e-02
7.850000000000000311e-01,-8.353779124925084232e-02,6.650494282751021613e-01,-1.119067720438610553e-01
7.860000000000000320e-01,8.448654335801805693e-02,4.370777841023441024e-01,-4.100811808513932233e-01
7.870000000000000329e-01,2.230411430753777013e-01,2.673072568257795281e-02,-5.204089048226004932e-01
7.880000000000000338e-01,-1.080097773176662002e-01,-1.472621625191401218e-01,-2.595529573066240325e-01
7.890000000000000346e-01,-6.744466947567571147e-01,-2.310383694340077676e-03,1.930857044730534822e-01
7.900000000000000355e-01,-8.701362767078480998e-01,7.948114771901963749e-02,3.925420087606516506e-01
7.910000000000000364e-01,-3.824356868489500183e-01,-1.364428760948631358e-01,3.399138474575316704e-01
7.920000000000000373e-01,4.450710073007970169e-01,-5.122197871678951797e-01,7.610023015820517600e-02
7.930000000000000382e-01,8.646401183407075308e-01,-5.739016037207083087e-01,-5.936598858930280248e-02
7.940000000000000391e-01,6.363190580086146575e-01,-1.707885028016977447e-01,1.163166393873271177e-02
7.950000000000000400e-01,3.551548168140029882e-02,3.654220927257781359e-01,1.104199100972820119e-01
7.960000000000000409e-01,-1.987412951442160680e-01,6.463081000427798317e-01,-1.059523756795176588e-02
7.970000000000000417e-01,-5.872752169258751292e-02,4.484998869544580269e-01,-3.276804945795948054e-01
7.980000000000000426e-01,9.452601915887569317e-02,8.706090475911344717e-02,-5.289881456288614281e-01
7.990000000000000435e-01,-1.092925562909709131e-01,-1.298181827413671940e-01,-3.018742567232792218e-01
8.000000000000000444e-01,-5.925507378932134417e-01,-1.754407335249353328e-01,1.796801019699693358e-01
8.010000000000000453e-01,-7.135373699994465024e-01,-1.043559093611664962e-01,4.922519652411371793e-01
8.020000000000000462e-01,-3.050250521180850605e-01,-2.068708727146665871e-01,4.785453699286038032e-01
8.030000000000000471e-01,3.818872810578823884e-01,-3.626126318084406108e-01,1.185161159740822784e-01
8.040000000000000480e-01,8.081177728701658403e-01,-3.165402000126844029e-01,-1.249561615963502015e-01
8.050000000000000488e-01,5.978686879166279500e-01,-1.257054719734945480e-01,-1.261154796061258188e-01
8.060000000000000497e-01,1.959662193014493625e-01,2.741981219752497312e-01,6.658328580650418882e-02
8.070000000000000506e-01,-1.472114192668497190e-01,5.416314971385517429e-01,-2.653020518805597472e-02
8.080000000000000515e-01,-2.269192987786538829e-01,5.315496926944572875e-01,-2.636358579959854898e-01
8.090000000000000524e-01,-1.556657475445795413e-01,2.103946216221042331e-01,-4.474638006898712939e-01
8.100000000000000533e-01,-1.817366952033931116e-01,-1.810002398284260849e-01,-3.020638503451833490e-01
8.110000000000000542e-01,-3.932179550074711982e-01,-3.918620481210473572e-01,8.674933513617352765e-02
8.120000000000000551e-01,-4.540221197639528472e-01,-3.450693788649237259e-01,4.488069855693802013e-01
8.129999999999999449e-01,-1.957124562321932992e-01,-1.690009902264936748e-01,4.626396464403257913e-01
8.139999999999999458e-01,2.447262693586401694e-01,-1.078728390291959077e-01,1.808939042015768328e-01
8.149999999999999467e-01,6.439394310515514919e-01,-1.455536723448521974e-01,-4.717455120757937936e-02
8.159999999999999476e-01,7.018212251423610049e-01,-1.070948093593343114e-01,-1.362256031727349936e-01
8.169999999999999485e-01,3.927681101502950023e-01,1.526743766502266508e-01,-1.469639067420236700e-01
8.179999999999999494e-01,-1.132963632939097687e-01,4.889687389425882991e-01,-1.202921148954877312e-01
8.189999999999999503e-01,-4.191852579383022470e-01,6.383227975986250913e-01,-1.705394368749714729e-01
8.199999999999999512e-01,-4.922145678699548776e-01,3.005174741955613515e-01,-2.484311228786321712e-01
8.209999999999999520e-01,-2.881653409127254428e-01,-2.693576690013731456e-01,-2.121363475045442426e-01
8.219999999999999529e-01,-1.151597134526459731e-01,-6.066653693211578879e-01,3.913405434115026227e-02
8.229999999999999538e-01,-1.132014902548269392e-01,-4.977050666417853209e-01,2.952783827024993424e-01
8.239999999999999547e-01,-1.505606055491010287e-01,-7.152166446945057432e-02,4.463566432858221411e-01
8.249999999999999556e-01,3.321792019823401054e-02,1.315683108495120657e-01,3.432129166202821935e-01
8.259999999999999565e-01,4.849951864375938726e-01,-1.822889063895341121e-03,8.560844263379784047e-02
8.269999999999999574e-01,7.826553684919614895e-01,-1.231322396276202796e-01,-1.820457864081892196e-01
8.279999999999999583e-01,6.097843587458264825e-01,5.000061801971288078e-02,-3.302149530974897718e-01
8.289999999999999591e-01,-2.682453685814228245e-02,5.035183247171038934e-01,-2.694341179018018284e-01
8.299999999999999600e-01,-6.690182537330993107e-01,6.613217548637598808e-01,-1.135270497701555414e-01
8.309999999999999609e-01,-7.607828943415106959e-01,2.256199765591495321e-01,-7.176297078500711024e-02
8.319999999999999618e-01,-3.147342013929930182e-01,-4.093176870990515859e-01,-4.929426330974887721e-02
8.329999999999999627e-01,9.013942830452160992e-02,-7.435419121002316833e-01,-3.144506303500466809e-02
8.339999999999999636e-01,1.311550915674445650e-01,-4.753847074413356522e-01,1.390674258711747380e-01
8.349999999999999645e-01,-7.290984171838543748e-02,1.024865234715706050e-02,3.730936505033891626e-01
8.359999999999999654e-01,-5.084839300202733531e-02,2.221996016175004363e-01,4.415751503353133045e-01
8.369999999999999662e-01,3.516325668340914423e-01,1.066566957341796434e-01,1.994743196773721139e-01
8.379999999999999671e-01,7.896367781001247810e-01,-7.070410699028360779e-02,-2.115206778360731454e-01
8.389999999999999680e-01,6.592864603966305248e-01,1.405490472627601573e-01,-4.707530069648179216e-01
8.399999999999999689e-01,-7.238644340648626996e-02,4.666222426954745872e-01,-3.707417523141445237e-01
8.409999999999999698e-01,-7.603438871691677869e-01,5.553780010872271244e-01,-7.133428428077542849e-02
8.419999999999999707e-01,-8.493239811156206853e-01,1.362312960890257052e-01,7.829128165659289540e-02
8.429999999999999716e-01,-3.312606327902549164e-01,-4.227525184584242646e-01,5.284278999043276470e-02
8.439999999999999725e-01,1.781468065862313599e-01,-6.691720124360168720e-01,-5.057667408339839438e-02
8.449999999999999734e-01,2.584302378272118617e-01,-4.593917824667715921e-01,3.813274197463831922e-02
8.459999999999999742e-01,3.335062085436733131e-02,-2.664214116164157972e-02,3.091360418724049541e-01
8.469999999999999751e-01,-2.132837066396171821e-02,2.302767495776953666e-01,4.652565491370472262e-01
8.479999999999999760e-01,3.145001573419125562e-01,1.980787229538228666e-01,2.579363848032838469e-01
8.489999999999999769e-01,6.864240401034520378e-01,1.587422757924904504e-01,-2.128568614703416906e-01
8.499999999999999778e-01,5.158579738155427696e-01,1.816525856477665124e-01,-5.369199159901645313e-01
8.509999999999999787e-01,-1.029519397609712644e-01,3.048650401574377056e-01,-4.725083289741562886e-01
8.519999999999999796e-01,-7.299956871955817217e-01,3.329001111922933465e-01,-1.062526744889732838e-01
8.529999999999999805e-01,-8.220762260715055447e-01,7.267784434482536804e-02,1.764767444946433728e-01
8.539999999999999813e-01,-3.922960497972735605e-01,-3.066651242360632357e-01,1.441846189969734904e-01
8.549999999999999822e-01,1.348702289404156984e-01,-5.639942380024571822e-01,4.300623419854735126e-03
8.559999999999999831e-01,3.220424880758132047e-01,-4.770009495318994763e-01,1.529799921689600078e-02
8.569999999999999840e-01,2.234486756044466171e-01,-1.510046413525877040e-01,2.313618081789236836e-01
8.579999999999999849e-01,1.843224527878872254e-01,2.005460507692546079e-01,4.287505776319436857e-01
8.589999999999999858e-01,2.869258655003681935e-01,4.328183019984092605e-01,2.827905131546248341e-01
8.599999999999999867e-01,3.967376567349721328e-01,3.391783729640761025e-01,-1.676522601041379457e-01
8.609999999999999876e-01,3.058680372423897564e-01,1.600199681543783281e-01,-4.761379132363696143e-01
8.619999999999999885e-01,-6.566770988501403894e-02,6.969987932143960341e-02,-4.657568136654290925e-01
8.629999999999999893e-01,-5.296864149673692346e-01,3.702824382660542535e-02,-2.030733003772799139e-01
8.639999999999999902e-01,-7.471232873708191224e-01,3.308419282149727830e-02,1.065494197780641611e-01
8.649999999999999911e-01,-5.304324655456427173e-01,-1.770526241532894562e-01,2.277066118936600381e-01
8.659999999999999920e-01,-4.884429814250997037e-02,-4.732163474417140914e-01,1.335418117189035858e-01
8.669999999999999929e-01,3.807756259015926403e-01,-5.512109736527092130e-01,8.974379538500122655e-02
8.679999999999999938e-01,5.060706192555939342e-01,-2.429420372383508664e-01,1.714999121070448218e-01
8.689999999999999947e-01,4.213619765165851905e-01,3.070981714871011126e-01,2.296105244580046167e-01
8.699999999999999956e-01,1.881802094974647233e-01,6.271281428738592068e-01,1.549629098146383943e-01
8.709999999999999964e-01,7.595724353688028396e-02,4.924494550070793175e-01,-8.588136491248246629e-02
8.719999999999999973e-01,4.721339171311619148e-02,5.916391824571051727e-02,-3.517741316216438374e-01
8.729999999999999982e-01,2.532780725605719013e-02,-2.052063902107691962e-01,-4.212598552175323974e-01
8.739999999999999991e-01,-2.907090109002716805e-01,-9.397664227540787618e-02,-2.899768799640822792e-01
8.750000000000000000e-01,-6.072863678524191844e-01,4.975956083065974367e-02,-8.014526494016450259e-03
8.760000000000000009e-01,-6.725179269525159986e-01,-7.841157369015994139e-02,2.335602643683129809e-01
8.770000000000000018e-01,-2.314749741835014363e-01,-4.394230645877612029e-01,3.335169150100293356e-01
8.780000000000000027e-01,4.476880815238304945e-01,-6.113646132929470012e-01,2.342100543754112585e-01
8.790000000000000036e-01,7.981129003847825532e-01,-2.379267162961593296e-01,1.188965836057990916e-01
8.800000000000000044e-01,5.889558821598362970e-01,4.128377567541884896e-01,3.598705330692158338e-02
8.810000000000000053e-01,6.093462023163856434e-02,7.445580297811580373e-01,1.000077089319761740e-02
8.820000000000000062e-01,-2.177099559033778553e-01,5.216637638971047819e-01,9.558204868804737186e-03
8.830000000000000071e-01,-1.713812518586930733e-01,-4.620951480043886789e-04,-1.350172054463181226e-01
8.840000000000000080e-01,4.586074355218144188e-02,-2.929444635738817082e-01,-3.765633639879427674e-01
8.850000000000000089e-01,-1.134893822244030792e-01,-1.657900233121982203e-01,-3.766328218255924343e-01
8.860000000000000098e-01,-5.470453625772049300e-01,2.312354353399236062e-02,-1.278235156940897566e-01
8.870000000000000107e-01,-7.055972605494692518e-01,-8.408684258636760223e-02,2.594298093043644338e-01
8.880000000000000115e-01,-2.795922141387439108e-01,-4.068200332617719628e-01,5.019554662864893491e-01
8.890000000000000124e-01,5.306186562474970447e-01,-4.899434436690132677e-01,3.905207692013341614e-01
8.900000000000000133e-01,9.640898377029959443e-01,-1.186136477863701660e-01,5.502576372718295805e-02
8.910000000000000142e-01,6.641312832367093355e-01,4.516085060013738106e-01,-1.461195008188742317e-01
8.920000000000000151e-01,3.677542147157745328e-02,7.183638741324263055e-01,-1.254102057152540195e-01
8.930000000000000160e-01,-3.832841697831620431e-01,4.721433569148451026e-01,3.237540244173931631e-02
8.940000000000000169e-01,-2.512689378720727174e-01,-8.972175312323107249e-03,-4.744074323694062040e-02
8.950000000000000178e-01,-1.896607225775644168e-02,-2.869984877755448194e-01,-2.926361887743906265e-01
8.960000000000000187e-01,-9.444545667124580601e-02,-2.592342778572851447e-01,-4.521569915357187552e-01
8.970000000000000195e-01,-4.738186250952183820e-01,-1.447202524023366854e-01,-2.513547862490481677e-01
8.980000000000000204e-01,-5.963206992154310715e-01,-1.441732708063725443e-01,2.248246939380647569e-01
8.990000000000000213e-01,-2.263180925202124272e-01,-2.279385180737713290e-01,5.735815923398969174e-01
9.000000000000000222e-01,5.091900241085876022e-01,-2.176671854643426607e-01,4.668830203765668707e-01
9.010000000000000231e-01,8.976365836682094201e-01,5.550900048427805274e-03,1.185066904270066085e-01
9.020000000000000240e-01,6.605969834095964943e-01,3.854035142844801087e-01,-2.143970005004159629e-01
9.030000000000000249e-01,7.583443081815050002e-02,5.955571782561315253e-01,-2.129773757197201134e-01
9.040000000000000258e-01,-3.663509189562829116e-01,4.824096321640150564e-01,-3.287566771970966417e-02
9.050000000000000266e-01,-3.954653424423091868e-01,1.074567365927485557e-01,-3.354606553339474495e-02
9.060000000000000275e-01,-2.218886253801471420e-01,-2.567168589205651164e-01,-1.983624978263902605e-01
9.070000000000000284e-01,-1.572112854231524082e-01,-4.203670584368190410e-01,-3.739487777631830268e-01
9.080000000000000293e-01,-2.723377708055093605e-01,-3.644391915556198236e-01,-2.195408984528137986e-01
9.090000000000000302e-01,-3.332692187618058743e-01,-1.753265740691543617e-01,1.892073202197554482e-01
9.100000000000000311e-01,-9.055762601418923530e-02,-3.155721656235554312e-02,4.812012425504069157e-01
9.110000000000000320e-01,3.633975487296851603e-01,-6.427883859971719391e-03,4.783147800850265363e-01
9.120000000000000329e-01,6.747252678539452653e-01,3.637642522259351002e-02,1.594218142104269487e-01
9.130000000000000338e-01,6.489976632656276889e-01,2.358154697056254745e-01,-1.738621603027735441e-01
9.140000000000000346e-01,2.344166291780162559e-01,4.806277408777775428e-01,-2.537113306094573306e-01
9.150000000000000355e-01,-2.696559498341300487e-01,5.254398497429880743e-01,-1.844743290118844581e-01
9.160000000000000364e-01,-5.693954316360058110e-01,1.710621810636471785e-01,-9.598611021761513373e-02
9.170000000000000373e-01,-4.969088123464588391e-01,-3.110365504800610692e-01,-1.343346115802734886e-01
9.180000000000000382e-01,-2.709407428590357436e-01,-6.574789048210086806e-01,-1.791916695749926070e-01
9.190000000000000391e-01,-3.781262762771110675e-02,-5.238911170804460005e-01,-1.420138667449619418e-01
9.200000000000000400e-01,2.861895506784660134e-02,-7.489310246332799015e-02,1.481704500504632815e-01
9.210000000000000409e-01,3.761184531725191710e-02,2.481182340534188735e-01,3.657753723232434750e-01
9.220000000000000417e-01,1.576636367659681737e-01,1.734739470545466067e-01,4.219843648253815971e-01
9.230000000000000426e-01,4.500425461076628664e-01,2.406902064617814918e-02,2.228457279255766366e-01
9.240000000000000435e-01,6.482441515424968159e-01,9.368505142524258256e-02,-2.522903120811266844e-02
9.250000000000000444e-01,4.094004047158465998e-01,3.837259545054479415e-01,-3.150831600963214796e-01
9.260000000000000453e-01,-1.697045777174462367e-01,5.368114407690256495e-01,-3.530780500946861244e-01
9.270000000000000462e-01,-7.243517421029050940e-01,2.033407611063545173e-01,-2.493752003600551437e-01
9.280000000000000471e-01,-7.898502660952442245e-01,-4.439798198609516411e-01,-7.114279477236369609e-02
9.290000000000000480e-01,-3.403889403930844826e-01,-7.680877562199861508e-01,1.251487382920400161e-02
9.300000000000000488e-01,1.874907571584364108e-01,-5.074921399357608109e-01,2.348788076415170983e-02
9.310000000000000497e-01,3.198038914368333541e-01,1.892927281879286730e-02,5.383860985684889994e-02
9.320000000000000506e-01,1.235871480038481102e-01,3.690351977403226735e-01,1.905171185272393208e-01
9.330000000000000515e-01,5.329503862183430918e-02,2.750349113936961243e-01,3.444370607151119867e-01
9.340000000000000524e-01,2.961448928082494048e-01,5.567161955130837947e-02,3.434339104180077484e-01
9.350000000000000533e-01,6.068183954958538129e-01,3.931384756835138578e-02,9.341549598010845390e-02
9.360000000000000542e-01,5.184696946492517444e-01,3.510707142078315357e-01,-2.645320590187409948e-01
9.370000000000000551e-01,-1.621741667114511010e-01,4.473094872981737691e-01,-4.950069736988357838e-01
9.379999999999999449e-01,-8.146973343789443156e-01,9.903625516968388165e-02,-4.013580113488640633e-01
9.389999999999999458e-01,-9.027720816772477619e-01,-4.740609643877838342e-01,-2.149489454067358279e-02
9.399999999999999467e-01,-3.387348813655592927e-01,-7.689315606539138814e-01,1.752691792576739072e-01
9.409999999999999476e-01,3.030103814944675733e-01,-4.699810136084972556e-01,1.591527738935466507e-01
9.419999999999999485e-01,4.863728910821675244e-01,4.143242742312999716e-02,5.813231420397088622e-02
9.429999999999999494e-01,1.989602534002367640e-01,4.024395889082386102e-01,5.286691530926232452e-02
9.439999999999999503e-01,8.876721854318547072e-03,3.533141319849208983e-01,2.232072891958133687e-01
9.449999999999999512e-01,1.808043164237562728e-01,1.340298908299868974e-01,3.878934744118367473e-01
9.459999999999999520e-01,5.088386677032578076e-01,1.024658874847485385e-01,1.955585356763412386e-01
9.469999999999999529e-01,4.102327954652268405e-01,1.800575461347109496e-01,-2.823926830913431885e-01
9.479999999999999538e-01,-1.979463493888686809e-01,2.173547189389589684e-01,-5.606712684391936818e-01
9.489999999999999547e-01,-8.152531727856274779e-01,-5.806473798980611029e-02,-4.866827204600872592e-01
9.499999999999999556e-01,-8.664630493850670190e-01,-3.882633767560369487e-01,-4.988552568074390570e-02
9.509999999999999565e-01,-3.528407734011809738e-01,-5.559788309605718792e-01,2.410862714735762524e-01
9.519999999999999574e-01,2.778147665283126622e-01,-4.284183281547260247e-01,2.857476213011719279e-01
9.529999999999999583e-01,5.304398844488593667e-01,-1.630364062733398456e-02,1.062629886975396953e-01
9.539999999999999591e-01,3.536918860417165300e-01,3.512595988485344156e-01,-6.282672963575217009e-04
9.549999999999999600e-01,1.543575831034691426e-01,4.743941433286804066e-01,1.442215017269537491e-01
9.559999999999999609e-01,1.430774105079470615e-01,3.397561311176076071e-01,2.954237327977450311e-01
9.569999999999999618e-01,2.381020298571421001e-01,1.084814938466352463e-01,2.076558858086313686e-01
9.579999999999999627e-01,1.939246618225528573e-01,-7.441821615002117141e-02,-2.156592945524692939e-01
9.589999999999999636e-01,-1.735508373206443855e-01,-6.433032438116004226e-02,-5.242172427885484209e-01
9.599999999999999645e-01,-6.064988411342721042e-01,-5.083433931809209355e-02,-4.762250126392708616e-01
9.609999999999999654e-01,-7.079256325447903508e-01,-2.141244338314757523e-01,-1.140387505309901905e-01
9.619999999999999662e-01,-3.963808593999391117e-01,-4.176780737326556414e-01,2.048075735150236831e-01
9.629999999999999671e-01,1.229498965343129580e-01,-4.183088669895044243e-01,3.332124043949653003e-01
9.639999999999999680e-01,5.351276240994239375e-01,-1.666718510882278237e-01,1.749972448733145558e-01
9.649999999999999689e-01,5.866766801205688386e-01,3.471528131523319849e-01,8.058287216749011883e-02
9.659999999999999698e-01,3.775159333706044062e-01,6.535883490269158713e-01,8.708318373093250353e-02
9.669999999999999707e-01,1.013996259273309414e-01,5.074341241348047093e-01,1.689629063912968798e-01
9.679999999999999716e-01,-4.427228754697828256e-02,9.310328356931554805e-02,8.864947754455243523e-02
9.689999999999999725e-01,-1.104393859103817710e-01,-2.891255544588208215e-01,-1.252800940094759841e-01
9.699999999999999734e-01,-1.455257396500076184e-01,-2.568285461276363923e-01,-3.834372202679410813e-01
9.709999999999999742e-01,-3.203711848364892423e-01,-4.993606240477550806e-02,-4.059447217974630484e-01
9.719999999999999751e-01,-5.412555618471415197e-01,-7.019104445910634427e-02,-2.177154435051010251e-01
9.729999999999999760e-01,-5.155388586107005899e-01,-3.154404149893618725e-01,1.215636505389551258e-01
9.739999999999999769e-01,-3.979194197993335402e-02,-4.471805641354756888e-01,3.233604089909509205e-01
9.749999999999999778e-01,5.129082489155558644e-01,-1.799694679900115668e-01,3.552532424794413446e-01
9.759999999999999787e-01,8.307887618708210686e-01,4.225516598451625194e-01,2.364554128155123558e-01
9.769999999999999796e-01,5.569478181733575894e-01,7.725169580106896472e-01,5.432937990003244844e-02
9.779999999999999805e-01,1.182571329090734147e-02,5.335968980169522036e-01,-4.618306737674310325e-02
9.789999999999999813e-01,-3.884575448303392298e-01,-3.372152990901605002e-02,-6.416711455270254771e-02
9.799999999999999822e-01,-3.191884756967284797e-01,-4.456794189136589202e-01,-9.085774196377179035e-02
9.809999999999999831e-01,-1.098286502853160346e-01,-3.736242117916675487e-01,-2.000309192441308004e-01
9.819999999999999840e-01,-1.113923849661236365e-01,-6.640874143376529481e-02,-3.291004869515506970e-01
9.829999999999999849e-01,-3.857920219090042457e-01,-5.479946941602042987e-02,-3.068967614325737170e-01
9.839999999999999858e-01,-5.422592796639080781e-01,-2.309779546911316928e-01,-2.281631669761261319e-02
9.849999999999999867e-01,-1.608991429550018504e-01,-3.785685584518390656e-01,3.226108951014785564e-01
9.859999999999999876e-01,5.388008255947214220e-01,-8.012344036740066955e-02,5.037845202477222450e-01
9.869999999999999885e-01,9.382596780663221558e-01,4.922779014312101409e-01,3.899192547384893737e-01
9.879999999999999893e-01,6.768335513761289945e-01,7.484943081973012280e-01,3.024161124871660791e-02
9.889999999999999902e-01,-9.447312534012292096e-02,4.753915969653985663e-01,-2.080147028792520281e-01
9.899999999999999911e-01,-5.639723013730972845e-01,-9.394905761862942795e-02,-2.251408364912437232e-01
9.909999999999999920e-01,-4.971620085580970017e-01,-4.540636708030300617e-01,-7.887975833838141437e-02
9.919999999999999929e-01,-1.071416724700775119e-01,-4.042892175150532563e-01,-4.621006212480977676e-02
9.929999999999999938e-01,-4.308424763903188903e-02,-1.784189727673419212e-01,-1.697473916495295665e-01
9.939999999999999947e-01,-2.530528152148483478e-01,-6.180778586637770272e-02,-2.972361388076488198e-01
9.949999999999999956e-01,-4.228720238431056266e-01,-1.225605648410383886e-01,-1.314049261232426435e-01
9.959999999999999964e-01,-1.130203523579338537e-01,-1.473793684920667313e-01,2.513030956082852319e-01
9.969999999999999973e-01,5.382552286480448700e-01,4.932329752436841880e-02,5.365981204381066183e-01
9.979999999999999982e-01,9.195276320841535567e-01,4.024220305776702866e-01,4.940588787365839396e-01
9.989999999999999991e-01,6.448018137349686985e-01,5.704420377794234831e-01,5.888726196857222567e-02
1.000000000000000000e+00,-2.835018792601346968e-02,4.007736172178387180e-01,-3.276688245021414092e-01
1.000999999999999890e+00,-5.676307284046192558e-01,-3.962310961741670468e-02,-3.332668352548414092e-01
1.002000000000000002e+00,-5.473808726615611020e-01,-4.150265605111083111e-01,-1.072434963062669777e-01
1.002999999999999892e+00,-2.353260665083535541e-01,-4.954017115735022125e-01,6.464965891553096575e-03
1.004000000000000004e+00,-8.444845731173435122e-02,-3.689811129878741158e-01,-1.121939760657833934e-01
1.004999999999999893e+00,-1.256147877919635836e-01,-9.136207334237501920e-02,-2.659504942464688271e-01
1.006000000000000005e+00,-1.917661153566653787e-01,8.917056605856520102e-02,-1.507930803902288452e-01
1.006999999999999895e+00,7.985172450129231214e-03,1.037933334906644828e-01,2.064465174539324710e-01
1.008000000000000007e+00,4.359025186084055092e-01,1.247070269061053005e-01,5.230172310817113868e-01
1.008999999999999897e+00,7.065824823278258338e-01,2.116213520222459954e-01,4.650341357522075336e-01
1.010000000000000009e+00,5.623202903615910353e-01,3.586285462157002280e-01,7.843121416851472905e-02
1.010999999999999899e+00,6.926612116573989397e-02,3.673014105174737254e-01,-2.958460654377743637e-01
1.012000000000000011e+00,-4.266789175730336670e-01,7.802197125943469147e-02,-3.842465151823475922e-01
1.012999999999999901e+00,-6.534110484835412569e-01,-3.794044594314013308e-01,-2.353667060879499617e-01
1.014000000000000012e+00,-5.237913074522771995e-01,-6.602734685168989426e-01,-5.620501223604179586e-02
1.014999999999999902e+00,-1.868281148714584505e-01,-4.839895839489576357e-01,-5.182121635858859959e-02
1.016000000000000014e+00,5.451445805615177248e-02,-5.601355122521024105e-02,-9.561411811423357887e-02
1.016999999999999904e+00,1.479734343558059273e-01,3.487942581384044782e-01,-5.406880827531763273e-02
1.018000000000000016e+00,1.636199633124865715e-01,3.301480819651724796e-01,1.539619558751369466e-01
1.018999999999999906e+00,2.912332323202439510e-01,1.545840549280675935e-01,3.988576035582532264e-01
1.020000000000000018e+00,4.087560968617032220e-01,3.469424462616744337e-02,3.987611413408352901e-01
1.020999999999999908e+00,4.545912502458074322e-01,2.255274505702609955e-01,1.447515871406542809e-01
1.022000000000000020e+00,2.543541369483398595e-01,3.574515176616592238e-01,-1.832713024111680411e-01
1.022999999999999909e+00,-3.073631025029758268e-01,1.260285806487319582e-01,-3.989474612106674312e-01
1.024000000000000021e+00,-7.612657518084435804e-01,-4.244387204000194536e-01,-3.527783283988323304e-01
1.024999999999999911e+00,-7.598188340311992084e-01,-7.536485326221661341e-01,-1.849870292238051661e-01
1.026000000000000023e+00,-2.614019342885678387e-01,-5.370173744732144039e-01,-8.155256289335284514e-03
1.026999999999999913e+00,3.103319783098618667e-01,4.707425760327978159e-02,7.119066743111766848e-02
1.028000000000000025e+00,4.932847616547523240e-01,4.839242982806979954e-01,1.029456233348134964e-01
1.028999999999999915e+00,3.017374145481585557e-01,4.504692833862221080e-01,1.104560346188724895e-01
1.030000000000000027e+00,8.081741282307117191e-02,1.123774883653545914e-01,1.945001206005875227e-01
1.030999999999999917e+00,1.831097070760550893e-01,-2.819226060138321777e-02,2.915315173351348266e-01
1.032000000000000028e+00,4.126953193519901086e-01,1.631128005473825027e-01,2.381742570493565470e-01
1.032999999999999918e+00,3.222892354955230187e-01,2.710366340974207366e-01,-2.280924440834110334e-02
1.034000000000000030e+00,-1.964692098368809037e-01,6.986682148190591357e-02,-3.184381193018234746e-01
1.034999999999999920e+00,-8.238325270863376959e-01,-4.596978984233877075e-01,-4.897493394693196445e-01
1.036000000000000032e+00,-8.969033784398072751e-01,-7.447413024222558908e-01,-3.412597167960361721e-01
1.036999999999999922e+00,-3.061261001149030436e-01,-4.543704376931968492e-01,-1.068063573017659015e-02
1.038000000000000034e+00,4.101757312849900750e-01,1.455371817952675617e-01,2.428424621671508576e-01
1.038999999999999924e+00,6.600599768882906559e-01,5.641986865779895499e-01,2.665844003499691639e-01
1.040000000000000036e+00,3.538860002852816655e-01,4.695992747902864584e-01,1.202525310330152947e-01
1.040999999999999925e+00,1.717328421790313350e-02,1.506913327489764753e-01,1.781919439090223073e-02
1.042000000000000037e+00,2.708558742897640773e-02,8.562690400096984594e-03,1.249604925975227460e-01
1.042999999999999927e+00,2.716026464084953518e-01,9.921388224169297443e-02,2.403473640889131624e-01
1.044000000000000039e+00,2.723218898756549211e-01,1.009856058132861389e-01,1.054602197539260405e-01
1.044999999999999929e+00,-2.072057550861745867e-01,-7.184950117649523127e-02,-2.709858503370359273e-01
1.046000000000000041e+00,-7.641623236748809056e-01,-4.230589227434516375e-01,-5.560289300497407439e-01
1.046999999999999931e+00,-8.552749040128625468e-01,-5.593493156851641057e-01,-4.492238367151200618e-01
1.048000000000000043e+00,-2.854867238552495357e-01,-3.295008363391108142e-01,-1.172012324767428282e-02
1.048999999999999932e+00,4.419613652393432623e-01,1.182450558049176481e-01,3.631496321082460232e-01
1.050000000000000044e+00,7.475756631808831987e-01,4.622566235028489068e-01,3.807536660115586336e-01
1.050999999999999934e+00,4.615821425414056156e-01,5.424405861406150775e-01,1.701793176945022024e-01
1.052000000000000046e+00,1.013994367380597478e-01,3.217423709786578767e-01,-5.741941623849552284e-03
1.052999999999999936e+00,-5.024117099976267015e-02,5.568672440128855788e-02,3.722436022011445939e-02
1.054000000000000048e+00,1.068293807025787606e-01,-1.411885790634913040e-01,1.801961345816479321e-01
1.054999999999999938e+00,1.011037862556684042e-01,-1.716456122236848514e-01,1.261353886922839951e-01
1.056000000000000050e+00,-2.138763036265342865e-01,-1.745484694119044944e-01,-2.273056903203133639e-01
1.056999999999999940e+00,-5.770146187228555323e-01,-2.447958398795943569e-01,-5.051047626984243033e-01
1.058000000000000052e+00,-6.382113212294148186e-01,-3.233482117566173764e-01,-4.670611015522584952e-01
1.058999999999999941e+00,-2.847757171231390383e-01,-2.855247457556617241e-01,-6.789471380471254203e-02
1.060000000000000053e+00,2.936413338393481509e-01,-2.442306251334211767e-02,3.459946363918667833e-01
1.060999999999999943e+00,6.648617527869442601e-01,3.910468725929505118e-01,4.306707886973088484e-01
1.062000000000000055e+00,6.394191085870664093e-01,6.476628784124387472e-01,2.554955409871150773e-01
1.062999999999999945e+00,3.173408011228115999e-01,4.553826016672732901e-01,7.968796440581652971e-03
1.064000000000000057e+00,-7.432016678189350134e-02,3.574442256073743357e-02,-1.019677855109938844e-02
1.064999999999999947e+00,-2.008991277455740299e-01,-3.544278073570725218e-01,5.483065486996956117e-02
1.066000000000000059e+00,-2.383879311711192828e-01,-4.194825315710898894e-01,2.807158406947845436e-02
1.066999999999999948e+00,-2.278569594149449928e-01,-1.717503562131211525e-01,-1.544467919548073997e-01
1.068000000000000060e+00,-3.123179679283554777e-01,-5.350504480637871541e-02,-3.487562037430809170e-01
1.068999999999999950e+00,-4.154223310280355519e-01,-1.695597843224821155e-01,-3.697320589736601271e-01
1.070000000000000062e+00,-3.032745957102835899e-01,-2.927561500299300512e-01,-1.413067593741858530e-01
1.070999999999999952e+00,8.827057549317465779e-02,-1.102838345520366636e-01,2.188249489746161291e-01
1.072000000000000064e+00,5.695157457901152132e-01,3.698975953049375986e-01,3.806875944307165915e-01
1.072999999999999954e+00,7.911602683446010698e-01,7.462026409288220474e-01,3.646262337297856981e-01
1.074000000000000066e+00,5.032533561559842106e-01,5.599402545745668647e-01,1.805547344647699948e-01
1.074999999999999956e+00,-9.978983547968259260e-02,-1.083816421531195034e-01,-4.996973505969957291e-02
1.076000000000000068e+00,-5.015299831719975954e-01,-5.427029153736420142e-01,-1.602515944905019141e-01
1.076999999999999957e+00,-4.913887419670361911e-01,-5.203619402269068495e-01,-1.409107674083199535e-01
1.078000000000000069e+00,-1.884346863520511284e-01,-1.548159788627725408e-01,-1.647658172294741430e-01
1.078999999999999959e+00,-5.131527179979541997e-02,4.726192444921879093e-02,-2.095814897514678699e-01
1.080000000000000071e+00,-2.110217865347775723e-01,-8.295866483063261965e-02,-2.487279536173583605e-01
1.080999999999999961e+00,-3.337332903302238085e-01,-2.103251696118683678e-01,-1.770965215777651758e-01
1.082000000000000073e+00,-4.195297556710476938e-02,-5.476074007419111378e-02,6.384066634251588102e-02
1.082999999999999963e+00,5.663241860078184198e-01,3.978828539784802221e-01,3.248464385605430160e-01
1.084000000000000075e+00,9.371618078262032858e-01,6.969987812205000743e-01,4.812276930613009207e-01
1.084999999999999964e+00,6.177321965893123323e-01,4.431668937614346993e-01,3.220200452468913732e-01
1.086000000000000076e+00,-1.522831125122829088e-01,-1.684741482600317364e-01,-3.238081643193339160e-02
1.086999999999999966e+00,-6.926252424013424891e-01,-5.896929972158663213e-01,-3.036786072809448123e-01
1.088000000000000078e+00,-6.576732431219453057e-01,-5.371582549874084345e-01,-2.931252922508884584e-01
1.088999999999999968e+00,-1.551372243160963060e-01,-1.684966466477043068e-01,-1.418509905556049888e-01
1.090000000000000080e+00,1.203473078867906831e-01,7.225315220787401072e-02,-2.671979943604118474e-02
1.090999999999999970e+00,-4.447626923778523478e-02,4.007198251927090310e-02,-1.182322506896120867e-01
1.092000000000000082e+00,-2.677217915960509176e-01,-5.359857707689988371e-02,-1.916390187466057993e-01
1.092999999999999972e+00,-6.576728898557089587e-02,9.941335234863615811e-02,-6.467057116121385785e-02
1.094000000000000083e+00,5.055955759662207338e-01,3.939744492431539458e-01,2.704459708583750732e-01
1.094999999999999973e+00,8.493030134406396314e-01,5.339108782554827792e-01,5.277105646012948403e-01
1.096000000000000085e+00,5.927577433305081245e-01,3.215055268012781409e-01,3.960636316030677895e-01
1.096999999999999975e+00,-1.636539215700517913e-01,-1.605585006224007349e-01,2.127439767711244295e-02
1.098000000000000087e+00,-7.480077429662015387e-01,-5.298351507120192538e-01,-3.950725741273935498e-01
1.098999999999999977e+00,-7.051316175593569380e-01,-5.672285354854370576e-01,-4.438484350023033098e-01
1.100000000000000089e+00,-2.442413077205170813e-01,-2.990975718710209841e-01,-2.027061400304300542e-01
1.100999999999999979e+00,9.137307504713937378e-02,-3.422180088353898170e-02,5.531114675991933433e-02
1.102000000000000091e+00,6.636312813429733060e-02,1.702497147834920732e-01,1.474074705002636695e-02
1.102999999999999980e+00,-4.532671990012950014e-02,2.164667865810193104e-01,-1.400497616030597914e-01
1.104000000000000092e+00,5.473958105552106934e-02,1.791991587954004372e-01,-9.953985528924746973e-02
1.104999999999999982e+00,4.308425091857427947e-01,2.297877080260248006e-01,2.142830396658484127e-01
1.106000000000000094e+00,6.746161642709458395e-01,2.810395709682499965e-01,4.741228299070005536e-01
1.106999999999999984e+00,4.333503065525645126e-01,2.369995833781025907e-01,4.261487381553155096e-01
1.108000000000000096e+00,-9.774447668212152274e-02,-4.645227061419812675e-02,2.568922780596401279e-02
1.108999999999999986e+00,-6.093118415925996567e-01,-4.088913014968966197e-01,-3.775564946476126504e-01
1.110000000000000098e+00,-7.310989191554008171e-01,-6.198747937653924511e-01,-4.979746623988585696e-01
1.110999999999999988e+00,-4.266192143093396338e-01,-4.587250671594440554e-01,-2.394256130124209625e-01
1.112000000000000099e+00,-3.734213499193024532e-02,8.337002589707615680e-03,1.239050768592313626e-02
1.112999999999999989e+00,2.158860864320806539e-01,3.934938964186589505e-01,7.734556159564878741e-02
1.114000000000000101e+00,2.548312671706937649e-01,4.457165219074868401e-01,9.294778036167083285e-03
1.114999999999999991e+00,2.519999988968337212e-01,1.946844991756872811e-01,-3.049649249228112216e-02
1.116000000000000103e+00,2.624029036834571449e-01,3.157647664291514389e-02,1.732384840601507436e-01
1.116999999999999993e+00,3.630832298448109507e-01,7.864801197594070703e-02,3.807550112660862407e-01
1.118000000000000105e+00,2.981398117090932054e-01,1.816755861746189027e-01,3.739416699847809555e-01
1.118999999999999995e+00,2.059317330531456811e-02,4.389308036267024898e-02,1.001278975125223791e-01
1.120000000000000107e+00,-4.255649576297209635e-01,-3.846703736720759048e-01,-2.898829898992836829e-01
1.120999999999999996e+00,-7.484750019843051660e-01,-7.134923293153589974e-01,-4.501188114813040042e-01
1.122000000000000108e+00,-6.737290143170042711e-01,-4.975143043315837788e-01,-3.495607254976799694e-01
1.122999999999999998e+00,-1.623466251153288242e-01,9.055747682351641958e-02,-1.307330285527874281e-01
1.124000000000000110e+00,4.013852994038594191e-01,5.486976501326148448e-01,8.574115163918641369e-02
1.125000000000000000e+00,5.928584821302655961e-01,5.637014198633912843e-01,1.565312364066675510e-01
1.125999999999999890e+00,4.253818613723071018e-01,1.729380782262962268e-01,1.812032225178393241e-01
1.127000000000000002e+00,6.879660846980088784e-02,-9.647099297127482986e-02,1.445052044782174083e-01
1.127999999999999892e+00,1.197791595250045568e-02,-3.979850940186978325e-02,1.671947258094486910e-01
1.129000000000000004e+00,1.956551115511930283e-01,1.709136927747326729e-01,2.103797937521128814e-01
1.129999999999999893e+00,1.367993036593066758e-01,2.832838964316545041e-02,1.075757462574754159e-01
1.131000000000000005e+00,-2.404683105841455559e-01,-4.232678278653170256e-01,-1.175552958943517495e-01
1.131999999999999895e+00,-7.513897860934961592e-01,-6.769285802846584099e-01,-3.649780842832810457e-01
1.133000000000000007e+00,-7.998197281917993617e-01,-4.422324638269307107e-01,-4.549812364196688663e-01
1.133999999999999897e+00,-2.202542540816778693e-01,1.983811200045272893e-01,-2.583932805327117666e-01
1.135000000000000009e+00,5.453624646316215241e-01,6.553701383852161833e-01,7.754062657955088089e-02
1.135999999999999899e+00,8.044283153136339015e-01,5.890241866437595508e-01,3.293139410018405266e-01
1.137000000000000011e+00,4.688686277266614910e-01,1.862191076687731428e-01,3.412630635626603404e-01
1.137999999999999901e+00,-9.084748103983611781e-03,-1.098417059880473223e-01,1.472331790223423420e-01
1.139000000000000012e+00,-1.397319661343776886e-01,-1.040206284888069155e-01,1.083481434269857775e-03
1.139999999999999902e+00,8.618455207116543226e-02,-1.284954806563373426e-03,4.503986578539660723e-02
1.141000000000000014e+00,1.558888652131117103e-01,-7.946331664173364451e-02,1.044717322533928738e-01
1.141999999999999904e+00,-1.957692446193808611e-01,-3.797297447560398775e-01,-9.013273215251459700e-04
1.143000000000000016e+00,-7.170279656645390798e-01,-5.149374737839869098e-01,-2.710205579858993574e-01
1.143999999999999906e+00,-7.671444994734162304e-01,-2.771970521879544846e-01,-5.012435637423351409e-01
1.145000000000000018e+00,-1.647373921353968984e-01,1.963207209375647522e-01,-4.060230224437127444e-01
1.145999999999999908e+00,5.861759072917037683e-01,5.630674157243558131e-01,2.647713839752132564e-02
1.147000000000000020e+00,8.479079365503081611e-01,5.498271578321655140e-01,4.255284269625658200e-01
1.147999999999999909e+00,4.990211362417167895e-01,2.704143670344910100e-01,4.674837185974261566e-01
1.149000000000000021e+00,-7.589215427447258862e-03,-7.246753913088442578e-02,1.761960607015026492e-01
1.149999999999999911e+00,-2.261060242185173874e-01,-2.529367395846835453e-01,-7.857002417692358909e-02
1.151000000000000023e+00,-9.792793812659859876e-02,-2.660239048238428605e-01,-1.084202373186686497e-01
1.151999999999999913e+00,-1.103708465179228243e-02,-2.011978038535332525e-01,5.077570578230847925e-02
1.153000000000000025e+00,-2.009809817751498917e-01,-2.152013148805720089e-01,5.285213511399210889e-02
1.153999999999999915e+00,-5.431312186063121938e-01,-2.054016652475792182e-01,-1.918408582426380515e-01
1.155000000000000027e+00,-5.965885978152943858e-01,-1.569221788519378213e-01,-4.419248120878578878e-01
1.155999999999999917e+00,-1.406649946686155395e-01,1.051970525947285434e-01,-3.850010477131800557e-01
1.157000000000000028e+00,4.749641848133135946e-01,4.484267201166787231e-01,2.021723101773509768e-03
1.157999999999999918e+00,7.499864145040746610e-01,6.146929441072948030e-01,4.601931788547993230e-01
1.159000000000000030e+00,6.071312784501298188e-01,3.644132736376442527e-01,5.006528949288636676e-01
1.159999999999999920e+00,1.617674800753749753e-01,-7.887055606835767507e-02,2.350617778210703779e-01
1.161000000000000032e+00,-2.007590235404960177e-01,-4.386568859089163275e-01,-5.815545753869102302e-02
1.161999999999999922e+00,-3.407247015129669654e-01,-4.909124684595049248e-01,-1.202087632186164545e-01
1.163000000000000034e+00,-2.739895024372520638e-01,-2.425041609248763108e-01,-5.051446441859247516e-02
1.163999999999999924e+00,-2.613809839151248759e-01,-3.952913050722536153e-02,2.207114744304916262e-02
1.165000000000000036e+00,-2.505133503631944425e-01,1.444839024457228449e-02,-1.526534064993262108e-01
1.165999999999999925e+00,-2.593644138174119318e-01,-1.065055052837034916e-01,-3.492380317395161748e-01
1.167000000000000037e+00,-1.329051030769336506e-01,-2.718976989321961191e-02,-3.370223476265383211e-01
1.167999999999999927e+00,2.456870646057560670e-01,3.887458989247768448e-01,-5.792563187190969548e-02
1.169000000000000039e+00,6.247729537113811960e-01,6.580290247878367582e-01,2.978501433953955058e-01
1.169999999999999929e+00,7.117817768052159266e-01,4.492049589824920197e-01,4.632643740546378286e-01
1.171000000000000041e+00,3.741453432697691706e-01,-1.233116481118037150e-01,3.502888323099507817e-01
1.171999999999999931e+00,-2.030851778205644831e-01,-6.159765047149114991e-01,5.670168504132483411e-02
1.173000000000000043e+00,-6.094643563921503526e-01,-6.054873598449159733e-01,-1.344626680349439163e-01
1.173999999999999932e+00,-5.873422270594065298e-01,-1.749260151095863025e-01,-2.085899234749898079e-01
1.175000000000000044e+00,-2.853854924072077304e-01,1.478151039697974400e-01,-1.848586021998568918e-01
1.175999999999999934e+00,2.225391986531459823e-02,1.694464513654950211e-01,-1.500498129566728289e-01
1.177000000000000046e+00,9.748640763114614291e-03,-6.703017532148179691e-02,-1.587278301290471760e-01
1.177999999999999936e+00,-1.111306378454242072e-01,-2.863152542868070000e-02,-1.636844892152521658e-01
1.179000000000000048e+00,5.712213204993153715e-02,3.481276088688775028e-01,-7.866026031900652526e-02
1.179999999999999938e+00,4.462176255123542212e-01,6.202664182018748917e-01,1.755685009218880821e-01
1.181000000000000050e+00,8.024778288775723523e-01,3.595061094447040695e-01,3.590835842262725675e-01
