time,acc_x,acc_y,acc_z
0.000000000000000000e+00,-5.574797416042399922e-02,-1.066896530247121305e-01,-2.920739216758167639e-02
1.000000000000000021e-03,-6.981276519065854336e-02,-1.162395100292843708e-01,-3.238248017545943686e-02
2.000000000000000042e-03,-4.988300502493440980e-02,-1.037498700342669167e-01,-3.671164061773647680e-02
3.000000000000000062e-03,-1.291245197670554956e-01,-1.328975738480152602e-01,1.054675258431005472e-03
4.000000000000000083e-03,-1.545535751681832437e-01,-9.246825258887000909e-02,-1.813552682147547349e-02
5.000000000000000104e-03,-1.234140173873756047e-01,-6.392153877275495721e-02,-3.459261502824172163e-02
6.000000000000000125e-03,-1.180179479357172517e-01,-1.052809680816885335e-01,-5.800135974587294907e-02
7.000000000000000146e-03,-1.354719542036964541e-01,-7.637102357811756392e-02,-5.600975165924700072e-02
8.000000000000000167e-03,-1.277348742865400122e-01,-8.703145828096466030e-02,-4.534342351981548308e-02
8.999999999999999320e-03,-1.418638682952318153e-01,-9.522142252573809196e-02,-2.252750645872239957e-02
1.000000000000000021e-02,-1.314553721899387739e-01,-8.184771857355754854e-02,-7.732639394325430127e-02
1.099999999999999936e-02,-1.629196920902583334e-01,-9.949247726088034094e-02,-8.956987971321808684e-02
1.200000000000000025e-02,-1.461392100043309439e-01,-9.568207888875877865e-02,-1.010735529848451608e-01
1.299999999999999940e-02,-1.106023397161449706e-01,-9.640797039437484783e-02,-5.330853071320248299e-02
1.400000000000000029e-02,-9.647594088954973557e-02,-7.814212667303088722e-02,-6.432715914315338679e-02
1.499999999999999944e-02,-6.988951656658824729e-02,-4.315084613091891425e-02,-6.331363454373561961e-02
1.600000000000000033e-02,-1.022226484685814646e-01,-5.458303013590957292e-02,-8.071057765225023162e-02
1.700000000000000122e-02,-1.033706603970764165e-01,-4.984748688019897955e-02,-9.089285475093793198e-02
1.799999999999999864e-02,-7.020333229946403020e-02,-4.345626509771596813e-02,-7.600696264867115581e-02
1.899999999999999953e-02,-8.554629673746284857e-02,-7.518525502340857140e-03,-5.397407664730929922e-02
2.000000000000000042e-02,-6.123583813866553816e-02,-3.338753413208287758e-03,-7.065814160723347948e-02
2.100000000000000130e-02,-7.952981110183483804e-02,-1.951372081403358882e-02,-8.713255890335768264e-03
2.199999999999999872e-02,-5.493100078269658876e-02,3.123093124925137992e-02,-2.711271122274669029e-02
2.299999999999999961e-02,-1.786318564714830040e-02,1.565025868112542712e-02,-8.133014439487543101e-02
2.400000000000000050e-02,-2.891937649827606982e-02,1.826251012097936111e-02,-3.927490884062349863e-02
2.500000000000000139e-02,-9.432445980404576338e-03,2.976033021445858434e-02,-2.980998950011413962e-02
2.599999999999999881e-02,1.398433833830759788e-02,7.674242697695864146e-02,-4.164894674586395312e-02
2.699999999999999969e-02,2.499879343079354152e-02,6.735752631641467314e-02,-3.138851083445622081e-02
2.800000000000000058e-02,1.754659475979376479e-02,6.740406141634308623e-02,2.039775482008671439e-02
2.900000000000000147e-02,4.099817063058598665e-02,5.295752369769678169e-02,3.119543453385557191e-02
2.999999999999999889e-02,4.361400878678053927e-02,8.362387597108857096e-02,-5.790978498808764703e-03
3.099999999999999978e-02,8.111869012563580061e-02,7.718703873711046937e-02,1.141409499283605779e-02
3.200000000000000067e-02,8.973960040135833816e-02,8.676438710451919722e-02,-2.769853229866786701e-03
3.300000000000000155e-02,1.112714696495351180e-01,7.602465492030097138e-02,4.385460340096815346e-02
3.400000000000000244e-02,8.366699297466403951e-02,1.082934606184000614e-01,6.703770637349373840e-02
3.500000000000000333e-02,1.041942850413073857e-01,1.083658268389991464e-01,3.169668189988525397e-02
3.599999999999999728e-02,1.127003327923222914e-01,1.153696224917810098e-01,5.247215017384780633e-02
3.699999999999999817e-02,1.498729193900413537e-01,1.131497932636213871e-01,9.642345513559057169e-02
3.799999999999999906e-02,1.019236300288151875e-01,8.503780711798397673e-02,6.021156312982942765e-02
3.899999999999999994e-02,1.386535906004892349e-01,8.934613410647807008e-02,7.796474933645490546e-02
4.000000000000000083e-02,1.423364642479006403e-01,9.481445317913791970e-02,8.218787558528635462e-02
4.100000000000000172e-02,1.277406904103600416e-01,8.084388921107986403e-02,7.023546906457472927e-02
4.200000000000000261e-02,1.470831463103541570e-01,7.285775408482118853e-02,6.971747188221964764e-02
4.299999999999999656e-02,1.495527855937484607e-01,7.381532814453671543e-02,7.182351671377164293e-02
4.399999999999999745e-02,1.215894593066844664e-01,4.739334366323467301e-02,8.174471858740514629e-02
4.499999999999999833e-02,8.953498956293463873e-02,8.632824860310736592e-02,8.905886465182187572e-02
4.599999999999999922e-02,1.192642584207704304e-01,5.497410750524676926e-02,8.340320208759287313e-02
4.700000000000000011e-02,1.127365611009373547e-01,5.515133614063452705e-02,7.974986923183624565e-02
4.800000000000000100e-02,1.142168591772794173e-01,5.149306855031809266e-02,8.459176882132594943e-02
4.900000000000000189e-02,9.428557193728785701e-02,1.943677261585035829e-02,5.275320966578628951e-02
5.000000000000000278e-02,9.477815653575395738e-02,2.656232972717450375e-02,6.529819060404735975e-02
5.099999999999999672e-02,9.813355424408876093e-02,5.369754103528114747e-02,5.028371387841651385e-02
5.199999999999999761e-02,5.710634551569040984e-02,3.114248615800028173e-03,8.371679938565775025e-02
5.299999999999999850e-02,3.422162863738284488e-02,-3.717762248279653930e-02,6.399956619580722539e-02
5.399999999999999939e-02,5.069562123054864589e-03,-3.735294589990079822e-02,4.106803363238303167e-02
5.500000000000000028e-02,1.823562016268014119e-02,-4.060583502484311352e-02,4.541609905806422848e-02
5.600000000000000117e-02,4.999282675141741850e-03,-6.004499325798038495e-02,3.353508032938405659e-02
5.700000000000000205e-02,-1.254119834599046928e-03,-6.143367690762835398e-02,3.267077065020579374e-02
5.800000000000000294e-02,-4.458092407289612757e-02,-5.292829949340781270e-02,4.510034009550146356e-02
5.899999999999999689e-02,-4.302530822711128633e-02,-4.377147896675304822e-02,-1.444671835053132174e-02
5.999999999999999778e-02,-4.237428591372028458e-02,-4.932160160915218666e-02,1.023456507027696149e-03
6.099999999999999867e-02,-5.714770230685093516e-02,-5.900769372381750588e-02,1.356385447358074295e-03
6.199999999999999956e-02,-9.497944480963159408e-02,-9.361909214606882468e-02,-3.926532421410818506e-03
6.300000000000000044e-02,-9.649441952034820691e-02,-8.672183204123713740e-02,6.887069203001527917e-03
6.400000000000000133e-02,-7.063004294518156201e-02,-1.121407323409018969e-01,-1.312877981865288868e-02
6.500000000000000222e-02,-8.793397341053918459e-02,-9.953550311042838605e-02,-1.167588689153151171e-02
6.600000000000000311e-02,-1.206360809755176594e-01,-1.234071629587420171e-01,-1.429602645393227706e-02
6.700000000000000400e-02,-1.234418014684455361e-01,-9.515392364195578156e-02,-6.562277559217305489e-02
6.800000000000000488e-02,-1.281372561221724715e-01,-1.129916797944684193e-01,-4.962614921961860937e-02
6.900000000000000577e-02,-9.260996012329693328e-02,-1.206637027912602772e-01,-5.886308162655138482e-02
7.000000000000000666e-02,-1.338542914836559627e-01,-1.048819768663982049e-01,-1.013373894276858728e-01
7.099999999999999367e-02,-1.538012538258430040e-01,-9.869246172555085073e-02,-6.989321848960239336e-02
7.199999999999999456e-02,-1.396823957963731488e-01,-1.229663915662061180e-01,-7.511306509650038377e-02
7.299999999999999545e-02,-1.280754169514336793e-01,-8.059533306836089150e-02,-7.513419857494015031e-02
7.399999999999999634e-02,-1.227306183721979110e-01,-1.016526102863572201e-01,-8.584513436400831310e-02
7.499999999999999722e-02,-1.283121800294709236e-01,-5.675154626745175512e-02,-5.310174244399976096e-02
7.599999999999999811e-02,-1.332751235159195247e-01,-5.053343877728528472e-02,-8.078991030414375829e-02
7.699999999999999900e-02,-9.025533736679459962e-02,-8.402878496488705440e-02,-1.064642291503866828e-01
7.799999999999999989e-02,-1.080898825599118374e-01,-6.616683286150149002e-02,-8.135209195643995639e-02
7.900000000000000078e-02,-1.037899671976117433e-01,-7.523802639265457504e-02,-9.318904002421786459e-02
8.000000000000000167e-02,-1.197836177935287377e-01,-4.014583475406990204e-02,-6.111750147947316025e-02
8.100000000000000255e-02,-7.213007356346208543e-02,-1.255327667255448990e-02,-7.585493955960515011e-02
8.200000000000000344e-02,-8.680464796060813337e-02,9.422224255344393293e-04,-8.209236097090062689e-02
8.300000000000000433e-02,-7.503014048191157526e-02,-7.799690789548387355e-03,-6.942159754357864199e-02
8.400000000000000522e-02,-5.816967010051753151e-02,2.368147083744705922e-02,-7.129765003094082343e-02
8.500000000000000611e-02,-2.952402689938631031e-02,-2.248995627894071966e-02,-8.787019265779297261e-02
8.599999999999999312e-02,-6.365139195680305506e-02,-3.340782202183807930e-03,-3.413670137702295299e-02
8.699999999999999400e-02,-3.158852732694872323e-02,2.892990888099792463e-02,-3.850364643488783656e-02
8.799999999999999489e-02,-1.041693210344727706e-02,2.932675763359991403e-02,-1.995555492985837120e-02
8.899999999999999578e-02,3.271584855470215103e-02,4.903392150407208383e-02,-2.686787825860342122e-02
8.999999999999999667e-02,1.706621768135326705e-02,4.244157748967442023e-02,-7.264141974259853349e-03
9.099999999999999756e-02,4.649403088781269705e-02,5.054105546176632796e-02,-4.239838763688023177e-02
9.199999999999999845e-02,6.843964329200127872e-02,7.908360202824667173e-02,-1.541191295741913686e-02
9.299999999999999933e-02,7.999601937357482540e-02,7.167351545971692439e-02,2.587459353110961938e-02
9.400000000000000022e-02,8.456537909573022538e-02,5.624696284811007280e-02,1.388642154784067335e-02
9.500000000000000111e-02,5.818504059030936426e-02,6.097126116018004166e-02,1.676317816918192552e-02
9.600000000000000200e-02,5.885308171877567246e-02,9.032076788961332370e-02,-3.295773046989054246e-03
9.700000000000000289e-02,8.754179689422236788e-02,1.101014717095511325e-01,9.108464107133250331e-03
9.800000000000000377e-02,1.078084439986571469e-01,1.251012262038622147e-01,1.707176000022204640e-02
9.900000000000000466e-02,1.040457364243049382e-01,1.145108453973174012e-01,6.353115162448487452e-02
1.000000000000000056e-01,1.500665779330414562e-01,7.901001222882467201e-02,3.700676317852315961e-02
1.010000000000000064e-01,1.281411422714165971e-01,1.071614511237181100e-01,7.018084570246231613e-02
1.019999999999999934e-01,1.326041719175923561e-01,8.780033809424334090e-02,4.476526723940352226e-02
1.029999999999999943e-01,8.445766821909762856e-02,3.402799904272817838e-02,9.411238614575039019e-02
1.039999999999999952e-01,1.100552192677349828e-01,7.219671856974817226e-02,5.911034979981352050e-02
1.049999999999999961e-01,1.546206818884829359e-01,1.051022197210174924e-01,1.003276817742644045e-01
1.059999999999999970e-01,1.200662703536101161e-01,8.715949749683686576e-02,7.752437940941210581e-02
1.069999999999999979e-01,1.423785043231707292e-01,6.538085187430089928e-02,8.720093104389251004e-02
1.079999999999999988e-01,1.198758305040033834e-01,5.837656493496644339e-02,8.678885421143080203e-02
1.089999999999999997e-01,1.375743073570143138e-01,4.933999260473274917e-02,7.650543293048900351e-02
1.100000000000000006e-01,1.269990570608372782e-01,6.485642094204292774e-02,4.764406017087423340e-02
1.110000000000000014e-01,7.497673166147068857e-02,4.924481696109253570e-02,9.432250100835612439e-02
1.120000000000000023e-01,7.997169136210882656e-02,2.660499443727738084e-02,8.032938531640083923e-02
1.130000000000000032e-01,1.278121742651703585e-01,3.574425973714883548e-02,5.706428534251062334e-02
1.140000000000000041e-01,9.434504850547409394e-02,2.577959998431083796e-02,6.500913618530412830e-02
1.150000000000000050e-01,5.185824543038177609e-02,3.441281941498534110e-03,5.679790167948678414e-02
1.160000000000000059e-01,7.107912675936354716e-03,-1.837258218571598267e-02,5.884812959417040634e-02
1.170000000000000068e-01,2.231272021121446375e-02,-2.436291486241089557e-02,4.569321633944527922e-02
1.179999999999999938e-01,3.244385657874774426e-02,-2.955517171554981892e-02,6.514817170690728743e-02
1.189999999999999947e-01,1.972329037283309175e-02,-3.526097384359273834e-02,5.373119391984542553e-02
1.199999999999999956e-01,3.868718633577120612e-03,-7.147498774077512551e-02,3.780515267920173117e-02
1.209999999999999964e-01,-4.584987474011916961e-03,-4.028745128933378800e-02,1.652675486941775421e-02
1.219999999999999973e-01,-3.860001290762174464e-02,-7.729315306751242953e-02,2.119561337597168638e-02
1.229999999999999982e-01,-1.664697045463604808e-02,-7.597967802007804528e-02,4.723996383546649747e-02
1.239999999999999991e-01,-7.565733463357796063e-02,-9.461144933810593238e-02,2.797543490991782206e-02
1.250000000000000000e-01,-5.746968691178343247e-02,-9.983199033237784292e-02,-1.125384210299861139e-02
1.260000000000000009e-01,-6.724306149481233674e-02,-1.124165567145730127e-01,-4.857027347159008877e-03
1.270000000000000018e-01,-7.626110492067028623e-02,-1.081947130656470274e-01,-6.986988356033190309e-03
1.280000000000000027e-01,-8.358332554093302058e-02,-7.742656961657326531e-02,6.303955471893393260e-03
1.290000000000000036e-01,-1.175806678184054405e-01,-7.843636348911582623e-02,-1.801348868586008858e-02
1.300000000000000044e-01,-8.426157604129808076e-02,-7.166086399814769470e-02,-5.187640652407156383e-02
1.310000000000000053e-01,-1.399884861307745809e-01,-1.285421705329859721e-01,-2.628287719975809858e-02
1.320000000000000062e-01,-1.573090186549215563e-01,-1.051489408711913931e-01,-7.107163303757256523e-02
1.330000000000000071e-01,-1.296428547605200932e-01,-8.383004796104953638e-02,-4.764074691946611900e-02
1.340000000000000080e-01,-1.233557593646531086e-01,-8.200991217551387158e-02,-6.450264083175080709e-02
1.350000000000000089e-01,-1.398261936385803150e-01,-1.128886034364438989e-01,-8.425276802035867874e-02
1.360000000000000098e-01,-1.333397921138547160e-01,-9.651071735764676918e-02,-9.410325409655485862e-02
1.370000000000000107e-01,-1.321254206564768108e-01,-8.271187360640344655e-02,-8.765636862174154553e-02
1.380000000000000115e-01,-9.305624323549806232e-02,-5.327926549662888311e-02,-5.740217302549920075e-02
1.390000000000000124e-01,-1.292043741339184426e-01,-3.253770200441253452e-02,-9.021824462016796164e-02
1.400000000000000133e-01,-1.149294462774517744e-01,-7.700757835877812540e-02,-8.164866927445556255e-02
1.409999999999999865e-01,-9.662807335591153124e-02,-5.014676138429331742e-02,-9.146260965397179366e-02
1.419999999999999873e-01,-1.006245794441514574e-01,-5.295555117830173797e-02,-8.599106329524879022e-02
1.429999999999999882e-01,-9.241735322012656351e-02,-5.435259611278547148e-02,-5.640339673186229447e-02
1.439999999999999891e-01,-7.038236095708921836e-02,-1.293839211978534652e-02,-9.039015262799059147e-02
1.449999999999999900e-01,-9.831136043326953178e-02,-1.359397881896612717e-02,-5.209420004323688652e-02
1.459999999999999909e-01,-8.364531755859196116e-02,2.257959251224515504e-02,-6.506425265374576883e-02
1.469999999999999918e-01,-7.455484468199788384e-02,-1.908404772855781459e-02,-5.844867102179260310e-02
1.479999999999999927e-01,-4.983389871544945116e-02,5.028660439438888824e-02,-5.836606822262068589e-02
1.489999999999999936e-01,-1.157272781373744862e-02,4.583662458621202279e-02,-7.178604021221444975e-02
1.499999999999999944e-01,-1.795086391852485433e-02,3.343365195888593072e-02,-6.885674599294476506e-02
1.509999999999999953e-01,-7.245066687951423785e-03,7.357648647631241656e-02,-5.844746948324722191e-02
1.519999999999999962e-01,-4.273135720860367012e-03,9.094650622290313680e-02,-3.580600276711856655e-02
1.529999999999999971e-01,3.019672690596688497e-02,7.376738155657482088e-02,-2.873855293675749503e-02
1.539999999999999980e-01,3.143647014466250528e-02,6.237685235380579368e-02,-2.757595619879980951e-03
1.549999999999999989e-01,3.439045410126438402e-03,7.076064302097793968e-02,-9.994625002086345023e-03
1.559999999999999998e-01,5.922496974713672285e-02,9.954673403365293938e-02,-3.642659998916244340e-03
1.570000000000000007e-01,6.959958580390900040e-02,9.526016188698929743e-02,6.698885314627929521e-03
1.580000000000000016e-01,1.063268699249487886e-01,6.191760087886887670e-02,-2.453192369776781984e-03
1.590000000000000024e-01,5.278697101960019150e-02,9.268124284093230691e-02,1.937996358030037031e-02
1.600000000000000033e-01,8.617442725240971602e-02,1.219988717005831697e-01,1.142625711091764529e-02
1.610000000000000042e-01,8.766976506036108785e-02,9.167284090125117635e-02,2.239889823295099225e-02
1.620000000000000051e-01,1.413516493433803756e-01,9.343337259776644810e-02,6.271327860128643461e-02
1.630000000000000060e-01,1.182552185068170558e-01,9.823602037845929891e-02,6.627408404102619333e-02
1.640000000000000069e-01,1.103519642750115382e-01,6.258337110319642238e-02,6.364011883540837688e-02
1.650000000000000078e-01,1.210493592661077700e-01,8.167913215539737704e-02,5.049447160684566310e-02
1.660000000000000087e-01,1.276831847626027083e-01,1.062078804922353542e-01,4.922250595309195231e-02
1.670000000000000095e-01,1.375632792841097463e-01,7.203447971939129502e-02,4.628500389273978999e-02
1.680000000000000104e-01,1.299238297885322024e-01,6.112785038659260956e-02,6.766808565076834481e-02
1.690000000000000113e-01,1.088602237234483766e-01,8.893084459878404513e-02,4.249289478716376800e-02
1.700000000000000122e-01,1.520800741983889537e-01,7.295322187364068622e-02,5.412036747693651367e-02
1.710000000000000131e-01,1.052192720165088108e-01,9.598998611412377924e-02,8.026846028444965808e-02
1.719999999999999862e-01,1.259609845841973275e-01,2.646905964951345655e-02,4.183571667444279524e-02
1.729999999999999871e-01,1.104046291211219638e-01,3.108981440578671707e-02,7.764102488691594639e-02
1.739999999999999880e-01,8.459978909394012814e-02,2.432214261180947260e-02,9.444986732771580573e-02
1.749999999999999889e-01,8.140055246998145755e-02,4.861259813645834454e-02,9.180781616458175143e-02
1.759999999999999898e-01,8.050156113496896582e-02,1.598468999328726825e-02,8.541654496326579749e-02
1.769999999999999907e-01,8.374543069412945795e-02,-5.816536356711042403e-03,6.049632045708540351e-02
1.779999999999999916e-01,7.214945874167102979e-02,3.282143556092975006e-02,7.512678114340415325e-02
1.789999999999999925e-01,6.662600034305274366e-02,2.601570783552636934e-02,6.810617141923654139e-02
1.799999999999999933e-01,3.931031332719977373e-02,-3.638293003913180279e-02,4.866423458295932036e-02
1.809999999999999942e-01,4.636037818278141570e-02,-1.685804283009031609e-02,5.343248614434245591e-02
1.819999999999999951e-01,3.483444094492788023e-02,-5.784301590108421182e-02,1.772122874664644465e-02
1.829999999999999960e-01,1.894684345649144327e-02,-7.297032718366182336e-02,2.581645107386608753e-02
1.839999999999999969e-01,9.992274068887680924e-03,-4.021195106919412537e-02,3.468407260464055619e-02
1.849999999999999978e-01,-5.127372023381011890e-02,-3.735349356810042931e-02,3.573013064020605367e-02
1.859999999999999987e-01,-2.329833981049104011e-02,-7.241732828161680235e-02,2.836010719077752124e-02
1.869999999999999996e-01,-1.876772698618220381e-02,-9.574498828268923623e-02,9.694640535593669270e-03
1.880000000000000004e-01,-4.350332545451378319e-02,-9.109043509228322011e-02,-9.595363481243329024e-03
1.890000000000000013e-01,-5.709233057924192195e-02,-9.388856907487709569e-02,1.872957350391538447e-02
1.900000000000000022e-01,-1.027589376802689330e-01,-8.329222219813699202e-02,5.292045528561174425e-03
1.910000000000000031e-01,-7.482643461408618191e-02,-1.410460991178939527e-01,-3.771942007465813040e-02
1.920000000000000040e-01,-1.223751978221347125e-01,-8.098206495207832534e-02,-2.984233625138774104e-02
1.930000000000000049e-01,-1.153764245583431547e-01,-1.045164357442109615e-01,-2.326260592526747939e-02
1.940000000000000058e-01,-9.405752478905698988e-02,-1.297135284864870675e-01,-7.266109254947988871e-02
1.950000000000000067e-01,-1.099860895484346401e-01,-1.054069083893334063e-01,-3.881214250862626003e-02
1.960000000000000075e-01,-1.352243582139161515e-01,-8.674555707006524619e-02,-5.036587771373007838e-02
1.970000000000000084e-01,-1.751184600875158037e-01,-1.017144424469739600e-01,-6.628897429963713506e-02
1.980000000000000093e-01,-1.471448982199584088e-01,-6.294777804006380928e-02,-6.131655302679439590e-02
1.990000000000000102e-01,-1.321386052725671834e-01,-8.657637198630603603e-02,-5.704622056198301733e-02
2.000000000000000111e-01,-9.408810258242239488e-02,-8.777689010261997826e-02,-5.508548085858502169e-02
2.010000000000000120e-01,-1.464432149959797591e-01,-9.352088460492369304e-02,-7.337911163283808436e-02
2.020000000000000129e-01,-1.221205900790497678e-01,-5.634515867219280771e-02,-8.238262920578909299e-02
2.030000000000000138e-01,-8.578949544948109851e-02,-4.937233647541825615e-02,-6.817403923523711329e-02
2.039999999999999869e-01,-1.094219459888409879e-01,-7.972792001313679100e-02,-5.666414095811071749e-02
2.049999999999999878e-01,-1.079290337970831154e-01,-1.951169656337520264e-02,-6.949270318407614611e-02
2.059999999999999887e-01,-1.143064924942058941e-01,-1.392452658253259812e-02,-7.931369651169943580e-02
2.069999999999999896e-01,-8.302492388135319923e-02,-3.116152346834563311e-02,-5.146055629128544473e-02
2.079999999999999905e-01,-6.659946464284846601e-02,5.485129029200967211e-03,-5.801754073303638792e-02
2.089999999999999913e-01,-6.469379764763802387e-02,-1.929098154807533036e-02,-5.863056367259262408e-02
2.099999999999999922e-01,-4.715948502365709810e-02,2.251850531233422822e-03,-6.805877105912602754e-02
2.109999999999999931e-01,-6.680572739275199290e-02,1.428396369278848652e-02,-6.644121781759393386e-02
2.119999999999999940e-01,-3.208123864987931506e-02,5.612584436652601205e-02,-3.929296257895826400e-02
2.129999999999999949e-01,-3.702473157938111661e-04,3.053404603903023609e-02,-6.884299644987727784e-02
2.139999999999999958e-01,-7.213778297151337074e-03,6.697199453822710868e-02,-4.842422362030372740e-02
2.149999999999999967e-01,2.206274558683328502e-02,8.632323266285370222e-02,-2.642840823658671595e-02
2.159999999999999976e-01,1.571256639071761524e-02,6.364114283062141664e-02,-5.002928822368228612e-02
2.169999999999999984e-01,3.569286843009809862e-02,6.531048347257384368e-02,-1.361663981980382014e-02
2.179999999999999993e-01,4.759729057235328326e-02,1.177172663516892065e-01,-3.543425573245825161e-02
2.190000000000000002e-01,5.922930866414665568e-02,8.423577299993148526e-02,-7.381470275465558352e-04
2.200000000000000011e-01,9.495266344239305933e-02,8.506431155146818024e-02,1.890617485201422261e-03
2.210000000000000020e-01,6.739827666480555091e-02,8.028704953330213778e-02,-2.040843529471776663e-02
2.220000000000000029e-01,1.048077001103234068e-01,1.150844725225795284e-01,5.836701840368952593e-02
2.230000000000000038e-01,1.230156590855772392e-01,9.898352221105516380e-02,1.718499317940645060e-02
2.240000000000000047e-01,1.034447135536599588e-01,8.737770807522732275e-02,3.360450606293450410e-02
2.250000000000000056e-01,1.228172053472773723e-01,1.035063381169846475e-01,4.319704392936536685e-02
2.260000000000000064e-01,1.148561800668601862e-01,1.106977874602511902e-01,3.223452827154275196e-02
2.270000000000000073e-01,1.490022449848448505e-01,7.274750062975042508e-02,6.085760259490383128e-02
2.280000000000000082e-01,1.149853005716798132e-01,8.738410212146729972e-02,3.198782679851571581e-02
2.290000000000000091e-01,1.302855571329029905e-01,1.092503054924179456e-01,4.720110240244201200e-02
2.300000000000000100e-01,1.187279039681844034e-01,1.083519521852832068e-01,8.004020002259495947e-02
2.310000000000000109e-01,9.782214307412363807e-02,8.540373382343201258e-02,9.514937794075602195e-02
2.320000000000000118e-01,1.185567285250451741e-01,5.033723864140485921e-02,4.561317911032004152e-02
2.330000000000000127e-01,1.020909662087744890e-01,5.572135758375542508e-02,5.208282548490280467e-02
2.340000000000000135e-01,1.447874573776211371e-01,8.051803903011452157e-02,8.340979674007079070e-02
2.349999999999999867e-01,1.087968881650207276e-01,1.581929726621275623e-02,8.138954191726867349e-02
2.359999999999999876e-01,1.184761906361678774e-01,6.336868950575257065e-02,9.998398445994570449e-02
2.369999999999999885e-01,1.241573987327817818e-01,4.279458305464089313e-02,6.922885710413520521e-02
2.379999999999999893e-01,9.961089498391741126e-02,-1.976821372451081915e-02,5.404684507122691633e-02
2.389999999999999902e-01,8.326190982064590740e-02,6.939998448693343938e-03,4.435423717567028856e-02
2.399999999999999911e-01,9.487577634834792883e-02,-1.973586898353368521e-02,3.826382152024655758e-02
2.409999999999999920e-01,6.028016049675449795e-02,1.326037898804275673e-02,9.157785621008802945e-02
2.419999999999999929e-01,5.363745577046093865e-02,-2.550572010126169950e-02,7.393007818366173489e-02
2.429999999999999938e-01,3.861052668858403619e-02,-4.236014660315664399e-02,3.474444864415858480e-02
2.439999999999999947e-01,2.291002877998563406e-02,-3.007181828080360969e-02,6.599579654699685993e-02
2.449999999999999956e-01,3.142054019420449651e-02,-2.567060555809733483e-02,5.462390626499288859e-02
2.459999999999999964e-01,9.070608752860470983e-03,-6.232875268119887624e-02,6.905488677936406916e-02
2.469999999999999973e-01,-2.072342820259513371e-02,-6.913334883445530765e-02,5.085621235905309068e-02
2.479999999999999982e-01,-1.020899280888855690e-02,-8.258834685042390489e-02,-6.663631231605597269e-03
2.489999999999999991e-01,-2.388878314912172562e-02,-9.479946684499183929e-02,1.601838594417917885e-02
2.500000000000000000e-01,-6.017078536148628282e-02,-9.615558644665660182e-02,4.324291233148996882e-02
2.510000000000000009e-01,-5.662025111663851473e-02,-1.055297983094156816e-01,2.500091638061911412e-02
2.520000000000000018e-01,-5.203754656536209444e-02,-9.633178306156088555e-02,9.856817047764827172e-03
2.530000000000000027e-01,-8.065883258707437498e-02,-1.006670227694565489e-01,-5.352403328025653884e-03
2.540000000000000036e-01,-6.758545948067434805e-02,-1.267941186689471866e-01,-2.172313591791697612e-02
2.550000000000000044e-01,-9.321923762391440271e-02,-1.015765756134124342e-01,-4.208189035512451687e-02
2.560000000000000053e-01,-9.101085565985186920e-02,-8.638217897099260967e-02,-3.232084322159534812e-02
2.570000000000000062e-01,-1.273783091861961647e-01,-8.180309184322480387e-02,-2.904268990228306077e-02
2.580000000000000071e-01,-1.215141520407854864e-01,-7.488991769324922221e-02,-2.770054079415405768e-02
2.590000000000000080e-01,-1.240510063980302113e-01,-1.032603582033138206e-01,-3.450814163535140949e-02
2.600000000000000089e-01,-1.256458574963595087e-01,-8.717934667736516874e-02,-4.890273466509249822e-02
2.610000000000000098e-01,-1.317314988168667156e-01,-1.172821055139133678e-01,-6.347971161481281988e-02
2.620000000000000107e-01,-1.387363845130801798e-01,-1.039237554129340962e-01,-6.588303608208083417e-02
2.630000000000000115e-01,-1.227594104847900686e-01,-8.699927942454312169e-02,-7.927807902354147562e-02
2.640000000000000124e-01,-1.512505862441144988e-01,-8.433164330258928476e-02,-4.490866175345041567e-02
2.650000000000000133e-01,-1.580817835467857868e-01,-6.767253881676110749e-02,-1.027065877998825649e-01
2.660000000000000142e-01,-1.165867190772552908e-01,-1.528920206204079438e-02,-7.403497371283065953e-02
2.670000000000000151e-01,-1.215088538724533318e-01,-5.240586745282303088e-02,-6.992794491735461471e-02
2.680000000000000160e-01,-1.086889378851268045e-01,-7.222197917538653034e-02,-7.374618752328154780e-02
2.690000000000000169e-01,-6.524416284886658257e-02,-1.385180915512915396e-02,-6.087067094997480887e-02
2.700000000000000178e-01,-1.076458291593451744e-01,-3.455273127977825931e-02,-6.815570585728582265e-02
2.710000000000000187e-01,-5.801262026093839674e-02,-6.835547531069709887e-03,-8.002908301034347693e-02
2.720000000000000195e-01,-6.354523947061457845e-02,-2.860811325379903139e-02,-6.838092317941382725e-02
2.730000000000000204e-01,-9.862016200122737664e-02,2.616209224917707965e-02,-5.838039851659023588e-02
2.740000000000000213e-01,-2.314732387107028277e-02,3.684307450191445787e-02,-4.067502321355007805e-02
2.750000000000000222e-01,-3.439040069011826961e-02,5.612009138797113134e-02,-8.409604920609978218e-02
2.760000000000000231e-01,-4.811863859836977217e-03,3.455137554711246867e-02,-5.665444490576806297e-02
2.770000000000000240e-01,-1.226307400190955292e-02,4.128500919768186145e-02,-3.504863988583139384e-02
2.780000000000000249e-01,4.000165043213599336e-03,4.411106120240019385e-02,-7.538300073150058789e-02
2.790000000000000258e-01,3.227925866475431314e-03,7.418431372509892707e-02,-4.369573420407786568e-02
2.800000000000000266e-01,7.149992181219227104e-03,9.773558668356144286e-02,-4.419348084027468343e-02
2.810000000000000275e-01,1.050723705756119106e-02,1.000155743580301154e-01,-1.442895306109218644e-02
2.819999999999999729e-01,6.749635436347267703e-02,7.710373832206834921e-02,-2.595574023385843754e-02
2.829999999999999738e-01,1.261743914690163781e-01,8.029137487895675329e-02,-1.344636045328481515e-02
2.839999999999999747e-01,5.456909741769485483e-02,1.001493742777966461e-01,7.461212486704821463e-03
2.849999999999999756e-01,9.664460359226574593e-02,1.044661311121275610e-01,2.862932543079535225e-03
2.859999999999999765e-01,1.233369548517222053e-01,1.062617172027681689e-01,-8.623540981885533668e-03
2.869999999999999774e-01,1.070032467861800202e-01,1.045242813085330014e-01,2.201641679323771209e-02
2.879999999999999782e-01,1.182701382919974925e-01,1.384015256531587190e-01,3.849648850157651875e-02
2.889999999999999791e-01,1.180882599865178129e-01,9.546793032564801496e-02,3.233897498797459052e-02
2.899999999999999800e-01,1.086716050499020314e-01,1.042608401176694788e-01,5.424348752974064020e-02
2.909999999999999809e-01,1.512274758462092972e-01,7.057397049203982531e-02,4.122849725100366514e-02
2.919999999999999818e-01,1.476543752661221287e-01,9.011488164965622549e-02,6.824961100729880215e-02
2.929999999999999827e-01,1.248581829946366212e-01,9.695706542502877112e-02,6.030226867002735219e-02
2.939999999999999836e-01,1.158308587345145690e-01,7.491938274275308784e-02,7.015194343966306423e-02
2.949999999999999845e-01,1.313222044909027608e-01,8.383721814209045553e-02,6.837830998017671580e-02
2.959999999999999853e-01,1.131164434970838018e-01,6.993545537166698245e-02,6.623227023748863573e-02
2.969999999999999862e-01,1.173113210474703294e-01,4.506577679747852255e-02,9.570385132725199584e-02
2.979999999999999871e-01,1.230144336740247313e-01,7.184214072459668698e-02,7.381488696979127129e-02
2.989999999999999880e-01,9.250011360122649406e-02,1.740620940413729889e-02,9.635038334693846185e-02
2.999999999999999889e-01,1.237318948035485699e-01,-1.200935820781514653e-02,5.577603640387296391e-02
3.009999999999999898e-01,9.779304045561870717e-02,3.769031371492838345e-02,9.593775984583310934e-02
3.019999999999999907e-01,7.675729285784785305e-02,2.240802430167988107e-02,6.545553524014063873e-02
3.029999999999999916e-01,6.491649958070966342e-02,-3.575164873879069227e-02,7.943545120662220960e-02
3.039999999999999925e-01,7.370207206981990722e-02,-1.429828437932117655e-02,7.759793752374173625e-02
3.049999999999999933e-01,6.127204991527139544e-02,-2.105799027242496665e-02,7.294813543627452768e-02
3.059999999999999942e-01,4.714216430882298137e-02,-2.172898425178434664e-02,6.806839116312655980e-02
3.069999999999999951e-01,-1.065026420119913331e-02,-6.793078124895109149e-02,7.189617895656495727e-02
3.079999999999999960e-01,6.428032321665451410e-03,-7.706307562001413203e-02,1.717180117898103528e-02
3.089999999999999969e-01,-1.394408848015304264e-02,-7.031312039323962815e-02,5.195339614246839016e-02
3.099999999999999978e-01,-3.495421598196633145e-02,-8.237747858831882819e-02,1.386510814254677919e-02
3.109999999999999987e-01,-1.596353947918709854e-02,-8.088078955090233224e-02,5.047349899279240243e-02
3.119999999999999996e-01,-4.060094396981698411e-02,-1.065654193633713970e-01,5.009639246464017703e-02
3.130000000000000004e-01,-5.229598053105759953e-02,-1.280112373632772416e-01,4.033729005714223326e-02
3.140000000000000013e-01,-8.082202665603005487e-02,-1.350334010923073813e-01,1.193828176595766906e-02
3.150000000000000022e-01,-8.594794199481477215e-02,-9.756795280094852918e-02,-1.417942407804274364e-02
3.160000000000000031e-01,-4.898704766820379669e-02,-1.294499263213809426e-01,5.497424215021159619e-03
3.170000000000000040e-01,-1.269182184489235643e-01,-7.116813999593099571e-02,9.668950475329399913e-03
3.180000000000000049e-01,-1.202509638944277426e-01,-1.120327925140047198e-01,-2.710566358676252605e-02
3.190000000000000058e-01,-1.237496717364535703e-01,-1.052554093580972266e-01,3.088986956197295117e-03
3.200000000000000067e-01,-1.055903172382509497e-01,-7.180985398471161074e-02,-4.257866014175409886e-02
3.210000000000000075e-01,-1.036761420275583434e-01,-1.048919804991377824e-01,-3.133301045593533517e-03
3.220000000000000084e-01,-1.332852871507889114e-01,-8.028210276985511817e-02,-3.313517091951503207e-02
3.230000000000000093e-01,-1.404439969864214321e-01,-9.074935560881283725e-02,-2.848294230784132602e-02
3.240000000000000102e-01,-1.315939904290677753e-01,-8.332846354618302087e-02,-9.092247618226902139e-02
3.250000000000000111e-01,-1.373991648299639490e-01,-8.055096376387144153e-02,-5.845986627974983363e-02
3.260000000000000120e-01,-1.507789690361672486e-01,-5.126143940250339759e-02,-4.556828384701017837e-02
3.270000000000000129e-01,-8.573520442420960730e-02,-6.684435512046806027e-02,-5.657105540643937031e-02
3.280000000000000138e-01,-1.211181250148370414e-01,-6.130153874422211019e-02,-7.095034387382187502e-02
3.290000000000000147e-01,-1.287786353903983549e-01,-3.106720620137051747e-02,-9.198340276231231627e-02
3.300000000000000155e-01,-1.423642675753810372e-01,-3.353478822468104054e-02,-5.008416552536584104e-02
3.310000000000000164e-01,-9.781626315815214467e-02,-5.430433111161915571e-02,-1.073429190540725747e-01
3.320000000000000173e-01,-7.209026424939468658e-02,-1.938172608404617470e-02,-6.921060268089082590e-02
3.330000000000000182e-01,-1.053902006586062562e-01,-1.821249305318434555e-02,-8.544846556774615687e-02
3.340000000000000191e-01,-8.578604248593528492e-02,4.418869078838896965e-03,-6.943878091233392225e-02
3.350000000000000200e-01,-6.810274574429686645e-02,2.757512894708791240e-02,-7.898316955772116676e-02
3.360000000000000209e-01,-5.668794905728247874e-02,1.542384804271158816e-02,-4.606279026288542106e-02
3.370000000000000218e-01,-1.559214596291785306e-02,2.823319904976078626e-02,-7.607079556659601671e-02
3.380000000000000226e-01,-1.992063739360358868e-02,4.070387783132765197e-02,-5.684704125521645307e-02
3.390000000000000235e-01,-8.253386608991733486e-03,5.253626293779383588e-02,-8.983884054846541511e-02
3.400000000000000244e-01,-2.351701711544930753e-02,5.959908423817197876e-02,-7.196977748944019537e-02
3.410000000000000253e-01,3.221795607603046563e-02,1.060756497605062493e-01,-5.058944555895273504e-02
3.420000000000000262e-01,2.037072634063036639e-02,9.853262414530496172e-02,-1.476005261489431175e-02
3.430000000000000271e-01,2.655362486446003617e-02,3.627549063512227473e-02,-1.608374995771700428e-02
3.439999999999999725e-01,5.620869200779648328e-02,1.001180217753200458e-01,-2.766929751612392033e-02
3.449999999999999734e-01,4.175070313203697175e-02,9.775705230067724405e-02,-2.252611172233959854e-04
3.459999999999999742e-01,4.774434793506002889e-02,1.132188305466699241e-01,1.961441438396591824e-02
3.469999999999999751e-01,9.624552640789793556e-02,9.961349002346212012e-02,1.063097171948240889e-02
3.479999999999999760e-01,1.264979987277435325e-01,9.991246915258274186e-02,-2.944998817067359317e-02
3.489999999999999769e-01,1.030303465861612394e-01,6.316922323763127234e-02,-2.912622147832200168e-03
3.499999999999999778e-01,1.315726890710285368e-01,1.045123996537117156e-01,3.335829951763482487e-02
3.509999999999999787e-01,1.010761748254099118e-01,1.131342600882026123e-01,4.232374200833361605e-02
3.519999999999999796e-01,1.056100500662120467e-01,7.875695818864220099e-02,2.820530496215017599e-02
3.529999999999999805e-01,1.570076919204221044e-01,1.043410761383220114e-01,-3.579190465357633827e-03
3.539999999999999813e-01,1.185066570434429867e-01,7.326092999989655685e-02,5.494785639094223323e-02
3.549999999999999822e-01,1.291352434004866823e-01,8.341094507476598530e-02,4.781861480877829668e-02
3.559999999999999831e-01,1.623285151143475380e-01,5.959666004352943275e-02,5.399204398818658462e-02
3.569999999999999840e-01,1.110229264932919846e-01,5.834655779726243691e-02,6.590472931259058753e-02
3.579999999999999849e-01,1.563428304778478328e-01,5.873544472266832572e-02,4.054081062551778691e-02
3.589999999999999858e-01,1.137119358762355426e-01,4.900292622748496363e-02,3.782455441558604803e-02
3.599999999999999867e-01,1.408029059347642165e-01,4.081969162815408947e-02,6.097919465129267302e-02
3.609999999999999876e-01,1.207900132561855328e-01,4.967581951255250344e-02,8.696817741476661756e-02
3.619999999999999885e-01,7.169390151305360392e-02,4.435669666376376025e-02,6.460089437077391750e-02
3.629999999999999893e-01,1.012908016645049231e-01,3.853130677869127940e-02,1.003796392042149849e-01
3.639999999999999902e-01,6.666528230884842532e-02,5.659322657614803374e-03,1.097746505680057827e-01
3.649999999999999911e-01,8.514546174369508336e-02,5.289362042434917269e-03,6.945965421492220071e-02
3.659999999999999920e-01,5.247546646216649791e-02,5.220180794635532117e-04,5.891226766522947994e-02
3.669999999999999929e-01,8.291008341915502566e-02,-3.477462805840001586e-02,9.276603263507125774e-02
3.679999999999999938e-01,2.481774915452019531e-02,-3.206333834008613659e-02,7.364299431151231923e-02
3.689999999999999947e-01,7.015763734634128390e-02,-4.031914247923633343e-02,3.130478503734297063e-02
3.699999999999999956e-01,-4.113564810856881748e-03,-2.753611370257132152e-02,6.422580941174026170e-02
3.709999999999999964e-01,7.069075806407029445e-04,-4.786578286877234134e-02,9.918989359722781007e-02
3.719999999999999973e-01,2.551289926105460015e-02,-1.026516361640515407e-01,5.257706851242437140e-02
3.729999999999999982e-01,-8.884925992862014940e-03,-8.116565973355777119e-02,2.272908580510279650e-02
3.739999999999999991e-01,-2.237342946463979562e-02,-1.129816518662630914e-01,2.938999813220638524e-02
3.750000000000000000e-01,-4.615213305062011023e-02,-1.037880687636370675e-01,7.259147010329040917e-02
3.760000000000000009e-01,-6.043631815730088341e-02,-8.936341936127624452e-02,2.575816811518714076e-03
3.770000000000000018e-01,-8.219560243467931293e-02,-9.251117596405404597e-02,5.021593191678129509e-02
3.780000000000000027e-01,-9.646372276737627538e-02,-8.994670540774225842e-02,8.410195179606852478e-03
3.790000000000000036e-01,-3.381474043814969993e-02,-7.883036085348538169e-02,-2.698850154000165258e-02
3.800000000000000044e-01,-9.640997607270597458e-02,-1.070403128208260307e-01,-1.004353245395011966e-03
3.810000000000000053e-01,-1.081087554329414474e-01,-8.519963865612671661e-02,1.845709348553224542e-03
3.820000000000000062e-01,-1.089386189988472003e-01,-1.017679986093200789e-01,-2.586575446175921108e-03
3.830000000000000071e-01,-1.283698880398316811e-01,-9.853073255764034644e-02,-4.831387373965254778e-02
3.840000000000000080e-01,-1.185155058467477485e-01,-1.018487697285000715e-01,-5.846889814695216750e-03
3.850000000000000089e-01,-1.165054351921608333e-01,-1.107349096344731471e-01,-2.963185390529671573e-02
3.860000000000000098e-01,-1.379984623362475182e-01,-7.736506832329138883e-02,-2.969636843761647507e-02
3.870000000000000107e-01,-1.573582976211793383e-01,-7.939577307586781485e-02,-4.433365031030986336e-02
3.880000000000000115e-01,-1.343309026020096941e-01,-6.139786556718444810e-02,-5.162800340576496894e-02
3.890000000000000124e-01,-1.352985579421311368e-01,-7.337647292622140327e-02,-4.037795097725109528e-02
3.900000000000000133e-01,-1.251775385415063169e-01,-8.680405166220378499e-02,-5.293863734182135267e-02
3.910000000000000142e-01,-1.358682530917195708e-01,-3.593993815593138352e-02,-6.183874683947732792e-02
3.920000000000000151e-01,-1.384266297622765429e-01,-6.122152539124727649e-02,-8.029811079579214639e-02
3.930000000000000160e-01,-1.279921192778163685e-01,-5.104226670249452369e-02,-5.633110847067618332e-02
3.940000000000000169e-01,-1.176687787674101787e-01,-2.279667214918788820e-02,-1.027286006351991882e-01
3.950000000000000178e-01,-1.055815653360638873e-01,-1.795213494527055781e-02,-7.766770663006629383e-02
3.960000000000000187e-01,-7.390490903322685656e-02,1.995117512475230032e-02,-5.262049869123735374e-02
3.970000000000000195e-01,-7.167830467146829587e-02,-6.006982337781060187e-03,-4.651301971109757238e-02
3.980000000000000204e-01,-7.932125206202664258e-02,-1.333358281235957378e-02,-6.854556952146222126e-02
3.990000000000000213e-01,-8.004526695481499476e-02,4.835548619085740935e-02,-6.277026853737814605e-02
4.000000000000000222e-01,-3.812510590169968655e-02,3.106023720381868511e-02,-8.268989687438020597e-02
4.010000000000000231e-01,-4.561874956988447999e-02,3.266226730379932081e-02,-8.211348264430823329e-02
4.020000000000000240e-01,-1.935927028629897892e-02,7.482871578118850675e-02,-8.311730554810867200e-02
4.030000000000000249e-01,-1.020993026946231085e-02,7.090992215020792966e-02,-6.918607274234855886e-02
4.040000000000000258e-01,-3.976527869597516925e-03,5.474025781971387367e-02,-7.603551031868800714e-02
4.050000000000000266e-01,2.462543562594134150e-02,7.222784173311325162e-02,-3.798632303483515799e-02
4.060000000000000275e-01,7.112145636096364743e-02,6.896157007467475231e-02,-6.851070219290664176e-02
4.069999999999999729e-01,3.002831510669555851e-02,1.050084690386813291e-01,-3.963994292950246551e-02
4.079999999999999738e-01,5.962618904063707315e-02,1.260467863010897860e-01,1.008229625482010179e-02
4.089999999999999747e-01,4.532855214250600812e-02,1.018071357728623227e-01,3.112871022365106016e-05
4.099999999999999756e-01,6.328483394957451491e-02,1.264516472339186071e-01,-6.380470531639364541e-03
4.109999999999999765e-01,7.591901620938218409e-02,8.218615001723257596e-02,-1.661258034388372537e-02
4.119999999999999774e-01,1.080071137982150237e-01,9.274517609817257979e-02,-2.613524181563876771e-04
4.129999999999999782e-01,5.710355225073727309e-02,7.318278820822304853e-02,1.092775533475602058e-02
4.139999999999999791e-01,9.162117013519902042e-02,1.263502663021427441e-01,1.580771853203892172e-02
4.149999999999999800e-01,1.019075435994396123e-01,7.847051423902028089e-02,9.715780566732008143e-05
4.159999999999999809e-01,1.315175978272430379e-01,1.111714024890442104e-01,2.644483270191336222e-02
4.169999999999999818e-01,1.141665296686349418e-01,6.775571457622255045e-02,2.583669729283106023e-02
4.179999999999999827e-01,1.235120347449809308e-01,1.062520390726699737e-01,7.285437082069377845e-02
4.189999999999999836e-01,1.504297697476319196e-01,2.391811778996071752e-02,4.227625760314315806e-02
4.199999999999999845e-01,1.267983306603212013e-01,6.250260143718117112e-02,4.298476246260379829e-02
4.209999999999999853e-01,1.525033543881219034e-01,7.247590147391413939e-02,4.495040386503704188e-02
4.219999999999999862e-01,1.319354636043807427e-01,6.039730262455154236e-02,6.202345714319968534e-02
4.229999999999999871e-01,1.062181485929767077e-01,3.345651264848371886e-02,5.729717313640910609e-02
4.239999999999999880e-01,1.091394874441868196e-01,3.198166897358248328e-02,9.916843231091930499e-02
4.249999999999999889e-01,1.143127283600632871e-01,3.460080863011460311e-02,7.539688193399304850e-02
4.259999999999999898e-01,1.135150206773579279e-01,-1.875551530935086128e-02,7.768234042313069965e-02
4.269999999999999907e-01,9.428025722271853037e-02,-5.083672673292680307e-03,8.892494952048825285e-02
4.279999999999999916e-01,9.417532077824400383e-02,-1.402193257501108646e-02,8.231860339459975973e-02
4.289999999999999925e-01,5.483421794850201758e-02,-1.544977385892808315e-02,6.088694250542960040e-02
4.299999999999999933e-01,6.790232956353847715e-02,-2.422251586633570111e-02,8.409747304186099282e-02
4.309999999999999942e-01,7.994712979368222283e-02,-5.307655026674766574e-02,6.013787905997022148e-02
4.319999999999999951e-01,3.313441718774609579e-02,-3.041231021521284897e-02,8.320926825041115305e-02
4.329999999999999960e-01,5.428126202801332283e-03,-5.608361525369306988e-02,6.569452098703987275e-02
4.339999999999999969e-01,3.330628636006985333e-02,-7.006894741110808456e-02,4.523062811332494160e-02
4.349999999999999978e-01,2.314200214213312651e-02,-8.352742750892180879e-02,9.334892378489426101e-02
4.359999999999999987e-01,4.063940724332534317e-03,-9.868048762532834195e-02,7.902395680042635651e-02
4.369999999999999996e-01,-5.442328525699986763e-02,-7.875967745344510107e-02,5.700774082528168446e-02
4.380000000000000004e-01,-2.428801477140553680e-02,-6.275197269255118615e-02,1.330997773949084070e-02
4.390000000000000013e-01,-5.846660743817755357e-02,-1.205475660261419446e-01,2.305645844479608381e-02
4.400000000000000022e-01,-2.541070770968244935e-02,-1.365855675450642903e-01,2.690462104728785775e-02
4.410000000000000031e-01,-3.679830051871998964e-02,-1.053828995935891383e-01,3.199897390038051320e-02
4.420000000000000040e-01,-4.879247178355975573e-02,-1.086749295080538524e-01,1.876463451426049756e-02
4.430000000000000049e-01,-9.012773139622967666e-02,-1.018306313420506981e-01,2.221463308931607636e-02
4.440000000000000058e-01,-9.609610925123285297e-02,-1.280051355281159597e-01,-5.913893578500250235e-03
4.450000000000000067e-01,-9.819922485546721258e-02,-1.185141208349501235e-01,-1.858244342951086148e-02
4.460000000000000075e-01,-8.539365198200231377e-02,-1.027727032932190671e-01,-2.747403053463829542e-02
4.470000000000000084e-01,-1.313997352315235123e-01,-1.218912007830838945e-01,-1.677444045415205434e-02
4.480000000000000093e-01,-1.340605051144319881e-01,-1.114783061267312497e-01,-5.287136086528148454e-02
4.490000000000000102e-01,-1.248090659466802310e-01,-8.292590696963035579e-02,-6.099565067367015286e-02
4.500000000000000111e-01,-1.227323879379762506e-01,-7.917507941125713489e-02,-9.709407181512851384e-03
4.510000000000000120e-01,-1.369202062199987302e-01,-8.314308225954791798e-02,-7.875481935827841062e-02
4.520000000000000129e-01,-1.487536781956682597e-01,-5.163867772013124718e-02,-4.987767114222055320e-02
4.530000000000000138e-01,-1.171146447352407749e-01,-4.086366000975943241e-02,-7.142745738609336537e-02
4.540000000000000147e-01,-1.409135261675573125e-01,-4.803730121598744768e-02,-6.326044417254593488e-02
4.550000000000000155e-01,-1.148170019353346033e-01,-6.911050431298787489e-02,-1.079828662167085507e-01
4.560000000000000164e-01,-1.297518396412525588e-01,-3.147786829202026126e-02,-8.837567300084364641e-02
4.570000000000000173e-01,-1.159627209958925681e-01,-2.143655339038825353e-02,-8.824459844653896601e-02
4.580000000000000182e-01,-1.187293398096320868e-01,-1.167895134155828851e-02,-8.028853674523127315e-02
4.590000000000000191e-01,-6.769974571644274408e-02,-1.260930366251532264e-02,-6.939749575863994602e-02
4.600000000000000200e-01,-8.149040724174796968e-02,1.509600592355126933e-02,-6.646240710256720585e-02
4.610000000000000209e-01,-5.241553243601606432e-02,6.090018801416911820e-02,-6.867662330802438986e-02
4.620000000000000218e-01,-4.529269553272106258e-02,4.388439856196142685e-02,-9.867167364920483019e-02
4.630000000000000226e-01,-4.947815003599012607e-02,2.832341224078589823e-03,-9.530368294704860688e-02
4.640000000000000235e-01,-4.744074622206577441e-02,5.259729903224049513e-02,-6.671056275462285134e-02
4.650000000000000244e-01,-3.655908209644084111e-02,6.916814876883813079e-02,-5.534108672482931923e-02
4.660000000000000253e-01,-1.169918049463695466e-02,5.595660711086684197e-02,-6.956147197023498929e-02
4.670000000000000262e-01,3.044368938801233354e-02,1.013924393192009443e-01,-6.827628603384390538e-02
4.680000000000000271e-01,-4.658699251725600954e-03,6.130505833325625153e-02,-6.976911652830142252e-02
4.689999999999999725e-01,-2.130401490612587878e-02,8.654137718391188838e-02,-4.684173311213991886e-02
4.699999999999999734e-01,6.205047055339363987e-02,8.796924863628330371e-02,-2.958563518866258804e-02
4.709999999999999742e-01,4.539831757400480255e-02,8.177524509843303591e-02,-5.531874606736401218e-02
4.719999999999999751e-01,7.369242760824545879e-02,1.079316927922677194e-01,-4.553231311735578268e-02
4.729999999999999760e-01,5.373935564867036996e-02,1.263642562157210048e-01,-4.373738189831312406e-02
4.739999999999999769e-01,1.162157097411158635e-01,8.464662829572032476e-02,-7.626106004133847462e-04
4.749999999999999778e-01,6.897997492072666104e-02,8.352808678175419055e-02,-1.619536273446934085e-02
4.759999999999999787e-01,1.179529478556939903e-01,1.048327678986568506e-01,-8.602813974447924214e-03
4.769999999999999796e-01,9.457507400231035533e-02,7.443702866049770051e-02,-1.655046227593375691e-02
4.779999999999999805e-01,8.953638538135852420e-02,8.282717443331462370e-02,1.137751384098765507e-02
4.789999999999999813e-01,1.284876506329474810e-01,1.132519944009047763e-01,5.036227189081036310e-02
4.799999999999999822e-01,1.115409674839355908e-01,6.946130641626023505e-02,2.664956972397995033e-03
4.809999999999999831e-01,1.018243568498194696e-01,1.088525068309105365e-01,4.820253118402415687e-02
4.819999999999999840e-01,1.198982654746699322e-01,2.847329137622311296e-02,4.675743630006520130e-02
4.829999999999999849e-01,1.363868211184597334e-01,4.310088613275956521e-02,5.339934571047640077e-02
4.839999999999999858e-01,1.295810786682717319e-01,5.026531769669811273e-02,4.163394583084327472e-02
4.849999999999999867e-01,1.344977315536680096e-01,4.875723552687729473e-02,3.101448766304015434e-02
4.859999999999999876e-01,1.029858253759496078e-01,4.007345373961011814e-02,6.011950914746171104e-02
4.869999999999999885e-01,1.031664270497455599e-01,2.660043643568189148e-02,6.540447220541414919e-02
4.879999999999999893e-01,9.330929570114809835e-02,2.387725160333232025e-02,7.016606327730721959e-02
4.889999999999999902e-01,9.258249139690954976e-02,-1.786946844097697662e-02,5.842599484856909192e-02
4.899999999999999911e-01,8.747954348035517913e-02,2.496806829353279827e-02,1.081013455062400375e-01
4.909999999999999920e-01,9.100349492995941925e-02,-1.371544247684437952e-02,7.131421346857795551e-02
4.919999999999999929e-01,8.640014871394237350e-02,-3.900465330011646664e-02,5.390809308343703921e-02
4.929999999999999938e-01,5.362813454334083851e-02,-9.315776180889790564e-03,9.682475793976798306e-02
4.939999999999999947e-01,5.292505356036254771e-02,-2.149327387525597904e-02,6.689986800834349379e-02
4.949999999999999956e-01,4.754156300901413168e-02,-4.014497485095834539e-02,5.453138169138763147e-02
4.959999999999999964e-01,-4.618051709481192299e-03,-5.493540918479489221e-02,3.650302058155273366e-02
4.969999999999999973e-01,2.444975314688676085e-02,-7.104444454047602331e-02,7.837243446684963311e-02
4.979999999999999982e-01,1.110333899222855185e-02,-5.045219060311425391e-02,6.039904539661944405e-02
4.989999999999999991e-01,-1.288566323990927680e-02,-1.170432877776175495e-01,4.531050409928166073e-02
5.000000000000000000e-01,-8.080424666412448775e-03,-7.342109420829025235e-02,7.734021035524933640e-02
5.010000000000000009e-01,-3.042446506466224207e-02,-9.494556877006590789e-02,2.661573548107059456e-02
5.020000000000000018e-01,-3.200104044000655346e-02,-8.553035917749376993e-02,1.939482642510976379e-02
5.030000000000000027e-01,-3.674051880506015721e-02,-9.496787053799993217e-02,3.488711951865937355e-02
5.040000000000000036e-01,-1.052818860009273466e-01,-8.626414279010125030e-02,9.967234285449528761e-03
5.050000000000000044e-01,-5.472453405150208561e-02,-1.013819439573676456e-01,9.578984292454306021e-03
5.060000000000000053e-01,-6.792142475114519573e-02,-9.245522988057039426e-02,7.723129359425302473e-03
5.070000000000000062e-01,-8.972692393500672492e-02,-5.933942545136991487e-02,5.795245836503664164e-03
5.080000000000000071e-01,-1.090779909003889575e-01,-1.005861442692981556e-01,1.380691947086782646e-02
5.090000000000000080e-01,-1.063509487631109640e-01,-9.448643367488700207e-02,-3.710424932903526318e-02
5.100000000000000089e-01,-1.075937300733652013e-01,-1.076567260916526519e-01,-1.960843830913903615e-02
5.110000000000000098e-01,-1.235255995888953351e-01,-7.868768961486045932e-02,-4.737941582097506682e-02
5.120000000000000107e-01,-1.256610885267145372e-01,-9.897039465024724814e-02,-1.333715364173033817e-02
5.130000000000000115e-01,-1.492662650823548265e-01,-1.041767070505680015e-01,-4.072862052444011643e-02
5.140000000000000124e-01,-1.233984655849599543e-01,-7.180281586220423062e-02,-6.477438043943628543e-02
5.150000000000000133e-01,-1.259708002992343256e-01,-6.911641855719240224e-02,-5.168586618578074887e-02
5.160000000000000142e-01,-1.071001811833788286e-01,-6.043710589133554495e-02,-6.455317668674756537e-02
5.170000000000000151e-01,-1.057317238672054321e-01,-4.426417423862909206e-02,-7.678942079451520075e-02
5.180000000000000160e-01,-9.889823641853490166e-02,-3.540751861520931298e-02,-5.885434783757115262e-02
5.190000000000000169e-01,-1.460795308311512997e-01,-2.099489418161191653e-02,-7.525267431518938011e-02
5.200000000000000178e-01,-1.312865860316206335e-01,-9.474099262561959736e-03,-2.983878077250937122e-02
5.210000000000000187e-01,-1.176250260542420628e-01,1.192164845854065680e-02,-5.180979081342726444e-02
5.220000000000000195e-01,-9.535307113547768221e-02,3.077547849016759943e-02,-7.000533441900322340e-02
5.230000000000000204e-01,-7.697328909761567972e-02,3.963197250754624951e-02,-7.149241399353067905e-02
5.240000000000000213e-01,-5.627263003221000953e-02,2.298916488848836218e-02,-9.482534673633477573e-02
5.250000000000000222e-01,-4.651145797191177239e-02,6.755373585923714341e-02,-8.141546640533878221e-02
5.260000000000000231e-01,-4.430506241654921101e-02,6.498366961119753094e-02,-9.585463690967863104e-02
5.270000000000000240e-01,-4.892336027091818973e-02,5.784679665039420965e-02,-5.238344179797910227e-02
5.280000000000000249e-01,-4.285317943009427089e-02,6.184570614134995287e-02,-9.112431988892276402e-02
5.290000000000000258e-01,-2.688895826688765534e-02,9.278958963529186643e-02,-1.111140823099424912e-01
5.300000000000000266e-01,-3.120570536077672732e-03,7.588557151126298916e-02,-5.275848405069044622e-02
5.310000000000000275e-01,-1.369320093440565093e-02,8.111634241622114883e-02,-3.931091237030977237e-02
5.320000000000000284e-01,3.339960153226318590e-02,8.135221364889855256e-02,-6.824369216086802192e-02
5.330000000000000293e-01,4.516949760591023461e-02,1.223702260101995204e-01,-6.360482165383458952e-02
5.340000000000000302e-01,4.822616255955369802e-02,9.148234176363283232e-02,-1.536739432519359377e-02
5.350000000000000311e-01,6.310584404478068732e-02,7.786829607558921895e-02,-2.488581342586610942e-02
5.360000000000000320e-01,8.656281300920530553e-02,1.033819223144375882e-01,-5.233289494894274169e-02
5.370000000000000329e-01,1.149144624368273748e-01,9.924513269745044441e-02,-4.297451634522812119e-02
5.380000000000000338e-01,9.695167330526062444e-02,9.244258880392060285e-02,-8.703828588279763703e-03
5.390000000000000346e-01,1.015097355800924500e-01,7.789628127072999175e-02,4.646849480416461592e-03
5.400000000000000355e-01,1.277446533513663107e-01,1.007221150693752287e-01,-5.226717856266656186e-03
5.410000000000000364e-01,1.193240232761298841e-01,8.740219789654891935e-02,-9.389734718874243394e-03
5.420000000000000373e-01,1.181498455521309554e-01,7.436802736449124596e-02,2.425639618097564718e-02
5.430000000000000382e-01,1.355230690037174945e-01,4.799627165865173739e-02,5.052971875622230824e-02
5.440000000000000391e-01,1.151766934129552222e-01,4.099508309793431504e-02,2.894268880551902415e-02
5.450000000000000400e-01,1.380841565101394441e-01,8.642449942460976586e-02,3.557461790055018586e-02
5.460000000000000409e-01,1.317437050211731075e-01,4.906850933272369208e-02,4.625660453922954274e-02
5.470000000000000417e-01,1.029300975180094391e-01,5.127415111113658303e-02,3.506715035930196150e-02
5.480000000000000426e-01,1.650231829475146406e-01,4.617310208276041023e-02,4.716392547170065314e-02
5.490000000000000435e-01,1.410956898300974316e-01,2.224190701452190971e-02,5.459077595843980085e-02
5.500000000000000444e-01,8.964837669899615447e-02,3.801437344919388756e-02,7.422903008921226398e-02
5.510000000000000453e-01,1.160413937564568621e-01,-8.840344981187841025e-03,8.269228972548019196e-02
5.520000000000000462e-01,1.131496278997757288e-01,3.182607985828164038e-02,8.704039509678683506e-02
5.530000000000000471e-01,1.123337926647914597e-01,-2.147196859387985948e-02,8.571283903352466815e-02
5.540000000000000480e-01,8.942492167685003879e-02,-2.530821468557377732e-02,1.002341712165751020e-01
5.550000000000000488e-01,7.012250457314661567e-02,-5.070331494544036421e-02,6.253330767275927515e-02
5.560000000000000497e-01,6.204497020761517295e-02,-2.951369189682196900e-02,1.000173034899083935e-01
5.570000000000000506e-01,4.737895359393123201e-02,-2.972301116543439592e-02,4.831076690759235348e-02
5.580000000000000515e-01,1.794019372969753515e-02,-4.699078088121096813e-02,6.645442607717334804e-02
5.590000000000000524e-01,8.017727480848575033e-03,-6.078222857348302560e-02,6.218125585303593827e-02
5.600000000000000533e-01,3.468408390924266477e-02,-8.429717200187708537e-02,6.459402213886626665e-02
5.610000000000000542e-01,5.199483847927902774e-03,-7.250976426189324753e-02,1.025200875994342897e-01
5.620000000000000551e-01,1.441783625882379644e-03,-8.579067513747597185e-02,5.561175579213151199e-02
5.629999999999999449e-01,4.416199849684836372e-03,-8.837861187507924099e-02,3.304069073423350489e-02
5.639999999999999458e-01,-4.227858355108963379e-02,-1.189309686954300727e-01,8.275609347318879649e-02
5.649999999999999467e-01,-3.297493553821338741e-02,-9.528115226776094626e-02,4.907764066654644181e-02
5.659999999999999476e-01,-4.172937538012383429e-02,-1.071743608971895828e-01,6.892767120834811072e-03
5.669999999999999485e-01,-7.386644802436057033e-02,-1.115074833991595987e-01,3.601757895729043590e-02
5.679999999999999494e-01,-8.429855380153765398e-02,-1.158348749209861944e-01,3.074397631293322025e-02
5.689999999999999503e-01,-1.036015140088006742e-01,-9.439448144026907350e-02,-9.778434870232260295e-03
5.699999999999999512e-01,-1.217079008371172444e-01,-1.124065636108557975e-01,1.278325836105731993e-02
5.709999999999999520e-01,-9.266107172462255404e-02,-1.224889625727155901e-01,4.032018047594777832e-02
5.719999999999999529e-01,-1.368504511643142685e-01,-5.911743140025151749e-02,2.677769709675719909e-02
5.729999999999999538e-01,-1.206269376348583500e-01,-9.013651166915663537e-02,-6.330010092889098820e-03
5.739999999999999547e-01,-1.384922823260720803e-01,-9.866825730123628124e-02,-7.579024273481216149e-03
5.749999999999999556e-01,-1.400174798035017376e-01,-6.821837737066097085e-02,-3.836134557726155608e-02
5.759999999999999565e-01,-1.539750557155485089e-01,-1.153204008194029656e-01,-5.464050920874899409e-02
5.769999999999999574e-01,-1.141747659580602814e-01,-4.778736005549874544e-02,-4.123840351030627627e-02
5.779999999999999583e-01,-1.483780595722092033e-01,-7.279911060776043941e-02,-6.545087024845951118e-02
5.789999999999999591e-01,-1.537515643487915862e-01,-5.201799884150248160e-02,-6.069472322397532343e-02
5.799999999999999600e-01,-1.177985545843242138e-01,-3.518053162118743582e-02,-4.221271636067234351e-02
5.809999999999999609e-01,-1.214816484624169080e-01,-2.640054139830469784e-02,-8.863003903893405810e-02
5.819999999999999618e-01,-1.206336903841244701e-01,1.667949411715227356e-02,-8.053811814980162131e-02
5.829999999999999627e-01,-1.014989846419502850e-01,-1.889701399042385821e-02,-8.590550122060318372e-02
5.839999999999999636e-01,-8.906192809297547308e-02,1.553646484944035469e-02,-6.855340845489048263e-02
5.849999999999999645e-01,-1.268032356158156071e-01,2.770610693853159390e-02,-5.227953575785028451e-02
5.859999999999999654e-01,-7.390309586192377045e-02,4.509983010955545546e-02,-8.770662702950894618e-02
5.869999999999999662e-01,-9.036976644463134978e-02,2.550367102917746459e-02,-5.901850956776268781e-02
5.879999999999999671e-01,-4.452258676314591046e-02,2.553323874743510316e-02,-6.687788924381064815e-02
5.889999999999999680e-01,-4.960281241207020742e-02,8.370073509317157989e-02,-9.973487769541891645e-02
5.899999999999999689e-01,-3.205610663149807693e-02,5.176091694192311299e-02,-5.439329250113759950e-02
5.909999999999999698e-01,-2.788702303524788137e-02,6.811350372807734033e-02,-6.223340335979545695e-02
5.919999999999999707e-01,7.328102281635573770e-03,6.558409430825015707e-02,-7.638489354671638976e-02
5.929999999999999716e-01,3.618573565324463386e-03,9.896190020201035831e-02,-4.701479786447018694e-02
5.939999999999999725e-01,1.914338551171016617e-02,7.200684585917913050e-02,-5.960964940643426885e-02
5.949999999999999734e-01,1.867704194042305380e-02,9.914421901371828216e-02,-6.663267634386363381e-02
5.959999999999999742e-01,-3.788137343760364373e-03,9.626894681575871859e-02,-4.172326828407747074e-02
5.969999999999999751e-01,4.058322968977964157e-02,1.127618585267884804e-01,-8.455469564585066378e-03
5.979999999999999760e-01,4.845448220875712975e-02,1.097384164353421149e-01,-2.270912264496170382e-02
5.989999999999999769e-01,9.925926813583645092e-02,9.646719918271240424e-02,-5.282751218529162934e-02
5.999999999999999778e-01,9.350170941369258248e-02,1.227720768788826827e-01,1.237636865176939714e-03
6.009999999999999787e-01,6.476881118330631015e-02,1.268278342765575828e-01,-1.566776960391971091e-02
6.019999999999999796e-01,8.620562152271310508e-02,8.879986187308312739e-02,-1.606042020715220571e-03
6.029999999999999805e-01,1.193942653293974115e-01,9.579761215547727415e-02,-1.590723819836407579e-02
6.039999999999999813e-01,9.779149643800058578e-02,1.034907757776751258e-01,4.744693733398457763e-02
6.049999999999999822e-01,1.299386630427012135e-01,1.132044194837641821e-01,1.324776894427440350e-02
6.059999999999999831e-01,1.358863047194383000e-01,7.210252582091029872e-02,4.983647750658601328e-02
6.069999999999999840e-01,1.529724335196598617e-01,8.978499676632788196e-02,4.312968541033070265e-03
6.079999999999999849e-01,1.335702044673177102e-01,5.543763515620504789e-02,6.077149294083287329e-02
6.089999999999999858e-01,1.252109665730249122e-01,5.062126169272699455e-02,5.003175030493618725e-02
6.099999999999999867e-01,1.127812459669348816e-01,8.892357780442582127e-03,2.953608101038037587e-02
6.109999999999999876e-01,1.357008304734159676e-01,1.976851342960259106e-02,6.972784227469806806e-02
6.119999999999999885e-01,9.901832707162913638e-02,1.825030939186460255e-02,4.691278536792726356e-02
6.129999999999999893e-01,1.118211491532343504e-01,4.475480267899795660e-03,6.263373282436184020e-02
6.139999999999999902e-01,1.179218313702838222e-01,2.822494090795401103e-02,7.518882558297274032e-02
6.149999999999999911e-01,1.512474962625702524e-01,8.132669721044882144e-03,6.625945027415930388e-02
6.159999999999999920e-01,1.024602124428482391e-01,-1.377331928189391014e-02,9.318775943609200474e-02
6.169999999999999929e-01,1.012818493016147403e-01,-5.264798122989900874e-05,8.875372259800377861e-02
6.179999999999999938e-01,8.443413894590720559e-02,-2.771399809512145943e-02,5.466701511929452501e-02
6.189999999999999947e-01,8.201847554524865913e-02,-3.958902320880927639e-02,5.481176068587132605e-02
6.199999999999999956e-01,6.015071752801225829e-02,-4.336624199917796241e-02,8.895560677592248555e-02
6.209999999999999964e-01,5.581077241433433922e-02,-8.362941271848707558e-02,7.399022873496093056e-02
6.219999999999999973e-01,6.686280957706838834e-02,-6.675876616455646284e-02,8.114155633103832532e-02
6.229999999999999982e-01,2.249378656735275678e-02,-5.831340754297104079e-02,7.683992469795410118e-02
6.239999999999999991e-01,1.896784836628115714e-02,-9.646449838932735776e-02,6.510186851818662579e-02
6.250000000000000000e-01,-2.480677319603534752e-03,-8.486001504654469563e-02,9.727380053729201004e-02
6.260000000000000009e-01,-3.444023713965194133e-02,-1.092868642425493114e-01,7.359281184977495283e-02
6.270000000000000018e-01,-3.168751388105042754e-02,-9.868019431091050453e-02,4.319800912129615617e-02
6.280000000000000027e-01,-2.342859224896241127e-02,-1.046592440247463007e-01,6.058552467297357441e-02
6.290000000000000036e-01,-5.154935528667400207e-02,-9.970566575006782617e-02,4.135175577700831578e-02
6.300000000000000044e-01,-4.943749351714074591e-02,-1.114106189612005249e-01,2.584591567425094383e-02
6.310000000000000053e-01,-7.271201106808271308e-02,-1.019358328907040701e-01,4.033553671185698131e-02
6.320000000000000062e-01,-8.459123054533300434e-02,-1.264469802856806602e-01,6.317882921227620588e-03
6.330000000000000071e-01,-8.125966869699725870e-02,-9.578696347668758104e-02,-1.204152511319894411e-02
6.340000000000000080e-01,-1.045908432791523290e-01,-1.190940971108846586e-01,1.159519980079104159e-02
6.350000000000000089e-01,-1.339281370106307767e-01,-8.866305307473222597e-02,-1.264937634653671983e-02
6.360000000000000098e-01,-1.055686529613196062e-01,-8.096061953163072311e-02,-4.525179095232167298e-02
6.370000000000000107e-01,-1.253361225120122324e-01,-9.361994293241020226e-02,2.311166747926042542e-02
6.380000000000000115e-01,-1.291706272803293531e-01,-5.965790095352748595e-02,-3.100516668267144782e-02
6.390000000000000124e-01,-1.177430344244081023e-01,-5.745213364753251617e-02,-4.513423062502223970e-02
6.400000000000000133e-01,-1.663007652147737436e-01,-4.974755530948254956e-02,-3.128698425748887429e-02
6.410000000000000142e-01,-1.545174542073968482e-01,-3.364461998167051632e-02,-1.118368582240399610e-02
6.420000000000000151e-01,-1.223282676155062476e-01,-3.136635213444683573e-02,-3.254121144144535294e-02
6.430000000000000160e-01,-9.960672676572485118e-02,-3.728288227922452874e-02,-7.829774624755742041e-02
6.440000000000000169e-01,-1.307217290318933578e-01,-1.187578992375483769e-02,-8.619054162035416633e-02
6.450000000000000178e-01,-1.378985593311539137e-01,8.247364224546480452e-03,-8.860505109076395602e-02
6.460000000000000187e-01,-1.531438609110181426e-01,5.224684862174873434e-02,-1.041628739996293962e-01
6.470000000000000195e-01,-1.047412947634777797e-01,-1.238670043484216450e-02,-7.428805978628656714e-02
6.480000000000000204e-01,-9.247588619920997510e-02,5.268094402218164579e-02,-9.333276213995733706e-02
6.490000000000000213e-01,-1.198760230136692168e-01,3.156815160993170499e-02,-7.378852423799249494e-02
6.500000000000000222e-01,-7.202459507611194689e-02,2.659344658521489713e-02,-9.037869789090043071e-02
6.510000000000000231e-01,-8.322645840542390594e-02,7.340787288531279431e-02,-8.333148629171471811e-02
6.520000000000000240e-01,-3.326517001476620577e-02,8.441723329969273715e-02,-5.293711285169579173e-02
6.530000000000000249e-01,-2.298254821948576831e-02,5.913239047664491793e-02,-6.953194998993983411e-02
6.540000000000000258e-01,-3.563813661684631096e-02,6.197591804871084575e-02,-8.487904098837983913e-02
6.550000000000000266e-01,-5.447056464394990812e-03,8.535884794663321784e-02,-6.351929360985976436e-02
6.560000000000000275e-01,-1.817416709510498093e-02,9.347360604445445476e-02,-8.834650729813803283e-02
6.570000000000000284e-01,-3.000267943642396032e-03,1.277646686810252619e-01,-9.386587083039148183e-02
6.580000000000000293e-01,-1.506538823096569609e-03,1.183863039350664392e-01,-6.938368462281699345e-02
6.590000000000000302e-01,2.490431841246083106e-02,1.131779546141867265e-01,-7.038149854085451462e-02
6.600000000000000311e-01,4.052244900570773495e-02,9.842578129483088578e-02,-5.040617066636313148e-02
6.610000000000000320e-01,4.872102900786839941e-02,1.108788627366989327e-01,-4.996046042472649523e-02
6.620000000000000329e-01,4.052393857751836193e-02,9.266312455536807047e-02,-1.292940593800815177e-02
6.630000000000000338e-01,7.102071617526363456e-02,9.734668195702299298e-02,-4.543657795506558794e-02
6.640000000000000346e-01,9.345903401055999371e-02,8.246245270602221844e-02,-1.120245877587017734e-02
6.650000000000000355e-01,8.526963143482146901e-02,1.235357008711807092e-01,2.388721898939558108e-02
6.660000000000000364e-01,1.332333715039314692e-01,9.172855817855998795e-02,1.117301256085696500e-03
6.670000000000000373e-01,1.384499960327284784e-01,1.142944106782346758e-01,3.602361263413326846e-03
6.680000000000000382e-01,1.045547723569894422e-01,9.050624384626447527e-02,-1.645749868965497298e-02
6.690000000000000391e-01,1.293171077611915409e-01,8.145423427421245866e-02,1.855656335555267572e-02
6.700000000000000400e-01,1.348572597751016844e-01,3.347358475908065317e-02,2.208321484988315722e-02
6.710000000000000409e-01,1.424382095699101292e-01,7.037547846156484710e-02,5.152567442594863101e-02
6.720000000000000417e-01,1.216031198780432310e-01,4.841854426067240119e-02,4.332158092989313314e-02
6.730000000000000426e-01,1.244873663743720493e-01,5.161453672971336865e-02,1.181280627993473893e-02
6.740000000000000435e-01,1.326173848986054449e-01,1.686832288629410911e-02,6.881431460729228733e-02
6.750000000000000444e-01,1.138736978000313288e-01,3.271487210928664124e-02,-2.190339318417890060e-03
6.760000000000000453e-01,1.255782966906027753e-01,6.277303855494584597e-03,6.721858020198551165e-02
6.770000000000000462e-01,1.158814785801355468e-01,-5.049701936406979057e-03,6.009458177857452538e-02
6.780000000000000471e-01,1.184734973631768329e-01,-1.008225475399133347e-02,5.936787684313606095e-02
6.790000000000000480e-01,8.474045441873656603e-02,-4.158477333182981905e-03,5.781336035602557127e-02
6.800000000000000488e-01,7.137387790236401908e-02,1.111720365565959301e-03,6.546865004555034451e-02
6.810000000000000497e-01,7.774287292265669169e-02,-3.332707867241604949e-02,2.550095596320031688e-02
6.820000000000000506e-01,9.454408331149828648e-02,-4.830072852609437750e-02,7.586102321584548003e-02
6.830000000000000515e-01,7.120506083530200869e-02,-8.398336970410971714e-02,8.634578516827275119e-02
6.840000000000000524e-01,4.041997840433511624e-02,-6.350972765459374225e-02,9.627089524530674236e-02
6.850000000000000533e-01,4.531945889317240406e-02,-6.275425979893001216e-02,7.405317287003800042e-02
6.860000000000000542e-01,1.746230535860755773e-02,-8.421806169206784431e-02,7.603031424970321805e-02
6.870000000000000551e-01,9.842170423815188585e-03,-8.866636126423865782e-02,6.239028319374666925e-02
6.879999999999999449e-01,1.484311758687458481e-02,-1.039263678700573790e-01,6.398316876969357969e-02
6.889999999999999458e-01,-2.271324925621757973e-02,-8.688139098137769023e-02,7.564718735851851117e-02
6.899999999999999467e-01,-3.756917649001801501e-02,-1.208536713299199344e-01,7.865342933044462692e-02
6.909999999999999476e-01,-4.883055987993714653e-02,-1.409066941852495924e-01,6.600685687468130225e-02
6.919999999999999485e-01,-7.353189778696136991e-02,-1.220537348671548727e-01,7.597608829192006863e-02
6.929999999999999494e-01,-9.011187653006016984e-02,-1.171712895432739515e-01,6.656342593047234746e-02
6.939999999999999503e-01,-5.165453603446897718e-02,-1.025526722248144978e-01,1.062258572692514370e-02
6.949999999999999512e-01,-6.140281359192415606e-02,-9.420972409611462484e-02,2.694698455518943631e-02
6.959999999999999520e-01,-1.113215970848300679e-01,-1.057290154006612637e-01,2.643267833491231775e-02
6.969999999999999529e-01,-1.257908628978332555e-01,-1.164794513494791656e-01,8.821272396331644380e-03
6.979999999999999538e-01,-1.036662098561823425e-01,-6.348998303870731497e-02,-1.907711644764105690e-03
6.989999999999999547e-01,-9.164608747387839593e-02,-8.203927873786286129e-02,1.307478099614288111e-02
6.999999999999999556e-01,-1.192218814018092543e-01,-9.409789182758240833e-02,8.303033876153789739e-03
7.009999999999999565e-01,-9.945901903855090820e-02,-3.223618025812954868e-02,1.295239655498345386e-03
7.019999999999999574e-01,-1.548098093464082836e-01,-7.399973850530050523e-02,-3.783757160216492943e-02
7.029999999999999583e-01,-1.557990886365661076e-01,-8.107269864287257322e-02,-4.231498920837219180e-02
7.039999999999999591e-01,-1.437966970884874407e-01,-5.571235170187156110e-02,-3.570905046027004343e-02
7.049999999999999600e-01,-1.156750851603993713e-01,-7.619547569854336067e-02,-9.358275211382185987e-02
7.059999999999999609e-01,-1.115379852857592974e-01,-3.645526814382362563e-02,-5.604233766395159966e-02
7.069999999999999618e-01,-1.286093274857392499e-01,-8.457832760813062054e-03,-8.605489560089256418e-02
7.079999999999999627e-01,-1.135825367506521633e-01,-6.045883195210041867e-03,-7.906550731026169843e-02
7.089999999999999636e-01,-1.060710836349678526e-01,-8.671160005192477330e-03,-7.764026333692587711e-02
7.099999999999999645e-01,-7.892685234669234717e-02,3.657930072465091081e-02,-7.261973958084412539e-02
7.109999999999999654e-01,-9.535422522245078081e-02,2.136389065331714340e-02,-9.021725018848955613e-02
7.119999999999999662e-01,-8.934501279782919303e-02,4.880523510179008567e-02,-6.356776889598153568e-02
7.129999999999999671e-01,-7.060216499316654404e-02,3.814593125337329554e-02,-7.768886305676789283e-02
7.139999999999999680e-01,-6.923842610822976418e-02,8.776601407006641431e-02,-5.685400434327108482e-02
7.149999999999999689e-01,-7.233845848761398523e-02,5.968024047349131805e-02,-8.232267153500191781e-02
7.159999999999999698e-01,-2.429037367045008139e-02,6.530996439321053171e-02,-7.075944695009002416e-02
7.169999999999999707e-01,-3.265974224438462220e-02,8.893187041218213185e-02,-6.455537821376933216e-02
7.179999999999999716e-01,-3.316401305099801744e-02,6.367088057865867567e-02,-3.854224873435000559e-02
7.189999999999999725e-01,-1.160785811442280498e-02,1.092633325039054359e-01,-8.365502674825332774e-02
7.199999999999999734e-01,8.011668082811862837e-03,8.080499626442230743e-02,-6.877368716750473232e-02
7.209999999999999742e-01,2.186992005691313495e-02,9.383353819402383278e-02,-3.650216240331944501e-02
7.219999999999999751e-01,3.779376710443640985e-02,1.262850371731892019e-01,-4.498461314749437057e-02
7.229999999999999760e-01,5.636597453041718858e-02,9.223353489909109915e-02,-4.351461704797460889e-02
7.239999999999999769e-01,6.342761932312311612e-02,7.648701198250343336e-02,-6.501981218646113447e-02
7.249999999999999778e-01,3.775138283617414381e-02,1.284461216965286923e-01,-3.853416606241021752e-02
7.259999999999999787e-01,7.392360480592638505e-02,1.067013651408875163e-01,-2.016805016460334124e-02
7.269999999999999796e-01,9.134411089014807250e-02,1.028419724946661590e-01,-1.971706034370940622e-02
7.279999999999999805e-01,9.003489871937768452e-02,1.135520160480173041e-01,-9.870130601459661118e-03
7.289999999999999813e-01,1.176829082328887804e-01,7.962215482023184132e-02,-2.275478630634739791e-02
7.299999999999999822e-01,8.153718283615207785e-02,7.271484455553550719e-02,1.416335401238315306e-02
7.309999999999999831e-01,1.175456046668364452e-01,9.499885887867105805e-02,-2.080404562388427428e-02
7.319999999999999840e-01,1.265959938361954640e-01,7.384497319610147659e-02,3.548812531194282804e-02
7.329999999999999849e-01,1.262103622024585703e-01,6.983374564392229311e-02,-1.832752531953601299e-02
7.339999999999999858e-01,1.178599904657126746e-01,7.281141068836557984e-02,2.250657453344884554e-02
7.349999999999999867e-01,1.485082118805828577e-01,2.899279099293473883e-02,4.508378578211393733e-02
7.359999999999999876e-01,1.294977615339480692e-01,1.403337792812859620e-02,6.668674351479211837e-02
7.369999999999999885e-01,1.258140491756036816e-01,8.868978499651763991e-03,5.697431650214605792e-02
7.379999999999999893e-01,1.474534257371865054e-01,2.966675112057389277e-02,4.312010975503187404e-02
7.389999999999999902e-01,1.502418378190770176e-01,-1.674286838606729375e-02,7.115998659298311546e-02
7.399999999999999911e-01,1.264999330611180639e-01,4.437279497923754014e-03,8.067291788547197029e-02
7.409999999999999920e-01,1.031819556889624900e-01,1.616047318220957887e-02,6.845272631221695214e-02
7.419999999999999929e-01,9.323047595093701678e-02,-1.523289930913777381e-02,4.649116105143330513e-02
7.429999999999999938e-01,8.853132296209695329e-02,-2.847580848581435578e-02,9.694340966713654861e-02
7.439999999999999947e-01,9.146142781441352065e-02,-3.941530377636588700e-02,1.032757757296474399e-01
7.449999999999999956e-01,8.168997207568383379e-02,-3.548853326533892710e-02,5.525715844181630643e-02
7.459999999999999964e-01,2.917172731600014418e-02,-5.098052898518860149e-02,7.620008012098203332e-02
7.469999999999999973e-01,2.465853495232228632e-02,-8.506824789146857912e-02,8.861873176006655750e-02
7.479999999999999982e-01,5.963501461031549267e-02,-6.428000744019897461e-02,7.523909351068319706e-02
7.489999999999999991e-01,2.632618298864693174e-02,-8.393311762207887605e-02,5.129718971583942244e-02
7.500000000000000000e-01,-5.477715474203014284e-04,-1.252724583385819435e-01,8.381915260182763727e-02
7.510000000000000009e-01,1.469809359369789008e-03,-7.726640663550972399e-02,7.459971401567989935e-02
7.520000000000000018e-01,1.309855123053871827e-02,-8.776035125986475505e-02,7.121126446266595744e-02
7.530000000000000027e-01,-5.280750596828538701e-03,-6.116982319664349133e-02,9.476472292959610411e-02
7.540000000000000036e-01,-6.172440966798496687e-02,-1.167882040683900224e-01,7.152474095052172021e-02
7.550000000000000044e-01,-8.267919544449832403e-02,-7.615517489197294598e-02,5.083410510937877436e-02
7.560000000000000053e-01,-6.796948817332572335e-02,-1.143716200754402862e-01,4.181613838910056696e-03
7.570000000000000062e-01,-4.798445248588565498e-02,-1.136734357954672509e-01,6.279776298845646254e-02
7.580000000000000071e-01,-6.803229828624779429e-02,-1.049523080209392584e-01,1.731352721045112744e-02
7.590000000000000080e-01,-1.034985056300488232e-01,-1.110977973789008533e-01,2.850103715146441383e-02
7.600000000000000089e-01,-9.855428349049011327e-02,-8.649739895925465105e-02,-1.743886918887886314e-02
7.610000000000000098e-01,-1.046314403488995820e-01,-6.676434650997953302e-02,6.837345959647984223e-03
7.620000000000000107e-01,-1.229389846060641167e-01,-9.260756677616967247e-02,-2.457140753788888098e-03
7.630000000000000115e-01,-1.069706318859017236e-01,-5.165888623211820074e-02,-3.364516745193561493e-03
7.640000000000000124e-01,-1.168137977252580312e-01,-6.386488307807068610e-02,-3.877865471210552306e-02
7.650000000000000133e-01,-1.168179024939206695e-01,-8.056939166309116593e-03,-9.186709200107735437e-03
7.660000000000000142e-01,-1.127603387268950874e-01,-5.958568544748407692e-02,-1.171543527706575549e-02
7.670000000000000151e-01,-1.582682211814048501e-01,-4.948668874635134274e-02,-3.873710124596752707e-02
7.680000000000000160e-01,-1.330856551325270976e-01,-3.465996073667463456e-02,-3.688880779315319852e-02
7.690000000000000169e-01,-9.698796930014057238e-02,-1.853752402547448330e-02,-4.869183924613037368e-02
7.700000000000000178e-01,-1.082308576614456896e-01,-2.782932619042041700e-02,-3.800195209320831463e-02
7.710000000000000187e-01,-1.341269546409003532e-01,-7.539825018840842514e-04,-4.408301084260934227e-02
7.720000000000000195e-01,-9.278324604221922789e-02,8.381158160855148309e-03,-6.702113501186869604e-02
7.730000000000000204e-01,-4.548623981984614012e-02,3.823330752987837838e-02,-7.970280118810994796e-02
7.740000000000000213e-01,-9.339493728003200879e-02,1.230486984458092382e-02,-7.156987218608974743e-02
7.750000000000000222e-01,-9.156155420166062209e-02,6.091768637710668483e-02,-5.868673072327505735e-02
7.760000000000000231e-01,-7.906679656563005143e-02,5.686244836541867742e-02,-5.963481984282160281e-02
7.770000000000000240e-01,-7.141412593397611364e-02,5.399879018559146371e-02,-5.115972384929937805e-02
7.780000000000000249e-01,-4.287103694038488927e-02,1.565805615038826787e-02,-5.978208434033235874e-02
7.790000000000000258e-01,-4.643383644806499400e-02,9.907653691341007651e-02,-7.748655869683584996e-02
7.800000000000000266e-01,-8.351166000146370560e-02,8.036637363798804223e-02,-7.694645943167810476e-02
7.810000000000000275e-01,-1.021832114722998237e-02,3.995186793941887110e-02,-9.843168613574669601e-02
7.820000000000000284e-01,-1.165561832937641977e-02,9.535595756982212512e-02,-8.738314970787003366e-02
7.830000000000000293e-01,1.885197253037860024e-02,8.346785305291425094e-02,-6.731953481349939317e-02
7.840000000000000302e-01,3.839322301009683719e-02,1.079550710742370884e-01,-6.024657948505668381e-02
7.850000000000000311e-01,-1.719381971230698157e-03,9.151970918223949203e-02,-7.690019669884565201e-02
7.860000000000000320e-01,5.018488030302845071e-02,7.012046554607320736e-02,-7.672918687958862893e-02
7.870000000000000329e-01,6.474362871098088279e-02,8.372720814949484447e-02,-5.848787180770689820e-02
7.880000000000000338e-01,6.419744477930668103e-02,9.177511762605834733e-02,-6.030028274976239472e-02
7.890000000000000346e-01,8.198614661146312599e-02,1.008298029751576175e-01,-6.184500876020759125e-02
7.900000000000000355e-01,1.050926513076083646e-01,1.153235333388975964e-01,-7.915059080687436230e-03
7.910000000000000364e-01,7.618254753055296591e-02,9.822671216008745099e-02,-2.356098003190679191e-02
7.920000000000000373e-01,1.009558629244196315e-01,9.469075884342502414e-02,1.112982782239651906e-02
7.930000000000000382e-01,1.159583647703696235e-01,8.801627492277921960e-02,2.985160068690556872e-03
7.940000000000000391e-01,1.119240891441125735e-01,9.253926137707074728e-02,-2.197990280486336601e-02
7.950000000000000400e-01,1.041532671857426234e-01,1.030618714904227573e-01,-3.286204991014197389e-03
7.960000000000000409e-01,1.224524660429562040e-01,6.719046946026811795e-02,7.968628266487687989e-03
7.970000000000000417e-01,1.194956749165161786e-01,3.476510273963712150e-02,4.118106742851872920e-02
7.980000000000000426e-01,1.565918871662898282e-01,5.274343473201021509e-02,2.144609875049668588e-02
7.990000000000000435e-01,1.431188288487006688e-01,1.268179962807161436e-02,6.070087201869918403e-02
8.000000000000000444e-01,1.411358299583566345e-01,1.609456937006458312e-03,4.133626232509556714e-02
8.010000000000000453e-01,1.205293361703135835e-01,4.771276110901447737e-02,3.142760105352661315e-02
8.020000000000000462e-01,1.236440978921570094e-01,4.341990568546976598e-02,5.029332681068930666e-02
8.030000000000000471e-01,1.205195734363978116e-01,-2.505215716650225494e-02,7.578248091569367295e-02
8.040000000000000480e-01,1.017971971109951357e-01,-1.495842014355703783e-02,9.279073270144012897e-02
8.050000000000000488e-01,1.135997484377909011e-01,-3.171152872255354749e-02,4.260414564224387912e-02
8.060000000000000497e-01,1.030083863353370432e-01,-4.287492034112094091e-02,3.391312509610641679e-02
8.070000000000000506e-01,1.124642703671712707e-01,-4.855327784926935508e-02,8.200357014339612616e-02
8.080000000000000515e-01,9.295041920404713276e-02,-6.133196908835448352e-02,7.652574596988333255e-02
8.090000000000000524e-01,5.187055176925680494e-02,-7.251919571211595805e-02,5.308287001031988805e-02
8.100000000000000533e-01,7.588856346061563507e-02,-3.871501368515519598e-02,5.288717524775418677e-02
8.110000000000000542e-01,2.601978651383387436e-02,-5.674183589284263751e-02,4.915957433926915893e-02
8.120000000000000551e-01,5.889056131573631309e-02,-5.326147026622778113e-02,4.609540804811296244e-02
8.129999999999999449e-01,1.738184631673917249e-02,-1.165309552518089958e-01,9.210447278859486275e-02
8.139999999999999458e-01,1.169741687922226095e-03,-9.135587358597191399e-02,8.105968116084297237e-02
8.149999999999999467e-01,-5.033079106334792732e-03,-1.242357790534929229e-01,6.320364443246184738e-02
8.159999999999999476e-01,-3.708842458530643704e-02,-8.379955190143040245e-02,1.054381644100918919e-01
8.169999999999999485e-01,-2.792720073377690307e-02,-1.211056768718009879e-01,5.549440051402567547e-02
8.179999999999999494e-01,-6.596904436095173130e-02,-1.068112520944976551e-01,5.016584052057218579e-02
8.189999999999999503e-01,-7.081805212050640286e-02,-1.498491904783503248e-01,4.646584980872531245e-02
8.199999999999999512e-01,-5.457209878908936967e-02,-9.868961004142629001e-02,7.346715380512629234e-02
8.209999999999999520e-01,-9.396227245511794279e-02,-1.130783854138758121e-01,2.729366766882938486e-02
8.219999999999999529e-01,-7.294237967812748635e-02,-1.002178738314964679e-01,2.116107510825024351e-02
8.229999999999999538e-01,-6.150693290788044471e-02,-8.145301222039814937e-02,9.891281575428252822e-04
8.239999999999999547e-01,-8.734812897768462481e-02,-6.756701384760760432e-02,-6.251678631250453264e-04
8.249999999999999556e-01,-1.020062904735518083e-01,-6.747900908721987667e-02,6.750637603853455390e-03
8.259999999999999565e-01,-1.510704578614093518e-01,-5.443802273659918700e-02,9.114362723424649163e-03
8.269999999999999574e-01,-1.406255447317820706e-01,-9.148619800110169287e-02,-2.244339756157226386e-03
8.279999999999999583e-01,-1.581584122251651070e-01,-5.467917889918645635e-02,5.402183579442575156e-03
8.289999999999999591e-01,-1.288199124752860969e-01,-3.823761429644168680e-02,-3.040487153421422145e-02
8.299999999999999600e-01,-1.705123874919814986e-01,-6.320840395587472293e-02,1.099456331414159181e-02
8.309999999999999609e-01,-1.441498849745152522e-01,-1.535749957569291883e-02,-2.413224459987145173e-02
8.319999999999999618e-01,-1.450379059289115535e-01,-3.186751198521198258e-02,-5.106678791517987870e-02
8.329999999999999627e-01,-1.070242869207025799e-01,2.612449067044584922e-03,-4.978176931835600477e-02
8.339999999999999636e-01,-1.252050052221543863e-01,-1.070596391478385867e-02,-5.476662773102019405e-02
8.349999999999999645e-01,-1.282102071614737160e-01,1.947560748181441370e-02,-8.043929453166050181e-02
8.359999999999999654e-01,-6.773913495085964742e-02,5.108141221183111480e-02,-4.603450648514607890e-02
8.369999999999999662e-01,-9.812255000395105065e-02,6.192554676054472240e-02,-4.160206583792552815e-02
8.379999999999999671e-01,-5.839318961214911424e-02,3.868980725668866305e-02,-7.845072558171833910e-02
8.389999999999999680e-01,-6.734128235149448860e-02,4.218471888433809880e-02,-9.279491428196967595e-02
8.399999999999999689e-01,-1.025874164579591158e-01,6.517843902787827381e-02,-6.138511651524786172e-02
8.409999999999999698e-01,-3.765391971998115206e-02,3.870518411192450103e-02,-6.879855537766900453e-02
8.419999999999999707e-01,-4.565946680575998923e-02,1.130951437209721105e-01,-6.236073593224352590e-02
8.429999999999999716e-01,-2.384155128946092647e-02,8.449738069309457866e-02,-9.580936407496760954e-02
8.439999999999999725e-01,-1.724607465249272664e-02,8.095766800729402302e-02,-8.898348329408226065e-02
8.449999999999999734e-01,4.235717390300254744e-03,8.748551533368663369e-02,-8.975542461640383107e-02
8.459999999999999742e-01,-1.785277924089846355e-03,1.140341218756066172e-01,-5.434812605345732545e-02
8.469999999999999751e-01,2.805677960877568655e-02,9.161969927949646653e-02,-5.131478385939440556e-02
8.479999999999999760e-01,2.709969290473784875e-02,1.081154424336802228e-01,-7.074251125646245641e-02
8.489999999999999769e-01,5.980958892471793797e-02,1.003291967169030879e-01,-6.331584920656793680e-02
8.499999999999999778e-01,6.407122730778451458e-02,1.174515903615277329e-01,-3.445500296612324237e-02
8.509999999999999787e-01,4.701109138341098836e-02,1.099273657474704319e-01,-5.413475652945318878e-02
8.519999999999999796e-01,6.338047753358772018e-02,1.137199241459555393e-01,-5.211770828176237602e-02
8.529999999999999805e-01,7.572249906750234960e-02,1.038602744390406674e-01,-3.400047603644514027e-02
8.539999999999999813e-01,8.106966149340198713e-02,9.288646512067581795e-02,-4.182195643374025246e-02
8.549999999999999822e-01,1.145715775756025456e-01,9.449052117835184117e-02,-8.609103821846673943e-03
8.559999999999999831e-01,1.081394709014912303e-01,7.110357692461122259e-02,-8.068169586549850392e-03
8.569999999999999840e-01,1.434264459478107878e-01,9.976295356932662894e-02,6.579268602805517403e-05
8.579999999999999849e-01,1.252318267161564858e-01,5.354856368542131040e-02,1.573122332170929366e-02
8.589999999999999858e-01,1.132262554029929702e-01,7.243964470581519544e-02,-6.365067526709246824e-03
8.599999999999999867e-01,1.399102847732218158e-01,5.200111125695110886e-02,3.515158812932188404e-02
8.609999999999999876e-01,1.252242200208963374e-01,3.765691434319609621e-02,-1.288803091389744554e-02
8.619999999999999885e-01,1.341113962610009924e-01,3.502893411675873231e-02,5.656322742769232664e-02
8.629999999999999893e-01,1.194512832441296107e-01,3.536629262850465860e-02,4.666691431688389791e-02
8.639999999999999902e-01,1.190683505869298831e-01,-7.347582015746490988e-03,5.275019880287747098e-02
8.649999999999999911e-01,1.056018987393788078e-01,3.101203050665241739e-02,7.368899943321188806e-02
8.659999999999999920e-01,1.485280644968479946e-01,6.363195832685351536e-03,6.871293794266374044e-02
8.669999999999999929e-01,1.389391184551261593e-01,-3.126661978641202128e-02,6.800655911949163301e-02
8.679999999999999938e-01,1.223289164958210329e-01,-5.210417038226851372e-02,8.436839011811748945e-02
8.689999999999999947e-01,1.012671831080530771e-01,-4.159635640382061683e-02,8.981074788597641356e-02
8.699999999999999956e-01,8.499355462117622051e-02,-9.339864721669785541e-02,5.202673555989025672e-02
8.709999999999999964e-01,5.954779966425818860e-02,-9.749015617646245024e-02,6.660757810651010691e-02
8.719999999999999973e-01,6.673484865298905111e-02,-4.937821563918264739e-02,5.782513012799956470e-02
8.729999999999999982e-01,5.158976528244312021e-02,-1.018075760772029076e-01,8.515159587963272436e-02
8.739999999999999991e-01,5.953034149317272539e-02,-8.405105547546982969e-02,3.620125277639080902e-02
8.750000000000000000e-01,1.642422324481629045e-02,-1.138640183988683108e-01,9.999875968937052551e-02
8.760000000000000009e-01,2.795605062205108737e-02,-8.525493440333414830e-02,6.345501684044008162e-02
8.770000000000000018e-01,1.216364624999358157e-02,-9.997871409371068829e-02,4.782678091257980268e-02
8.780000000000000027e-01,-1.919864484081838102e-02,-1.092860567265266786e-01,8.694422869808192400e-02
8.790000000000000036e-01,-4.368082857838577644e-03,-1.115451090562182279e-01,5.476380189468606913e-02
8.800000000000000044e-01,-9.952091878399623587e-03,-8.145574407179895227e-02,5.819943938171873860e-02
8.810000000000000053e-01,-3.927954548716003358e-02,-1.022368061972682152e-01,5.029546107093667284e-02
8.820000000000000062e-01,-3.993054352810977703e-02,-7.608712854494020794e-02,4.024139176990249034e-02
8.830000000000000071e-01,-9.088997063905830676e-02,-1.194581385936981932e-01,4.817323361094795475e-02
8.840000000000000080e-01,-7.956400230224738856e-02,-9.157448433673463783e-02,5.003586926807033347e-02
8.850000000000000089e-01,-1.073618204075411225e-01,-9.455326470340676137e-02,5.038574988955163425e-02
8.860000000000000098e-01,-1.027364669975153050e-01,-6.007807462103860463e-02,3.608169239023503727e-02
8.870000000000000107e-01,-1.022305542076961532e-01,-8.351441614893893861e-02,7.262140735759306520e-02
8.880000000000000115e-01,-7.133530440201213407e-02,-9.036294000817715610e-02,1.300653822929292470e-02
8.890000000000000124e-01,-1.033062175316952908e-01,-6.733503748552115142e-02,2.281078183482869101e-02
8.900000000000000133e-01,-1.046515743323603587e-01,-7.272464992549193541e-02,1.309759311535269033e-02
8.910000000000000142e-01,-1.237928511410451710e-01,-3.548513750788294396e-02,-6.210894652459234867e-03
8.920000000000000151e-01,-1.382810039537723246e-01,-2.183461943712385403e-02,-1.501377532373600159e-02
8.930000000000000160e-01,-1.442199738976103485e-01,-9.548726192250334144e-03,-3.776178066762961305e-02
8.940000000000000169e-01,-9.353800926928770854e-02,9.114291865660768821e-03,-2.317381451541854903e-02
8.950000000000000178e-01,-1.432780758823494482e-01,-6.379544243480545634e-03,-6.234174202211778537e-02
8.960000000000000187e-01,-1.183304852246618577e-01,-4.209684849857826469e-03,-6.445557677477074809e-02
8.970000000000000195e-01,-1.455721227049391331e-01,2.392524920804157962e-02,-7.337220038074383777e-02
8.980000000000000204e-01,-9.365925656099075014e-02,5.171405035250575474e-03,-2.651358252518949687e-02
8.990000000000000213e-01,-8.148552891034013812e-02,-4.023187382794212244e-03,-5.115638322890261186e-02
9.000000000000000222e-01,-9.544738370746908007e-02,5.722898909077121787e-02,-9.380062461121317641e-02
9.010000000000000231e-01,-7.598707423992631660e-02,2.922574927475992887e-02,-5.131927365869919100e-02
9.020000000000000240e-01,-7.308521464356781960e-02,4.459735270176735933e-02,-4.175888264363336599e-02
9.030000000000000249e-01,-5.917669658225957474e-02,4.519468145960696404e-02,-7.395135978744879490e-02
9.040000000000000258e-01,-6.464977856911544030e-02,4.479232325126608627e-02,-8.514368923741412465e-02
9.050000000000000266e-01,-5.410078048632869369e-02,1.163711063227066550e-01,-7.848440636029094253e-02
9.060000000000000275e-01,-2.829453667791091351e-02,9.320315842215587399e-02,-7.068175885713141871e-02
9.070000000000000284e-01,-1.374315619517518447e-02,9.044625813546131043e-02,-9.680105575499035886e-02
9.080000000000000293e-01,-1.137486400291194515e-02,9.644787289996831214e-02,-6.201183825060351679e-02
9.090000000000000302e-01,-3.551330138489123406e-02,1.054000504857857679e-01,-9.434091941249492241e-02
9.100000000000000311e-01,1.006948560811790974e-02,1.014899307746022633e-01,-8.624205782600434522e-02
9.110000000000000320e-01,1.767082645091800491e-02,1.022488314933562847e-01,-9.284769852272826973e-02
9.120000000000000329e-01,1.798529814003800575e-02,1.136492027217456402e-01,-1.088252991548676607e-01
9.130000000000000338e-01,4.108594105477448438e-02,1.143952501732831001e-01,-4.403283195290327162e-02
9.140000000000000346e-01,6.172044805466914835e-02,9.290014909348151551e-02,-7.782372306554177777e-02
9.150000000000000355e-01,9.057145598256224894e-02,1.078256276085264170e-01,-2.660931918515802713e-02
9.160000000000000364e-01,9.919825378634279656e-02,9.021872692830837370e-02,-3.306131132390678629e-02
9.170000000000000373e-01,8.736291621187967926e-02,1.011164794569569397e-01,-5.075491706718317925e-02
9.180000000000000382e-01,1.112890333281258276e-01,4.418985108048355259e-02,-3.096015023477088901e-02
9.190000000000000391e-01,1.043522275830082724e-01,6.761603804062249479e-02,-5.405843533225788283e-02
9.200000000000000400e-01,9.389752577580787185e-02,7.646864569073799633e-02,-1.705191311389532213e-02
9.210000000000000409e-01,1.067980427496770524e-01,5.283351112242284237e-02,6.423947638764581324e-03
9.220000000000000417e-01,1.472458091442720440e-01,7.274551185459436631e-02,1.488103494285557792e-02
9.230000000000000426e-01,1.683984328717270662e-01,4.938326727365184576e-02,1.472886341329987525e-02
9.240000000000000435e-01,1.486595602753340295e-01,5.711771404419386383e-02,2.582164147003317145e-02
9.250000000000000444e-01,1.115360137465680745e-01,3.239197992709881568e-02,7.995547533718077096e-03
9.260000000000000453e-01,1.276352294495969319e-01,1.868690771319360747e-02,4.358745972698924859e-02
9.270000000000000462e-01,1.594335884882492060e-01,-9.580188275855175406e-03,4.252379980866514281e-02
9.280000000000000471e-01,1.302322939626602838e-01,-2.116477067684223532e-03,4.911636943948555906e-02
9.290000000000000480e-01,9.274726492506997488e-02,-5.464607651046108315e-03,5.331339247862026259e-02
9.300000000000000488e-01,1.091363458216806082e-01,-2.514038117218063417e-02,8.859350069838399511e-02
9.310000000000000497e-01,1.196952941264103204e-01,-2.648472678294240198e-02,4.347031009974654248e-02
9.320000000000000506e-01,1.004144249802265687e-01,-4.720004987205767000e-02,8.653292812570867465e-02
9.330000000000000515e-01,7.139793115186629513e-02,-6.958642029209265167e-02,9.464870908029529573e-02
9.340000000000000524e-01,8.657495117318557420e-02,-7.106310916773020403e-02,8.904736120079090322e-02
9.350000000000000533e-01,7.523629882646516720e-02,-8.211842246165861059e-02,6.919270034408170345e-02
9.360000000000000542e-01,3.482744334438852424e-02,-5.453427626479529639e-02,7.873708465716595939e-02
9.370000000000000551e-01,4.150244545519417294e-02,-7.874484181629659574e-02,8.062060199907288005e-02
9.379999999999999449e-01,5.047214628122637797e-02,-5.919381690080841030e-02,5.467386052339681668e-02
9.389999999999999458e-01,5.077668978392093496e-03,-1.333620403979215718e-01,7.085063901420084187e-02
9.399999999999999467e-01,1.065505326897416482e-03,-1.086372204081073045e-01,6.291411602465310504e-02
9.409999999999999476e-01,-2.787265094076436800e-02,-1.127987738704805537e-01,5.570621654801340833e-02
9.419999999999999485e-01,-1.302759251385288662e-02,-8.167975382156207609e-02,1.010725232398698298e-01
9.429999999999999494e-01,-3.717278837785312207e-02,-1.038470412892004840e-01,5.206529783613488005e-02
9.439999999999999503e-01,-5.083671898107069292e-02,-1.009964313017231996e-01,1.006325620603101406e-01
9.449999999999999512e-01,-1.014609625287711814e-01,-7.798338234773805056e-02,1.364029545062122456e-02
9.459999999999999520e-01,-6.972255770761763560e-02,-8.969779383768529402e-02,7.213208312863654548e-02
9.469999999999999529e-01,-7.771626041144867603e-02,-8.855390624265641053e-02,7.539862931452082084e-02
9.479999999999999538e-01,-1.087550522307904055e-01,-6.650152394650908627e-02,2.781697426500355855e-02
9.489999999999999547e-01,-8.334939357494011714e-02,-7.238370524662340877e-02,4.477883793077477165e-02
9.499999999999999556e-01,-1.345333001660950489e-01,-8.047908434912588727e-02,3.513437218560527819e-02
9.509999999999999565e-01,-9.944502218768727642e-02,-7.279867184485000475e-02,-5.516045270910597577e-03
9.519999999999999574e-01,-9.386451729409396594e-02,-5.280349027140633644e-02,-1.462710703780257387e-02
9.529999999999999583e-01,-9.580786840497575174e-02,-4.554131671418639761e-03,4.118218754305489476e-02
9.539999999999999591e-01,-1.065290416620573027e-01,-3.034037888392602383e-02,-1.533932939688146396e-02
9.549999999999999600e-01,-1.294354643938391836e-01,-9.797206476917761503e-03,2.315609477633312832e-03
9.559999999999999609e-01,-1.119146346243425488e-01,-2.300161372440656226e-03,2.283219753861452823e-03
9.569999999999999618e-01,-1.112216860116003597e-01,-1.604941443058630068e-02,-2.173184616088965834e-02
9.579999999999999627e-01,-1.475720751927714347e-01,-4.131748991319006241e-03,-5.186563706687343650e-02
9.589999999999999636e-01,-1.111688119277671472e-01,-1.523727778722666105e-02,-7.390849550872979901e-02
9.599999999999999645e-01,-1.400234101251365271e-01,1.332724694925100511e-02,-3.947776652559045751e-02
9.609999999999999654e-01,-1.274209985524636102e-01,5.010615057692166530e-02,-1.972066318922788622e-02
9.619999999999999662e-01,-1.020281015307384631e-01,3.043212395100514805e-02,-5.218940906427303045e-02
9.629999999999999671e-01,-1.040309767980643618e-01,5.753272726503144002e-02,-1.009950774898503850e-01
9.639999999999999680e-01,-8.277317446823544145e-02,7.824555410619972451e-02,-6.773193103591562680e-02
9.649999999999999689e-01,-9.076792293763777386e-02,9.188572644238744702e-02,-6.655904370023495165e-02
9.659999999999999698e-01,-7.700960921929604630e-02,3.118194601587447393e-02,-8.513422561511808928e-02
9.669999999999999707e-01,-5.585993127210968356e-02,5.462973444706533538e-02,-8.236994455503598989e-02
9.679999999999999716e-01,-2.112562811412374217e-02,6.019390182865820560e-02,-7.260434048916203364e-02
9.689999999999999725e-01,-6.353246008717462756e-02,9.370060098528050496e-02,-4.690852794731907582e-02
9.699999999999999734e-01,-5.123454247082753071e-02,6.684526426073286731e-02,-5.671586721970551387e-02
9.709999999999999742e-01,-5.075056328871202505e-02,1.094453354308084769e-01,-7.480576760005255843e-02
9.719999999999999751e-01,1.406241721212517747e-02,1.205914738342993148e-01,-3.606921720091512545e-02
9.729999999999999760e-01,1.961086291428339179e-02,7.839823823520343515e-02,-1.760197328162619451e-02
9.739999999999999769e-01,5.439447666411210275e-02,8.966800888431500360e-02,-7.957348547042601694e-02
9.749999999999999778e-01,2.545852533942884882e-02,1.157181953738258412e-01,-8.362680161689223235e-02
9.759999999999999787e-01,7.662097823084508541e-02,9.404087345089982841e-02,-5.629450487680642823e-02
9.769999999999999796e-01,5.377531386802596874e-02,1.186231536191892366e-01,-8.034696432297090685e-02
9.779999999999999805e-01,6.236791808123423597e-02,1.300647387411825451e-01,-9.341259210201835472e-02
9.789999999999999813e-01,8.667786210720397622e-02,1.056528061908455773e-01,-5.269899140656662817e-02
9.799999999999999822e-01,7.535934256854111279e-02,7.423418653921540211e-02,-5.417041149564882918e-02
9.809999999999999831e-01,9.922276224594223093e-02,9.894233938961202734e-02,-3.677646150863339569e-02
9.819999999999999840e-01,1.154218176246904204e-01,6.682308930404157188e-02,-2.732675090437634152e-02
9.829999999999999849e-01,1.351223212325214085e-01,8.178679051482815043e-02,-2.539762185274161213e-02
9.839999999999999858e-01,1.140932056464684929e-01,7.581872985786164421e-02,-3.252847772834818740e-02
9.849999999999999867e-01,1.448205278774131466e-01,4.038926623861049947e-02,-4.354554351358612407e-03
9.859999999999999876e-01,1.159366852713458046e-01,3.433570123976149163e-02,1.842981987022498935e-03
9.869999999999999885e-01,1.247510697068340418e-01,8.057011719863272498e-03,-2.616358929076516293e-03
9.879999999999999893e-01,1.221583397971558738e-01,2.302106515910452844e-02,-8.555233056032134423e-03
9.889999999999999902e-01,1.267975358115298601e-01,1.012842846456243548e-02,2.392442574555812135e-02
9.899999999999999911e-01,1.174891399779739998e-01,-4.215909178657813693e-03,2.965984808996815700e-02
9.909999999999999920e-01,1.116817082401411060e-01,-3.146136882669163352e-03,6.626709893891154224e-02
9.919999999999999929e-01,1.307877350389472226e-01,-3.086513968047097448e-02,4.227190241465298565e-02
9.929999999999999938e-01,1.367233658715303612e-01,-3.981202208743485349e-02,4.963716529319969067e-02
9.939999999999999947e-01,1.390246489588623235e-01,-3.877996487399780479e-02,4.810409618697259609e-02
9.949999999999999956e-01,1.036658088658083260e-01,-6.768900241362428571e-02,2.262583431297112563e-02
9.959999999999999964e-01,1.001190891637801367e-01,-4.663515182159515271e-02,1.062586976626239965e-01
9.969999999999999973e-01,7.456934377408513948e-02,-5.796833120003722778e-02,7.491415038967405571e-02
9.979999999999999982e-01,1.950215847491101884e-02,-6.285257188426944530e-02,4.319859379684121148e-02
9.989999999999999991e-01,5.819789105745612479e-02,-7.317680838240439578e-02,1.109760073086586835e-01
1.000000000000000000e+00,3.816056459212500973e-02,-8.041899617320451277e-02,7.083732990444061017e-02
1.000999999999999890e+00,1.764167398304709172e-02,-9.525842305927516296e-02,7.608450164161206786e-02
1.002000000000000002e+00,3.612646064854228151e-02,-8.126793465542229977e-02,6.753904572430713404e-02
1.002999999999999892e+00,-1.440480930142987517e-02,-1.050679624156969499e-01,9.448045881810300528e-02
1.004000000000000004e+00,7.791951370206460191e-03,-1.144336002482694847e-01,7.616167736298122548e-02
1.004999999999999893e+00,-2.404294984065849863e-02,-9.990022336002273018e-02,4.964485421737418330e-02
1.006000000000000005e+00,-5.874765446803208169e-02,-1.082505074443109727e-01,7.420651296397080821e-02
1.006999999999999895e+00,-4.530983163026092858e-02,-1.086160528829832189e-01,5.540173629857940429e-02
1.008000000000000007e+00,-4.564036027776725152e-02,-1.168199273337451605e-01,5.598413971592220567e-02
1.008999999999999897e+00,-7.470988279451873382e-02,-1.089167133215767913e-01,2.839038801037675058e-02
1.010000000000000009e+00,-8.608661597023258005e-02,-8.876601128403542595e-02,4.840302341829431226e-02
1.010999999999999899e+00,-7.580053377428352945e-02,-1.049935730958125313e-01,7.683412289761570868e-02
1.012000000000000011e+00,-9.005756302482996467e-02,-6.461260934618155705e-02,6.498812626499526901e-02
1.012999999999999901e+00,-9.867094664227200884e-02,-6.031450737604943102e-02,1.514419205674525856e-02
1.014000000000000012e+00,-1.205403192212454039e-01,-7.208442291018415937e-02,2.694403759876974960e-02
1.014999999999999902e+00,-1.073271032701256095e-01,-3.254975579140528125e-02,-9.162404755931639194e-03
1.016000000000000014e+00,-8.881446846322557653e-02,-2.852715955039120815e-02,4.818012601445333110e-02
1.016999999999999904e+00,-1.422020118955300283e-01,-3.135109522427106249e-02,-1.171790111542302462e-02
1.018000000000000016e+00,-1.138947294172162200e-01,5.274060533214299656e-03,3.209382406128596238e-03
1.018999999999999906e+00,-1.267476758751996113e-01,-2.600918965900757274e-02,-1.833018465664205260e-02
1.020000000000000018e+00,-1.136187261278774063e-01,-9.746229015965364798e-03,-3.573462960539287164e-02
1.020999999999999908e+00,-1.325717522028492523e-01,-1.303877355917022404e-02,-2.263073337673243007e-02
1.022000000000000020e+00,-1.056879733666553356e-01,-2.218809296914740076e-02,-5.785897548710134536e-02
1.022999999999999909e+00,-1.103498572198053362e-01,2.614174001754501764e-02,-5.964325519905685352e-02
1.024000000000000021e+00,-1.285514760546335455e-01,3.867232593432284177e-02,-3.424548421080093191e-02
1.024999999999999911e+00,-1.114860922753775491e-01,5.097501641426985947e-02,-7.870316962736396971e-02
1.026000000000000023e+00,-6.243308513302850415e-02,6.645867150274255286e-02,-6.049080129662365302e-02
1.026999999999999913e+00,-7.478575084226996017e-02,6.236734079192065433e-02,-5.721434279362488939e-02
1.028000000000000025e+00,-8.892348873502796403e-02,8.181041573537070621e-02,-9.694339575854438174e-02
1.028999999999999915e+00,-7.414493247320910752e-02,8.278494292344611150e-02,-1.106748700510580968e-01
1.030000000000000027e+00,-9.157294797989121160e-02,1.073376048137301420e-01,-8.787768534465820180e-02
1.030999999999999917e+00,-3.245845432224955807e-02,8.331321494043499032e-02,-7.419037970682053340e-02
1.032000000000000028e+00,-2.990529229227780958e-02,5.117472957476388445e-02,-8.350225990422208144e-02
1.032999999999999918e+00,-3.497792207565821043e-02,8.942768186229302363e-02,-5.759920022724390049e-02
1.034000000000000030e+00,1.204791290119798866e-02,8.761137702858635967e-02,-6.558681538904827246e-02
1.034999999999999920e+00,-8.587215971994413815e-04,8.181225926646910895e-02,-7.813774488431116105e-02
1.036000000000000032e+00,-3.551791126667341002e-03,8.882909478129587255e-02,-9.389735405372795496e-02
1.036999999999999922e+00,4.102659055296341978e-02,9.685910973415798320e-02,-7.410631938292998322e-02
1.038000000000000034e+00,4.757288566151150061e-02,1.193530656698578579e-01,-7.567102462207728197e-02
1.038999999999999924e+00,6.786142650574258917e-02,6.356972045601663734e-02,-4.724997976559918572e-02
1.040000000000000036e+00,7.635258943702731560e-02,8.943884479178876301e-02,-7.310820478940620315e-02
1.040999999999999925e+00,8.197412049110831822e-02,1.150253893949442219e-01,-6.774419882880024224e-02
1.042000000000000037e+00,6.511481874776695045e-02,8.298976617861027194e-02,-6.980591089861394594e-02
1.042999999999999927e+00,6.816118097650797347e-02,4.285365882184523356e-02,-3.753125770787834464e-02
1.044000000000000039e+00,1.018646886095459642e-01,6.651430791806388354e-02,-4.639443051275729535e-02
1.044999999999999929e+00,1.144714756664515776e-01,8.769420955923662442e-02,-2.085682429092230658e-02
1.046000000000000041e+00,1.129137032243068550e-01,7.619359355644757248e-02,-3.134818668136767766e-02
1.046999999999999931e+00,1.261084570858639065e-01,5.425487719258442754e-02,-1.493865572175143456e-03
1.048000000000000043e+00,1.151875443760676521e-01,3.011801035553308623e-02,-3.340143451785561324e-02
1.048999999999999932e+00,1.524419058785137782e-01,4.767374239998600771e-02,-1.738607773129514228e-02
1.050000000000000044e+00,1.179812067816624760e-01,1.200862064088175328e-02,3.084274576961114692e-02
1.050999999999999934e+00,1.328878758715791586e-01,3.563707196597055982e-02,-3.714675355871195758e-04
1.052000000000000046e+00,1.309360079425603562e-01,6.690743778011773793e-03,-6.771970639451178192e-03
1.052999999999999936e+00,1.465760248183478331e-01,-7.523373412666788627e-03,4.660846942686978911e-02
1.054000000000000048e+00,1.146564237053789292e-01,-3.796015437436155854e-02,2.142781961390687398e-02
1.054999999999999938e+00,1.391671854123447960e-01,-2.215560778568839359e-02,3.634609883993571156e-02
1.056000000000000050e+00,1.186366534361653624e-01,-2.433001720645991406e-02,3.515750774976336007e-02
1.056999999999999940e+00,9.164386699657363355e-02,-2.690984351075741479e-02,4.720881019517240984e-02
1.058000000000000052e+00,6.905208065070096712e-02,-6.199961576731449070e-02,4.309111846892613867e-02
1.058999999999999941e+00,6.694245976700657907e-02,-5.227081218083428488e-02,3.903527104047063712e-02
1.060000000000000053e+00,1.027507347421937056e-01,-8.180012867649395780e-02,6.377419283213303647e-02
1.060999999999999943e+00,7.234826606951705319e-02,-8.947957111055440671e-02,1.049751370445147630e-01
1.062000000000000055e+00,4.859852930688221551e-02,-9.985352342359470057e-02,7.209257048420072977e-02
1.062999999999999945e+00,6.566114472265120738e-02,-8.377071474118609473e-02,7.239632810881335701e-02
1.064000000000000057e+00,5.350629701686958339e-02,-8.513813961871041780e-02,8.010899638041452109e-02
1.064999999999999947e+00,-1.223320840949355080e-02,-6.255142693973901602e-02,8.375347808942157357e-02
1.066000000000000059e+00,-1.681242676107364649e-03,-1.033954076220917201e-01,1.060483338198291853e-01
1.066999999999999948e+00,9.781248031589239236e-03,-8.029998701565937980e-02,4.606003046890241870e-02
1.068000000000000060e+00,-1.251242722228610750e-02,-8.207274824258001256e-02,8.306925585728840156e-02
1.068999999999999950e+00,-2.603508990047146907e-02,-1.217910811896921602e-01,6.681182868410305564e-02
1.070000000000000062e+00,-6.256307684029735472e-02,-7.641368691719038764e-02,3.466220078424406270e-02
1.070999999999999952e+00,-4.480438081675600093e-02,-1.197902654521914301e-01,6.630754436453824285e-02
1.072000000000000064e+00,-6.344104576898329517e-02,-8.621255547592936164e-02,6.160956374112056683e-02
1.072999999999999954e+00,-3.787488139639461765e-02,-1.016425897729865552e-01,7.246680190105656005e-02
1.074000000000000066e+00,-1.275897845414830367e-01,-8.571160161498159180e-02,6.710998481815960703e-02
1.074999999999999956e+00,-8.826567101591996367e-02,-8.757797001954446825e-02,3.890526720785743298e-02
1.076000000000000068e+00,-1.000530246788746275e-01,-7.276878506489573017e-02,2.416075197641839520e-02
1.076999999999999957e+00,-1.293096979602270102e-01,-6.329491174556040045e-02,4.003562109557388948e-02
1.078000000000000069e+00,-1.234645381342027171e-01,-5.488311712901946388e-02,3.950574599959107147e-02
1.078999999999999959e+00,-1.367617142289219712e-01,-3.318784373320617098e-02,3.187347271593629627e-02
1.080000000000000071e+00,-1.594688718155118923e-01,-7.833386789263066530e-02,-1.084630783461518720e-02
1.080999999999999961e+00,-1.154057419448737271e-01,-3.035438997015893828e-02,1.048954655288998443e-02
1.082000000000000073e+00,-1.413148321503843730e-01,-7.352162985896333949e-03,1.837004702928735772e-02
1.082999999999999963e+00,-1.241816397911928854e-01,-1.563901479341927442e-02,1.741083545403802673e-03
1.084000000000000075e+00,-1.091627721589421146e-01,5.617072323611396051e-02,-4.708573698712626571e-02
1.084999999999999964e+00,-1.527467701251030152e-01,7.447383370970027394e-03,-3.489972234692424041e-02
1.086000000000000076e+00,-1.103021702371663332e-01,1.653638702575276065e-02,-5.507430474913500157e-02
1.086999999999999966e+00,-1.271809617897035338e-01,6.247263616056467073e-02,-4.000532150414509019e-02
1.088000000000000078e+00,-1.304847074474898561e-01,5.140125884477533824e-02,-3.788315489377524353e-02
1.088999999999999968e+00,-1.125602306759006660e-01,1.070658837878718517e-01,-1.062119327768091051e-02
1.090000000000000080e+00,-8.466412584719558432e-02,7.719163022300201682e-02,-7.529298923394302234e-02
1.090999999999999970e+00,-6.972740708797271758e-02,7.930222527133710952e-02,-4.910965841834512291e-02
1.092000000000000082e+00,-7.434318309084268772e-02,7.065473481889632257e-02,-7.596650320579548255e-02
1.092999999999999972e+00,-3.761248707346164649e-02,6.526598202631568590e-02,-5.874941766444901486e-02
1.094000000000000083e+00,-6.342671671262392619e-02,8.103308393105720930e-02,-9.784867162409589814e-02
1.094999999999999973e+00,-1.505772100801137069e-02,1.074688569566477486e-01,-6.881849032678577505e-02
1.096000000000000085e+00,-6.620032853565986641e-02,1.046086043226441553e-01,-7.673062492987792194e-02
1.096999999999999975e+00,1.174061671391758883e-02,8.965524244552877664e-02,-5.026078926397376662e-02
1.098000000000000087e+00,-2.933139638814033761e-03,7.468318107325719324e-02,-7.292136438993424008e-02
1.098999999999999977e+00,3.314621103703427329e-02,1.156950053615650731e-01,-9.071024276793772378e-02
1.100000000000000089e+00,2.427919996001896147e-02,9.429994843897311629e-02,-1.207933307720726185e-01
1.100999999999999979e+00,4.620010335456000566e-02,8.723644315949508066e-02,-3.698325950501731019e-02
1.102000000000000091e+00,5.271917919683929282e-02,9.103429155362507963e-02,-4.590936848861896374e-02
1.102999999999999980e+00,5.087755735714231259e-02,9.514286017526982220e-02,-6.488945345588995051e-02
1.104000000000000092e+00,5.443619442254704621e-02,7.788730797761850289e-02,-9.091921637860095329e-02
1.104999999999999982e+00,1.044813278362167336e-01,5.927081147200593397e-02,-5.756324515016346399e-02
1.106000000000000094e+00,1.176453991339893729e-01,7.142790220353797959e-02,-1.966821189662083802e-02
1.106999999999999984e+00,6.460193251367661593e-02,7.028409509272415256e-02,-5.450850414340835393e-02
1.108000000000000096e+00,1.131822047863339786e-01,6.246550815802875273e-02,-4.210199603525321965e-02
1.108999999999999986e+00,1.238423067771696889e-01,4.268642966588313131e-02,-2.661484342132226788e-02
1.110000000000000098e+00,1.094431992456318670e-01,1.795080875206334775e-02,-2.294373348178506411e-02
1.110999999999999988e+00,1.125945934445106988e-01,6.910908679125936371e-02,-1.119000859647908616e-02
1.112000000000000099e+00,1.284023500683112717e-01,4.219950518126447392e-02,-1.247360495389073648e-02
1.112999999999999989e+00,1.406591498169998955e-01,3.038952674184234801e-02,2.293719666667251578e-02
1.114000000000000101e+00,1.047212346010669981e-01,-1.931996055213217045e-02,-1.414908045699567705e-02
1.114999999999999991e+00,1.081332765398709123e-01,-7.046180279410415789e-03,-1.495826010122601642e-02
1.116000000000000103e+00,1.264984883883724653e-01,3.348154345970273671e-02,4.480573574152065669e-02
1.116999999999999993e+00,1.051825157843172681e-01,-3.023105107765790625e-02,2.309613652548621332e-02
1.118000000000000105e+00,1.394663024064066170e-01,-4.954628647321616258e-02,3.235114731628029039e-02
1.118999999999999995e+00,1.101932697365290703e-01,-1.412744796384682658e-02,5.005021104632251250e-02
1.120000000000000107e+00,1.233086086867680869e-01,-2.643177237160599519e-02,6.849104020488097633e-02
1.120999999999999996e+00,1.097308383163340811e-01,-1.470579060100520377e-02,6.890464135213995867e-02
1.122000000000000108e+00,9.645360039379992367e-02,-8.709707780049988357e-02,5.470120420294865421e-02
1.122999999999999998e+00,8.079799329655429352e-02,-6.329487562129004763e-02,6.416539770267948306e-02
1.124000000000000110e+00,5.536368407544206560e-02,-8.215620066932022292e-02,8.458826984814747652e-02
1.125000000000000000e+00,9.001737751979313473e-02,-7.498118043237068930e-02,7.036014840512097579e-02
1.125999999999999890e+00,5.045912365839351488e-02,-8.838029662536460440e-02,6.262641876187081957e-02
1.127000000000000002e+00,1.575202871629202694e-02,-1.287343935141130047e-01,9.545949066074667366e-02
1.127999999999999892e+00,1.496566753221592258e-02,-1.034703454438117981e-01,6.805306755991898104e-02
1.129000000000000004e+00,3.433949134217621768e-02,-1.268341038629501871e-01,8.013974684064797960e-02
1.129999999999999893e+00,-2.222939844252303648e-02,-9.588340422584061551e-02,8.561310873204132366e-02
1.131000000000000005e+00,5.459431680569676835e-03,-1.250597850365275099e-01,9.565712156544828315e-02
1.131999999999999895e+00,-2.895760213016360107e-02,-1.079686142171989716e-01,6.866334165460302730e-02
1.133000000000000007e+00,-5.045837155820426245e-02,-7.732923427282789586e-02,3.734501319733794095e-02
1.133999999999999897e+00,-9.731626357771092084e-02,-8.726574096238066958e-02,5.427950187227611328e-02
1.135000000000000009e+00,-7.604038872471692578e-02,-1.143155699501024469e-01,6.715908344822781040e-02
1.135999999999999899e+00,-6.250054210717931324e-02,-1.021848038000287007e-01,6.617521772214121634e-02
1.137000000000000011e+00,-7.301824177223208145e-02,-8.037555693002618185e-02,4.765389425115253152e-02
1.137999999999999901e+00,-1.272275686149386686e-01,-9.042725224765860159e-02,6.851040335976532614e-02
1.139000000000000012e+00,-1.208506909561253284e-01,-7.729569272410240222e-02,6.779704914520266745e-02
1.139999999999999902e+00,-1.399948514790912146e-01,-5.758603158484003337e-02,4.344435682771728008e-02
1.141000000000000014e+00,-1.009455257637724007e-01,-7.821681427157742283e-02,-2.711923380773102049e-03
1.141999999999999904e+00,-9.859438818559111695e-02,-2.572802666360953644e-02,3.444356439452883611e-02
1.143000000000000016e+00,-7.766767230589295690e-02,-5.614278204472368181e-03,1.029098287086230648e-02
1.143999999999999906e+00,-1.128006879584883826e-01,-1.877188020968397278e-02,-9.601935915945065264e-03
1.145000000000000018e+00,-1.507952641906848412e-01,-1.100791031127617593e-02,-6.839148438855378008e-03
1.145999999999999908e+00,-1.522968458533450198e-01,-2.631361900786519450e-02,1.455875107084139523e-02
1.147000000000000020e+00,-1.463443469121683271e-01,-1.820858621133908395e-02,8.773135241180453694e-03
1.147999999999999909e+00,-1.435607294773545983e-01,1.316383331998531928e-03,-2.274162865088965452e-02
1.149000000000000021e+00,-1.134914463591949751e-01,2.972684305688625545e-02,-2.236504555694600327e-02
1.149999999999999911e+00,-1.214646105221246775e-01,2.420199289037422430e-02,-3.735499862369295876e-02
1.151000000000000023e+00,-9.072788801172172735e-02,6.005690693109070472e-02,-5.590908992155728396e-02
1.151999999999999913e+00,-1.003798624481407747e-01,5.327355199238431593e-02,-3.342261464846191243e-02
1.153000000000000025e+00,-8.190975851429029009e-02,9.436208416362429352e-02,-2.802468603431378102e-02
1.153999999999999915e+00,-8.000971803473463928e-02,6.865426725798826069e-02,-6.507358623023325184e-02
1.155000000000000027e+00,-7.650582130182111140e-02,9.195852453180186625e-02,-9.086026946450513619e-02
1.155999999999999917e+00,-8.782774504794381432e-02,9.736242259095342910e-02,-9.992380486978318099e-02
1.157000000000000028e+00,-5.094943195584788337e-02,1.114239665196089385e-01,-3.046775546586003719e-02
1.157999999999999918e+00,-7.156761402339854861e-02,1.086372225387137597e-01,-6.152785837289241611e-02
1.159000000000000030e+00,-1.504812951555679727e-02,8.985475751745472528e-02,-3.262510524713695820e-02
1.159999999999999920e+00,-3.006166879989255469e-02,7.364558645826828343e-02,-6.129473860760040888e-02
1.161000000000000032e+00,1.363568044565787070e-02,9.901916914122674274e-02,-7.810968265623959017e-02
1.161999999999999922e+00,2.711406643100992830e-02,6.750535909086662067e-02,-7.789300461947229470e-02
1.163000000000000034e+00,4.028632540871721415e-03,8.292741636396788740e-02,-7.678960727990483126e-02
1.163999999999999924e+00,3.701880430239587461e-02,6.903028032331870456e-02,-5.020856646782190236e-02
1.165000000000000036e+00,2.913906578744721032e-02,9.558902114749869006e-02,-6.506431982588843643e-02
1.165999999999999925e+00,1.647313526297996059e-02,1.052379130736091906e-01,-4.042438164089216801e-02
1.167000000000000037e+00,5.091649042926164187e-02,6.935153559914243593e-02,-4.416760039168919627e-02
1.167999999999999927e+00,7.088138285332226673e-02,8.174356594836637568e-02,-4.743820798722278576e-02
1.169000000000000039e+00,8.160956664207175137e-02,6.103551812995064441e-02,-4.459785675614825334e-02
1.169999999999999929e+00,1.160165092177177226e-01,5.752851912161764669e-02,-4.296751678562045484e-02
1.171000000000000041e+00,1.087256236778803981e-01,2.728988462904091694e-02,-5.626189710623736434e-02
1.171999999999999931e+00,9.764929907278124821e-02,4.485064848267449750e-02,-5.322301898636701278e-02
1.173000000000000043e+00,1.259376455549573726e-01,1.728594306210295972e-02,-2.243440404142898331e-02
1.173999999999999932e+00,1.089776922470391540e-01,4.433966189724197066e-02,-5.016390387400428141e-02
1.175000000000000044e+00,9.421793427144005417e-02,5.308865225687791484e-02,-1.932039974947853678e-02
1.175999999999999934e+00,1.397881311553364481e-01,-1.127134555006286190e-02,-3.080086986416132044e-02
1.177000000000000046e+00,1.485408485913065901e-01,-1.825757710033778722e-02,-1.815277000975047683e-02
1.177999999999999936e+00,1.443123157250075783e-01,-1.464146793762947235e-02,-1.779889917968519725e-02
1.179000000000000048e+00,1.548870501663539567e-01,-1.885118977645482488e-02,-2.025098616562239547e-03
1.179999999999999938e+00,9.338702381785934925e-02,-1.173655947678719190e-02,1.140984175607978948e-02
