time,acc_x,acc_y,acc_z
0.000000000000000000e+00,-3.361232590081107419e-01,-2.356280081855261499e-01,-1.785946835551383005e-01
1.000000000000000021e-03,-1.968438319872858333e-01,-3.797987751425662556e-02,-1.768806366229989657e-01
2.000000000000000042e-03,8.804912375063016217e-02,1.805228382257150210e-01,-6.717005232149249327e-02
3.000000000000000062e-03,3.058972944290989648e-01,2.632490386117281034e-01,1.247128303104119290e-01
4.000000000000000083e-03,2.846937537333251167e-01,1.527997654866677935e-01,1.896511185621750084e-01
5.000000000000000104e-03,7.119219218403452509e-02,-8.859926144974680784e-02,1.027607157531595095e-01
6.000000000000000125e-03,-2.173180486393412048e-01,-2.515044277620220314e-01,-2.920982767592831403e-02
7.000000000000000146e-03,-3.170196130688524572e-01,-2.282981316824059526e-01,-1.848532780757791982e-01
8.000000000000000167e-03,-1.874578922317129970e-01,-1.694540928075926808e-02,-1.677925443897253233e-01
8.999999999999999320e-03,8.553212298702878025e-02,1.845416461334108138e-01,-5.133771795699753476e-02
1.000000000000000021e-02,2.991919492827603833e-01,2.436746895354267306e-01,1.089205282622000975e-01
1.099999999999999936e-02,2.725217587994458457e-01,1.054278728999888254e-01,1.751237151903103084e-01
1.200000000000000025e-02,4.018434036202778864e-02,-1.102901242481023614e-01,1.062560295199604515e-01
1.299999999999999940e-02,-2.244831072055385179e-01,-2.399527774212503461e-01,-3.501020015032834526e-02
1.400000000000000029e-02,-3.049827579722437232e-01,-1.747350605463862672e-01,-1.676246801738904280e-01
1.499999999999999944e-02,-1.624027026484758662e-01,2.019453134091277885e-02,-1.925982840310405675e-01
1.600000000000000033e-02,1.225944925477742281e-01,1.888881778941066403e-01,-2.641229938693960555e-02
1.700000000000000122e-02,3.107389495885433117e-01,2.275671610007025669e-01,1.208442936361334430e-01
1.799999999999999864e-02,2.592583183578808237e-01,8.159733979250748115e-02,1.856585492750204014e-01
1.899999999999999953e-02,-3.383374206184652008e-03,-1.720345797777143027e-01,1.151683197523417496e-01
2.000000000000000042e-02,-2.441531748175170269e-01,-2.678896335735803658e-01,-4.420283128200147571e-02
2.100000000000000130e-02,-3.075027757431106346e-01,-1.409213190178661701e-01,-1.755910583861139684e-01
2.199999999999999872e-02,-1.140247100537055275e-01,7.450359114663727966e-02,-1.669371186440583577e-01
2.299999999999999961e-02,1.470931713496453630e-01,2.347771313622004918e-01,-4.212941317034885752e-02
2.400000000000000050e-02,3.180997819835752471e-01,2.145915423526799926e-01,1.215206093830154682e-01
2.500000000000000139e-02,2.350570312340979351e-01,3.154957640233107402e-02,2.090418904586041626e-01
2.599999999999999881e-02,-2.399596685143566555e-02,-1.607365139865608861e-01,1.071677944039499952e-01
2.699999999999999969e-02,-2.469437504717993392e-01,-2.584794306612133719e-01,-5.921161972822364117e-02
2.800000000000000058e-02,-2.767065188027688638e-01,-1.277452293223762247e-01,-1.485501000622639900e-01
2.900000000000000147e-02,-1.010973961883453315e-01,1.113161117660577126e-01,-1.638328627701056972e-01
2.999999999999999889e-02,1.770636191366201373e-01,2.564084142130476085e-01,-1.785060172463757630e-02
3.099999999999999978e-02,3.179193712717432452e-01,2.063563366903302387e-01,1.229472694264010235e-01
3.200000000000000067e-02,2.061164610204913872e-01,-2.476744614385315360e-02,2.018898118642583062e-01
3.300000000000000155e-02,-5.682042531200584556e-02,-2.130659082269232840e-01,9.794444468660319647e-02
3.400000000000000244e-02,-2.727020840819865399e-01,-2.255069485756215908e-01,-5.594890396348232986e-02
3.500000000000000333e-02,-2.973093056085354124e-01,-8.477596045626081822e-02,-1.743756195475024418e-01
3.599999999999999728e-02,-8.435389671611367990e-02,1.251851441122785458e-01,-1.710101366747673879e-01
3.699999999999999817e-02,1.769521966673464342e-01,2.573454576805020433e-01,-2.976984537723736945e-02
3.799999999999999906e-02,3.168356106498801950e-01,1.749841292038401830e-01,1.299059540832211979e-01
3.899999999999999994e-02,1.793115840083537860e-01,-3.815989396961207147e-02,1.903299203306643705e-01
4.000000000000000083e-02,-1.020205727519660349e-01,-2.563913159508568462e-01,9.107237930988945629e-02
4.100000000000000172e-02,-3.160092076074397793e-01,-2.215854253416232322e-01,-6.308076680388040314e-02
4.200000000000000261e-02,-2.673993796107337340e-01,-3.838333981075380680e-02,-1.743699268628297605e-01
4.299999999999999656e-02,-3.628471254923010952e-02,1.592808439973654455e-01,-1.605582144070429873e-01
4.399999999999999745e-02,2.267653527077962416e-01,2.497284435104998590e-01,-1.982568845277067962e-02
4.499999999999999833e-02,3.034726188810702441e-01,1.549955655921054221e-01,1.440158270022961484e-01
4.599999999999999922e-02,1.705859096928926399e-01,-8.365209690292925437e-02,1.906591527282333887e-01
4.700000000000000011e-02,-1.156907067381077459e-01,-2.377607642441357805e-01,9.607722530565539210e-02
4.800000000000000100e-02,-3.106707453967963994e-01,-2.164611648917203757e-01,-8.722779453357694390e-02
4.900000000000000189e-02,-2.570561532441298924e-01,-1.673800498559574121e-02,-1.779845065620787592e-01
5.000000000000000278e-02,-1.550997593602150906e-02,2.238110452596678568e-01,-1.542204995344490237e-01
5.099999999999999672e-02,2.519699319377601276e-01,2.458259907145015077e-01,-3.087524387440465472e-03
5.199999999999999761e-02,3.048485139178050418e-01,1.002557198718162790e-01,1.322092127040016274e-01
5.299999999999999850e-02,1.232695090358916362e-01,-1.264224652706846252e-01,1.744435669860367466e-01
5.399999999999999939e-02,-1.599881415093932224e-01,-2.611798800800620990e-01,8.601689406570828256e-02
5.500000000000000028e-02,-3.143306111868717778e-01,-1.840107751915868450e-01,-7.716785330157702183e-02
5.600000000000000117e-02,-2.226832962239064240e-01,2.727209906057152800e-02,-1.965066484411380487e-01
5.700000000000000205e-02,8.209607858303952926e-03,2.245647062174395414e-01,-1.319432969646673059e-01
5.800000000000000294e-02,2.690345660350002555e-01,2.235264318576159481e-01,-1.108838892745207111e-02
5.899999999999999689e-02,3.035255843925395713e-01,7.517071157388795222e-02,1.439736827702950417e-01
5.999999999999999778e-02,1.133104352012843236e-01,-1.571445577686614581e-01,2.006004609776699255e-01
6.099999999999999867e-02,-1.783610318212481283e-01,-2.681637076343940662e-01,8.374510468981066769e-02
6.199999999999999956e-02,-3.105192226120879195e-01,-1.773730244461420857e-01,-6.812342738389648433e-02
6.300000000000000044e-02,-2.331222235440169044e-01,7.514563988218904422e-02,-1.877382722570382079e-01
6.400000000000000133e-02,6.115458810142372637e-02,2.380695970598429856e-01,-1.629308536542135311e-01
6.500000000000000222e-02,2.791877553302789527e-01,2.104183516889782113e-01,-2.468079599659580778e-02
6.600000000000000311e-02,3.006686547406738907e-01,2.802041243876303780e-02,1.640186336067639694e-01
6.700000000000000400e-02,9.139385032886965243e-02,-1.836730804552241525e-01,1.710612105620885337e-01
6.800000000000000488e-02,-1.965464915209363672e-01,-2.483668278862415091e-01,8.546106378292610273e-02
6.900000000000000577e-02,-3.156515896498934270e-01,-1.292504359701604766e-01,-9.990968351146981008e-02
7.000000000000000666e-02,-1.964953903954879399e-01,1.194171042562062052e-01,-1.981846448652357928e-01
7.099999999999999367e-02,7.562614346652206387e-02,2.705465751091347681e-01,-1.592187430555946082e-01
7.199999999999999456e-02,2.795992993724416564e-01,1.891283265877667374e-01,4.028077873331569847e-04
7.299999999999999545e-02,2.725616830193318130e-01,-4.512222163159260169e-03,1.653094185864058818e-01
7.399999999999999634e-02,6.849539601391631261e-02,-2.304220299607310785e-01,1.824971844197425253e-01
7.499999999999999722e-02,-2.193190540178174552e-01,-2.579338253169211614e-01,7.527310844110027266e-02
7.599999999999999811e-02,-3.239037020763855246e-01,-3.959663445726453040e-02,-8.383495394875704887e-02
7.699999999999999900e-02,-1.920043105761981839e-01,1.544358562615085195e-01,-1.887407041714707634e-01
7.799999999999999989e-02,1.279989453332709415e-01,2.572086034907901664e-01,-1.499584766729626928e-01
7.900000000000000078e-02,3.003398929581008181e-01,1.555638043235693102e-01,2.462121731203728223e-02
8.000000000000000167e-02,2.615426626652352926e-01,-7.269947952389095580e-02,1.520554150127512161e-01
8.100000000000000255e-02,7.293641907002384669e-03,-2.304224689623089184e-01,1.826096990377316653e-01
8.200000000000000344e-02,-2.272287740014735102e-01,-2.320089737218099801e-01,7.466992013481686674e-02
8.300000000000000433e-02,-3.037760907971817637e-01,-3.999900093976249682e-02,-8.398608635065174521e-02
8.400000000000000522e-02,-1.404645167432752861e-01,1.686853049134498239e-01,-2.063969140166851401e-01
8.500000000000000611e-02,1.441238834844500993e-01,2.454596143911635386e-01,-1.500322224717134112e-01
8.599999999999999312e-02,3.106006744366996974e-01,1.262616625786872060e-01,1.552263045619625822e-03
8.699999999999999400e-02,2.488595684200993752e-01,-9.198854475633627681e-02,1.596495061445849240e-01
8.799999999999999489e-02,-2.795315451360515235e-02,-2.589077492007260672e-01,1.784957440361997771e-01
8.899999999999999578e-02,-2.439169149278377358e-01,-2.021309836935459014e-01,6.672624217748772402e-02
8.999999999999999667e-02,-3.121302184008905023e-01,2.992509934379325616e-03,-1.122298417019794853e-01
9.099999999999999756e-02,-1.329109157624787374e-01,1.962316289810744074e-01,-1.792720221607437547e-01
9.199999999999999845e-02,1.551346128134709346e-01,2.324708709207060353e-01,-1.471281453878084400e-01
9.299999999999999933e-02,2.948251639260240364e-01,9.546659093386421213e-02,3.779475627417385603e-02
9.400000000000000022e-02,2.160513057980053830e-01,-1.384749681393573073e-01,1.660621409163711149e-01
9.500000000000000111e-02,-2.287579432622968006e-02,-2.673692504682202986e-01,1.955820240518838515e-01
9.600000000000000200e-02,-2.838909305065818178e-01,-1.778019503193724871e-01,5.522834501128703194e-02
9.700000000000000289e-02,-3.149267367883905044e-01,3.474827046156357679e-02,-1.118201567430350957e-01
9.800000000000000377e-02,-8.845308325047895881e-02,2.185303312917453167e-01,-2.046455634848824978e-01
9.900000000000000466e-02,1.943137975987478117e-01,2.508816136953281317e-01,-1.281758577407407229e-01
1.000000000000000056e-01,3.214281387085666797e-01,5.450799656003459809e-02,2.850150740431894869e-02
1.010000000000000064e-01,1.980998083641453689e-01,-1.512065275532363251e-01,1.693149356462569921e-01
1.019999999999999934e-01,-8.277872614232630044e-02,-2.517856833503139269e-01,1.943648118900135890e-01
1.029999999999999943e-01,-3.187133725345697721e-01,-1.311225358209254510e-01,3.106946590817692005e-02
1.039999999999999952e-01,-2.871259365826377419e-01,7.969556770979135951e-02,-1.161407436736311694e-01
1.049999999999999961e-01,-5.130601049848137335e-02,2.218495645334005728e-01,-2.132362424517965926e-01
1.059999999999999970e-01,2.272769847878026994e-01,2.040590110221904563e-01,-1.104421718975177602e-01
1.069999999999999979e-01,3.230340972383329290e-01,3.314587243591159138e-02,3.450093245795815555e-02
1.079999999999999988e-01,1.813371816096209510e-01,-1.964314389708895214e-01,1.662184534405859726e-01
1.089999999999999997e-01,-1.048825075890744557e-01,-2.515096839759063951e-01,1.921520719472031569e-01
1.100000000000000006e-01,-3.088478472295446142e-01,-1.208812666733862368e-01,4.548715949194913344e-02
1.110000000000000014e-01,-2.669824793025812326e-01,1.368990997620020411e-01,-1.029186632164645065e-01
1.120000000000000023e-01,-3.103012378534885859e-02,2.599470574807465906e-01,-1.888344944760357025e-01
1.130000000000000032e-01,2.301955554789204272e-01,1.876647071720786430e-01,-1.245503554070255675e-01
1.140000000000000041e-01,3.157739567082548660e-01,-2.846192761645320243e-02,2.555289272119917049e-02
1.150000000000000050e-01,1.547018378275433204e-01,-2.157702028356563440e-01,1.654627760357034738e-01
1.160000000000000059e-01,-1.284659313160838312e-01,-2.501500709029976233e-01,1.645807949258212555e-01
1.170000000000000068e-01,-3.294793990271820960e-01,-6.964329382701185678e-02,5.321720619803271130e-02
1.179999999999999938e-01,-2.457117661567497779e-01,1.379672756246577980e-01,-1.047326093244380502e-01
1.189999999999999947e-01,4.780835416709701240e-03,2.493716828837058141e-01,-1.963647898353809429e-01
1.199999999999999956e-01,2.435873661843085680e-01,1.628902884661112827e-01,-1.274752091255522690e-01
1.209999999999999964e-01,3.176069019479421662e-01,-6.621338250922609303e-02,6.881654772018018507e-02
1.219999999999999973e-01,1.285282515506874501e-01,-2.428652835048981662e-01,1.520583071325809499e-01
1.229999999999999982e-01,-1.465865232949722652e-01,-2.284219645191911674e-01,1.564061731380606279e-01
1.239999999999999991e-01,-3.117981502802530946e-01,-3.951635767859604936e-02,4.157753046444713496e-02
1.250000000000000000e-01,-2.344449706841239822e-01,1.541607874294803338e-01,-1.208421231650573663e-01
1.260000000000000009e-01,2.368754975680248051e-02,2.550534609978259981e-01,-2.161740308329341276e-01
1.270000000000000018e-01,2.755521032939259873e-01,1.290824506611059352e-01,-1.193420093217516936e-01
1.280000000000000027e-01,2.937628101220169374e-01,-9.903715183047573367e-02,4.065759052923376138e-02
1.290000000000000036e-01,1.067815439175784503e-01,-2.339946189268919952e-01,1.672700523981836551e-01
1.300000000000000044e-01,-1.815502675563514245e-01,-1.993836148949587883e-01,1.732997964809592228e-01
1.310000000000000053e-01,-3.147554478443360670e-01,1.061975213630818662e-02,2.895781883526296965e-02
1.320000000000000062e-01,-2.090101438234031606e-01,2.050537382605856773e-01,-1.362441261390763825e-01
1.330000000000000071e-01,5.143871899510387563e-02,2.500962337909173328e-01,-1.969265401411343652e-01
1.340000000000000080e-01,2.815464029941975310e-01,7.899349434356239819e-02,-1.150055548837025654e-01
1.350000000000000089e-01,2.947643815513858456e-01,-1.399050412111864372e-01,6.596421234266290623e-02
1.360000000000000098e-01,6.365235112260601846e-02,-2.515114767965596076e-01,1.712956137030015313e-01
1.370000000000000107e-01,-2.020062312728959641e-01,-1.619782783920267200e-01,1.629633085545964533e-01
1.380000000000000115e-01,-3.167800999978649390e-01,4.509554718869793200e-02,2.584383033619336995e-02
1.390000000000000124e-01,-1.975067560969995251e-01,2.455648782524982587e-01,-1.354095733047515349e-01
1.400000000000000133e-01,8.566131468995714926e-02,2.458713520415891640e-01,-1.960947840365221406e-01
1.409999999999999865e-01,2.987942096839338313e-01,4.519538443426747432e-02,-9.590841745906251992e-02
1.419999999999999873e-01,2.858436491562972859e-01,-1.669292228346633267e-01,6.805257517722673732e-02
1.429999999999999882e-01,4.038526477048421520e-02,-2.634665810876184455e-01,1.719330551428935594e-01
1.439999999999999891e-01,-2.338938880680764276e-01,-1.419253020965485501e-01,1.682307667283995944e-01
1.449999999999999900e-01,-3.112617755073985304e-01,7.519146183831790231e-02,1.797297436900311546e-02
1.459999999999999909e-01,-1.851332938890610791e-01,2.506637079700542170e-01,-1.398936424798626066e-01
1.469999999999999918e-01,1.077529220421056672e-01,2.031825079159456926e-01,-1.937229111082138799e-01
1.479999999999999927e-01,3.169249285536245297e-01,8.661062565754933107e-03,-9.358898260441557426e-02
1.489999999999999936e-01,2.538853427555262665e-01,-2.109234742764474480e-01,7.928621597490484452e-02
1.499999999999999944e-01,6.307307998311697042e-03,-2.414502645247562085e-01,2.017543887388187351e-01
1.509999999999999953e-01,-2.416165894871226683e-01,-1.107637512037150662e-01,1.508333618540761145e-01
1.519999999999999962e-01,-3.264403068075753533e-01,1.319790445239767129e-01,1.025018894050708403e-02
1.529999999999999971e-01,-1.263952718888899651e-01,2.582802083509492252e-01,-1.522121239270196047e-01
1.539999999999999980e-01,1.439579171986856976e-01,1.902608712503557897e-01,-2.017850566426315773e-01
1.549999999999999989e-01,2.952127821343973890e-01,-2.803732458245484019e-02,-1.151230287828480664e-01
1.559999999999999998e-01,2.413744231829346720e-01,-2.295056642701464589e-01,5.621762403384414353e-02
1.570000000000000007e-01,-2.180910186725007124e-02,-2.420908348328615622e-01,1.673867423495854490e-01
1.580000000000000016e-01,-2.602833957924079455e-01,-6.831532619841482190e-02,1.431916274928348443e-01
1.590000000000000024e-01,-3.178354459790749265e-01,1.304954295955600141e-01,5.830741886511513032e-03
1.600000000000000033e-01,-9.925479577640927698e-02,2.737594867463973292e-01,-1.472411438370379022e-01
1.610000000000000042e-01,1.624826397313560433e-01,1.689710805143651018e-01,-1.941934591424320233e-01
1.620000000000000051e-01,3.216362193448501494e-01,-5.941949335236886010e-02,-8.199403639576732794e-02
1.630000000000000060e-01,2.093422705132828854e-01,-2.301473675031401600e-01,5.906942935076105183e-02
1.640000000000000069e-01,-5.327877941881090096e-02,-2.213832478212504340e-01,1.709705995599264949e-01
1.650000000000000078e-01,-2.779054120878813317e-01,-2.660740005941228045e-02,1.612615201574883750e-01
1.660000000000000087e-01,-2.888259294437509062e-01,1.894598036624071946e-01,-1.328815826164917759e-02
1.670000000000000095e-01,-6.811466940588065122e-02,2.296454622619883701e-01,-1.481936532524454897e-01
1.680000000000000104e-01,1.859588240605832277e-01,1.236998980595472447e-01,-1.776971172993168091e-01
1.690000000000000113e-01,3.226943210831057507e-01,-9.076786932368531569e-02,-8.133493833370430970e-02
1.700000000000000122e-01,2.036423835508886504e-01,-2.538254422593404502e-01,8.755362807959614357e-02
1.710000000000000131e-01,-8.113755774545174104e-02,-2.246616977582751307e-01,1.716685305095352887e-01
1.719999999999999862e-01,-2.937228513785264394e-01,2.033977281756508410e-02,1.464335146198285642e-01
1.729999999999999871e-01,-2.784323752100034688e-01,2.187650302723364582e-01,1.366521195531921265e-02
1.739999999999999880e-01,-6.588738627535174752e-02,2.471470750331241917e-01,-1.356271965814495051e-01
1.749999999999999889e-01,2.213202793760641884e-01,7.638456735543949772e-02,-1.845477371834503000e-01
1.759999999999999898e-01,3.150303199022467804e-01,-1.473508770971941884e-01,-7.360751731504396045e-02
1.769999999999999907e-01,1.935773686062491061e-01,-2.467794716000189792e-01,9.213969107710999473e-02
1.779999999999999916e-01,-1.013246249143705535e-01,-1.703675201373263948e-01,1.832025802087874911e-01
1.789999999999999925e-01,-3.067730087595172961e-01,4.859088992281946490e-02,1.424211675938370503e-01
1.799999999999999933e-01,-2.630846955433872036e-01,2.287318039201012287e-01,1.507042885347592912e-02
1.809999999999999942e-01,-4.971154965572940204e-02,2.392011958017899731e-01,-1.495262043223439530e-01
1.819999999999999951e-01,2.372658605088260320e-01,5.741351695463219745e-02,-1.838061506313773408e-01
1.829999999999999960e-01,3.172183300193321398e-01,-1.821850649244247944e-01,-7.380599294283705925e-02
1.839999999999999969e-01,1.553874850494127713e-01,-2.578680862481150804e-01,7.577503429555805525e-02
1.849999999999999978e-01,-1.316557332672332326e-01,-1.401795504050664110e-01,1.930677842266417255e-01
1.859999999999999987e-01,-3.085612788886459845e-01,1.123732314872802063e-01,1.160990185129549546e-01
1.869999999999999996e-01,-2.522809744707950608e-01,2.595903527030023472e-01,-1.566013075900673027e-02
1.880000000000000004e-01,1.726600764020680065e-02,1.867357595879954035e-01,-1.609127154023393402e-01
1.890000000000000013e-01,2.618785240201467746e-01,7.757225753428055592e-03,-1.794523891991287035e-01
1.900000000000000022e-01,3.160201476240531160e-01,-1.909525930355747692e-01,-7.335988293799257376e-02
1.910000000000000031e-01,1.165745181696089400e-01,-2.561566400836794433e-01,1.061257428485208182e-01
1.920000000000000040e-01,-1.480741386701912854e-01,-9.440348126519824967e-02,1.881099798680532786e-01
1.930000000000000049e-01,-3.186939386990310652e-01,1.478895211621643335e-01,1.257953609719231480e-01
1.940000000000000058e-01,-2.231895883047395612e-01,2.448310229235732549e-01,-3.847031491993675029e-02
1.950000000000000067e-01,4.480747790404911862e-02,1.912315190919765540e-01,-1.668633595319047036e-01
1.960000000000000075e-01,2.782172201531482036e-01,-4.484397136015167568e-02,-1.595251618401577753e-01
1.970000000000000084e-01,3.012550845444605940e-01,-2.135890157338999062e-01,-6.702838943862052257e-02
1.980000000000000093e-01,8.271095716713781909e-02,-2.440781568209472729e-01,1.046900429304555291e-01
1.990000000000000102e-01,-1.788857511196062233e-01,-7.793125253209885750e-02,1.850124324409000987e-01
2.000000000000000111e-01,-3.030580655568891335e-01,1.746466655493520981e-01,1.178001777515532006e-01
2.010000000000000120e-01,-2.102577859250166215e-01,2.610124426952070698e-01,-2.685192828793107542e-02
2.020000000000000129e-01,6.123869694097601457e-02,1.504478017087728658e-01,-1.631957836837689135e-01
2.030000000000000138e-01,2.902298740304271596e-01,-5.498736990358712301e-02,-2.065852951799698467e-01
2.039999999999999869e-01,2.763810233888697176e-01,-2.395989780728020879e-01,-5.996667447077767832e-02
2.049999999999999878e-01,6.069709468300353572e-02,-2.248371803471691244e-01,1.064563577760956475e-01
2.059999999999999887e-01,-2.058192568372459452e-01,-3.033967130893030356e-02,2.098060517294726701e-01
2.069999999999999896e-01,-3.154609827108399434e-01,1.982043275434995089e-01,1.166308898244464570e-01
2.079999999999999905e-01,-1.813392231001143273e-01,2.356504423039191831e-01,-2.885470539846646948e-02
2.089999999999999913e-01,8.744407790986047369e-02,1.268426770328748288e-01,-1.638457823253123835e-01
2.099999999999999922e-01,2.976408847778916344e-01,-1.184989210692761058e-01,-1.858466815804254713e-01
2.109999999999999931e-01,2.737226098246579031e-01,-2.570829836742478114e-01,-6.972096671973085358e-02
2.119999999999999940e-01,3.512516770819846396e-02,-1.603108761817924610e-01,1.081902216894522067e-01
2.129999999999999949e-01,-2.419098185987296756e-01,2.281858958515961544e-02,1.904352400975372617e-01
2.139999999999999958e-01,-3.050504414291063116e-01,2.191402971275324130e-01,1.252699547386269541e-01
2.149999999999999967e-01,-1.486671432574797891e-01,2.389276430568997300e-01,-2.912227609420652008e-02
2.159999999999999976e-01,1.069458317236434974e-01,7.460639135055543991e-02,-1.645446509154018799e-01
2.169999999999999984e-01,3.045546490482339275e-01,-1.515581371666573363e-01,-1.657440511869603395e-01
2.179999999999999993e-01,2.447537831285351018e-01,-2.522154192693085717e-01,-4.959823674122382925e-02
2.190000000000000002e-01,1.256124993965372638e-02,-1.691683482610401301e-01,1.371878932254191608e-01
2.200000000000000011e-01,-2.417861126210383016e-01,7.476121168478422341e-02,1.898841854881662128e-01
2.210000000000000020e-01,-3.155202550976272668e-01,2.260260920567149778e-01,1.259590274331177651e-01
2.220000000000000029e-01,-1.008250355222217176e-01,2.173318900688368527e-01,-6.180197507121999029e-02
2.230000000000000038e-01,1.435727739173605355e-01,5.132567788487304300e-02,-1.693997682051265330e-01
2.240000000000000047e-01,3.200393431835777402e-01,-1.693594372043569218e-01,-1.669172887834872443e-01
2.250000000000000056e-01,2.308405518605271267e-01,-2.450841461552959455e-01,-4.624889013484984046e-02
2.260000000000000064e-01,-3.155258594711867620e-02,-1.291018066168458656e-01,1.184267061586937453e-01
2.270000000000000073e-01,-2.589403503870451595e-01,8.565801847318946227e-02,1.874285186409019033e-01
2.280000000000000082e-01,-3.207496896245302098e-01,2.400454624795806124e-01,1.449644596207996516e-01
2.290000000000000091e-01,-1.091049716811431508e-01,1.950442058758768415e-01,-4.455112963881010385e-02
2.300000000000000100e-01,1.932123285900281817e-01,2.940543612261068340e-04,-1.732947559911045265e-01
2.310000000000000109e-01,3.114886770533817351e-01,-1.926745714182816760e-01,-1.794220521026426707e-01
2.320000000000000118e-01,2.205098577747766353e-01,-2.615230806241234385e-01,-2.103741670415813086e-02
2.330000000000000127e-01,-4.867389986545451325e-02,-1.000156726595508305e-01,1.207018810437201078e-01
2.340000000000000135e-01,-2.920945275329598911e-01,1.329501475743822547e-01,1.832334529229929510e-01
2.349999999999999867e-01,-3.096748456365868152e-01,2.773181457225751267e-01,1.076893319241619268e-01
2.359999999999999876e-01,-7.184854651176583729e-02,1.844614967960140350e-01,-7.194066523143247127e-02
2.369999999999999885e-01,2.069866960914346909e-01,-5.905469239356119643e-02,-1.875617448420930367e-01
2.379999999999999893e-01,3.275403708027686545e-01,-2.293420377626957385e-01,-1.741109593213164275e-01
2.389999999999999902e-01,2.103521198496641487e-01,-2.330114787257811237e-01,-3.144286403998137330e-02
2.399999999999999911e-01,-7.169152240030939038e-02,-4.313970970087810386e-02,1.271979480339017476e-01
2.409999999999999920e-01,-2.984793366247324720e-01,1.740577649114414260e-01,1.827525466764347850e-01
2.419999999999999929e-01,-2.754764865556162956e-01,2.516267503252767601e-01,1.038729702491232310e-01
2.429999999999999938e-01,-4.127769047060591417e-02,1.307409622341450250e-01,-7.256642998456140636e-02
2.439999999999999947e-01,2.270450197105236545e-01,-7.582817233108821164e-02,-1.880990332059178372e-01
2.449999999999999956e-01,3.315097143494631360e-01,-2.423205263925811426e-01,-1.692038450127761606e-01
2.459999999999999964e-01,1.643795566849466649e-01,-2.247442698821153495e-01,-2.864447144824594504e-02
2.469999999999999973e-01,-1.218429138769521469e-01,-2.044114818259945565e-02,1.119495776026204759e-01
2.479999999999999982e-01,-2.821452957594824951e-01,1.907296874628421346e-01,1.858091078091841097e-01
2.489999999999999991e-01,-2.454431220630793054e-01,2.629753743972451652e-01,1.238736531667003343e-01
2.500000000000000000e-01,-2.929365409080145893e-02,1.197539042779587892e-01,-5.988393398085126856e-02
2.510000000000000009e-01,2.559161847731055150e-01,-1.097563735168221866e-01,-1.682891473643270130e-01
2.520000000000000018e-01,3.179756082140265949e-01,-2.575909139686121674e-01,-1.594053998252113469e-01
2.530000000000000027e-01,1.411247690398641508e-01,-1.757364024202641983e-01,-3.239454100691779165e-02
2.540000000000000036e-01,-1.262379852824136728e-01,5.216106736744391056e-03,1.385457590526366634e-01
2.550000000000000044e-01,-3.252327842143289960e-01,1.975640163497239810e-01,1.897936502880731846e-01
2.560000000000000053e-01,-2.349390832423022546e-01,2.486979844178446031e-01,9.482887223945397903e-02
2.570000000000000062e-01,1.054752402450929299e-02,6.786019549474733847e-02,-7.507500373081113509e-02
2.580000000000000071e-01,2.719420064134953074e-01,-1.710565615086666880e-01,-1.825818451991090552e-01
2.590000000000000080e-01,3.178242796806607373e-01,-2.544984597049966268e-01,-1.637401768381512579e-01
2.600000000000000089e-01,1.217702328131648470e-01,-1.667650328964223327e-01,-6.644989224707853470e-03
2.610000000000000098e-01,-1.587002779548693510e-01,5.042148363160577768e-02,1.476898135785964516e-01
2.620000000000000107e-01,-3.314190593749361535e-01,2.440962368556565398e-01,2.121254254560639430e-01
2.630000000000000115e-01,-2.309799542879033274e-01,2.200637728008673633e-01,1.043783350367654683e-01
2.640000000000000124e-01,5.795708194236300070e-02,2.258634229095649384e-02,-7.479849862366633184e-02
2.650000000000000133e-01,2.868899513642220178e-01,-1.786419448937647259e-01,-1.882088213894391460e-01
2.660000000000000142e-01,2.676797160485085980e-01,-2.312184790499468567e-01,-1.672802620158728715e-01
2.670000000000000151e-01,9.144327658432048478e-02,-1.313521176317979655e-01,-1.614461297521000219e-02
2.680000000000000160e-01,-1.804008972295788049e-01,9.872780544476740527e-02,1.515607429486336422e-01
2.690000000000000169e-01,-3.087195002724629211e-01,2.407989754956985085e-01,2.000333464307586795e-01
2.700000000000000178e-01,-2.178580976337858022e-01,2.040229046329504192e-01,9.647474079807351333e-02
2.710000000000000187e-01,7.079083469900195047e-02,-1.415273782415508996e-02,-7.277661707924021339e-02
2.720000000000000195e-01,2.934444040623706007e-01,-2.041015514229514161e-01,-1.760952942148130973e-01
2.730000000000000204e-01,2.893175754846646908e-01,-2.430087893909327890e-01,-1.577681311988726187e-01
2.740000000000000213e-01,5.281835028220078360e-02,-8.070227510365904355e-02,-1.241678830987634832e-02
2.750000000000000222e-01,-2.137689626750120808e-01,1.409486262225680131e-01,1.433169795267406621e-01
2.760000000000000231e-01,-3.199949575657909384e-01,2.562947865492469779e-01,1.690652617624958109e-01
2.770000000000000240e-01,-1.719215895676304839e-01,1.751407475389372415e-01,8.085088996142508755e-02
2.780000000000000249e-01,9.766142191506978210e-02,-5.609144740124031442e-02,-9.024557488233031499e-02
2.790000000000000258e-01,3.263504415132407743e-01,-2.294674371996386630e-01,-1.848401727807629791e-01
2.800000000000000266e-01,2.688363464957483351e-01,-2.227041846222880817e-01,-1.468500035944715343e-01
2.810000000000000275e-01,3.266671641932701597e-02,-5.075499238482380354e-02,-3.640181274897151629e-03
2.819999999999999729e-01,-2.497782308350797453e-01,1.719467681920471280e-01,1.482720413207044841e-01
2.829999999999999738e-01,-3.116299949257513857e-01,2.519752259729253763e-01,1.768931196383335958e-01
2.839999999999999747e-01,-1.580735334220255972e-01,1.493305549468142146e-01,7.103421396434780877e-02
2.849999999999999756e-01,1.288482524922420214e-01,-1.129514084374884098e-01,-8.680315696566461015e-02
2.859999999999999765e-01,2.947496067248936424e-01,-2.447699162717734134e-01,-1.995608498490042682e-01
2.869999999999999774e-01,2.473034034678507909e-01,-2.129567943083495452e-01,-1.469792783691106774e-01
2.879999999999999782e-01,-1.608345461753895797e-02,-4.646067006607760598e-03,1.762376591775535110e-04
2.889999999999999791e-01,-2.409654385352070771e-01,1.881312302189148133e-01,1.608274678413122993e-01
2.899999999999999800e-01,-3.022905764945231222e-01,2.520406379535759522e-01,1.811820797818264328e-01
2.909999999999999809e-01,-1.116500152667705276e-01,1.087793446500305850e-01,6.597508322592783581e-02
2.919999999999999818e-01,1.643485233364693765e-01,-1.236521790658154790e-01,-8.542973106146282969e-02
2.929999999999999827e-01,3.374656877969791080e-01,-2.298982715387923870e-01,-2.003850431570065593e-01
2.939999999999999836e-01,2.361533709259474312e-01,-1.843647178565751277e-01,-1.441522088226332710e-01
2.949999999999999845e-01,-2.548487669947694170e-02,2.944833858191621759e-02,2.543564738409739151e-02
2.959999999999999853e-01,-2.815280199473415568e-01,2.028588647854853710e-01,1.658848982497550528e-01
2.969999999999999862e-01,-3.038383314717830186e-01,2.421356714710093117e-01,1.727438045856616311e-01
2.979999999999999871e-01,-9.318311237780782519e-02,6.046512509729447260e-02,7.398380425395952031e-02
2.989999999999999880e-01,1.898226262963882971e-01,-1.494112357872872665e-01,-9.232820267715151352e-02
2.999999999999999889e-01,3.087168683484655118e-01,-2.461328216519993173e-01,-2.124846712004134497e-01
3.009999999999999898e-01,2.181020953685084973e-01,-1.765069963543874909e-01,-1.238216392701823321e-01
3.019999999999999907e-01,-5.183919288209502124e-02,7.075822091786884704e-02,2.320064620371735734e-02
3.029999999999999916e-01,-2.851873312485203038e-01,2.375192768783368213e-01,1.818151994382498637e-01
3.039999999999999925e-01,-2.966131666237737385e-01,2.121826833926598321e-01,1.871192323498735988e-01
3.049999999999999933e-01,-7.318798396749115476e-02,8.185279033770025137e-03,6.403412740597207164e-02
3.059999999999999942e-01,2.221442053836122088e-01,-1.737174276889094371e-01,-9.881952215865168199e-02
3.069999999999999951e-01,3.301765902309154455e-01,-2.396634709680200703e-01,-2.153822469365764825e-01
3.079999999999999960e-01,2.063486116060304909e-01,-1.070934926144534172e-01,-1.378824859116430934e-01
3.089999999999999969e-01,-8.102086677212648469e-02,8.799701304333956697e-02,3.179199687715367900e-02
3.099999999999999978e-01,-3.114452773292913368e-01,2.604872012078057186e-01,1.927201571397091917e-01
3.109999999999999987e-01,-2.761296887644794085e-01,1.947007609822913876e-01,1.699715950946772136e-01
3.119999999999999996e-01,-3.573639936492763874e-02,3.193361580000622212e-03,4.981521237237795247e-02
3.130000000000000004e-01,2.078252392447497710e-01,-2.189407100124533545e-01,-1.267973726706844995e-01
3.140000000000000013e-01,3.155244073025502693e-01,-2.401324305375857338e-01,-1.789439777775030382e-01
3.150000000000000022e-01,1.673348422314716866e-01,-9.519535211955997001e-02,-1.331382853911723674e-01
3.160000000000000031e-01,-1.040030456613252746e-01,1.316580147767885955e-01,1.809268768584666731e-02
3.170000000000000040e-01,-2.895295510510670911e-01,2.605953076966788795e-01,1.602508459709805766e-01
3.180000000000000049e-01,-2.616489060884117368e-01,1.842741147464494467e-01,1.614128389087597093e-01
3.190000000000000058e-01,-1.086090038440780392e-02,-5.095107369201323094e-02,5.948404802219603438e-02
3.200000000000000067e-01,2.555613702579362378e-01,-2.227289304777939072e-01,-1.237330849697488716e-01
3.210000000000000075e-01,3.146655615933317551e-01,-2.332541906122838904e-01,-2.038710677744925703e-01
3.220000000000000084e-01,1.367729765971058553e-01,-4.059319208932466588e-02,-1.308313176694885782e-01
3.230000000000000093e-01,-1.676171159116388865e-01,1.771208310378107054e-01,3.641649118575285976e-02
3.240000000000000102e-01,-3.072429475798275078e-01,2.508835505547395428e-01,1.639750318108716132e-01
3.250000000000000111e-01,-2.187529850024063360e-01,1.306616627939466424e-01,1.754145422058030757e-01
3.260000000000000120e-01,1.977867029309087962e-02,-7.681488587429358139e-02,4.893259678246015404e-02
3.270000000000000129e-01,2.571703802124295501e-01,-2.353088448777388153e-01,-1.076106376014958066e-01
3.280000000000000138e-01,3.061608716626984528e-01,-2.020825986592836576e-01,-1.937926653593896320e-01
3.290000000000000147e-01,1.071156580162551109e-01,-1.295567226433468749e-02,-1.176007979643764051e-01
3.300000000000000155e-01,-1.821474030766946084e-01,2.178275391409073281e-01,3.018557040902294583e-02
3.310000000000000164e-01,-3.212772031537866613e-01,2.562065567920635556e-01,2.034740992664888781e-01
3.320000000000000173e-01,-2.299779688287576784e-01,9.415679281090039154e-02,1.718697331041157406e-01
3.330000000000000182e-01,5.877363852504631503e-02,-1.230345592007545952e-01,3.592990391920088816e-02
3.340000000000000191e-01,2.991923830435342380e-01,-2.707715441365610709e-01,-1.118857369681681424e-01
3.350000000000000200e-01,2.855558077865221200e-01,-1.679395199067900413e-01,-1.963186815374509675e-01
3.360000000000000209e-01,8.151040278522683757e-02,3.821211220210224413e-02,-1.104931830312999436e-01
3.370000000000000218e-01,-1.922355854441580858e-01,2.357038909067673271e-01,4.710420447028648705e-02
3.380000000000000226e-01,-2.993380683416317911e-01,2.356381759883551807e-01,1.672968043239452529e-01
3.390000000000000235e-01,-2.042245483570509501e-01,4.088527507850496512e-02,1.618692100816390145e-01
3.400000000000000244e-01,7.634528057744333074e-02,-1.596888029150669852e-01,3.581588498999606351e-02
3.410000000000000253e-01,2.948514286401171525e-01,-2.769734547254004697e-01,-1.352935636876999026e-01
3.420000000000000262e-01,2.776106327960523035e-01,-1.514896928717656133e-01,-1.905738463781971870e-01
3.430000000000000271e-01,4.231483484085451358e-02,7.732141258509661608e-02,-1.194741135318529712e-01
3.439999999999999725e-01,-2.177091975177910255e-01,2.500823751272139295e-01,4.965616907144226183e-02
3.449999999999999734e-01,-3.249191556526705993e-01,2.010461366372160996e-01,1.583045934295569945e-01
3.459999999999999742e-01,-1.795794769125044210e-01,6.733481135042612871e-03,1.797940307118335024e-01
3.469999999999999751e-01,9.559685459152454656e-02,-1.868667430169311527e-01,1.745341607104309786e-02
3.479999999999999760e-01,2.927814021735821171e-01,-2.411930698236667003e-01,-1.405954510227052090e-01
3.489999999999999769e-01,2.759989943846930527e-01,-1.121479101698378417e-01,-1.855871430182986226e-01
3.499999999999999778e-01,1.358652610371900368e-02,1.143341403079765617e-01,-1.155713137510543387e-01
3.509999999999999787e-01,-2.485327971497199029e-01,2.594527546335141932e-01,6.136749674674521482e-02
3.519999999999999796e-01,-3.120709749520060305e-01,1.770015342498496291e-01,1.665828710640768207e-01
3.529999999999999805e-01,-1.319453623978707468e-01,-2.224199697404769666e-02,1.600942656784524742e-01
3.539999999999999813e-01,1.613751691576338909e-01,-2.237195661442344663e-01,1.158653820595736614e-02
3.549999999999999822e-01,3.151093829347735298e-01,-2.436048153170926600e-01,-1.485103369240854398e-01
3.559999999999999831e-01,2.480458732519872367e-01,-6.282583917228172499e-02,-1.748081914666389236e-01
3.569999999999999840e-01,-2.072169852111169566e-02,1.432494234593444382e-01,-1.033798919559192758e-01
3.579999999999999849e-01,-2.553223871030829706e-01,2.459525018244801131e-01,6.872570777441766587e-02
3.589999999999999858e-01,-3.113409504434218600e-01,1.673044685049194513e-01,1.916669418190153906e-01
3.599999999999999867e-01,-1.260388519229808935e-01,-6.966201648842144933e-02,1.618210082157086893e-01
3.609999999999999876e-01,1.581217905226427189e-01,-2.409764794963022150e-01,2.286729853951869132e-02
3.619999999999999885e-01,2.950244752520188030e-01,-2.182664070035551518e-01,-1.513903106926502151e-01
3.629999999999999893e-01,2.331781266272821562e-01,-4.478752244056087572e-02,-2.016951422742768174e-01
3.639999999999999902e-01,-3.119539969368766499e-02,1.786939695453564625e-01,-8.416612556381289356e-02
3.649999999999999911e-01,-2.582970025296845162e-01,2.512947706565491490e-01,7.315982348099242527e-02
3.659999999999999920e-01,-3.138083071229706977e-01,1.210686068010328187e-01,1.588937084570638258e-01
3.669999999999999929e-01,-8.951319596255234712e-02,-8.113255878616017214e-02,1.657030284804127118e-01
3.679999999999999938e-01,1.547305839018674190e-01,-2.229426341794795707e-01,4.916254079735912427e-03
3.689999999999999947e-01,3.268292063713837403e-01,-1.987039111494194321e-01,-1.318751086497778335e-01
3.699999999999999956e-01,2.054599253678698334e-01,-1.750620254958405774e-03,-1.826511843878345642e-01
3.709999999999999964e-01,-4.548533127821171446e-02,2.115259740285855838e-01,-8.395116753208960170e-02
3.719999999999999973e-01,-2.788389912274917282e-01,2.321959735437876537e-01,7.825626668017324206e-02
3.729999999999999982e-01,-2.867178128608892096e-01,9.087247334964231038e-02,1.939076688769181267e-01
3.739999999999999991e-01,-5.473276562124246292e-02,-1.376572757008090730e-01,1.526733900178484371e-01
3.750000000000000000e-01,2.232635564149705876e-01,-2.601701450093729662e-01,2.393082514375570067e-04
3.760000000000000009e-01,3.094211129730335408e-01,-1.845712176855139330e-01,-1.495127237877106607e-01
3.770000000000000018e-01,1.790580604101361106e-01,4.122581218414560211e-02,-1.705354703702456620e-01
3.780000000000000027e-01,-8.806222388070207574e-02,2.348839535460830741e-01,-8.471079551390009454e-02
3.790000000000000036e-01,-2.957028291406262888e-01,2.217527997322240596e-01,7.322043515332937735e-02
3.800000000000000044e-01,-2.614078387926850322e-01,5.630656953488415162e-02,1.773422728759483091e-01
3.810000000000000053e-01,-3.457999460084224680e-02,-1.645870844283412460e-01,1.363157927732147057e-01
3.820000000000000062e-01,2.338101594679785344e-01,-2.376745294926707330e-01,-2.434631323091973471e-05
3.830000000000000071e-01,3.149822137967539515e-01,-1.577153411509156777e-01,-1.550137791157936429e-01
3.840000000000000080e-01,1.485227357877982601e-01,9.826565081092247800e-02,-2.027990466484475007e-01
3.850000000000000089e-01,-1.242949147963708229e-01,2.365745781041642126e-01,-8.728449537727736574e-02
3.860000000000000098e-01,-3.045295414069623119e-01,2.188128423983976278e-01,8.870107518685931003e-02
3.870000000000000107e-01,-2.282186301476021861e-01,1.126331660602413083e-02,1.916408213968374408e-01
3.880000000000000115e-01,4.040726556012793659e-03,-2.151188256987050240e-01,1.450300518480154843e-01
3.890000000000000124e-01,2.380785991618737385e-01,-2.519153273235518187e-01,-1.258193907233775763e-02
3.900000000000000133e-01,3.316787314692178357e-01,-1.052089972792630834e-01,-1.670799192311586412e-01
3.910000000000000142e-01,1.250595549013028274e-01,1.169948450740090490e-01,-1.944141712298455005e-01
3.920000000000000151e-01,-1.458142238712170913e-01,2.531994378901158971e-01,-6.111636364716738212e-02
3.930000000000000160e-01,-3.019604797454545908e-01,2.076965671414887638e-01,8.238239664154223263e-02
3.940000000000000169e-01,-2.362318019104809874e-01,-1.292623106890396223e-02,1.744143358817687173e-01
3.950000000000000178e-01,1.389818857745644433e-02,-2.112317223561369639e-01,1.250586742689600295e-01
3.960000000000000187e-01,2.634665762053715610e-01,-2.492813927976612609e-01,8.638283274207861351e-03
3.970000000000000195e-01,3.000945657919538712e-01,-7.366002529322870918e-02,-1.511921149396099340e-01
3.980000000000000204e-01,1.035948919383175293e-01,1.407162315312522616e-01,-1.961743001906694484e-01
3.990000000000000213e-01,-1.846494178536282615e-01,2.652631985776993107e-01,-7.113242943830934417e-02
4.000000000000000222e-01,-3.219648223981668722e-01,1.708153328571964391e-01,8.797288213146825520e-02
4.010000000000000231e-01,-2.051428934683827698e-01,-6.996954305675197328e-02,1.961880293795497388e-01
4.020000000000000240e-01,4.407888762424705398e-02,-2.241416937104871165e-01,1.209218158871296772e-01
4.030000000000000249e-01,2.825185899386248312e-01,-2.300421990956352525e-01,-2.677180013028030228e-02
4.040000000000000258e-01,2.921367169481368653e-01,-3.978332942764295499e-02,-1.614260451086318993e-01
4.050000000000000266e-01,9.651794657788785592e-02,1.892183700237984600e-01,-1.774500598182630895e-01
4.060000000000000275e-01,-1.977792226105967721e-01,2.589771322483870319e-01,-6.298646876353483637e-02
4.069999999999999729e-01,-3.255734685142888107e-01,1.210839771801908854e-01,1.157460070803497387e-01
4.079999999999999738e-01,-1.921606119732060525e-01,-9.185733764737852303e-02,1.855161337475166594e-01
4.089999999999999747e-01,1.146649768397357549e-01,-2.434495513569830683e-01,1.435089563259396572e-01
4.099999999999999756e-01,2.956944281555297649e-01,-2.250342764613366409e-01,-3.107056190153111713e-02
4.109999999999999765e-01,2.881154674435383867e-01,1.253102272937013130e-03,-1.617700211008846478e-01
4.119999999999999774e-01,4.492665199456463004e-02,2.091283851212670519e-01,-2.006639368165137050e-01
4.129999999999999782e-01,-2.148293395994189670e-01,2.395777629035929501e-01,-4.358318368353851502e-02
4.139999999999999791e-01,-3.124101077758756895e-01,9.235487972066869222e-02,9.024593376770388697e-02
4.149999999999999800e-01,-1.498660420888051070e-01,-1.517439013021396610e-01,1.856378072351611286e-01
4.159999999999999809e-01,1.298114846817810808e-01,-2.570790615833444259e-01,1.227886133557739429e-01
4.169999999999999818e-01,2.990707035950082582e-01,-1.712965066466073383e-01,-3.472138901939844646e-02
4.179999999999999827e-01,2.811881899719687605e-01,6.360257541651896662e-02,-1.427558180813815747e-01
4.189999999999999836e-01,1.355749691929992486e-02,2.339039911449227460e-01,-1.708369217476937152e-01
4.199999999999999845e-01,-2.516067581441557288e-01,2.306150386940947761e-01,-4.318566706609693745e-02
4.209999999999999853e-01,-3.053899792405851965e-01,5.155999901755503600e-02,9.251527726736465118e-02
4.219999999999999862e-01,-1.231161601439947628e-01,-1.499465822947178284e-01,1.923136698528192801e-01
4.229999999999999871e-01,1.362917435282235135e-01,-2.765737759448257949e-01,1.342163339985396331e-01
4.239999999999999880e-01,3.081463103390657543e-01,-1.385352369441291698e-01,-4.440309771334447625e-02
4.249999999999999889e-01,2.458847662505723730e-01,7.174819924294496831e-02,-1.653865992038924537e-01
4.259999999999999898e-01,-1.033465594883560545e-02,2.563313681632027885e-01,-1.736166780956893696e-01
4.269999999999999907e-01,-2.820586168951541017e-01,2.091239768271328792e-01,-4.680043755091141400e-02
4.279999999999999916e-01,-3.191971681858843946e-01,1.239262358363026582e-02,1.158694736746502252e-01
4.289999999999999925e-01,-1.070536602599585912e-01,-1.809446253711800012e-01,1.976366863078808378e-01
4.299999999999999933e-01,1.762779669076673383e-01,-2.482600961850091603e-01,1.198249884714201741e-01
4.309999999999999942e-01,3.036378377933668937e-01,-8.601353441448215953e-02,-5.983257980819144811e-02
4.319999999999999951e-01,2.326033576079694354e-01,1.083140605500046150e-01,-1.755337734839874375e-01
4.329999999999999960e-01,-5.156052136093275395e-02,2.562696297279883351e-01,-1.909056824174064637e-01
4.339999999999999969e-01,-2.918931193206394936e-01,2.024224563124358001e-01,-4.589881328427539847e-02
4.349999999999999978e-01,-2.986093944441671200e-01,-2.137379289833366003e-02,1.177739379689146104e-01
4.359999999999999987e-01,-7.439243755064725572e-02,-2.189542126456694437e-01,1.980109329737159141e-01
4.369999999999999996e-01,1.968146455250497084e-01,-2.265282484390693518e-01,1.231433652857756716e-01
4.380000000000000004e-01,3.243032633327643799e-01,-8.051208210937768617e-02,-4.128486262656544392e-02
4.390000000000000013e-01,2.118400481398365620e-01,1.589274931956100034e-01,-1.755221192456772050e-01
4.400000000000000022e-01,-6.450444377556671660e-02,2.559271894574632333e-01,-1.772974455273823580e-01
4.410000000000000031e-01,-2.941836846522975502e-01,1.398253054026280529e-01,-2.902201699050933198e-02
4.420000000000000040e-01,-2.748083893935366895e-01,-5.928862318977373008e-02,1.141962397868689222e-01
4.430000000000000049e-01,-5.734322408569098722e-02,-2.424909009562195017e-01,1.988689068502897950e-01
4.440000000000000058e-01,2.004065257040679449e-01,-2.211896139558748864e-01,1.143708517153578103e-01
4.450000000000000067e-01,3.342491589793435414e-01,-2.690013876213310021e-02,-3.502389277087048641e-02
4.460000000000000075e-01,1.655655960797750570e-01,1.817859046481226648e-01,-1.826312763509383430e-01
4.470000000000000084e-01,-1.016158580214277102e-01,2.427533288337531403e-01,-1.669761211945235690e-01
4.480000000000000093e-01,-3.058829639347169782e-01,1.113582338874265915e-01,-3.614348733471869912e-02
4.490000000000000102e-01,-2.739093925560729392e-01,-1.046806153721183408e-01,1.383272082378232959e-01
4.500000000000000111e-01,-1.547787754227136076e-02,-2.421129394020129777e-01,1.912519533078166911e-01
4.510000000000000120e-01,2.313577826799503578e-01,-1.975759862969034830e-01,1.104166599638242291e-01
4.520000000000000129e-01,3.070944610115625695e-01,-4.604994506287755918e-03,-4.199942937754506250e-02
4.530000000000000138e-01,1.554922547574685010e-01,2.139192026129032864e-01,-1.777875078639622464e-01
4.540000000000000147e-01,-1.492334084057918009e-01,2.385499029802264082e-01,-1.728249857345695306e-01
4.550000000000000155e-01,-2.964431130629571753e-01,8.513429835399818901e-02,-2.668709763500000734e-02
4.560000000000000164e-01,-2.488020313733725619e-01,-1.221264042669189392e-01,1.341691783401084970e-01
4.570000000000000173e-01,1.803708773599589643e-02,-2.577004689901019052e-01,1.916370562695657587e-01
4.580000000000000182e-01,2.473723754554537912e-01,-1.595426369724170790e-01,1.029866903398522354e-01
4.590000000000000191e-01,2.974784492565127336e-01,5.516832402602658836e-02,-5.800714879236838067e-02
4.600000000000000200e-01,1.246078884127230918e-01,2.217743252866545833e-01,-1.791149738812536640e-01
4.610000000000000209e-01,-1.489468604504268490e-01,2.367582524899955743e-01,-1.671617317200824182e-01
4.620000000000000218e-01,-3.226157822295305233e-01,2.380622281740063517e-02,-2.687065913842924883e-02
4.630000000000000226e-01,-2.488651917528472424e-01,-1.558756738923426644e-01,1.495236703297501968e-01
4.640000000000000235e-01,3.831314194286384450e-02,-2.683486752405090936e-01,1.746431342738486159e-01
4.650000000000000244e-01,2.702386786768272708e-01,-1.164953707762367008e-01,1.019829454795800894e-01
4.660000000000000253e-01,2.970346552872283885e-01,8.292841496367950316e-02,-6.917559392076094715e-02
4.670000000000000262e-01,8.742869112257013742e-02,2.523000643077686900e-01,-1.831253321734725437e-01
4.680000000000000271e-01,-1.895621737694579145e-01,2.318081729653186651e-01,-1.573200960105774204e-01
4.689999999999999725e-01,-3.204353719324021799e-01,-8.003686041496550427e-03,-1.546405765226924189e-02
4.699999999999999734e-01,-2.012884550764559022e-01,-2.152723084258321429e-01,1.327119488264799640e-01
4.709999999999999742e-01,7.862792226303828846e-02,-2.334173184169203719e-01,1.847777489706823317e-01
4.719999999999999751e-01,2.785526140895290825e-01,-9.890310388693640542e-02,1.047160798143271093e-01
4.729999999999999760e-01,2.829880587297556316e-01,1.332978413352089997e-01,-7.320939847290394709e-02
4.739999999999999769e-01,6.176028525996668517e-02,2.478596643407148248e-01,-1.855029907189903182e-01
4.749999999999999778e-01,-2.165287061733592866e-01,1.823719128994711614e-01,-1.543413959904625654e-01
4.759999999999999787e-01,-3.281803918636864159e-01,-4.959583680411110834e-02,-4.808571425129949672e-03
4.769999999999999796e-01,-1.829094520408371671e-01,-2.173352162990467018e-01,1.282816284969091614e-01
4.779999999999999805e-01,1.055829756375101236e-01,-2.427276559374956788e-01,1.836028113814754392e-01
4.789999999999999813e-01,2.938204794324526525e-01,-4.112777805422795918e-02,8.809044897154968967e-02
4.799999999999999822e-01,2.642388956666383848e-01,1.677986470243957307e-01,-7.438515096040586305e-02
4.809999999999999831e-01,2.990762712682066074e-02,2.396831688816478956e-01,-1.964279188072684257e-01
4.819999999999999840e-01,-2.259065096735520251e-01,1.655158008948644510e-01,-1.559329900042538131e-01
4.829999999999999849e-01,-3.128909062590607415e-01,-6.741637596140112598e-02,3.423497346586100269e-03
4.839999999999999858e-01,-1.605924304995892948e-01,-2.326531027242196847e-01,1.430677501398974205e-01
4.849999999999999867e-01,1.193225818611745870e-01,-2.046647602207948835e-01,1.962952862472970572e-01
4.859999999999999876e-01,3.180622540668678333e-01,-3.249255322458512174e-02,9.939150686371665822e-02
4.869999999999999885e-01,2.401934991126043473e-01,1.931736299869835083e-01,-7.578267344190785237e-02
4.879999999999999893e-01,1.817091586712842391e-02,2.526222279555669359e-01,-1.969287906716092884e-01
4.889999999999999902e-01,-2.584534636918098260e-01,1.178226186703970474e-01,-1.487956948221225706e-01
4.899999999999999911e-01,-3.125271537562343549e-01,-9.521081373355129440e-02,8.398491243588254718e-03
4.909999999999999920e-01,-1.366880649259140379e-01,-2.587123236079703625e-01,1.592232044939415614e-01
4.919999999999999929e-01,1.628150845063958685e-01,-1.928183827208999335e-01,1.813084330472359285e-01
4.929999999999999938e-01,3.004322424130125846e-01,1.272098399297337014e-02,6.591933557420931455e-02
4.939999999999999947e-01,2.360917089186902740e-01,2.347505384773696246e-01,-7.804648026124627602e-02
4.949999999999999956e-01,-4.085218287212227101e-02,2.434716086195296558e-01,-1.736970529460790946e-01
4.959999999999999964e-01,-2.672812151446268825e-01,7.003045956958631191e-02,-1.607450347932763701e-01
4.969999999999999973e-01,-2.929192955056750813e-01,-1.523255091788928151e-01,1.237819903294315460e-02
4.979999999999999982e-01,-1.117662343457130475e-01,-2.452384187621824696e-01,1.577105991385506500e-01
4.989999999999999991e-01,1.589130484320575576e-01,-1.836638724226472841e-01,1.768936870059855393e-01
5.000000000000000000e-01,2.949892168930947078e-01,6.473542870756668344e-02,7.749059709688420339e-02
5.010000000000000009e-01,2.126978963134976142e-01,2.323075674348311359e-01,-1.066623513380629412e-01
5.020000000000000018e-01,-6.315057799535012117e-02,2.167099736142712729e-01,-1.869052323233353630e-01
5.030000000000000027e-01,-2.765159290668636749e-01,4.994448683881592271e-02,-1.258968408192278898e-01
5.040000000000000036e-01,-3.037987359124053044e-01,-1.826568138689398102e-01,-1.215932412822400260e-03
5.050000000000000044e-01,-5.975394419883380687e-02,-2.599503568109186036e-01,1.821323666924239693e-01
5.060000000000000053e-01,2.031301336033731475e-01,-1.177471548098890514e-01,2.030308840388995173e-01
5.070000000000000062e-01,3.222850537982818730e-01,9.381395834269128098e-02,6.141176802941843149e-02
5.080000000000000071e-01,2.032835961910936240e-01,2.624961772415070893e-01,-9.611294116632419782e-02
5.090000000000000080e-01,-8.002603140113252744e-02,2.077616025271623312e-01,-1.878400268721723554e-01
5.100000000000000089e-01,-2.922049148405117536e-01,3.019833705566343091e-02,-1.328023024946929365e-01
5.110000000000000098e-01,-2.790136547537115375e-01,-1.760049642873953712e-01,3.545406391772826238e-02
5.120000000000000107e-01,-4.132205447299176770e-02,-2.396749767462595104e-01,1.449490480436517459e-01
5.130000000000000115e-01,2.152885667705102812e-01,-1.129569712649485802e-01,1.968036698141903407e-01
5.140000000000000124e-01,3.264238323078967330e-01,1.373105977152905832e-01,6.525142498570940530e-02
5.150000000000000133e-01,1.678636478800093479e-01,2.543441985733212451e-01,-9.717001554951359976e-02
5.160000000000000142e-01,-1.172705927465278741e-01,1.720331279683647019e-01,-2.132732965767694944e-01
5.170000000000000151e-01,-3.106592082189987836e-01,-3.527287823215411594e-02,-1.513177855930500915e-01
5.180000000000000160e-01,-2.645951956661773408e-01,-2.296693789735489988e-01,1.993093413742525605e-02
5.190000000000000169e-01,-1.615718298486770385e-02,-2.320333923564322220e-01,1.561495706289455776e-01
5.200000000000000178e-01,2.428437597357512301e-01,-4.822960947546407057e-02,1.763319344545484502e-01
5.210000000000000187e-01,3.185506501288347114e-01,1.581371688908197182e-01,6.359194077550767155e-02
5.220000000000000195e-01,1.228143893823215455e-01,2.633157597192012922e-01,-1.029420881310248170e-01
5.230000000000000204e-01,-1.557062820904133449e-01,1.534328485978542489e-01,-2.010965635055644019e-01
5.240000000000000213e-01,-3.031378201729277855e-01,-9.082826479878230996e-02,-1.438405120569555273e-01
5.250000000000000222e-01,-2.323833095389938597e-01,-2.292155853830697976e-01,2.062841960256122167e-02
5.260000000000000231e-01,1.434236182888820772e-02,-2.136605477759387639e-01,1.694643950937562149e-01
5.270000000000000240e-01,2.700402846073901575e-01,-1.395548190088987013e-02,1.780846767585901880e-01
5.280000000000000249e-01,2.924165354133909656e-01,2.081235297188730737e-01,3.595025849442964883e-02
5.290000000000000258e-01,1.108648894128253237e-01,2.411495894130166739e-01,-1.132214717248719860e-01
5.300000000000000266e-01,-1.514913668731527052e-01,1.172468397677629837e-01,-1.540814363471294524e-01
5.310000000000000275e-01,-3.245586347415089779e-01,-1.228607022677148664e-01,-1.339028470610903743e-01
5.320000000000000284e-01,-2.177022947413335130e-01,-2.459103414091174389e-01,4.403171257862106835e-02
5.330000000000000293e-01,5.323227226611475932e-02,-1.814856554286631285e-01,1.716999589021009354e-01
5.340000000000000302e-01,2.757703035289833515e-01,1.650222984282667671e-02,1.724514561684994951e-01
5.350000000000000311e-01,2.869796029173442564e-01,2.280750940585813125e-01,4.747026775297296525e-02
5.360000000000000320e-01,7.313988786509847961e-02,2.457158920056540796e-01,-9.879011407484984686e-02
5.370000000000000329e-01,-1.790734504811111738e-01,5.483504996572168000e-02,-2.034477603962162318e-01
5.380000000000000338e-01,-3.144671220695261504e-01,-1.588173575744595001e-01,-1.304296448714843681e-01
5.390000000000000346e-01,-2.118835923969482615e-01,-2.647316854347726567e-01,3.034051955841608056e-02
5.400000000000000355e-01,5.463893130951640725e-02,-1.551488070320667656e-01,1.676925690692756266e-01
5.410000000000000364e-01,2.971827627654825554e-01,6.274003806426783902e-02,1.536298386595450760e-01
5.420000000000000373e-01,2.663480984039765520e-01,2.273392268121094684e-01,4.381569242930066777e-02
5.430000000000000382e-01,6.250689326266863077e-02,2.186136447650692816e-01,-1.414524778913618386e-01
5.440000000000000391e-01,-2.224453874066659453e-01,3.549799177092864688e-02,-1.981263840638727847e-01
5.450000000000000400e-01,-3.011470864295491268e-01,-1.689406820335843662e-01,-1.170955596654690983e-01
5.460000000000000409e-01,-1.725860665992992871e-01,-2.415030582766899137e-01,5.394109053588353603e-02
5.470000000000000417e-01,8.732107801708652306e-02,-1.196942256890505124e-01,1.694882787333001350e-01
5.480000000000000426e-01,3.129458737067582486e-01,1.133426811155863884e-01,1.813866411211305651e-01
5.490000000000000435e-01,2.791704406026229157e-01,2.457724960894978050e-01,4.058049395046897656e-02
5.500000000000000444e-01,1.069404933694767176e-02,1.977228850807728200e-01,-1.408677937162442217e-01
5.510000000000000453e-01,-2.357020978725462845e-01,-8.992953090605049216e-03,-1.855461107927706688e-01
5.520000000000000462e-01,-3.011744487412625904e-01,-1.922707470664906382e-01,-9.088441916987878566e-02
5.530000000000000471e-01,-1.517249711122378442e-01,-2.521473803177066153e-01,3.539572557640991574e-02
5.540000000000000480e-01,1.457345195620538270e-01,-7.944279258117623033e-02,1.808345701030701635e-01
5.550000000000000488e-01,3.092703868918942889e-01,1.634049602021920566e-01,1.634111303614377841e-01
5.560000000000000497e-01,2.481151416722933156e-01,2.562824954919993847e-01,4.016629607117735284e-02
5.570000000000000506e-01,3.145103809071036517e-03,1.681935448489926821e-01,-1.236526034789440232e-01
5.580000000000000515e-01,-2.363668382206487451e-01,-4.388547186123537003e-02,-2.000189755387036250e-01
5.590000000000000524e-01,-3.040554237750348054e-01,-2.360213233711265790e-01,-1.018154263098580148e-01
5.600000000000000533e-01,-1.229515513937870230e-01,-2.092997136873893382e-01,7.728785539132525251e-02
5.610000000000000542e-01,1.484977554281837475e-01,-1.894811084616892030e-02,1.843469260365062923e-01
5.620000000000000551e-01,3.178370209510652522e-01,1.891692913717695212e-01,1.857174716656379565e-01
5.629999999999999449e-01,2.234804199505827926e-01,2.466792093083224890e-01,2.974622461106498153e-02
5.639999999999999458e-01,-4.775508329128003160e-02,1.439685194793441647e-01,-1.323622119867685354e-01
5.649999999999999467e-01,-2.539398488550121402e-01,-6.159641027487577220e-02,-1.949955626931397512e-01
5.659999999999999476e-01,-3.027155913212500327e-01,-2.359070500206982002e-01,-9.995240930012487535e-02
5.669999999999999485e-01,-9.642497283310641487e-02,-2.153783510867477990e-01,6.121156893196937759e-02
5.679999999999999494e-01,1.864448748916675558e-01,-8.637206875035373724e-03,2.028581560822840801e-01
5.689999999999999503e-01,3.209126318006164658e-01,1.888219048462337346e-01,1.559993465927628775e-01
5.699999999999999512e-01,2.197890686746568345e-01,2.424086791993416423e-01,2.816324325123763586e-02
5.709999999999999520e-01,-6.229561127532858011e-02,9.572367341467999391e-02,-1.400620881989264321e-01
5.719999999999999529e-01,-2.762953527951237387e-01,-1.296216436266526550e-01,-1.977069928667720966e-01
5.729999999999999538e-01,-2.821786707158537300e-01,-2.560851644113019132e-01,-7.901420763617571230e-02
5.739999999999999547e-01,-6.510547586526765906e-02,-1.937574718621138947e-01,7.596877095112331002e-02
5.749999999999999556e-01,2.006945411456509121e-01,4.110611877054506230e-02,1.840296810746117062e-01
5.759999999999999565e-01,3.250115702058131717e-01,2.235374600546240209e-01,1.672400483288920270e-01
5.769999999999999574e-01,1.719076243734113940e-01,2.473050731130829183e-01,-9.873583394172560923e-03
5.779999999999999583e-01,-1.031291206239311337e-01,5.783634749923415030e-02,-1.366030671199130186e-01
5.789999999999999591e-01,-2.748644269650931671e-01,-1.674291340282428597e-01,-1.877379987791815141e-01
5.799999999999999600e-01,-2.752920006937649156e-01,-2.530709108901579851e-01,-8.613198324821981500e-02
5.809999999999999609e-01,-4.380433716988225284e-02,-1.472163274399728716e-01,7.163397133783519499e-02
5.819999999999999618e-01,2.351852432766186607e-01,7.017558580155477954e-02,1.782530984790657858e-01
5.829999999999999627e-01,3.263580557320017173e-01,2.538603490853635902e-01,1.468904941292336341e-01
5.839999999999999636e-01,1.442602290067352411e-01,2.061796569947740021e-01,6.179025756564091205e-03
5.849999999999999645e-01,-1.349367050769510190e-01,2.289725988976549359e-02,-1.664710050487310800e-01
5.859999999999999654e-01,-3.138054250141136814e-01,-1.969225805338285507e-01,-2.039323001120705303e-01
5.869999999999999662e-01,-2.548119236294484335e-01,-2.383838749648880817e-01,-1.031979821771335792e-01
5.879999999999999671e-01,-8.811902981140684252e-03,-1.225027824235306317e-01,6.235845971797443488e-02
5.889999999999999680e-01,2.480436356458259883e-01,1.137113254433295001e-01,1.852228443304171357e-01
5.899999999999999689e-01,3.335654750584366446e-01,2.462173583590531178e-01,1.520013273573689594e-01
5.909999999999999698e-01,1.581131860558674107e-01,2.033179600764538353e-01,8.840081336533875053e-03
5.919999999999999707e-01,-1.524814573393597217e-01,3.391655164602686880e-03,-1.415108979071388884e-01
5.929999999999999716e-01,-3.058153201206835203e-01,-1.982773642870674646e-01,-1.965682536828873006e-01
5.939999999999999725e-01,-2.377056870562981039e-01,-2.488374482111303521e-01,-9.290844589610397497e-02
5.949999999999999734e-01,3.238146706924932561e-03,-8.568828577114338818e-02,7.792565449206478867e-02
5.959999999999999742e-01,2.700934254375717547e-01,1.358898267760146050e-01,1.948349457707536925e-01
5.969999999999999751e-01,3.126540379845335615e-01,2.446690644126051639e-01,1.557313563872362305e-01
5.979999999999999760e-01,1.195804976271592074e-01,1.859305361562599845e-01,-1.906278520072443583e-02
5.989999999999999769e-01,-1.654809868545686347e-01,-5.409244583879232321e-02,-1.665348925287420123e-01
5.999999999999999778e-01,-3.044427789915039040e-01,-2.329643277067779406e-01,-1.892906987518661321e-01
6.009999999999999787e-01,-2.124367158857028703e-01,-2.389604716343435020e-01,-6.103684376747051110e-02
6.019999999999999796e-01,4.477339699365873171e-02,-4.151640646758063963e-02,9.726110976930736618e-02
6.029999999999999805e-01,2.634611815338504526e-01,1.636498034803688384e-01,1.845454010679442036e-01
6.039999999999999813e-01,2.899840354886681348e-01,2.640186361244198365e-01,1.304942864042455963e-01
6.049999999999999822e-01,7.736507237070612553e-02,1.301829439855871351e-01,8.773828513821050170e-04
6.059999999999999831e-01,-1.964425723843434557e-01,-8.768111838498242327e-02,-1.655803042731523456e-01
6.069999999999999840e-01,-3.159745543712003113e-01,-2.455611240955821173e-01,-1.784031429553069314e-01
6.079999999999999849e-01,-1.894987298464488878e-01,-2.300016260360170095e-01,-7.644741026549184415e-02
6.089999999999999858e-01,8.653695154323576277e-02,-1.493125145969151357e-02,8.677695394137147078e-02
6.099999999999999867e-01,2.900939684063277846e-01,1.963254706322005438e-01,1.913290171852968791e-01
6.109999999999999876e-01,2.816048117606450019e-01,2.475547655710200745e-01,1.385853697323584655e-01
6.119999999999999885e-01,3.088366801667097664e-02,1.095470468305315553e-01,-1.231423072573335298e-03
6.129999999999999893e-01,-2.059946833340894623e-01,-1.238414707591164177e-01,-1.485577051648267199e-01
6.139999999999999902e-01,-2.964551411896143018e-01,-2.569493425630048899e-01,-1.803091464215494100e-01
6.149999999999999911e-01,-1.757968779298201278e-01,-1.773124620941196050e-01,-6.850217303000903646e-02
6.159999999999999920e-01,9.000045152770359824e-02,3.562560650573914911e-02,9.817317574166029015e-02
6.169999999999999929e-01,2.726982893309337630e-01,2.339308601087937423e-01,1.796830794986556401e-01
6.179999999999999938e-01,2.666788825638745086e-01,2.384670417733850967e-01,1.238429786164048363e-01
6.189999999999999947e-01,3.862306944471831285e-03,3.824862668418357869e-02,-4.033145478829517488e-02
6.199999999999999956e-01,-2.512086858940335565e-01,-1.379083944433631692e-01,-1.675038033467340370e-01
6.209999999999999964e-01,-3.343844825771106755e-01,-2.683669091274590301e-01,-1.532348620889237845e-01
6.219999999999999973e-01,-1.390268587866212990e-01,-1.518268461838686301e-01,-8.299736402643305422e-02
6.229999999999999982e-01,1.351987901935602643e-01,8.465423732626552178e-02,1.148777742733631257e-01
6.239999999999999991e-01,2.858946238196884981e-01,2.329016511548849533e-01,1.878119399505504550e-01
6.250000000000000000e-01,2.502705709330451112e-01,1.888928865878048424e-01,1.524293362304209587e-01
6.260000000000000009e-01,1.137710728861078373e-02,2.459268619030962472e-02,-3.722746001959833378e-02
6.270000000000000018e-01,-2.496572250217752587e-01,-2.088796017791080539e-01,-1.761417428175062194e-01
6.280000000000000027e-01,-3.183099457031776658e-01,-2.621026102763078791e-01,-1.848516971748704885e-01
6.290000000000000036e-01,-1.210785106152655471e-01,-1.197682157828979937e-01,-7.428083501218347984e-02
6.300000000000000044e-01,1.667540534203882652e-01,1.103744109695238840e-01,1.003089562459892475e-01
6.310000000000000053e-01,3.122817455687266763e-01,2.380895125976039139e-01,2.111221164570221687e-01
6.320000000000000062e-01,2.392014403500595521e-01,1.933839273670847070e-01,1.254946340397103954e-01
6.330000000000000071e-01,-3.470023118204400292e-02,-2.299189763630523839e-02,-3.158912653892617661e-02
6.340000000000000080e-01,-2.865614419979009564e-01,-2.044766429542428376e-01,-1.711397519200787420e-01
6.350000000000000089e-01,-3.036435171641884700e-01,-2.330789902555759907e-01,-1.567032211546738607e-01
6.360000000000000098e-01,-1.018122582762348988e-01,-8.536230573164069191e-02,-6.148228052804231847e-02
6.370000000000000107e-01,1.936628716211976076e-01,1.612328204955797706e-01,1.104738284307838769e-01
6.380000000000000115e-01,3.190457895024230162e-01,2.687861167231820891e-01,1.863439381185132693e-01
6.390000000000000124e-01,1.932107965354502299e-01,1.597309024344959472e-01,1.208434298835123488e-01
6.400000000000000133e-01,-7.572350414172795974e-02,-6.515702382079592569e-02,-4.370954789901102672e-02
6.410000000000000142e-01,-2.929775175790402253e-01,-2.511677762899752753e-01,-1.559248736693169823e-01
6.420000000000000151e-01,-2.922736745121077284e-01,-2.189082636249272129e-01,-1.868028208824044079e-01
6.430000000000000160e-01,-6.678375424279299477e-02,-4.696689655238434069e-02,-3.880655030047334975e-02
6.440000000000000169e-01,2.218119714416852684e-01,1.551322052670694729e-01,1.329254601004321856e-01
6.450000000000000178e-01,3.134220986310755630e-01,2.370540102672547278e-01,1.912999981359073676e-01
6.460000000000000187e-01,1.807588430626436427e-01,1.138222586547701365e-01,1.387426905494902885e-01
6.470000000000000195e-01,-9.502754100448568275e-02,-1.013592492240817378e-01,-3.346889372705517951e-02
6.480000000000000204e-01,-2.974935274676472896e-01,-2.508587078153183270e-01,-1.560310946525832743e-01
6.490000000000000213e-01,-2.672621319091321723e-01,-1.964546270204766409e-01,-1.687816432803921352e-01
6.500000000000000222e-01,-2.156964915961226414e-02,2.181868274698841367e-03,-5.021720697085160084e-02
6.510000000000000231e-01,2.164419740172788542e-01,2.045055783919040027e-01,1.397528024372839406e-01
6.520000000000000240e-01,3.001425992027164091e-01,2.404706808991425304e-01,1.736763912562871437e-01
6.530000000000000249e-01,1.781805796393006736e-01,1.096737380572482823e-01,1.231244285362675384e-01
6.540000000000000258e-01,-1.220406681252166892e-01,-1.309437920112210552e-01,-4.711917513669269808e-02
6.550000000000000266e-01,-3.134031945558635734e-01,-2.407063278537714401e-01,-1.598780114847053457e-01
6.560000000000000275e-01,-2.429988751782619361e-01,-1.813058918371346362e-01,-1.590484687911818129e-01
6.570000000000000284e-01,1.392169314186251713e-02,4.779411492281277624e-02,-3.242255535566732072e-02
6.580000000000000293e-01,2.373157279910380335e-01,2.053720436219645396e-01,1.274220943906542447e-01
6.590000000000000302e-01,3.035353838283423866e-01,2.224844032308758990e-01,1.959468195875395946e-01
6.600000000000000311e-01,1.342992883150654349e-01,5.961261795098489469e-02,1.071419129179045637e-01
6.610000000000000320e-01,-1.445570678457609448e-01,-1.447202686150045048e-01,-5.353641873250961775e-02
6.620000000000000329e-01,-2.993652532424533330e-01,-2.438699821092534525e-01,-1.933578584368208508e-01
6.630000000000000338e-01,-2.260282431833546546e-01,-1.443856526253625983e-01,-1.378818982415956074e-01
6.640000000000000346e-01,4.599876268546560648e-02,8.055863895938099317e-02,-3.824153900672611073e-02
6.650000000000000355e-01,2.715397347972456354e-01,2.346416818652179714e-01,1.160385862845792482e-01
6.660000000000000364e-01,2.986024389222490805e-01,2.039504550885388456e-01,2.065675461509451916e-01
6.670000000000000373e-01,1.116703242367614174e-01,2.165689961638963060e-02,9.003863503897124865e-02
6.680000000000000382e-01,-1.841717015550568826e-01,-1.875674212167512123e-01,-5.147539788688163670e-02
6.690000000000000391e-01,-3.234625718518511772e-01,-2.681301702623680172e-01,-1.692563496661542988e-01
6.700000000000000400e-01,-2.121379711860040262e-01,-1.089163956592675009e-01,-1.684969683778351490e-01
6.710000000000000409e-01,5.595068188279166826e-02,1.066228608082714774e-01,-5.152998291529105324e-02
6.720000000000000417e-01,2.939504391674891415e-01,2.518973019535675761e-01,1.288210040880347074e-01
6.730000000000000426e-01,2.798467974722443352e-01,1.806149275215274408e-01,1.849866351250275542e-01
6.740000000000000435e-01,5.474973653794752704e-02,-4.420836052685215428e-02,7.869742446246491552e-02
6.750000000000000444e-01,-1.932520673730921956e-01,-2.227127337681715780e-01,-6.834715441757417687e-02
6.760000000000000453e-01,-3.304338014312844796e-01,-2.458059293667558820e-01,-2.013950006466377063e-01
6.770000000000000462e-01,-1.923449269744359480e-01,-6.199435630903894073e-02,-1.625579209513816903e-01
6.780000000000000471e-01,9.499820169310731199e-02,1.372591372913289920e-01,-2.526340154565029361e-02
6.790000000000000480e-01,2.858441939085201722e-01,2.770253274731305226e-01,1.328415092323124991e-01
6.800000000000000488e-01,2.928997214111799252e-01,1.766087593718904947e-01,1.960297964540631266e-01
6.810000000000000497e-01,5.145808408648026161e-02,-6.452313290870301254e-02,9.812403628477825435e-02
6.820000000000000506e-01,-2.192590941602542698e-01,-2.359727255177234417e-01,-8.659238123772010354e-02
6.830000000000000515e-01,-3.151009030648017628e-01,-2.197488069106153796e-01,-1.701997394392839036e-01
6.840000000000000524e-01,-1.637119690784613057e-01,-4.296431016477829379e-02,-1.622813033922179682e-01
6.850000000000000533e-01,8.924926061732763038e-02,1.919967690291766449e-01,-5.894791689339211500e-03
6.860000000000000542e-01,3.222098897247643312e-01,2.532099972621099093e-01,1.506739676515178872e-01
6.870000000000000551e-01,2.524860996357929932e-01,1.335449129336269136e-01,1.823185110152524269e-01
6.879999999999999449e-01,1.410348214156342990e-02,-1.111419738547296809e-01,7.855626802043860768e-02
6.889999999999999458e-01,-2.373665300347395646e-01,-2.352712734869874256e-01,-7.743424719440190895e-02
6.899999999999999467e-01,-3.155717830870445328e-01,-1.774195191877138700e-01,-1.826082834705780311e-01
6.909999999999999476e-01,-1.409176800616530612e-01,1.855908663546856907e-02,-1.371789579383845270e-01
6.919999999999999485e-01,1.432861337485304976e-01,2.121026933064295572e-01,1.442205541853707417e-04
6.929999999999999494e-01,2.931295653611932228e-01,2.204541178208472008e-01,1.438058072562845291e-01
6.939999999999999503e-01,2.442139871023936426e-01,9.291288191663893414e-02,2.001917718625285392e-01
6.949999999999999512e-01,-1.917415601021347019e-02,-1.344856834699010018e-01,7.108380376188888627e-02
6.959999999999999520e-01,-2.437463629639692042e-01,-2.606122358019083984e-01,-8.869427504043064792e-02
6.969999999999999529e-01,-3.102621192529737004e-01,-1.737385270764448264e-01,-1.933466648527610576e-01
6.979999999999999538e-01,-1.072246538158432988e-01,4.897778247814931624e-02,-1.484861459524052518e-01
6.989999999999999547e-01,1.545421527095528214e-01,2.471258374612055608e-01,1.772673262125947641e-02
6.999999999999999556e-01,3.160866643044082935e-01,2.131178233502382391e-01,1.628190675074626670e-01
7.009999999999999565e-01,2.202381759055516974e-01,4.218554754148901020e-02,1.830585545894260757e-01
7.019999999999999574e-01,-5.206398514715678688e-02,-1.875627506684000023e-01,8.425621971131228016e-02
7.029999999999999583e-01,-2.810583613745268883e-01,-2.694646933209484119e-01,-8.152477960740989182e-02
7.039999999999999591e-01,-2.961399546708760044e-01,-1.304759685140213510e-01,-1.930886495475018505e-01
7.049999999999999600e-01,-7.827977308078018504e-02,8.527838940683286906e-02,-1.447925308739410055e-01
7.059999999999999609e-01,1.994419851111860764e-01,2.522274667777048007e-01,1.994966103388195501e-03
7.069999999999999618e-01,3.267387637073659867e-01,1.957997904597313377e-01,1.572275067475895904e-01
7.079999999999999627e-01,2.012642699244138744e-01,4.216531554539385690e-03,1.586588371808237696e-01
7.089999999999999636e-01,-7.092058863890095266e-02,-2.068703662773694330e-01,7.678337627908897456e-02
7.099999999999999645e-01,-3.050528387984318690e-01,-2.409799541750250185e-01,-8.671535368550328804e-02
7.109999999999999654e-01,-2.811416961667893566e-01,-1.024657274055288392e-01,-1.835351886658781184e-01
7.119999999999999662e-01,-3.650532833681535694e-02,1.275122039959329656e-01,-1.413316566394618723e-01
7.129999999999999671e-01,2.343810295001696464e-01,2.607779184037208875e-01,-9.175791117342681560e-03
7.139999999999999680e-01,3.205977052569594088e-01,2.010779050923529321e-01,1.640070709715965303e-01
7.149999999999999689e-01,1.657523374312277198e-01,-4.236802341361851215e-02,1.881340392315886678e-01
7.159999999999999698e-01,-1.091648811122494511e-01,-2.082186258096821452e-01,7.346465228741064224e-02
7.169999999999999707e-01,-3.100758646497738247e-01,-2.525919909852771261e-01,-9.532832142549245436e-02
7.179999999999999716e-01,-2.684839744595995392e-01,-4.990574331355132620e-02,-2.043851646242756115e-01
7.189999999999999725e-01,-1.708614695085303517e-02,1.498713253547427071e-01,-1.409704968048743623e-01
7.199999999999999734e-01,2.281410100369632155e-01,2.765926257703570368e-01,1.280012139925875564e-02
7.209999999999999742e-01,3.142408121521498288e-01,1.391610607221483720e-01,1.669726456304237716e-01
7.219999999999999751e-01,1.478544008025745593e-01,-7.185838712844119791e-02,1.809423053725199015e-01
7.229999999999999760e-01,-1.385904409510149704e-01,-2.443923937754292064e-01,4.225449020921468596e-02
7.239999999999999769e-01,-2.999387516441558987e-01,-2.199127828649790617e-01,-1.131958050083661377e-01
7.249999999999999778e-01,-2.445466423337274708e-01,-2.255525558669415481e-02,-1.871379605990805828e-01
7.259999999999999787e-01,3.538700287183272914e-03,1.730136657444211190e-01,-1.406455052647810344e-01
7.269999999999999796e-01,2.418487481109080628e-01,2.496709513668759761e-01,1.365698840204034904e-02
7.279999999999999805e-01,2.886141138349457846e-01,1.175930261127514920e-01,1.844485203029745113e-01
7.289999999999999813e-01,1.223495683712533810e-01,-1.195586834988179442e-01,1.870140794145588592e-01
7.299999999999999822e-01,-1.571186543814269421e-01,-2.601691538549291138e-01,7.646926152549529676e-02
7.309999999999999831e-01,-3.196319100153119375e-01,-2.072405523966363572e-01,-1.229463863666864915e-01
7.319999999999999840e-01,-2.343252434614737645e-01,1.638888168811525325e-02,-2.132354512716181094e-01
7.329999999999999849e-01,3.623462216777190853e-02,2.242270010174975126e-01,-1.224156284839485881e-01
7.339999999999999858e-01,2.669207797295580775e-01,2.462818397428492845e-01,1.898695263654634827e-02
7.349999999999999867e-01,2.960081045329385763e-01,9.125058880863984312e-02,1.582709150615116689e-01
7.359999999999999876e-01,9.127959478289164597e-02,-1.545928708795606121e-01,1.770833884103600875e-01
7.369999999999999885e-01,-1.884528648274398088e-01,-2.659419724644263572e-01,4.305656437616313392e-02
7.379999999999999893e-01,-3.249778289115166086e-01,-1.539619071856813404e-01,-1.052347689612695425e-01
7.389999999999999902e-01,-2.048973607383519080e-01,3.853068351342504166e-02,-1.903729124480550983e-01
7.399999999999999911e-01,6.663456007063646436e-02,2.318216369728704762e-01,-1.242569696341458002e-01
7.409999999999999920e-01,2.919278501161868822e-01,2.433858028928638784e-01,1.474874292018758283e-02
7.419999999999999929e-01,2.946988128254011130e-01,2.351365949786202170e-02,1.669220591533935316e-01
7.429999999999999938e-01,5.858927606936236571e-02,-1.451904488743620547e-01,1.741513011501474584e-01
7.439999999999999947e-01,-1.976245371236741710e-01,-2.554667967502054493e-01,6.208891486459963693e-02
7.449999999999999956e-01,-3.214163982831190758e-01,-1.415266144492774159e-01,-1.141294024826439574e-01
7.459999999999999964e-01,-1.907076106726899034e-01,1.026311126598774548e-01,-1.763075237045489962e-01
7.469999999999999973e-01,1.006585930071437485e-01,2.571972033846166572e-01,-1.347614772539935113e-01
7.479999999999999982e-01,2.983850876974857291e-01,2.069727091350891390e-01,3.644073627639309726e-02
7.489999999999999991e-01,2.769759862784172966e-01,2.168043478315788419e-02,1.760181165800306646e-01
7.500000000000000000e-01,3.272910724704908986e-02,-2.013911070146243987e-01,1.713654503517564598e-01
7.510000000000000009e-01,-2.391224919870147125e-01,-2.419765519220486161e-01,5.904184015127739854e-02
7.520000000000000018e-01,-2.998580262785620065e-01,-8.960995798618516528e-02,-1.215058746250942123e-01
7.530000000000000027e-01,-1.591107040459801558e-01,1.104388474314088597e-01,-1.973900647557123855e-01
7.540000000000000036e-01,9.214827097620051366e-02,2.467923658091444039e-01,-1.232941463478118560e-01
7.550000000000000044e-01,3.106594841825819908e-01,1.846806312418238782e-01,4.620326077215478749e-02
7.560000000000000053e-01,2.562214944435447506e-01,-2.364156200996630694e-02,1.939313922744980989e-01
7.570000000000000062e-01,1.379365684519998775e-02,-2.093364395489929752e-01,1.707860036712936791e-01
7.580000000000000071e-01,-2.376473685555559323e-01,-2.341125569122669836e-01,1.421384798680914649e-02
7.590000000000000080e-01,-3.151531567533225053e-01,-7.221937297265025590e-02,-1.394069204480886393e-01
7.600000000000000089e-01,-1.286003307208976321e-01,1.571650150241809540e-01,-1.969447393799447221e-01
7.610000000000000098e-01,1.449050427979942102e-01,2.728474265963489742e-01,-1.170003029287815244e-01
7.620000000000000107e-01,3.089961946912498925e-01,1.530065698102936467e-01,5.663031612352540517e-02
7.630000000000000115e-01,2.533700829100529184e-01,-7.822047241729343514e-02,1.789296388427531193e-01
7.640000000000000124e-01,-3.192274099344414445e-02,-2.356920531790698825e-01,1.834662656144656623e-01
7.650000000000000133e-01,-2.633480189733597432e-01,-2.225948146924451587e-01,1.873181785496300100e-02
7.660000000000000142e-01,-2.869558931482888431e-01,-2.379181790686266638e-03,-1.332640351519683575e-01
7.670000000000000151e-01,-9.304374767448034267e-02,1.776006573678287070e-01,-1.774310235884561382e-01
7.680000000000000160e-01,1.595228300238925867e-01,2.541940041806579065e-01,-1.121071034187161586e-01
7.690000000000000169e-01,3.109032879066659372e-01,1.133239019979439821e-01,3.539990559590093511e-02
7.700000000000000178e-01,2.271269261045666676e-01,-1.065268392363385580e-01,1.759662639491027802e-01
7.710000000000000187e-01,-3.629107711024181365e-02,-2.499226444208809683e-01,1.585774684661866163e-01
7.720000000000000195e-01,-2.683677002404796785e-01,-1.934521513064467180e-01,3.861285645149815926e-02
7.730000000000000204e-01,-2.946590408468476308e-01,9.075897385260616249e-03,-1.260846402413778877e-01
7.740000000000000213e-01,-8.462695885551223263e-02,2.229339926126304161e-01,-1.978080183035350326e-01
7.750000000000000222e-01,2.142048515352338589e-01,2.459883915319178160e-01,-1.095221321154491445e-01
7.760000000000000231e-01,3.279316616932005934e-01,7.581847279949431584e-02,4.990093498756672380e-02
7.770000000000000240e-01,1.839613223321707736e-01,-1.474315626767646881e-01,1.918908316295360461e-01
7.780000000000000249e-01,-6.222354554543400168e-02,-2.524896225593755150e-01,1.862050287871127863e-01
7.790000000000000258e-01,-3.099141849016288641e-01,-1.725546878582121524e-01,2.429369448565758469e-02
7.800000000000000266e-01,-2.666642946768434941e-01,5.872181890791945691e-02,-1.591384410904453650e-01
7.810000000000000275e-01,-5.577902333731181439e-02,2.523673794187359376e-01,-1.844904389794473354e-01
7.820000000000000284e-01,2.471406702426880708e-01,2.468588162229383987e-01,-1.058010142113928187e-01
7.830000000000000293e-01,3.352787012375560427e-01,3.048927455310963819e-02,7.089179324543561089e-02
7.840000000000000302e-01,1.767794433752191696e-01,-1.808315813358743473e-01,1.950432067760515531e-01
7.850000000000000311e-01,-1.232360541026671225e-01,-2.555160510675866248e-01,1.601257237766181840e-01
7.860000000000000320e-01,-3.211109286800805651e-01,-1.271498284858383898e-01,1.567269569613126412e-02
7.870000000000000329e-01,-2.574705694574893622e-01,1.017382358903388823e-01,-1.437699092223250763e-01
7.880000000000000338e-01,-1.056066548722426994e-02,2.571325639986460354e-01,-1.931627236499502687e-01
7.890000000000000346e-01,2.350409606491783154e-01,1.992660260113832404e-01,-1.011216680230796888e-01
7.900000000000000355e-01,3.089570743488400661e-01,-1.262078957718720980e-02,8.233386130469004527e-02
7.910000000000000364e-01,1.321762175922861493e-01,-2.157643379608996381e-01,1.939879899939855601e-01
7.920000000000000373e-01,-1.406331809460573123e-01,-2.349767247333011955e-01,1.529346075743091282e-01
7.930000000000000382e-01,-3.104205055637218602e-01,-8.391075639520696738e-02,-1.164097411387016254e-03
7.940000000000000391e-01,-2.543597325757116501e-01,1.264987506890239977e-01,-1.401083156070010716e-01
7.950000000000000400e-01,1.928893071449161098e-02,2.558903707352142565e-01,-1.775927122759301813e-01
7.960000000000000409e-01,2.705433648637201038e-01,1.825824853792560876e-01,-8.366310449430357232e-02
7.970000000000000417e-01,2.968897211637825939e-01,-4.209355922725542543e-02,9.606139528880237866e-02
7.980000000000000426e-01,1.171357651808052763e-01,-2.250767435656674254e-01,1.839279283592609726e-01
7.990000000000000435e-01,-1.738540613218239050e-01,-2.179188987255531174e-01,1.431375756196495708e-01
8.000000000000000444e-01,-3.383685545311639897e-01,-6.285199978598619841e-02,-4.197973758228757367e-03
8.010000000000000453e-01,-2.254878220836448455e-01,1.686007931930411652e-01,-1.641464538262275286e-01
8.020000000000000462e-01,1.560369721343304872e-02,2.691441427082493787e-01,-1.912977040099710369e-01
8.030000000000000471e-01,2.769281757598454630e-01,1.342557783386207904e-01,-8.230679851916221368e-02
8.040000000000000480e-01,2.916501842629484753e-01,-8.081770047328641626e-02,9.322403712010594867e-02
8.050000000000000488e-01,9.049990993611697898e-02,-2.496402068717559763e-01,1.640946769014224316e-01
8.060000000000000497e-01,-2.000785746404828980e-01,-2.287982817353052811e-01,1.486456614273298782e-01
8.070000000000000506e-01,-3.073150934101646636e-01,-1.089089310704344400e-02,-6.789156290004954263e-03
8.080000000000000515e-01,-2.160706439524923694e-01,1.779492457398011707e-01,-1.638641518986864165e-01
8.090000000000000524e-01,6.528413961441185964e-02,2.492096444077101514e-01,-1.894911987589690539e-01
8.100000000000000533e-01,2.963338803259187304e-01,1.148558484924532275e-01,-8.035230208059090939e-02
8.110000000000000542e-01,3.015769170916367536e-01,-1.127658316382777887e-01,1.001481116561594026e-01
8.120000000000000551e-01,5.310233746229301582e-02,-2.659921712659673032e-01,2.035082838241994152e-01
8.129999999999999449e-01,-2.335457234388192693e-01,-1.778551250594694877e-01,1.556308992699101668e-01
8.139999999999999458e-01,-3.024510409477906281e-01,2.424827695930549185e-02,-1.575161378221485997e-02
8.149999999999999467e-01,-1.714176461151223629e-01,2.092765715499726453e-01,-1.588000352476115484e-01
8.159999999999999476e-01,9.915103697997247612e-02,2.451336656786094192e-01,-2.000899397979626071e-01
8.169999999999999485e-01,2.988063137590681317e-01,6.640753736305071708e-02,-7.611006618770251031e-02
8.179999999999999494e-01,2.759929901620626902e-01,-1.741189848620074698e-01,9.223517563974382993e-02
8.189999999999999503e-01,3.278758898307947145e-02,-2.655163728208855267e-01,1.819431166196118499e-01
8.199999999999999512e-01,-2.407592485771332391e-01,-1.542195316175259678e-01,1.532801807779339276e-01
8.209999999999999520e-01,-3.074481177160627299e-01,7.735064743211853000e-02,-1.115722568639932778e-02
8.219999999999999529e-01,-1.640006398016069233e-01,2.301607492093928342e-01,-1.524766877062042891e-01
8.229999999999999538e-01,1.231897889058338469e-01,2.395725034859879921e-01,-2.064059923758228832e-01
8.239999999999999547e-01,3.190589265901215277e-01,4.139398585631913485e-02,-6.795744603890555013e-02
8.249999999999999556e-01,2.337993173770231414e-01,-1.939065253460895699e-01,1.029250969437799784e-01
8.259999999999999565e-01,-3.184225344913940020e-03,-2.665274072767491176e-01,1.843934695672257151e-01
8.269999999999999574e-01,-2.644001952530914967e-01,-1.152126940113605141e-01,1.621051658068524970e-01
8.279999999999999583e-01,-2.925812478627297097e-01,1.141035803447204566e-01,-1.141589840374294257e-02
8.289999999999999591e-01,-1.345625408256948263e-01,2.464345448003707473e-01,-1.778563307026189422e-01
8.299999999999999600e-01,1.313757200909363709e-01,1.896618338568450413e-01,-1.838106678472005429e-01
8.309999999999999609e-01,2.966004708101998566e-01,-2.143643065716752116e-03,-6.786620767856377245e-02
8.319999999999999618e-01,2.362238330481226667e-01,-1.983252479698105752e-01,9.875124561249819244e-02
8.329999999999999627e-01,-2.777555358331660479e-02,-2.351628115409935549e-01,1.893541070332630250e-01
8.339999999999999636e-01,-2.684425625309745378e-01,-1.129502413104725711e-01,1.435945592351176303e-01
8.349999999999999645e-01,-2.937930867461073792e-01,1.474227857161237443e-01,-4.649659601340332127e-02
8.359999999999999654e-01,-9.601072970308728582e-02,2.498430668702449620e-01,-1.678216425718954685e-01
8.369999999999999662e-01,1.672304388568476852e-01,1.799220132970885677e-01,-1.618268271030330330e-01
8.379999999999999671e-01,3.173782284418361632e-01,-3.303833309025260012e-02,-5.357938260149359283e-02
8.389999999999999680e-01,2.197449191205567975e-01,-2.226013229089683632e-01,1.085392087828941365e-01
8.399999999999999689e-01,-4.739287470170495953e-02,-2.323150633145321942e-01,1.873170237441704467e-01
8.409999999999999698e-01,-2.746446815839044819e-01,-3.471326335947679670e-02,1.364101591440770589e-01
8.419999999999999707e-01,-2.820575894989300059e-01,1.522689016498097181e-01,-3.265714528195209215e-02
8.429999999999999716e-01,-8.068625807186857735e-02,2.465780609629056874e-01,-1.402729167822637513e-01
8.439999999999999725e-01,1.882846317496950916e-01,1.310792190310071659e-01,-1.709375966802170188e-01
8.449999999999999734e-01,3.239421987838482786e-01,-8.763479971360700616e-02,-7.736370531485903257e-02
8.459999999999999742e-01,1.969956018893892213e-01,-2.342511795641818995e-01,8.665331678833550211e-02
8.469999999999999751e-01,-1.012590314196440966e-01,-2.110470137214316422e-01,1.729118461301863696e-01
8.479999999999999760e-01,-2.884412130310869404e-01,-1.235069516037615341e-02,1.252286410874913214e-01
8.489999999999999769e-01,-2.637930961434469812e-01,2.043060587170556497e-01,-2.860634651263104650e-02
8.499999999999999778e-01,-5.743485216663931497e-02,2.634070526575177928e-01,-1.906014748887786270e-01
8.509999999999999787e-01,2.189708804999963287e-01,1.001790978290967998e-01,-1.779094288657884770e-01
8.519999999999999796e-01,3.251160288821172695e-01,-1.380111205297090138e-01,-5.356963694001885129e-02
8.529999999999999805e-01,1.797046975395895918e-01,-2.358289489414175100e-01,1.079818944207202175e-01
8.539999999999999813e-01,-1.105975027425885743e-01,-1.878551316350141609e-01,1.888468475518014222e-01
8.549999999999999822e-01,-2.961980616945022460e-01,2.119740861311746050e-02,1.221464195367602257e-01
8.559999999999999831e-01,-2.675656554930933018e-01,2.399352857823901786e-01,-4.572474337959572116e-02
8.569999999999999840e-01,-8.674501296748527487e-04,2.592037561267494516e-01,-1.684454131669566868e-01
8.579999999999999849e-01,2.434713523174934779e-01,4.967730860695705047e-02,-1.711723436722628056e-01
8.589999999999999858e-01,3.205682451994767979e-01,-1.580830434138635054e-01,-6.345625589222270158e-02
8.599999999999999867e-01,1.222125816348759580e-01,-2.508581407192119195e-01,1.110267932211872477e-01
8.609999999999999876e-01,-1.313205297284195938e-01,-1.344446134416787397e-01,1.718795234956232709e-01
8.619999999999999885e-01,-3.037412315654569039e-01,5.362228817391861274e-02,1.147029132489247455e-01
8.629999999999999893e-01,-2.413719931077421832e-01,2.517202268603712656e-01,-5.726493893793978968e-02
8.639999999999999902e-01,2.282100569668201601e-02,2.135979569724862637e-01,-1.765274900068346531e-01
8.649999999999999911e-01,2.494143807474415164e-01,1.209833003284612081e-02,-1.715602630805121986e-01
8.659999999999999920e-01,3.024552709882449286e-01,-1.798671990193891346e-01,-6.149389135060219502e-02
8.669999999999999929e-01,1.179055053819567656e-01,-2.393686772121704776e-01,1.380621651897840918e-01
8.679999999999999938e-01,-1.707887924763308307e-01,-1.174256666230390211e-01,1.859490884045277570e-01
8.689999999999999947e-01,-3.140285442181729447e-01,1.115638064642574534e-01,1.039706590424029631e-01
8.699999999999999956e-01,-2.224817435481496741e-01,2.478904240925798863e-01,-5.139996365751717255e-02
8.709999999999999964e-01,6.054470516845473355e-02,2.007560681778868539e-01,-1.834226671540828968e-01
8.719999999999999973e-01,2.703402192637147650e-01,-2.640076526615628156e-03,-1.763266088108312590e-01
8.729999999999999982e-01,2.768280666906882681e-01,-2.050667775124101755e-01,-6.914969895875930708e-03
8.739999999999999991e-01,6.325885909811748697e-02,-2.455919770174166128e-01,1.422042453842636556e-01
8.750000000000000000e-01,-1.885194033641849620e-01,-7.559504449948734051e-02,1.766217749448092955e-01
8.760000000000000009e-01,-3.247005322666850491e-01,1.536179559014875795e-01,1.135041468815311538e-01
8.770000000000000018e-01,-1.935349624684862269e-01,2.617905385748451885e-01,-4.895547368811855454e-02
8.780000000000000027e-01,6.840798363182475084e-02,1.967271822877971199e-01,-1.707389283709149219e-01
8.790000000000000036e-01,2.884242697270558708e-01,-6.480986730167655196e-02,-1.698158802982192850e-01
8.800000000000000044e-01,2.821627796857187898e-01,-2.347255214927879141e-01,-2.132557259638035926e-02
8.810000000000000053e-01,5.212051948282840630e-02,-2.300262889336992522e-01,1.278205749160935545e-01
8.820000000000000062e-01,-2.349592479178325977e-01,-4.754217269375681648e-02,2.080228860340923580e-01
8.830000000000000071e-01,-3.228395368283206168e-01,1.817727729326749087e-01,1.107435176136542104e-01
8.840000000000000080e-01,-1.820910834728692307e-01,2.570749397252421464e-01,-6.890336453779651038e-02
8.850000000000000089e-01,1.268731783804674385e-01,1.316492008661926671e-01,-1.754555806882091007e-01
8.860000000000000098e-01,2.907767543061045568e-01,-9.741800314493596902e-02,-1.738107647732493044e-01
8.870000000000000107e-01,2.608537127050853943e-01,-2.530841983380965887e-01,-1.869121619990062738e-02
8.880000000000000115e-01,3.450422076699100060e-03,-1.990663966198851775e-01,1.532527894638852639e-01
8.890000000000000124e-01,-2.309864858570075952e-01,-1.860690708305843362e-03,2.013445070900973244e-01
8.900000000000000133e-01,-3.238454696253191822e-01,2.156949760825035700e-01,1.132645546712667262e-01
8.910000000000000142e-01,-1.529987264601350150e-01,2.431437418007829365e-01,-6.608841009278146328e-02
8.920000000000000151e-01,1.355054276927181445e-01,8.858205867146069779e-02,-1.722777239845993957e-01
8.930000000000000160e-01,3.140716390168715733e-01,-1.226690353151294599e-01,-1.758226923581717449e-01
8.940000000000000169e-01,2.661792432359222915e-01,-2.499914485734486269e-01,-3.608713881289671299e-02
8.950000000000000178e-01,3.443738780336348497e-03,-1.807973944829308621e-01,1.357050529477837886e-01
8.960000000000000187e-01,-2.704577985069427926e-01,3.883389387930878678e-02,1.872396886395731319e-01
8.970000000000000195e-01,-2.860137260248210023e-01,2.315508022062648386e-01,7.012014017417995959e-02
8.980000000000000204e-01,-1.284023463546317134e-01,2.381203770449301371e-01,-7.616194621988317537e-02
8.990000000000000213e-01,1.767445579880208284e-01,6.403478375487761665e-02,-1.945134826919455995e-01
9.000000000000000222e-01,3.195038866169405689e-01,-1.633909370946025064e-01,-1.555745218042998979e-01
9.010000000000000231e-01,2.271954651163493322e-01,-2.635984984443728307e-01,-1.106434139241096667e-02
9.020000000000000240e-01,-3.174836810869988146e-02,-1.570419834013472571e-01,1.286406900249305041e-01
9.030000000000000249e-01,-2.796710218833690087e-01,8.391516841885598987e-02,1.783396233876774484e-01
9.040000000000000258e-01,-3.213830353847444421e-01,2.005948426619032776e-01,9.446130867441476786e-02
9.050000000000000266e-01,-7.295594013119280352e-02,2.139549436103671542e-01,-8.874445128986563347e-02
9.060000000000000275e-01,1.845167153585101083e-01,1.086995580570853347e-02,-1.912082298136246750e-01
9.070000000000000284e-01,3.169210264493959595e-01,-1.957578290544773891e-01,-1.556268559759343695e-01
9.080000000000000293e-01,1.999746549369669779e-01,-2.362509334561107011e-01,1.328165263136719086e-02
9.090000000000000302e-01,-7.053104470481294519e-02,-1.107221594614997001e-01,1.403005489237946490e-01
9.100000000000000311e-01,-2.774324256183653414e-01,1.122507796884266162e-01,1.782843693275561192e-01
9.110000000000000320e-01,-2.821843973494634339e-01,2.432151272347369275e-01,8.588467177799991026e-02
9.120000000000000329e-01,-5.173755878785562395e-02,1.747361133824580359e-01,-6.813157161367275338e-02
9.130000000000000338e-01,1.992882362351223735e-01,-3.527614394159445110e-02,-1.827178380797816748e-01
9.140000000000000346e-01,3.166446046589043162e-01,-2.107665144826394166e-01,-1.431225278158143599e-01
9.150000000000000355e-01,1.740620738020312031e-01,-2.345108446660687795e-01,1.213236647205957232e-02
9.160000000000000364e-01,-8.283094185645197005e-02,-7.848430213196043448e-02,1.625934935617031618e-01
9.170000000000000373e-01,-2.976693396950889636e-01,1.432978896214535669e-01,1.805669702378671360e-01
9.180000000000000382e-01,-2.661736008334287251e-01,2.530902437092383828e-01,9.626358830683476309e-02
9.190000000000000391e-01,-2.386764420765934841e-02,1.568606745622536103e-01,-8.895133119560773294e-02
9.200000000000000400e-01,2.323488946574938097e-01,-6.187904858932846003e-02,-1.979308965106500728e-01
9.210000000000000409e-01,3.036735496782969612e-01,-2.433738444406218504e-01,-1.544826967939029738e-01
9.220000000000000417e-01,1.478757490972047450e-01,-2.509839434816392711e-01,1.429279963358447841e-02
9.230000000000000426e-01,-1.194993874499771236e-01,-5.994835125605783160e-02,1.506369039559568301e-01
9.240000000000000435e-01,-3.143954071069910428e-01,1.752655687314977340e-01,1.870257213603355173e-01
9.250000000000000444e-01,-2.565190980785881369e-01,2.248821566123471727e-01,6.395958754798374002e-02
9.260000000000000453e-01,1.312314752517811448e-02,1.298940339881635986e-01,-8.141775771076061041e-02
9.270000000000000462e-01,2.585527345696881918e-01,-1.031044523338535968e-01,-1.822898413919570582e-01
9.280000000000000471e-01,3.111221888065510699e-01,-2.470111806494664219e-01,-1.114568542394311634e-01
9.290000000000000480e-01,1.222857606227728267e-01,-2.167286185487441175e-01,6.289839682620417850e-03
9.300000000000000488e-01,-1.405567663896785113e-01,1.857114185719625082e-02,1.521215076003384348e-01
9.310000000000000497e-01,-3.161573732464250663e-01,2.031484998596481129e-01,1.684179556926707899e-01
9.320000000000000506e-01,-2.320418828521050858e-01,2.593744643514921955e-01,7.651750073736782176e-02
9.330000000000000515e-01,1.067643540859269588e-02,9.751424103060415960e-02,-1.001077893628439242e-01
9.340000000000000524e-01,2.635601238555402848e-01,-1.232779409356676709e-01,-1.924820269639000714e-01
9.350000000000000533e-01,3.069542436986326117e-01,-2.442057772749861022e-01,-1.374361560099268686e-01
9.360000000000000542e-01,1.079203166899352362e-01,-1.948245718278152627e-01,3.163732523469903191e-02
9.370000000000000551e-01,-1.932994346601541735e-01,5.506748520214007486e-02,1.644889371752111806e-01
9.379999999999999449e-01,-3.160084711224482312e-01,2.289127344033524969e-01,1.813040898955041169e-01
9.389999999999999458e-01,-1.954527942717993738e-01,2.382227316387413585e-01,5.952338018687019366e-02
9.399999999999999467e-01,5.502727833112817241e-02,3.841206029326264815e-02,-1.082148936326409183e-01
9.409999999999999476e-01,3.000441072383627783e-01,-1.755372659874557817e-01,-1.878617905515310160e-01
9.419999999999999485e-01,3.100880495679769755e-01,-2.554861356444602105e-01,-1.398149463524260561e-01
9.429999999999999494e-01,6.547857195675917119e-02,-1.305643096981723428e-01,-2.667011496884858727e-03
9.439999999999999503e-01,-1.847206869568553123e-01,7.566598296034565685e-02,1.621474792145930488e-01
9.449999999999999512e-01,-3.167312369523114235e-01,2.398562024162353146e-01,1.796004854687931196e-01
9.459999999999999520e-01,-1.910782040568207996e-01,2.130842411102393252e-01,6.726455694550885489e-02
9.469999999999999529e-01,9.390816250571143442e-02,9.948113500352748564e-03,-1.013227605459817021e-01
9.479999999999999538e-01,3.132845597472751487e-01,-1.950967989172207040e-01,-2.064839705047336882e-01
9.489999999999999547e-01,2.644174062129511227e-01,-2.417231975231355634e-01,-1.239290696966328931e-01
9.499999999999999556e-01,2.653984822516482905e-02,-1.185890272091597170e-01,8.201947955845043103e-03
9.509999999999999565e-01,-2.435291652241295957e-01,1.185564811688078063e-01,1.744949081947178571e-01
9.519999999999999574e-01,-3.140949856751595326e-01,2.676631546148436902e-01,1.837978397311784695e-01
9.529999999999999583e-01,-1.563227752753406363e-01,1.865036939391839510e-01,4.952670258108308327e-02
9.539999999999999591e-01,1.211953932840439119e-01,-8.813045108374214370e-03,-1.075581175802660661e-01
9.549999999999999600e-01,3.097584107713430845e-01,-2.232114715138007188e-01,-1.840483869687915275e-01
9.559999999999999609e-01,2.558970502999784458e-01,-2.409148013140550160e-01,-1.212258497769466148e-01
9.569999999999999618e-01,1.978234507052235511e-02,-6.889880241376010461e-02,2.967746517094984465e-02
9.579999999999999627e-01,-2.381288991465926874e-01,1.565530386936980767e-01,1.642438636947460839e-01
9.589999999999999636e-01,-3.122148347083024134e-01,2.627466989764696281e-01,1.786720844250135054e-01
9.599999999999999645e-01,-1.361192716734207775e-01,1.735010350632506526e-01,5.132009998742267931e-02
9.609999999999999654e-01,1.257382487047963571e-01,-8.373102303009961889e-02,-1.301810733127617969e-01
9.619999999999999662e-01,3.121717439483440715e-01,-2.279549921320595252e-01,-1.923758894950639564e-01
9.629999999999999671e-01,2.531365299932684110e-01,-2.277111502331693738e-01,-1.126963075078248333e-01
9.639999999999999680e-01,-2.480481368455457469e-02,-4.618757610714051970e-02,5.539525703067815776e-02
9.649999999999999689e-01,-2.681585592245893657e-01,1.990545931733675167e-01,1.860073430167577535e-01
9.659999999999999698e-01,-3.107098398603554412e-01,2.442364650407911064e-01,1.673099333019311685e-01
9.669999999999999707e-01,-1.208547946819170660e-01,1.173961994004705384e-01,4.233418260977050290e-02
9.679999999999999716e-01,2.032840506844337813e-01,-1.163182329241633783e-01,-1.303712343706346644e-01
9.689999999999999725e-01,3.280855289011422871e-01,-2.458159284212013129e-01,-2.007718855389307999e-01
9.699999999999999734e-01,2.025111156903622589e-01,-2.042182230397690257e-01,-1.223684551208723686e-01
9.709999999999999742e-01,-4.453756034280503817e-02,1.743759585407660129e-02,6.008141927569308344e-02
9.719999999999999751e-01,-2.775897170677567583e-01,1.983153496632444057e-01,1.771997337712324372e-01
9.729999999999999760e-01,-2.877811375208992883e-01,2.450600109226556966e-01,1.734007511490898434e-01
9.739999999999999769e-01,-8.843481509525938367e-02,6.399746175110265778e-02,1.751460614230935034e-02
9.749999999999999778e-01,1.821611859555758162e-01,-1.372051133056499395e-01,-1.111003708301356446e-01
9.759999999999999787e-01,3.319476190545176952e-01,-2.514906960342183084e-01,-1.843269859008425937e-01
9.769999999999999796e-01,2.044014001997495611e-01,-1.850432955803399671e-01,-1.275489212303099473e-01
9.779999999999999805e-01,-6.245697501166168342e-02,6.660335851693241493e-02,4.230469570360577414e-02
9.789999999999999813e-01,-2.838658870486799324e-01,2.236350825380034602e-01,1.683155378786159451e-01
9.799999999999999822e-01,-2.665705167940894404e-01,2.307638141118357744e-01,1.531649625383175173e-01
9.809999999999999831e-01,-5.136763397737387216e-02,6.763714282136065736e-02,2.399270975881330481e-02
9.819999999999999840e-01,2.048956123429656606e-01,-1.801322115713873961e-01,-1.163578717513973348e-01
9.829999999999999849e-01,3.226304871125333373e-01,-2.415467770266119529e-01,-1.975060051010305295e-01
9.839999999999999858e-01,1.692646799017892278e-01,-1.334509810089372916e-01,-1.072093968942488262e-01
9.849999999999999867e-01,-1.125165233164446693e-01,7.218131288715030902e-02,7.209786428457026775e-02
9.859999999999999876e-01,-3.050461958689380526e-01,2.519673481750234756e-01,1.873133376477175427e-01
9.869999999999999885e-01,-2.655050892833391019e-01,2.109177157565582661e-01,1.624470207717347570e-01
9.879999999999999893e-01,-3.763323310610982436e-02,1.573892436487685925e-02,1.587705830316218231e-02
9.889999999999999902e-01,2.417951381559632351e-01,-1.882278014053114512e-01,-1.371188654102444282e-01
9.899999999999999911e-01,3.203116902344785855e-01,-2.351517499347546281e-01,-1.710265824961934300e-01
9.909999999999999920e-01,1.533679098402276064e-01,-7.801596390827614247e-02,-9.468620072910866048e-02
9.919999999999999929e-01,-1.343985744370891633e-01,1.048409029313784741e-01,5.696284387942081306e-02
9.929999999999999938e-01,-3.193722676182121356e-01,2.648934177737466422e-01,1.905199855328061354e-01
9.939999999999999947e-01,-2.541797091616456172e-01,1.719288969947645740e-01,1.651866888811450162e-01
9.949999999999999956e-01,5.719615806294625626e-03,-1.736433849136119478e-02,1.605082225407638077e-02
9.959999999999999964e-01,2.565891676003591027e-01,-2.095140800556841709e-01,-1.299188118561098726e-01
9.969999999999999973e-01,3.275239339938826877e-01,-2.371713784249215584e-01,-1.603281867117282156e-01
9.979999999999999982e-01,1.156893448522772483e-01,-8.931733278944228860e-02,-1.021683155074710886e-01
9.989999999999999991e-01,-1.674799226978690159e-01,1.615007026014941283e-01,6.390840432106112412e-02
1.000000000000000000e+00,-3.238281325721351078e-01,2.554294871146011170e-01,1.682709238172138688e-01
1.000999999999999890e+00,-2.464900917728585494e-01,1.316416995921717292e-01,1.535513921328774956e-01
1.002000000000000002e+00,3.141805491528263522e-02,-8.813143020904991298e-02,1.824246537586102007e-03
1.002999999999999892e+00,2.737690947342462100e-01,-2.547351815415498932e-01,-1.536353511025553842e-01
1.004000000000000004e+00,2.972121494803559583e-01,-1.995585455316749857e-01,-1.944093699547948528e-01
1.004999999999999893e+00,1.044511082740015862e-01,-3.108250197079444332e-02,-7.875813905509332358e-02
1.006000000000000005e+00,-1.882054107250316355e-01,1.852457518361621258e-01,6.359813993563670498e-02
1.006999999999999895e+00,-3.295576976909157518e-01,2.518667100480876941e-01,2.025476761691268335e-01
1.008000000000000007e+00,-1.887089344348811537e-01,1.116453661706258149e-01,1.447766817338580758e-01
1.008999999999999897e+00,6.300187488125970348e-02,-1.044527552021124045e-01,1.485536829257825577e-02
1.010000000000000009e+00,2.589097052571592283e-01,-2.303550275958037297e-01,-1.423991229310243301e-01
1.010999999999999899e+00,2.905848038250966603e-01,-1.907175399787431058e-01,-1.785393656658760819e-01
1.012000000000000011e+00,5.335028005085912933e-02,-1.182694029824169456e-02,-8.004400189007120081e-02
1.012999999999999901e+00,-2.051284140282511603e-01,2.084483731302415044e-01,7.754833495510625452e-02
1.014000000000000012e+00,-3.146137277531083076e-01,2.254305590193525222e-01,1.824020867069460206e-01
1.014999999999999902e+00,-1.900299731135678127e-01,7.792663891780003682e-02,1.476891159000906506e-01
1.016000000000000014e+00,8.236518275376894516e-02,-1.296226773710302260e-01,1.583075580465865412e-02
1.016999999999999904e+00,3.165836044012939610e-01,-2.713410818405238567e-01,-1.480611898709469632e-01
1.018000000000000016e+00,2.865714834723192550e-01,-1.657962748955189580e-01,-1.757403467654095885e-01
1.018999999999999906e+00,2.298457411321814386e-02,4.250914404580586475e-02,-8.424429998129763508e-02
1.020000000000000018e+00,-2.288864817612136782e-01,2.452445298692619013e-01,8.287785923681496858e-02
1.020999999999999908e+00,-3.350680491088112167e-01,2.303059509935038995e-01,2.122220909723991633e-01
1.022000000000000020e+00,-1.668213501297919343e-01,4.507990514666922188e-02,1.467355219703395386e-01
1.022999999999999909e+00,1.497039036808754664e-01,-1.833121853066122242e-01,-1.100629295495051492e-03
1.024000000000000021e+00,2.968478811528693639e-01,-2.331719184975362680e-01,-1.432495598092246303e-01
1.024999999999999911e+00,2.658002127790252689e-01,-1.240684969119903724e-01,-1.804072728309651097e-01
1.026000000000000023e+00,1.746480832647450548e-02,8.584349625475723444e-02,-7.035744416971470572e-02
1.026999999999999913e+00,-2.552943666628839647e-01,2.589240195293221469e-01,8.895458156687187368e-02
1.028000000000000025e+00,-3.380634264499726704e-01,2.155738169669081383e-01,1.836575105923326234e-01
1.028999999999999915e+00,-1.315081000969111624e-01,7.089641121193492566e-03,1.332003382014037285e-01
1.030000000000000027e+00,1.612913679763982866e-01,-1.940555154276450700e-01,-1.697958726906905955e-02
1.030999999999999917e+00,3.129262453150887247e-01,-2.487605526865435124e-01,-1.428918572650778318e-01
1.032000000000000028e+00,2.350733886373149450e-01,-1.120264622548731853e-01,-1.790814864546463048e-01
1.032999999999999918e+00,-8.274713905498240138e-03,1.414902421461352866e-01,-5.737458953785313370e-02
1.034000000000000030e+00,-2.580126486521992502e-01,2.515878973823226228e-01,1.009454844703973064e-01
1.034999999999999920e+00,-2.811123707800259330e-01,1.706986553001319518e-01,1.777993748805676566e-01
1.036000000000000032e+00,-1.282456620523214907e-01,-2.474032202988016294e-02,1.180678597219979725e-01
1.036999999999999922e+00,1.935850668593491197e-01,-2.233620101001088654e-01,-1.586054451132877519e-02
1.038000000000000034e+00,3.185123720347530218e-01,-2.131528784351805761e-01,-1.664365904099724125e-01
1.038999999999999924e+00,2.190297630204578461e-01,-6.278429307233679424e-02,-1.832056838455509706e-01
1.040000000000000036e+00,-3.798083496678963250e-02,1.656707744336290977e-01,-5.258104750321119375e-02
1.040999999999999925e+00,-2.687798765483481733e-01,2.575914545132865219e-01,1.152299955994942615e-01
1.042000000000000037e+00,-2.829800528343922039e-01,1.383615997533132747e-01,1.903459716079015929e-01
1.042999999999999927e+00,-7.023816488067420594e-02,-6.837953814627452387e-02,1.275778860255051550e-01
1.044000000000000039e+00,2.020299366476640268e-01,-2.500743104027012831e-01,-2.097979968833607947e-02
1.044999999999999929e+00,3.149526043630039296e-01,-2.015010971534586803e-01,-1.482035905911422424e-01
1.046000000000000041e+00,1.773700853101041752e-01,-9.966041115112790963e-03,-1.656234207759247068e-01
1.046999999999999931e+00,-9.376267345657696151e-02,1.888004079470942953e-01,-6.483179520903775694e-02
1.048000000000000043e+00,-2.823375822148305736e-01,2.632138095868408190e-01,9.287461762741976157e-02
1.048999999999999932e+00,-2.803194580878589637e-01,1.283911338989495998e-01,2.042663903629153288e-01
1.050000000000000044e+00,-3.147778131694856096e-02,-1.064303302079031982e-01,1.361199582141886799e-01
1.050999999999999934e+00,2.093834179802935014e-01,-2.568139743282833454e-01,-4.324739176297238974e-02
1.052000000000000046e+00,3.200817185274371091e-01,-2.029135829154632698e-01,-1.801098096868330167e-01
1.052999999999999936e+00,1.726578119791183918e-01,3.454097216836803097e-02,-1.641312388592675586e-01
1.054000000000000048e+00,-1.142833179958473722e-01,2.281427589114435328e-01,-4.039385761980403278e-02
1.054999999999999938e+00,-2.997814823855093902e-01,2.401687253904519481e-01,1.064514977330310030e-01
1.056000000000000050e+00,-2.660150767292520091e-01,8.069601398682821336e-02,1.883110245702041274e-01
1.056999999999999940e+00,-8.733714700386927335e-03,-1.369760783358244527e-01,1.418164796019366347e-01
1.058000000000000052e+00,2.455157227175017165e-01,-2.484015984076521633e-01,-2.562924588543223636e-02
1.058999999999999941e+00,3.135664444416311758e-01,-1.833769774472792935e-01,-1.865921997356898843e-01
1.060000000000000053e+00,1.458209851629121978e-01,6.923149609922031600e-02,-1.824393083239342073e-01
1.060999999999999943e+00,-1.378410154201054894e-01,2.461714447545017004e-01,-5.759494832721111235e-02
1.062000000000000055e+00,-2.990177471094433437e-01,2.122656416061547702e-01,1.038047470597201483e-01
1.062999999999999945e+00,-2.420846599754893080e-01,4.267628839997725243e-02,1.868050170616715189e-01
1.064000000000000057e+00,1.382498387836622600e-02,-1.943978267833785800e-01,1.067748937370762291e-01
1.064999999999999947e+00,2.699402184554262063e-01,-2.597370890547737732e-01,-4.391633996468809198e-02
1.066000000000000059e+00,2.939328917426194399e-01,-1.094235370862276374e-01,-1.705064313002367660e-01
1.066999999999999948e+00,1.090285225323478907e-01,1.010133788972604890e-01,-1.664057410102222356e-01
1.068000000000000060e+00,-1.778973487011110410e-01,2.364901446387298878e-01,-5.586980607083315981e-02
1.068999999999999950e+00,-3.126093216468247560e-01,2.127407356059990984e-01,1.148324145516108341e-01
1.070000000000000062e+00,-2.376979795031327336e-01,-7.736062497658039057e-03,2.009208632293343066e-01
1.070999999999999952e+00,2.011808808477466917e-02,-2.004093056103976034e-01,1.171176027327308494e-01
1.072000000000000064e+00,2.796115426316374553e-01,-2.560667662939050127e-01,-4.311439664727639842e-02
1.072999999999999954e+00,2.822454935621818151e-01,-8.028038860550690270e-02,-1.572023113303171460e-01
1.074000000000000066e+00,8.562103166594922654e-02,1.432055562697838458e-01,-1.658775098248784496e-01
1.074999999999999956e+00,-1.758217525022871819e-01,2.715158740312977326e-01,-4.865016456850027732e-02
1.076000000000000068e+00,-3.217336253285504877e-01,1.945673803541925484e-01,1.306996875498759869e-01
1.076999999999999957e+00,-1.905426271395339599e-01,-6.994278240150145209e-02,1.987843597380577199e-01
1.078000000000000069e+00,6.815541861363960674e-02,-2.175354286153948769e-01,9.920885789887495809e-02
1.078999999999999959e+00,2.895085432095008682e-01,-2.197648782135978307e-01,-5.702801780141251303e-02
1.080000000000000071e+00,2.975748700524115109e-01,-4.954413652442703209e-02,-1.673635030450475181e-01
1.080999999999999961e+00,5.084268687708830975e-02,1.717309171173712345e-01,-1.760984330158413547e-01
1.082000000000000073e+00,-2.219215832458316107e-01,2.623159437982068853e-01,-2.780254029668014631e-02
1.082999999999999963e+00,-3.186560204458565582e-01,1.565816454019937354e-01,1.421556464895124827e-01
1.084000000000000075e+00,-1.802992937955505415e-01,-7.943204074114179614e-02,2.026863614863140262e-01
1.084999999999999964e+00,9.792938164858598638e-02,-2.480948539120229890e-01,1.077749360458702954e-01
1.086000000000000076e+00,3.238650144686497367e-01,-1.977780855451869435e-01,-6.156848839933494466e-02
1.086999999999999966e+00,2.732745924628292022e-01,-9.792071542900642259e-03,-1.853616440541203392e-01
1.088000000000000078e+00,3.346974682832959402e-02,2.147704982809123531e-01,-1.527703263560279967e-01
1.088999999999999968e+00,-2.386068202506757552e-01,2.605843705136243749e-01,-2.209279650558548108e-02
1.090000000000000080e+00,-3.130269887265235695e-01,1.024293650313842646e-01,1.277651773023780191e-01
1.090999999999999970e+00,-1.638528679527615495e-01,-1.348115520541787737e-01,1.749136842289095717e-01
1.092000000000000082e+00,1.244913897877926584e-01,-2.322886040495387161e-01,9.629989278125045127e-02
1.092999999999999972e+00,3.018703786148011492e-01,-1.837541037630665564e-01,-7.665590699505302197e-02
1.094000000000000083e+00,2.425242185689905905e-01,1.495992160700586847e-02,-1.778103611637692483e-01
1.094999999999999973e+00,1.002243236678123685e-02,2.228886832798961382e-01,-1.652379559428671651e-01
1.096000000000000085e+00,-2.486229670384779988e-01,2.313568541939714507e-01,-1.535019169617486516e-02
1.096999999999999975e+00,-3.081307278409794459e-01,4.552488984098924246e-02,1.371233166314839158e-01
1.098000000000000087e+00,-1.408314194302604794e-01,-1.459643763627367086e-01,1.792901173116925040e-01
1.098999999999999977e+00,1.798729953464317521e-01,-2.628761838450855426e-01,1.000786885586032182e-01
1.100000000000000089e+00,3.060654838717254411e-01,-1.511131597186868847e-01,-5.340439789413767291e-02
1.100999999999999979e+00,2.190471334633948275e-01,7.278314865100848907e-02,-1.537474292009186616e-01
1.102000000000000091e+00,-3.579083001338616982e-02,2.371525846595854137e-01,-1.566049802528532986e-01
1.102999999999999980e+00,-2.832104673452733867e-01,2.254296651273369756e-01,-1.573885944329433961e-02
1.104000000000000092e+00,-2.916415936429180289e-01,4.367043748945647480e-02,1.456500801820901914e-01
1.104999999999999982e+00,-1.004070776159825401e-01,-1.657802552963654752e-01,1.932420166325936328e-01
1.106000000000000094e+00,1.690818237473275254e-01,-2.387927602500037605e-01,7.224916440193537848e-02
1.106999999999999984e+00,3.156180824730869250e-01,-1.031470419337391919e-01,-6.737547932247785198e-02
1.108000000000000096e+00,2.032616439239267880e-01,1.077305442909724936e-01,-1.758914101477608571e-01
1.108999999999999986e+00,-7.243701996193679937e-02,2.392546405784728436e-01,-1.537174645141274609e-01
1.110000000000000098e+00,-2.689994843693160886e-01,1.965325263523185761e-01,-2.071963622861458867e-02
1.110999999999999988e+00,-2.853879881057546086e-01,1.509943330337374778e-03,1.455022922801295082e-01
1.112000000000000099e+00,-7.036639095243855946e-02,-2.217560401807728843e-01,1.950221623569216578e-01
1.112999999999999989e+00,2.095383624648851362e-01,-2.305833757921879890e-01,9.391886411873963392e-02
1.114000000000000101e+00,3.257400028813228210e-01,-9.531348626497543330e-02,-9.176860870803829617e-02
1.114999999999999991e+00,1.769636445480501363e-01,1.269405104043979382e-01,-2.090432222339784762e-01
1.116000000000000103e+00,-1.066727863189446540e-01,2.552113441104797986e-01,-1.529159902827373074e-01
1.116999999999999993e+00,-3.083087217207326480e-01,1.890705314733424625e-01,-6.904469107654452077e-03
1.118000000000000105e+00,-2.604634703066156520e-01,-3.974649936143116041e-02,1.451527270565768080e-01
1.118999999999999995e+00,-4.195835305664303433e-02,-2.337991831402662923e-01,1.859699043912116379e-01
1.120000000000000107e+00,2.107179409345999732e-01,-2.358371685122447881e-01,9.553640239332338024e-02
1.120999999999999996e+00,3.174170478368977810e-01,-5.321123786317406151e-02,-7.615157689720518375e-02
1.122000000000000108e+00,1.628082524214732318e-01,1.684194085770125138e-01,-1.921477593085648972e-01
1.122999999999999998e+00,-1.215916110297742408e-01,2.721409685362358721e-01,-1.498446107956251661e-01
1.124000000000000110e+00,-3.075050584627785355e-01,1.258132880611750604e-01,-3.813262284068953244e-03
1.125000000000000000e+00,-2.417601571948387040e-01,-6.478785224141832277e-02,1.616280137724943888e-01
1.125999999999999890e+00,-8.088523649324615150e-03,-2.589472042486341552e-01,1.858477409963349980e-01
1.127000000000000002e+00,2.413977563609151777e-01,-2.064981203132909837e-01,8.002815394258129544e-02
1.127999999999999892e+00,3.158690505359406653e-01,-1.863004231699160948e-02,-8.259249845329404149e-02
1.129000000000000004e+00,1.236733243992797215e-01,1.955111283295769553e-01,-1.767914295583533357e-01
1.129999999999999893e+00,-1.321806473292207740e-01,2.393861130772891588e-01,-1.379648144915467389e-01
1.131000000000000005e+00,-2.918227701200499791e-01,9.905924124158677069e-02,-6.032604197821867832e-03
1.131999999999999895e+00,-2.202673068143795043e-01,-1.298364682278280724e-01,1.496087255249388126e-01
1.133000000000000007e+00,2.546618213730625357e-02,-2.618258627702810815e-01,1.846703341611791449e-01
1.133999999999999897e+00,2.518591319965667874e-01,-1.845185008986545139e-01,8.023601690510853701e-02
1.135000000000000009e+00,3.002937470623693872e-01,4.631811987406377756e-02,-9.019372407795052393e-02
1.135999999999999899e+00,1.030913880182551257e-01,2.206822773363160684e-01,-1.869213958600516867e-01
1.137000000000000011e+00,-1.847064806995064590e-01,2.198275708796639250e-01,-1.555665043906615530e-01
1.137999999999999901e+00,-3.182526088060791958e-01,5.785327806205362716e-02,1.792861013373922216e-02
1.139000000000000012e+00,-2.253301957070371619e-01,-1.499427251152424811e-01,1.454182102473562110e-01
1.139999999999999902e+00,6.893742609039986424e-02,-2.527031205647865542e-01,1.866332641487230548e-01
1.141000000000000014e+00,2.715329506191061504e-01,-1.450222001191367738e-01,6.838203963903381755e-02
1.141999999999999904e+00,2.880294677829222660e-01,8.610768964834122907e-02,-8.142840546756502373e-02
1.143000000000000016e+00,7.576733324068879449e-02,2.328563456483694893e-01,-1.828998845334182111e-01
1.143999999999999906e+00,-1.896736105588570365e-01,1.984583943770199532e-01,-1.357931158943961047e-01
1.145000000000000018e+00,-3.371161541430747755e-01,2.205743394674200206e-02,1.815634624475742295e-02
1.145999999999999908e+00,-2.021879325667114424e-01,-1.825071848834595167e-01,1.471501534764564911e-01
1.147000000000000020e+00,9.386529256140185851e-02,-2.577859152457241954e-01,1.825884205067134780e-01
1.147999999999999909e+00,2.954822711147070402e-01,-1.083772031683954556e-01,7.395436926031481728e-02
1.149000000000000021e+00,2.606833752529660320e-01,1.056633542294499600e-01,-1.076472768226672400e-01
1.149999999999999911e+00,5.160676604287917080e-02,2.628041154308249916e-01,-2.035045266074377301e-01
1.151000000000000023e+00,-2.150519278079188468e-01,2.051606902609545979e-01,-1.278847352636159618e-01
1.151999999999999913e+00,-3.240715973393401006e-01,-2.557097417259211053e-02,4.001534294641494877e-02
1.153000000000000025e+00,-1.562163482749773236e-01,-2.232082912032399280e-01,1.562997045996222245e-01
1.153999999999999915e+00,1.105770775488003066e-01,-2.504013701911397827e-01,1.662977696291626228e-01
1.155000000000000027e+00,2.956529741515743770e-01,-6.823287801389740781e-02,8.505144307943993121e-02
1.155999999999999917e+00,2.541326830514916701e-01,1.506663285156668031e-01,-1.066152918807376504e-01
1.157000000000000028e+00,1.572903654283558383e-02,2.429032184728265042e-01,-1.899292882248014291e-01
1.157999999999999918e+00,-2.442339506616841571e-01,1.785751069813186487e-01,-1.436100022321435132e-01
1.159000000000000030e+00,-3.161825868060179623e-01,-6.101569638559643100e-02,2.393008557210278900e-02
1.159999999999999920e+00,-1.273718931148298539e-01,-2.391205027938133887e-01,1.615443426466806331e-01
1.161000000000000032e+00,1.218935715725011498e-01,-2.389280615725173362e-01,1.952400053540494784e-01
1.161999999999999922e+00,3.065844079013601564e-01,-4.842227167362796181e-02,6.762347312290356571e-02
1.163000000000000034e+00,2.272984475773519308e-01,1.942883790069648564e-01,-1.003664083857390837e-01
1.163999999999999924e+00,-1.537389192554087722e-02,2.401938402669984984e-01,-1.920684256230607567e-01
1.165000000000000036e+00,-2.737032279845642013e-01,1.235306343394115547e-01,-1.256287175292407354e-01
1.165999999999999925e+00,-2.997573054534810599e-01,-8.033735949648666830e-02,3.273644199493874057e-02
1.167000000000000037e+00,-1.358747014716109591e-01,-2.314199833209082680e-01,1.911021685738052422e-01
1.167999999999999927e+00,1.608910869894928652e-01,-2.119938002068137428e-01,1.803167895457429837e-01
1.169000000000000039e+00,3.307139484358379566e-01,1.181533810211835575e-03,5.357092895844437624e-02
1.169999999999999929e+00,2.204035879309599044e-01,2.122066929010555103e-01,-1.136055384807193730e-01
1.171000000000000041e+00,-2.848698058758377533e-02,2.462383004573940604e-01,-1.933387043231178382e-01
1.171999999999999931e+00,-2.835840756391508344e-01,9.986425342065768929e-02,-1.117978094306125714e-01
1.173000000000000043e+00,-3.085921702034609138e-01,-1.320062979125828928e-01,3.833330935964197883e-02
1.173999999999999932e+00,-8.554890863059155803e-02,-2.506409344844295339e-01,1.786033408721254823e-01
1.175000000000000044e+00,1.909407086479639193e-01,-1.727608489754508259e-01,1.673648568244874568e-01
1.175999999999999934e+00,3.042128295121723225e-01,2.951657282317949119e-02,4.106807292931027170e-02
1.177000000000000046e+00,2.084006848953555424e-01,2.019217757721987194e-01,-1.216862377318761040e-01
1.177999999999999936e+00,-6.950471171613605004e-02,2.357832506911108905e-01,-1.838531644045288127e-01
1.179000000000000048e+00,-2.768480009229724592e-01,5.614862782577362960e-02,-1.147916744476634582e-01
1.179999999999999938e+00,-3.146257905347824568e-01,-1.781794857715732205e-01,2.979278421277565397e-02
1.181000000000000050e+00,-6.704005749005914616e-02,-2.574887255058982416e-01,1.770680854346312338e-01
