time,acc_x,acc_y,acc_z
0.000000000000000000e+00,-2.188653816313518019e-01,-2.218345660359750948e-01,-7.381932269550801895e-02
1.000000000000000021e-03,-2.646631789315332384e-01,-1.507386920225744220e-01,-1.912714935707423847e-01
2.000000000000000042e-03,5.247069397416993103e-02,1.110524600416200047e-01,-6.891782620553689453e-02
3.000000000000000062e-03,3.025949991325436184e-01,2.653828497284440036e-01,1.596013041518757336e-01
4.000000000000000083e-03,2.197251573803916391e-01,6.420867721962236763e-02,1.693388408738837059e-01
5.000000000000000104e-03,-1.413744832364499937e-01,-1.875675301907827053e-01,-1.196840028392897638e-02
6.000000000000000125e-03,-2.945581681272761432e-01,-1.924379555230334715e-01,-1.599564760173596278e-01
7.000000000000000146e-03,-8.432255997871167252e-02,6.341480066657873005e-02,-1.128883645727941504e-01
8.000000000000000167e-03,2.660199193836296216e-01,2.547365419762411265e-01,7.508050313427981626e-02
8.999999999999999320e-03,2.740820068147023503e-01,1.149517480738976444e-01,1.999543121428213333e-01
1.000000000000000021e-02,-5.646739682776749647e-02,-1.696063642507446012e-01,3.802908478200207193e-02
1.099999999999999936e-02,-3.312174756837681922e-01,-2.267179666223517187e-01,-1.764461655879955571e-01
1.200000000000000025e-02,-1.560830501398881021e-01,-4.255124001620401615e-03,-1.511005124898747443e-01
1.299999999999999940e-02,1.939263655941857456e-01,2.209737053460234524e-01,-5.949866210303158620e-04
1.400000000000000029e-02,3.030370325714451529e-01,1.702359405776884826e-01,1.692293523053773896e-01
1.499999999999999944e-02,1.491306431202116430e-02,-9.337154426873750523e-02,1.200523281294010314e-01
1.600000000000000033e-02,-2.919130232968540350e-01,-2.567155327974948720e-01,-1.174772942127511183e-01
1.700000000000000122e-02,-2.313227968531606504e-01,-6.279023792441326690e-02,-1.879612706290824942e-01
1.799999999999999864e-02,1.304832620989664904e-01,2.123982369458990993e-01,-3.436991347838599248e-02
1.899999999999999953e-02,3.372431677871928213e-01,1.986182625107841271e-01,1.376790503487871631e-01
2.000000000000000042e-02,1.446173972750137982e-01,-8.506482088414166198e-02,1.396648487235604141e-01
2.100000000000000130e-02,-2.390671426958886625e-01,-2.604551876287213852e-01,-4.349415479034645510e-02
2.199999999999999872e-02,-2.514251356470781906e-01,-1.027106432575547318e-01,-1.950445230904217786e-01
2.299999999999999961e-02,2.787619310637022910e-02,1.672946383263287928e-01,-1.087024826653504167e-01
2.400000000000000050e-02,3.197309620319764289e-01,2.060138814297997334e-01,1.072893700615564078e-01
2.500000000000000139e-02,1.795781304132275380e-01,-5.517818416478635288e-03,1.792172318782926654e-01
2.599999999999999881e-02,-1.632024721925589839e-01,-2.679856916650845688e-01,2.901621503273991987e-02
2.699999999999999969e-02,-3.301441398933445681e-01,-1.772922652326298920e-01,-1.760104700176747805e-01
2.800000000000000058e-02,-6.092453599376148471e-02,1.214415042400075473e-01,-1.184232958788576789e-01
2.900000000000000147e-02,2.650724890873353279e-01,2.410426023185044397e-01,6.909649630265433939e-02
2.999999999999999889e-02,2.356087765061266881e-01,2.667925837799386621e-02,1.970275604384504053e-01
3.099999999999999978e-02,-8.731870296602356474e-02,-2.082623741985644705e-01,8.785492098923818050e-02
3.200000000000000067e-02,-3.095264928245621827e-01,-2.069790350760064568e-01,-9.010710847743357010e-02
3.300000000000000155e-02,-1.464877727211152947e-01,6.451170016708056287e-02,-1.672014115771497944e-01
3.400000000000000244e-02,1.847122284313339191e-01,2.720649053704292664e-01,-2.022176997825135200e-02
3.500000000000000333e-02,3.284661012900176313e-01,1.071913879849829554e-01,1.408714850436019184e-01
3.599999999999999728e-02,-4.240000757153111755e-03,-2.061173910937650899e-01,1.404477689771256310e-01
3.699999999999999817e-02,-2.922442896449595762e-01,-2.143959408232280761e-01,-5.584011763040477860e-02
3.799999999999999906e-02,-2.271035174690652081e-01,4.112876189426828422e-02,-1.702732715451548418e-01
3.899999999999999994e-02,1.151663807145539148e-01,2.556447165986167058e-01,-6.221296924755129187e-02
4.000000000000000083e-02,3.174511693458527128e-01,1.282467887756565950e-01,1.193186418609303995e-01
4.100000000000000172e-02,9.307907757071576249e-02,-1.318518329533669708e-01,1.853852566557059600e-01
4.200000000000000261e-02,-2.397141172890331073e-01,-2.701393820130971735e-01,-1.429543570690309726e-02
4.299999999999999656e-02,-2.630756010527099398e-01,-5.086790186128357233e-02,-1.777819441383261256e-01
4.399999999999999745e-02,3.550622345824631931e-02,2.207444780467671119e-01,-1.274252430167779893e-01
4.499999999999999833e-02,3.030497924398565801e-01,1.822000795740388313e-01,6.824803893335086580e-02
4.599999999999999922e-02,1.841046643630337987e-01,-8.964305057659903431e-02,1.803052952217910898e-01
4.700000000000000011e-02,-1.914822073407538017e-01,-2.622076970663463347e-01,6.841804520945662937e-02
4.800000000000000100e-02,-2.848500558187939125e-01,-9.533749147337033936e-02,-1.293912857672031569e-01
4.900000000000000189e-02,-2.569732877583687236e-02,1.745886882908622706e-01,-2.021439757766731182e-01
5.000000000000000278e-02,2.829092557653250517e-01,2.229247522486812738e-01,1.256898423437259604e-02
5.099999999999999672e-02,2.307711703565612782e-01,-2.750181105045229960e-02,1.881588288441466694e-01
5.199999999999999761e-02,-1.084747593567116919e-01,-2.233222364230346979e-01,1.510161739140161441e-01
5.299999999999999850e-02,-2.975498739602677745e-01,-1.343989519286527545e-01,-8.692199301862280070e-02
5.399999999999999939e-02,-1.335233506245365465e-01,1.544066098552543675e-01,-2.189634366723043069e-01
5.500000000000000028e-02,2.402233986437949387e-01,2.445155018655791046e-01,-5.719027054977145197e-02
5.600000000000000117e-02,2.708656450089975132e-01,1.595426271906138366e-02,1.362760996348383324e-01
5.700000000000000205e-02,1.707026727217720793e-02,-2.169667580276995189e-01,1.682586217856188171e-01
5.800000000000000294e-02,-2.976659126212808926e-01,-2.210315871540852184e-01,-4.690881257653845005e-02
5.899999999999999689e-02,-1.960690650049101424e-01,9.719869090681808321e-02,-1.653378187572789870e-01
5.999999999999999778e-02,1.550696498004430213e-01,2.347463197119308842e-01,-1.275898278143566267e-01
6.099999999999999867e-02,3.111277263935061654e-01,8.541999932966851117e-02,1.048976389464942038e-01
6.199999999999999956e-02,6.036508114096715560e-02,-1.843645726827894959e-01,1.900655821890314956e-01
6.300000000000000044e-02,-2.627526476694690416e-01,-2.541018654976114899e-01,2.929086644731512118e-02
6.400000000000000133e-02,-2.692490985635691003e-01,4.507826526454868782e-02,-1.509150125550346722e-01
6.500000000000000222e-02,8.079165384916056625e-02,2.047939048155830721e-01,-1.613575117761986699e-01
6.600000000000000311e-02,3.256166561547017002e-01,1.244030571555720249e-01,7.347961907963525274e-02
6.700000000000000400e-02,1.657392877876896486e-01,-1.425909860217285940e-01,1.656821531526829483e-01
6.800000000000000488e-02,-2.156143319542611070e-01,-2.312571461061093125e-01,9.320428798137142534e-02
6.900000000000000577e-02,-3.321646363456029483e-01,-1.538520094055058351e-02,-1.106322164962293964e-01
7.000000000000000666e-02,-3.722908752283049516e-02,2.040883483334765269e-01,-1.722508558125216971e-01
7.099999999999999367e-02,2.847959337120032908e-01,1.795604442778993004e-01,-2.414758243375224669e-02
7.199999999999999456e-02,2.504254360935767587e-01,-1.244452151387985817e-01,1.560116295777256856e-01
7.299999999999999545e-02,-1.167936851216210825e-01,-2.416161565450258009e-01,1.435395474607810418e-01
7.399999999999999634e-02,-3.329879104343342333e-01,-6.187423881056925562e-02,-5.326616617915788665e-02
7.499999999999999722e-02,-1.187355049008401164e-01,2.029468028279498015e-01,-1.685018810804513878e-01
7.599999999999999811e-02,2.272647142890345806e-01,2.029290429826033915e-01,-9.483435619984223464e-02
7.699999999999999900e-02,2.777218116871503217e-01,-6.814783751121453181e-02,1.117472503686993274e-01
7.799999999999999989e-02,-1.775525514428082097e-02,-2.479698680309416481e-01,2.003371168521332901e-01
7.900000000000000078e-02,-2.841511322489760349e-01,-1.113189040112805422e-01,3.072848861496722470e-02
8.000000000000000167e-02,-1.780779183939154575e-01,1.779958012958309799e-01,-1.821394336308795880e-01
8.100000000000000255e-02,1.589030368053316322e-01,2.429370134270711079e-01,-1.385910904053409554e-01
8.200000000000000344e-02,3.362638576254344258e-01,1.109580395942872354e-02,4.532843052854217819e-02
8.300000000000000433e-02,4.618898091102001391e-02,-2.237846025623903834e-01,1.874814453213519971e-01
8.400000000000000522e-02,-2.482915505398863021e-01,-1.782353238784024629e-01,6.246870791834274739e-02
8.500000000000000611e-02,-2.469860175068503139e-01,1.127099677196334582e-01,-9.572364241705999532e-02
8.599999999999999312e-02,7.912208058566547186e-02,2.469911266081182832e-01,-1.814354456835205187e-01
8.699999999999999400e-02,3.231996249673282362e-01,5.316450798240890396e-02,9.910903746384763444e-03
8.799999999999999489e-02,1.452297766140270008e-01,-2.051204853523178329e-01,1.638685628682875761e-01
8.899999999999999578e-02,-2.208753464249058329e-01,-2.054378222468277726e-01,1.418275248993146886e-01
8.999999999999999667e-02,-3.213102344976310198e-01,7.346022973197036121e-02,-9.479934158139849409e-02
9.099999999999999756e-02,8.808442272703587671e-05,2.500895844410054858e-01,-1.911070261774926449e-01
9.199999999999999845e-02,3.028246999262755867e-01,1.061322117985658842e-01,-5.244814802381030094e-02
9.299999999999999933e-02,2.187298907155876271e-01,-1.583032289689144667e-01,1.421110589684952408e-01
9.400000000000000022e-02,-1.425650367825107567e-01,-2.033489699418310759e-01,1.768767435084558914e-01
9.500000000000000111e-02,-3.408026365518672662e-01,2.713407735185275130e-02,-2.947295411872555629e-02
9.600000000000000200e-02,-8.980681935255892256e-02,2.550669588686563793e-01,-1.733843464593574080e-01
9.700000000000000289e-02,2.530911259314378992e-01,1.388244861346370485e-01,-1.037662885163462001e-01
9.800000000000000377e-02,2.567306498109968027e-01,-1.228138138070896251e-01,9.568065249735706324e-02
9.900000000000000466e-02,-3.925067829547031900e-02,-2.336241570591900130e-01,1.972384746959759683e-01
1.000000000000000056e-01,-3.246439167755988398e-01,-3.767986193943412970e-02,4.073502085681700996e-02
1.010000000000000064e-01,-1.819639785107004804e-01,2.181521347030929980e-01,-1.659747690413892474e-01
1.019999999999999934e-01,2.056589267629787832e-01,1.762066434478687660e-01,-1.248502996473790094e-01
1.029999999999999943e-01,2.946270033132942778e-01,-7.543319488447960963e-02,5.187801671317798791e-02
1.039999999999999952e-01,5.505656011058539245e-02,-2.442878592938399207e-01,1.917126863141898896e-01
1.049999999999999961e-01,-2.902916764342968747e-01,-1.111013246090936935e-01,1.296077071503383416e-01
1.059999999999999970e-01,-2.345374639580236065e-01,1.841264883047569190e-01,-1.088312144503247036e-01
1.069999999999999979e-01,1.234485311763005577e-01,2.120860771873351036e-01,-1.988309148620436284e-01
1.079999999999999988e-01,3.166676282703522194e-01,-1.767663128148196441e-02,-3.763218570122726231e-02
1.089999999999999997e-01,1.261052442079274860e-01,-2.268228555309103056e-01,1.812127233780235769e-01
1.100000000000000006e-01,-2.387935934210106415e-01,-1.512081063389814906e-01,1.597446296256144205e-01
1.110000000000000014e-01,-3.054309169796300405e-01,1.223344490250080907e-01,-5.055654029244654318e-02
1.120000000000000023e-01,-3.442187235344692391e-04,2.646547826690497929e-01,-1.716986620754245851e-01
1.130000000000000032e-01,2.784637112160867622e-01,5.209303371712704911e-02,-1.021553430230380810e-01
1.140000000000000041e-01,2.015520718131979805e-01,-1.853768270905374604e-01,1.027994646675254170e-01
1.150000000000000050e-01,-1.333714840106913491e-01,-2.035113814350410222e-01,1.648394608281833484e-01
1.160000000000000059e-01,-3.049831201699277350e-01,1.036739851309592952e-01,2.253230858221900654e-02
1.170000000000000068e-01,-5.530892586498260127e-02,2.599956013003684174e-01,-1.463578836897241886e-01
1.179999999999999938e-01,2.446725276968983731e-01,7.608352498926598817e-02,-1.604645445785583546e-01
1.189999999999999947e-01,2.860274178324634375e-01,-2.075325300551117969e-01,5.318187417197382805e-02
1.199999999999999956e-01,-6.457678734019435540e-02,-2.229719787220624250e-01,1.801516186728834013e-01
1.209999999999999964e-01,-3.103859811232254073e-01,2.810705826228016013e-02,7.797675838366907586e-02
1.219999999999999973e-01,-1.556554718357204548e-01,2.282006133081310173e-01,-1.297134473956016998e-01
1.229999999999999982e-01,2.091285533594613444e-01,1.526181601169265267e-01,-1.719913060991349885e-01
1.239999999999999991e-01,2.842865619533295751e-01,-1.652743239177070500e-01,6.079228571094644554e-03
1.250000000000000000e-01,2.833406502843692498e-02,-2.306535067856728682e-01,1.616121238598764165e-01
1.260000000000000009e-01,-2.938248802981023311e-01,-1.110592842266323703e-02,1.055369521102375724e-01
1.270000000000000018e-01,-2.484343524875837761e-01,2.131200066044719732e-01,-7.029197938125514300e-02
1.280000000000000027e-01,1.242631816991246335e-01,1.807449259072951009e-01,-2.054203722141654809e-01
1.290000000000000036e-01,3.163885804527987733e-01,-8.343857359337901458e-02,-6.385341298801630594e-02
1.300000000000000044e-01,1.154161760695186223e-01,-2.569585445441908700e-01,1.497271132932026516e-01
1.310000000000000053e-01,-2.437842962423734383e-01,-8.015024218558398916e-02,1.914608235347865228e-01
1.320000000000000062e-01,-2.839558576104732057e-01,2.048462723975206790e-01,-1.858426425802145454e-02
1.330000000000000071e-01,4.262434375832615391e-02,2.051085478410541174e-01,-1.752302697927343444e-01
1.340000000000000080e-01,3.166177962564773463e-01,-5.250405937703508247e-02,-1.052374088680362307e-01
1.350000000000000089e-01,1.754551438176065181e-01,-2.422274381955231426e-01,1.015816504381012869e-01
1.360000000000000098e-01,-1.826619776758154623e-01,-1.248947890977514796e-01,1.685121488577119575e-01
1.370000000000000107e-01,-3.317401237346349063e-01,1.857539421702478766e-01,6.036131494367464462e-02
1.380000000000000115e-01,-5.017915585433165016e-02,2.387483432983883436e-01,-1.388867464545660846e-01
1.390000000000000124e-01,2.425846083557739730e-01,1.799378169036883190e-02,-1.696242535547788644e-01
1.400000000000000133e-01,2.282064609841271130e-01,-2.442538033157902744e-01,3.141649153788392962e-02
1.409999999999999865e-01,-7.229069735966307808e-02,-1.895561172854688947e-01,2.150788027747420061e-01
1.419999999999999873e-01,-3.254552803764947377e-01,9.829171211977602574e-02,1.056361066213100802e-01
1.429999999999999882e-01,-1.343867909092191226e-01,2.494077870297539690e-01,-9.882961681201661575e-02
1.439999999999999891e-01,2.083504089019928562e-01,6.921879808236139353e-02,-1.795806639576345842e-01
1.449999999999999900e-01,2.837631920006378206e-01,-2.032708580265888687e-01,-3.205579389958196357e-02
1.459999999999999909e-01,1.709904434626702838e-03,-1.893630448767433527e-01,1.654398065089411340e-01
1.469999999999999918e-01,-2.695953946375341248e-01,4.228905097521420270e-02,1.539033072160459481e-01
1.479999999999999927e-01,-2.168918277445101017e-01,2.261387054914147376e-01,-3.316337678374268322e-02
1.489999999999999936e-01,1.400364206809678325e-01,1.235855569837684825e-01,-1.884150835423243631e-01
1.499999999999999944e-01,3.214724896225564232e-01,-1.704220859010493472e-01,-1.022804368196927050e-01
1.509999999999999953e-01,1.058758193878053533e-01,-2.244815974292514171e-01,1.076440328904646609e-01
1.519999999999999962e-01,-2.474859175069540895e-01,-1.123727591094658348e-02,1.671503787667980023e-01
1.529999999999999971e-01,-2.610379730487293881e-01,2.318814106678663278e-01,3.335552424103200436e-02
1.539999999999999980e-01,2.113019069677859324e-02,1.860138302832122781e-01,-1.688363093313434982e-01
1.549999999999999989e-01,3.149850350212921035e-01,-1.081674677172861088e-01,-1.300676172554266208e-01
1.559999999999999998e-01,1.760148714490339661e-01,-2.579037622236591276e-01,4.735415164240100450e-02
1.570000000000000007e-01,-1.838647314174984004e-01,-4.462718455141325563e-02,1.951737634610643257e-01
1.580000000000000016e-01,-3.217091384914175234e-01,2.086590406339069170e-01,1.068559924152964885e-01
1.590000000000000024e-01,-5.417811359959030792e-02,1.770216519417822931e-01,-1.302275270379155137e-01
1.600000000000000033e-01,3.019799491963229277e-01,-3.972923064040918828e-02,-1.597392647691627254e-01
1.610000000000000042e-01,2.416423288428529159e-01,-2.630826490866328138e-01,-2.651202490592284577e-02
1.620000000000000051e-01,-9.969632801390759802e-02,-1.288845570838916821e-01,1.955017558499654862e-01
1.630000000000000060e-01,-3.016534077224926058e-01,1.543393297081294968e-01,1.430149496247468677e-01
1.640000000000000069e-01,-1.162600227412117770e-01,2.175229195191629161e-01,-7.203331502827874100e-02
1.650000000000000078e-01,2.325405141550135335e-01,1.097972221120678202e-02,-1.551692741795914765e-01
1.660000000000000087e-01,2.827911645180400391e-01,-2.161667138507447072e-01,-8.471374566039989451e-02
1.670000000000000095e-01,-1.760187292667822825e-02,-1.791370218128198744e-01,1.387780719149276920e-01
1.680000000000000104e-01,-3.006179126107511590e-01,9.165480803447610680e-02,1.649935223006724905e-01
1.690000000000000113e-01,-1.922611235345031977e-01,2.499966173949508541e-01,-5.849861628578544720e-03
1.700000000000000122e-01,1.647726526678200409e-01,6.689112869808508388e-02,-1.881835437423511059e-01
1.710000000000000131e-01,3.009583259639725950e-01,-2.105470659231573061e-01,-1.133301823264198233e-01
1.719999999999999862e-01,7.387985182150680341e-02,-1.885312619868775297e-01,5.803280355358545611e-02
1.729999999999999871e-01,-2.309565386226625217e-01,5.653316335752985033e-02,1.833838063598882129e-01
1.739999999999999880e-01,-2.390896764784326001e-01,2.404290279569450961e-01,4.953255664574099382e-02
1.749999999999999889e-01,8.498083624009551695e-02,1.150446299743629469e-01,-1.572243929623732550e-01
1.759999999999999898e-01,3.155936950393060658e-01,-1.721681218621932685e-01,-1.614779408450264242e-01
1.769999999999999907e-01,1.823292407689147965e-01,-2.355027998634783848e-01,5.188994981775012574e-03
1.779999999999999916e-01,-2.065883398247770897e-01,2.330288203893476559e-02,1.779672978814259010e-01
1.789999999999999925e-01,-3.077846492927072686e-01,2.515799958301137007e-01,1.171625442394710892e-01
1.799999999999999933e-01,-6.721617610012360980e-03,1.504172526178017000e-01,-1.095795042754660470e-01
1.809999999999999942e-01,2.934352761769689066e-01,-1.275431918822450550e-01,-1.867699225761978166e-01
1.819999999999999951e-01,2.354551875530984939e-01,-2.368757315520934881e-01,-4.980883111305416805e-02
1.829999999999999960e-01,-1.266859473713163042e-01,-2.243778918266268324e-02,1.756498053497752843e-01
1.839999999999999969e-01,-3.483650185460591686e-01,2.126514450519789989e-01,1.766541127494092311e-01
1.849999999999999978e-01,-1.269023044666480471e-01,2.030918930223439001e-01,-2.529938813733211694e-02
1.859999999999999987e-01,2.087955327231696412e-01,-1.012723645675666501e-01,-1.391771528453489559e-01
1.869999999999999996e-01,2.929038322522845017e-01,-2.508615354085229621e-01,-9.700597129047346112e-02
1.880000000000000004e-01,-2.064994278153732543e-02,-7.542484137702613889e-02,7.149196522691571298e-02
1.890000000000000013e-01,-3.140352849120723877e-01,1.876544656644976716e-01,1.973104711949441870e-01
1.900000000000000022e-01,-1.894134098084451490e-01,2.391321444258515672e-01,7.092066743432783038e-02
1.910000000000000031e-01,1.406228749832555691e-01,-2.162545688152389678e-02,-1.847262949972540702e-01
1.920000000000000040e-01,3.019833363020328898e-01,-2.328385312568295729e-01,-1.783812859056540245e-01
1.930000000000000049e-01,5.404773213468008763e-02,-1.373775380454502204e-01,7.670026094445457632e-02
1.940000000000000058e-01,-2.638840078750672724e-01,1.243133785598076885e-01,1.728322132605677464e-01
1.950000000000000067e-01,-2.510422992878671433e-01,2.258327683649835049e-01,9.716864700208718841e-02
1.960000000000000075e-01,8.201740813437873034e-02,3.908034692988347075e-02,-1.021518516730797743e-01
1.970000000000000084e-01,2.962861476536803318e-01,-1.899134236580037327e-01,-1.792772007207479312e-01
1.980000000000000093e-01,1.541010182948592544e-01,-1.802856095518999835e-01,-2.047716379063266659e-02
1.990000000000000102e-01,-1.905039733719805228e-01,1.215552335007556023e-01,1.627171995444856023e-01
2.000000000000000111e-01,-2.822420808399309089e-01,2.634203807452269452e-01,1.315083211434594501e-01
2.010000000000000120e-01,-7.893356326235534057e-03,1.065583280145124129e-01,-7.022610444070535862e-02
2.020000000000000129e-01,2.853777275516015122e-01,-1.838147367087933914e-01,-1.927046402713842865e-01
2.030000000000000138e-01,2.052393091919756107e-01,-1.991536184692057621e-01,-1.146191722013513714e-01
2.039999999999999869e-01,-9.990446334848032683e-02,1.242638841613656620e-02,1.293558526413709497e-01
2.049999999999999878e-01,-3.199853718635543021e-01,2.242738225491797410e-01,2.036329510169835877e-01
2.059999999999999887e-01,-9.876740408065529109e-02,1.452828948401784781e-01,1.900967997620277641e-02
2.069999999999999896e-01,2.790635302190607736e-01,-1.225452006831171253e-01,-1.842389780832804080e-01
2.079999999999999905e-01,3.013881211748876132e-01,-2.238640579665347186e-01,-1.207651732081891360e-01
2.089999999999999913e-01,-6.003364447990008207e-02,-1.135016548895457882e-02,6.563244744294174926e-02
2.099999999999999922e-01,-3.176259269110893180e-01,2.332140688845542043e-01,2.030562468162545597e-01
2.109999999999999931e-01,-1.879931496090377629e-01,1.980109392418552827e-01,5.051349928456470850e-02
2.119999999999999940e-01,1.853204906093888493e-01,-9.628394400755554972e-02,-1.534554289074612221e-01
2.129999999999999949e-01,2.903820970904543719e-01,-2.694290462463986846e-01,-1.781159291885876517e-01
2.139999999999999958e-01,4.497626625351938690e-02,-6.611770942108162463e-02,1.733388319906969607e-02
2.149999999999999967e-01,-2.852927419102612716e-01,1.961607533886999266e-01,1.879438293641124413e-01
2.159999999999999976e-01,-2.528357381228558687e-01,2.034245484645103019e-01,1.219506634115260224e-01
2.169999999999999984e-01,8.516355628758939811e-02,-4.474781386577961206e-02,-5.766322449694089719e-02
2.179999999999999993e-01,3.026093725731337503e-01,-2.678542045315998044e-01,-1.944052962775992544e-01
2.190000000000000002e-01,1.290247862393046618e-01,-1.355172419081513979e-01,-5.139569926282639561e-02
2.200000000000000011e-01,-2.242022946450709653e-01,1.661524680292127687e-01,1.667216415404252916e-01
2.210000000000000020e-01,-2.597554943298673868e-01,2.410692770599801860e-01,1.766206043002918336e-01
2.220000000000000029e-01,1.032452847471713661e-02,-3.389460753928761391e-03,-7.797533682969995383e-03
2.230000000000000038e-01,3.140445495010797394e-01,-2.555938284153689843e-01,-1.901548012156522027e-01
2.240000000000000047e-01,2.351522676453261518e-01,-1.923915949121345892e-01,-1.151856100307680902e-01
2.250000000000000056e-01,-1.647335011023914886e-01,1.136745065534675303e-01,1.050863810816800442e-01
2.260000000000000064e-01,-3.007641835331428259e-01,2.289923676349782389e-01,1.867360752950942282e-01
2.270000000000000073e-01,-9.704736082888372473e-02,8.127254220811147567e-02,3.590536936635529280e-02
2.280000000000000082e-01,2.613511249084031762e-01,-1.820846245520785778e-01,-1.402752017227262282e-01
2.290000000000000091e-01,2.711202100608129939e-01,-2.142124250084491976e-01,-1.658723062251428182e-01
2.300000000000000100e-01,-5.132436986355692204e-02,6.754798087376859272e-02,5.941591014977311985e-02
2.310000000000000109e-01,-3.054355274288998445e-01,2.296694318024456172e-01,2.004861361672707065e-01
2.320000000000000118e-01,-1.420229067131399681e-01,1.239799648869851778e-01,6.874619536403536735e-02
2.330000000000000127e-01,1.914138217235563377e-01,-1.506886693760647045e-01,-1.249416109259837149e-01
2.340000000000000135e-01,3.168927333760461207e-01,-2.322169818789841800e-01,-1.809717688100977717e-01
2.349999999999999867e-01,-2.187987715634497760e-02,-1.917599665406655640e-03,-3.636615886558471761e-02
2.359999999999999876e-01,-2.806512334234113060e-01,2.081533513741680719e-01,1.589072898778593201e-01
2.369999999999999885e-01,-1.891579682647721028e-01,1.389358155670348816e-01,1.538471900196522468e-01
2.379999999999999893e-01,1.181070184343147866e-01,-1.328223130870699320e-01,-5.004656480873684310e-02
2.389999999999999902e-01,3.176698874487927649e-01,-2.471103035894050559e-01,-1.981605805582175306e-01
2.399999999999999911e-01,9.747713040497187065e-02,-4.219021693059395867e-02,-7.364366072344698255e-02
2.409999999999999920e-01,-2.408960981625035414e-01,2.151786370494022105e-01,1.261528039957856839e-01
2.419999999999999929e-01,-2.727282838647835383e-01,2.047330552722573527e-01,1.706909526170050095e-01
2.429999999999999938e-01,-7.398907622509035345e-03,-8.913378783375643100e-02,8.738726117352492787e-03
2.439999999999999947e-01,2.821676279569130807e-01,-2.725614185975948622e-01,-1.620288617750729465e-01
2.449999999999999956e-01,1.838476625224773897e-01,-1.093407633935291196e-01,-1.564762466756863535e-01
2.459999999999999964e-01,-1.353391795775457374e-01,1.716929656931502624e-01,7.810642852276031278e-02
2.469999999999999973e-01,-2.879269077870006410e-01,2.145269672416207918e-01,1.929958288739648253e-01
2.479999999999999982e-01,-6.557550596609672267e-02,-5.891779392385661056e-03,5.002566428081017119e-02
2.489999999999999991e-01,2.920636389130069621e-01,-2.381190739902976639e-01,-1.310509720283264956e-01
2.500000000000000000e-01,2.602870564491346905e-01,-1.714379798580590031e-01,-1.920321137408593226e-01
2.510000000000000009e-01,-9.753604695551801318e-02,1.332945614155201242e-01,2.448400688780609860e-02
2.520000000000000018e-01,-3.011586164578355929e-01,2.566379521732057856e-01,1.680572158993701437e-01
2.530000000000000027e-01,-1.416882046464640610e-01,4.552690223726790081e-02,1.184221221226621351e-01
2.540000000000000036e-01,2.191042091530944758e-01,-2.134001365500050873e-01,-6.889221927743122142e-02
2.550000000000000044e-01,3.022533888708726080e-01,-1.992449735951226930e-01,-2.134473533570459547e-01
2.560000000000000053e-01,3.034164227599119457e-03,7.147146862631999220e-02,-8.040785265501564083e-02
2.570000000000000062e-01,-2.847972182907322347e-01,2.477296421985966668e-01,1.162125267457667505e-01
2.580000000000000071e-01,-1.936206227480634368e-01,1.067750567183815974e-01,1.542079246151619454e-01
2.590000000000000080e-01,1.495283955464259407e-01,-1.906654672102103265e-01,-1.732020108102677591e-02
2.600000000000000089e-01,3.409562040993913690e-01,-2.304433078089871134e-01,-1.838553243132508286e-01
2.610000000000000098e-01,7.213646861125373733e-02,3.127542847554827532e-02,-1.232667985352188383e-01
2.620000000000000107e-01,-2.470845527282393150e-01,2.009252137482427092e-01,8.713149102359835085e-02
2.630000000000000115e-01,-2.496187132260841435e-01,1.686012102789163636e-01,1.806185397775632029e-01
2.640000000000000124e-01,5.677116024339884381e-02,-1.499386540128259948e-01,5.486415664329891140e-02
2.650000000000000133e-01,2.894156580527458833e-01,-2.736777211114093111e-01,-1.337746026145149036e-01
2.660000000000000142e-01,1.832372853010939828e-01,-2.447092448048971206e-02,-1.752801200697529926e-01
2.670000000000000151e-01,-1.575197114417180022e-01,2.139711078838756053e-01,2.516442243041886948e-02
2.680000000000000160e-01,-3.189416288652809905e-01,2.068522328442351232e-01,1.519955276859561721e-01
2.690000000000000169e-01,-5.860626478487595409e-02,-7.988890552153374291e-02,1.188459434443869395e-01
2.700000000000000178e-01,2.701385908665484559e-01,-2.479433118988406404e-01,-1.088085803952708597e-01
2.710000000000000187e-01,2.402291168638171770e-01,-1.043203676764837412e-01,-1.660972333988681437e-01
2.720000000000000195e-01,-8.553299598801260284e-02,2.207327656934827687e-01,-3.647151627448199512e-02
2.730000000000000204e-01,-2.861691556313900597e-01,2.414518813230771555e-01,1.457393292996800038e-01
2.740000000000000213e-01,-1.335718846658744963e-01,-1.702788500353633744e-02,1.670792582431120388e-01
2.750000000000000222e-01,2.243750846138103383e-01,-2.408562432405970677e-01,-4.446826811961442083e-02
2.760000000000000231e-01,2.789803983165922152e-01,-1.107353749843467960e-01,-1.885379195849025136e-01
2.770000000000000240e-01,-1.697455537154949484e-02,1.455463482162973887e-01,-8.987780698423029901e-02
2.780000000000000249e-01,-3.152462950751906412e-01,2.335393368146162496e-01,1.053142949673021300e-01
2.790000000000000258e-01,-1.844072106969370517e-01,3.543742939412702214e-02,1.941588349347807829e-01
2.800000000000000266e-01,1.609902399365897574e-01,-2.292225134812468923e-01,2.541216700700740794e-02
2.810000000000000275e-01,3.338413416064537897e-01,-1.996294557614159138e-01,-1.417412898675123045e-01
2.819999999999999729e-01,9.318982401657975589e-02,1.065853786792639729e-01,-1.359057181517400181e-01
2.829999999999999738e-01,-2.538849248361307320e-01,2.566856519987905094e-01,8.076483594985799097e-02
2.839999999999999747e-01,-2.491198237941142646e-01,8.274973011565407710e-02,1.928734714886781443e-01
2.849999999999999756e-01,7.116818009801928469e-02,-1.908683777490466360e-01,8.542779062502263432e-02
2.859999999999999765e-01,2.964332439337780123e-01,-2.060071435915280802e-01,-1.402279834294416772e-01
2.869999999999999774e-01,1.809400172177831057e-01,3.299603053393179025e-02,-1.670174937873445953e-01
2.879999999999999782e-01,-1.917093949261159114e-01,2.379840490130534503e-01,-1.411126385901055255e-02
2.889999999999999791e-01,-2.855727135067796518e-01,1.337194185108058486e-01,1.884367588605795063e-01
2.899999999999999800e-01,-1.474248936550191444e-02,-1.527827201269897628e-01,1.084709173619681222e-01
2.909999999999999809e-01,2.869554691317184880e-01,-2.380549830039677683e-01,-7.232426526232040020e-02
2.919999999999999818e-01,1.988114288948218955e-01,3.293781877132040143e-03,-2.094268719942944945e-01
2.929999999999999827e-01,-1.331088694012176610e-01,2.235223567050494964e-01,-4.556546154634676105e-02
2.939999999999999836e-01,-3.266169197977498162e-01,1.679473424535809223e-01,1.604726237250520826e-01
2.949999999999999845e-01,-1.017547158694235426e-01,-1.274605343031252891e-01,1.774453555616049838e-01
2.959999999999999853e-01,2.238066544984484429e-01,-2.777766849167364605e-01,-9.776114587138793124e-03
2.969999999999999862e-01,2.919048737008932970e-01,-6.653873567386016374e-02,-1.848588736227866347e-01
2.979999999999999871e-01,-3.682452465333160840e-02,1.855009369330277436e-01,-1.322283122386964938e-01
2.989999999999999880e-01,-2.951584603969513720e-01,2.195862835741495267e-01,9.086460021460024405e-02
2.999999999999999889e-01,-1.931780570537684205e-01,-5.528532491377567692e-02,2.100043122152189246e-01
3.009999999999999898e-01,1.672962783716177293e-01,-2.488255937385043803e-01,6.199904806640282873e-02
3.019999999999999907e-01,3.089494401998381656e-01,-1.387824541156679747e-01,-1.265823653432942564e-01
3.029999999999999916e-01,7.133894197170903562e-02,1.746262235128814844e-01,-1.564946131854612621e-01
3.039999999999999925e-01,-2.710332966164625823e-01,2.248966295031903928e-01,6.542045420753828718e-04
3.049999999999999933e-01,-2.495018010718836887e-01,-1.394351989929394978e-02,1.689649842354210840e-01
3.059999999999999942e-01,7.640818154161969911e-02,-2.178131349408599093e-01,1.039809602807051925e-01
3.069999999999999951e-01,3.641313684641868664e-01,-1.539634211606680791e-01,-9.962075445452810152e-02
3.079999999999999960e-01,1.300067658768978562e-01,1.315691097932037423e-01,-1.980603237384467863e-01
3.089999999999999969e-01,-2.114079574546004481e-01,2.217291149429416741e-01,-4.722880600830511866e-02
3.099999999999999978e-01,-3.105790548387710182e-01,7.598896597867260683e-02,1.623018932578882412e-01
3.109999999999999987e-01,5.952809454704522177e-03,-2.162488049346369678e-01,1.488525601229015727e-01
3.119999999999999996e-01,2.735369114888801523e-01,-1.961197959463357732e-01,-5.112601337783798799e-02
3.130000000000000004e-01,2.102738538180430328e-01,6.859800208419655765e-02,-1.902695242443624146e-01
3.140000000000000013e-01,-1.585564494014981840e-01,2.507856034296039871e-01,-9.004655642913891866e-02
3.150000000000000022e-01,-2.810251331190549151e-01,9.945181102464956124e-02,8.990079034689864301e-02
3.160000000000000031e-01,-1.293453260151344042e-01,-1.834114753205609294e-01,1.725509402928602498e-01
3.170000000000000040e-01,2.575778477818012613e-01,-2.119603226759181336e-01,4.583695353732198524e-02
3.180000000000000049e-01,2.527882986094602269e-01,-6.573623368075312209e-03,-1.270418610614447441e-01
3.190000000000000058e-01,-6.076308042360924894e-02,2.492483506152184669e-01,-1.428711330834582238e-01
3.200000000000000067e-01,-2.910377189057306024e-01,1.697999635894267279e-01,4.166502528185266757e-02
3.210000000000000075e-01,-1.874924302572952006e-01,-1.361060263214270705e-01,1.755151524976804045e-01
3.220000000000000084e-01,1.838428192703194797e-01,-2.737915224542986636e-01,9.008037851833000653e-02
3.230000000000000093e-01,2.887126563040233185e-01,-5.800469668074185320e-02,-9.750071116994500631e-02
3.240000000000000102e-01,4.325674682626832329e-02,2.135484481778479049e-01,-1.710322140595774976e-01
3.250000000000000111e-01,-2.507071410452488269e-01,2.253418480047098271e-01,-1.173169030768025445e-03
3.260000000000000120e-01,-2.306962140320520105e-01,-8.946654604429392366e-02,1.962793081178523802e-01
3.270000000000000129e-01,1.180407440396738505e-01,-2.469981403925817776e-01,1.473865801134963960e-01
3.280000000000000138e-01,3.315103770260382499e-01,-1.235339106978078916e-01,-6.713009700545725933e-02
3.290000000000000147e-01,1.358063811517262465e-01,1.760703119776409753e-01,-1.843791835349337382e-01
3.300000000000000155e-01,-2.223350292199553491e-01,2.459616090187606852e-01,-7.126415917441392134e-02
3.310000000000000164e-01,-3.039885604525245921e-01,-2.319145033900238059e-02,1.252964386144845566e-01
3.320000000000000173e-01,9.746305388998262667e-03,-2.465858071078378677e-01,1.683558603633256712e-01
3.330000000000000182e-01,2.911675921140968737e-01,-1.443115810362870233e-01,-3.095358848408745478e-02
3.340000000000000191e-01,1.962672294992213184e-01,1.308993089300774237e-01,-1.730790294127213524e-01
3.350000000000000200e-01,-1.420580449230145481e-01,2.425910021127696548e-01,-1.264610999433503358e-01
3.360000000000000209e-01,-3.081361811931203620e-01,3.176160883307379418e-02,7.663604603712015351e-02
3.370000000000000218e-01,-5.582903568355850749e-02,-2.294042492248248577e-01,1.842219309042440745e-01
3.380000000000000226e-01,2.742321246691424297e-01,-2.117117003275727771e-01,6.457761574152710848e-02
3.390000000000000235e-01,2.628140791865585801e-01,7.190790029035368236e-02,-1.373626226325734279e-01
3.400000000000000244e-01,-7.099613001140181456e-02,2.503419475447458686e-01,-1.821124659047211325e-01
3.410000000000000253e-01,-3.225271460433536408e-01,9.037604954578502825e-02,3.257315004074791409e-02
3.420000000000000262e-01,-1.692137183259993793e-01,-1.836165382513387789e-01,1.614303557516142962e-01
3.430000000000000271e-01,1.604043900348133544e-01,-2.278538895946037590e-01,1.405557812231034709e-01
3.439999999999999725e-01,3.078074136169193231e-01,3.356295899037375213e-02,-8.587531005682171037e-02
3.449999999999999734e-01,2.773437067699666483e-02,2.164959837003982979e-01,-1.863651254639608068e-01
3.459999999999999742e-01,-2.652266861532664444e-01,1.260647269113783775e-01,-6.715166577164104200e-02
3.469999999999999751e-01,-2.285026400974467242e-01,-1.336561085453548958e-01,1.560337813180412980e-01
3.479999999999999760e-01,1.039869601516602016e-01,-2.567152340985904835e-01,1.495696652595419618e-01
3.489999999999999769e-01,3.465926233184907779e-01,-5.304878570796359855e-02,5.439180210461033206e-03
3.499999999999999778e-01,1.257880295309781460e-01,2.255072259138273527e-01,-1.364744655858323996e-01
3.509999999999999787e-01,-2.265940346942349470e-01,1.781121405802948421e-01,-1.328472399483122401e-01
3.519999999999999796e-01,-2.910015016164206880e-01,-8.771077046252753751e-02,9.278153516511743193e-02
3.529999999999999805e-01,3.139891832277807299e-02,-2.549607630592950480e-01,1.898888280917105931e-01
3.539999999999999813e-01,3.309632876619815200e-01,-9.301568800446989582e-02,4.247483729491729337e-02
3.549999999999999822e-01,1.814768182896695503e-01,1.865423946047318482e-01,-1.383395300109418469e-01
3.559999999999999831e-01,-1.640187244261025190e-01,2.060348976051265824e-01,-1.481466534495064491e-01
3.569999999999999840e-01,-2.879782879500517589e-01,-2.221877558926861618e-02,6.853848128661484129e-02
3.579999999999999849e-01,-7.086163825106620018e-02,-2.523872191296947509e-01,1.810763300865413650e-01
3.589999999999999858e-01,2.727135890786342998e-01,-1.447050300218761243e-01,1.010459512160913204e-01
3.599999999999999867e-01,2.675593474404355243e-01,1.522949851627126427e-01,-1.138180016271372191e-01
3.609999999999999876e-01,-8.510663430460210788e-02,2.142400059900614884e-01,-1.714234637771325509e-01
3.619999999999999885e-01,-3.132388712596378966e-01,2.067030760833750425e-02,-1.662325820196525195e-02
3.629999999999999893e-01,-1.355413345257835966e-01,-2.443469436402344597e-01,1.632324338285218168e-01
3.639999999999999902e-01,2.075809538509556240e-01,-1.911426085759781734e-01,1.298089703342818202e-01
3.649999999999999911e-01,2.750831378967789065e-01,9.234485068008747854e-02,-7.011230016947440913e-02
3.659999999999999920e-01,-1.105446346014800178e-02,2.324590752639838498e-01,-1.781422992121137194e-01
3.669999999999999929e-01,-3.082163831341248605e-01,7.085942079815028827e-02,-1.024667415666286191e-01
3.679999999999999938e-01,-2.118006191888081313e-01,-2.192815324800080901e-01,1.058946170186492036e-01
3.689999999999999947e-01,1.365259749128387989e-01,-2.277869752975766049e-01,1.639207147679906662e-01
3.699999999999999956e-01,3.069985317634835176e-01,4.494278775208909033e-02,-3.610562871921542340e-04
3.709999999999999964e-01,9.173840817453540741e-02,2.274368098607643385e-01,-1.738309946106205151e-01
3.719999999999999973e-01,-2.663454926442147541e-01,1.334751051698897795e-01,-1.268933985826195543e-01
3.729999999999999982e-01,-2.656817896839138160e-01,-1.784576973174241687e-01,6.936457075124842497e-02
3.739999999999999991e-01,7.833350244630886416e-02,-2.581843791065218108e-01,1.991650146276095767e-01
3.750000000000000000e-01,3.171792549746232370e-01,-1.608747486174944355e-02,7.559881105111075639e-02
3.760000000000000009e-01,1.730359555464635046e-01,2.086564183431330877e-01,-1.467492337641298772e-01
3.770000000000000018e-01,-1.785209392018475560e-01,1.555407597909704842e-01,-1.652524230867113697e-01
3.780000000000000027e-01,-3.145254483707135007e-01,-1.214349272523351508e-01,2.709368839192259279e-02
3.790000000000000036e-01,-3.960100592967249339e-02,-2.409095766032702257e-01,1.650098011049578595e-01
3.800000000000000044e-01,3.033867290856487320e-01,-7.438047665603714220e-02,1.346505150733854073e-01
3.810000000000000053e-01,2.224286445112131361e-01,2.306075912250354076e-01,-7.536006609429597713e-02
3.820000000000000062e-01,-1.209159448576119927e-01,2.144662359955613329e-01,-1.976280285146807258e-01
3.830000000000000071e-01,-3.065000651797651909e-01,-6.432954363019321997e-02,-4.890357771446571938e-02
3.840000000000000080e-01,-1.167203414217242025e-01,-2.605892590498410377e-01,1.534221519184785221e-01
3.850000000000000089e-01,2.151006334519759422e-01,-1.231227848512959910e-01,1.383701720544983915e-01
3.860000000000000098e-01,2.787167386956488913e-01,1.627546143345392216e-01,-4.174659117887415116e-02
3.870000000000000107e-01,-3.073433805452762194e-02,2.224744760614563999e-01,-1.648963598833466382e-01
3.880000000000000115e-01,-2.983501566839478203e-01,8.090401469455228700e-03,-8.195949480227515682e-02
3.890000000000000124e-01,-2.138962503651020142e-01,-2.298630634167121711e-01,1.090362757719414433e-01
3.900000000000000133e-01,1.847634619260132838e-01,-1.667909737372753887e-01,1.690920761162789943e-01
3.910000000000000142e-01,3.043942323256990656e-01,1.271172467119762173e-01,1.464885472424126180e-02
3.920000000000000151e-01,7.925857426510139747e-02,2.359302479350106618e-01,-1.466195722230702880e-01
3.930000000000000160e-01,-2.605486432602889812e-01,5.192759326551530524e-02,-1.811550530022056626e-01
3.940000000000000169e-01,-2.563648180834080526e-01,-2.265167091745483030e-01,1.704366664620608762e-02
3.950000000000000178e-01,8.677220758833317782e-02,-1.838743307955645057e-01,1.886914672734403831e-01
3.960000000000000187e-01,3.154017367139308470e-01,4.562813810903210837e-02,1.153888653643703466e-01
3.970000000000000195e-01,1.501498283895823516e-01,2.331715729579149354e-01,-1.099814157008405791e-01
3.980000000000000204e-01,-1.928174615689793037e-01,1.020675970771828672e-01,-1.851846070036095582e-01
3.990000000000000213e-01,-3.026401781406988234e-01,-1.867540622525841743e-01,-2.657867613895583889e-02
4.000000000000000222e-01,-2.243295453806007020e-02,-2.201578855060965789e-01,1.781218725613722687e-01
4.010000000000000231e-01,2.990253941345032973e-01,2.278268550734298750e-02,1.593216727419813350e-01
4.020000000000000240e-01,2.249725663839431122e-01,2.388733495624024705e-01,-4.414703058117263462e-02
4.030000000000000249e-01,-9.917854367133778493e-02,1.360458529343417378e-01,-1.767516665263393627e-01
4.040000000000000258e-01,-3.270642341233057637e-01,-1.365684601184006808e-01,-9.002393672138198077e-02
4.050000000000000266e-01,-9.449873828193856851e-02,-2.597999744543669776e-01,1.160470629188256053e-01
4.060000000000000275e-01,2.206366702766038301e-01,-3.490744716227175970e-02,1.637432829925039024e-01
4.069999999999999729e-01,3.002399419979041584e-01,2.311120651524469771e-01,-3.770993545198477663e-04
4.079999999999999738e-01,-1.711248559849623541e-02,2.019373493558818677e-01,-1.934669127506221387e-01
4.089999999999999747e-01,-3.202734397496937446e-01,-7.293499488420503163e-02,-1.672652796817054865e-01
4.099999999999999756e-01,-1.957715225147007021e-01,-2.591620870170340818e-01,4.898065667340944368e-02
4.109999999999999765e-01,1.550988817773599204e-01,-9.886189286889364436e-02,1.739269075125993436e-01
4.119999999999999774e-01,3.199516259394498685e-01,1.890480387585418420e-01,7.029135127023129759e-02
4.129999999999999782e-01,5.344911091018607341e-02,2.257834908338230140e-01,-1.203198751840928032e-01
4.139999999999999791e-01,-2.735351082006918788e-01,-2.239819238087557146e-02,-1.657491650129500060e-01
4.149999999999999800e-01,-2.562256860890038124e-01,-2.591052300908772144e-01,2.809738420302961698e-03
4.159999999999999809e-01,9.990296462488086615e-02,-1.527043647307331220e-01,1.597049309923119775e-01
4.169999999999999818e-01,3.136326198649655450e-01,1.360760265684981263e-01,1.332718117545166059e-01
4.179999999999999827e-01,1.439223181365498483e-01,2.415202815110185364e-01,-9.903274726771225944e-02
4.189999999999999836e-01,-2.014462382020421882e-01,3.138059062901754626e-02,-1.867161341340556890e-01
4.199999999999999845e-01,-2.968064573850390242e-01,-2.455491690284964668e-01,-8.213781904693025215e-02
4.209999999999999853e-01,-1.394752896053859338e-03,-1.910755365663426297e-01,1.638970480981914724e-01
4.219999999999999862e-01,2.880079009160788073e-01,9.734860145452585434e-02,1.864341760481777743e-01
4.229999999999999871e-01,2.060697849756890077e-01,2.470547666113620533e-01,-2.150267002207628675e-02
4.239999999999999880e-01,-1.222494882486886703e-01,1.011691104419405185e-01,-1.863593563647560625e-01
4.249999999999999889e-01,-3.031379896179438038e-01,-1.749998338085154981e-01,-1.134758796069630510e-01
4.259999999999999898e-01,-9.211930235213557083e-02,-2.174090921667353737e-01,7.688127894158711118e-02
4.269999999999999907e-01,2.164811396168259683e-01,1.872763699693032191e-02,1.847870814428204111e-01
4.279999999999999916e-01,2.727904545341676701e-01,2.415983071710781915e-01,5.381325395087117880e-02
4.289999999999999925e-01,-6.162841053594528273e-02,1.483836027325650675e-01,-1.350199552125113667e-01
4.299999999999999933e-01,-3.140208765973999117e-01,-1.646849472446914597e-01,-1.507267510151042156e-01
4.309999999999999942e-01,-1.688898304859138833e-01,-2.196101662185756254e-01,1.467518582160163947e-02
4.319999999999999951e-01,2.045972347950441583e-01,-2.265619798390492226e-02,1.770019825104707789e-01
4.329999999999999960e-01,2.947883078472334217e-01,2.491331949855010441e-01,1.233053388374922010e-01
4.339999999999999969e-01,2.932859875195033966e-02,1.839851551999429902e-01,-1.033138800085846160e-01
4.349999999999999978e-01,-3.027697928486809409e-01,-7.845617700430844443e-02,-1.835984097710558482e-01
4.359999999999999987e-01,-2.348028805330635571e-01,-2.635402534499820537e-01,-1.557938307023316524e-02
4.369999999999999996e-01,7.275181405933660306e-02,-5.634671038498593326e-02,1.782562462860937946e-01
4.380000000000000004e-01,3.284838075589128215e-01,1.946079739589469948e-01,1.515727638184322101e-01
4.390000000000000013e-01,1.222326117031624360e-01,2.100859662933331207e-01,-4.923534136666725403e-02
4.400000000000000022e-01,-2.080542630171391683e-01,-3.461207725394279539e-02,-1.832465764381770446e-01
4.410000000000000031e-01,-2.788902855821978055e-01,-2.504789990858675153e-01,-7.377851910062191432e-02
4.420000000000000040e-01,7.507967419374299116e-03,-1.421020367367220316e-01,1.238595909995812289e-01
4.430000000000000049e-01,2.821115033950348794e-01,1.554257288576868512e-01,1.736383681693399461e-01
4.440000000000000058e-01,1.943053570091307913e-01,2.381678228676985809e-01,5.450863526233429464e-03
4.450000000000000067e-01,-1.482166779941976598e-01,1.474362930653574585e-02,-1.449704957134103356e-01
4.460000000000000075e-01,-2.999072697173143509e-01,-2.161107397342195702e-01,-1.465047015533007257e-01
4.470000000000000084e-01,-7.031798249777154730e-02,-2.082633959436029636e-01,4.583368954811619517e-02
4.480000000000000093e-01,2.480959207204107564e-01,9.536326581807337555e-02,1.574534321435862860e-01
4.490000000000000102e-01,2.698382678788610045e-01,2.634718524549106156e-01,7.297439343136741252e-02
4.500000000000000111e-01,-4.709953311356194355e-02,7.489119900472301916e-02,-1.296834286645309753e-01
4.510000000000000120e-01,-3.094382827135454539e-01,-2.282362129611912593e-01,-1.682877763982167652e-01
4.520000000000000129e-01,-1.591721798750534156e-01,-2.031236091242867858e-01,4.179842478738332633e-04
4.530000000000000138e-01,2.152272342540554328e-01,5.420122452111093142e-02,1.718411829847608652e-01
4.540000000000000147e-01,2.987441367268786618e-01,2.607280718060549507e-01,1.487009452558775979e-01
4.550000000000000155e-01,2.815235544207680962e-02,1.166038995187416577e-01,-6.304659780984703255e-02
4.560000000000000164e-01,-2.857559664470201155e-01,-1.997271242960607096e-01,-1.982412374860255400e-01
4.570000000000000173e-01,-2.276537861239195104e-01,-2.362827355679441022e-01,-7.890020300803021747e-02
4.580000000000000182e-01,1.317657775672546050e-01,-8.522098701364291817e-03,1.325518833941705943e-01
4.590000000000000191e-01,3.254896686014350782e-01,2.421422181096088422e-01,1.845517324504026835e-01
4.600000000000000200e-01,9.732895496181409589e-02,1.808458204938432901e-01,-1.181784090565262541e-02
4.610000000000000209e-01,-2.324640916048235084e-01,-1.172083244481923608e-01,-1.978232255436425668e-01
4.620000000000000218e-01,-2.835398456399040312e-01,-2.364755947148627913e-01,-1.125349249008032182e-01
4.630000000000000226e-01,3.621651267489760240e-02,-6.990231897449092346e-02,6.922208778874132384e-02
4.640000000000000235e-01,3.062168969038912558e-01,2.258233480017950434e-01,1.635522327589931657e-01
4.650000000000000244e-01,1.900138490514163836e-01,1.932788040317734990e-01,7.921878745538070421e-02
4.660000000000000253e-01,-1.553100830108988806e-01,-6.875978651546417464e-02,-1.329128584888713271e-01
4.670000000000000262e-01,-3.087249096773467261e-01,-2.357150891883355859e-01,-1.676559814442545038e-01
4.680000000000000271e-01,-2.362223181653377163e-02,-1.271610845799736322e-01,1.053025569353770174e-02
4.689999999999999725e-01,2.750305161138422716e-01,1.771602613783894720e-01,2.128204297204091822e-01
4.699999999999999734e-01,2.371124822023256695e-01,2.410262260587658356e-01,1.126798264302408120e-01
4.709999999999999742e-01,-7.750378826312628866e-02,-8.935313103288202927e-03,-1.180443302822137830e-01
4.719999999999999751e-01,-2.841829358717488652e-01,-2.261571930636828154e-01,-1.742591463988067135e-01
4.729999999999999760e-01,-1.272595526511424713e-01,-1.645002270020459734e-01,-5.841662898437512824e-02
4.739999999999999769e-01,2.091550617940780288e-01,1.261032967841076990e-01,1.501647773890868731e-01
4.749999999999999778e-01,2.771547219494995273e-01,2.443641216480287315e-01,1.488769171185633788e-01
4.759999999999999787e-01,-9.608562065142557326e-03,5.321874918146164701e-02,-3.256583393886849920e-02
4.769999999999999796e-01,-2.727553380216324874e-01,-2.093372718087754547e-01,-1.674471432623194922e-01
4.779999999999999805e-01,-2.105488360583218643e-01,-1.897206062385852487e-01,-1.104450921699527688e-01
4.789999999999999813e-01,1.483137293034018922e-01,8.878429396957465691e-02,9.560366311575897724e-02
4.799999999999999822e-01,3.134229414321705876e-01,2.385351637545509440e-01,1.775893314195049755e-01
4.809999999999999831e-01,7.797007204877537401e-02,1.038161310468163762e-01,3.924208868869022426e-02
4.819999999999999840e-01,-2.473741011412340096e-01,-1.704760327667300401e-01,-1.571797007608493890e-01
4.829999999999999849e-01,-2.783848084662444156e-01,-2.369641446896322279e-01,-1.446377334128934045e-01
4.839999999999999858e-01,7.160975382172067583e-02,5.782408052849814101e-03,4.425846013156287118e-02
4.849999999999999867e-01,3.156837971782913699e-01,2.478244106132965474e-01,2.087013334413471144e-01
4.859999999999999876e-01,1.717858516303573946e-01,1.534845312988944721e-01,1.161718790512237670e-01
4.869999999999999885e-01,-1.787966153931698221e-01,-1.277253630296764364e-01,-1.166023758454457493e-01
4.879999999999999893e-01,-3.093607087033352077e-01,-2.296386254931979676e-01,-1.572656661409777834e-01
4.889999999999999902e-01,-4.139335848004434965e-02,-3.982239312728921149e-02,2.037686970950120142e-03
4.899999999999999911e-01,2.693017391772198343e-01,2.064671278128450416e-01,1.726115834093773227e-01
4.909999999999999920e-01,2.435802695343622926e-01,1.865631984935963161e-01,1.423689217360022130e-01
4.919999999999999929e-01,-1.061256687882807109e-01,-8.102371915442203865e-02,-4.136264397395635756e-02
4.929999999999999938e-01,-2.923236449545695281e-01,-2.343602472956817229e-01,-2.047830259106329931e-01
4.939999999999999947e-01,-1.491152774853861107e-01,-1.079313225468164078e-01,-7.516335313969224607e-02
4.949999999999999956e-01,2.421306993188099832e-01,1.883903728228761287e-01,9.847357043056112480e-02
4.959999999999999964e-01,2.771234313684036166e-01,2.016904610801645015e-01,1.821388973854460025e-01
4.969999999999999973e-01,-1.947395241935809609e-02,-2.953007365914141202e-02,-3.897775507192868024e-03
4.979999999999999982e-01,-2.899188231422772932e-01,-2.513558094477752469e-01,-1.435607809980535277e-01
4.989999999999999991e-01,-2.054324042001966499e-01,-1.335936966001893822e-01,-1.424463681430132300e-01
5.000000000000000000e-01,1.588439711873186888e-01,1.678842262444524835e-01,5.494699911019338551e-02
5.010000000000000009e-01,3.040933795233495274e-01,2.389557926136927635e-01,1.807329684620189170e-01
5.020000000000000018e-01,6.837198872629389468e-02,2.485872833700500384e-02,5.077672041932985297e-02
5.030000000000000027e-01,-2.692395863512814791e-01,-2.166910754459438204e-01,-1.055125301711130337e-01
5.040000000000000036e-01,-2.551964781446714459e-01,-1.891126506962360621e-01,-1.776961000005068403e-01
5.050000000000000044e-01,7.418492579283160471e-02,9.150893792525233161e-02,1.260319097728742135e-02
5.060000000000000053e-01,3.077076296929389110e-01,2.648626986746641654e-01,1.955809043138488357e-01
5.070000000000000062e-01,1.529416910836654819e-01,7.722845651710233406e-02,1.553106703998771154e-01
5.080000000000000071e-01,-1.982554138241635344e-01,-1.918576980257350739e-01,-8.109276814564649050e-02
5.090000000000000080e-01,-3.245682413912312492e-01,-1.927758967118380351e-01,-2.049679295856863259e-01
5.100000000000000089e-01,-2.160765018918056266e-02,2.194726276289898220e-02,-6.629622921290501125e-02
5.110000000000000098e-01,2.810899154331991667e-01,2.389381776736295149e-01,1.685742479487813139e-01
5.120000000000000107e-01,2.171011115180776496e-01,1.297489484130213144e-01,1.500325311569284947e-01
5.130000000000000115e-01,-1.209838073267582720e-01,-1.622488387859826742e-01,-2.017299553932214509e-02
5.140000000000000124e-01,-3.151954016166169104e-01,-2.101619018368041103e-01,-1.832247392289822474e-01
5.150000000000000133e-01,-9.872455223063900109e-02,-8.055233931918986609e-03,-9.258686411421176987e-02
5.160000000000000142e-01,2.491495859026674198e-01,2.133924266967899275e-01,1.114977212630650222e-01
5.170000000000000151e-01,2.685359627812929362e-01,1.809564281183130285e-01,1.761068724239834293e-01
5.180000000000000160e-01,-4.718605598109391897e-02,-9.545419705880492378e-02,3.958486219539833484e-02
5.190000000000000169e-01,-3.045706980136776987e-01,-2.517549746577104064e-01,-1.689347271481910495e-01
5.200000000000000178e-01,-1.778370126151639086e-01,-6.781894337021124319e-02,-1.389922868205449857e-01
5.210000000000000187e-01,1.642567012857352182e-01,2.065391238856938982e-01,5.384331561194226345e-02
5.220000000000000195e-01,2.934893139020965380e-01,1.996981353908599544e-01,2.045033774272075056e-01
5.230000000000000204e-01,5.236262978248586164e-02,-5.556058050222619643e-02,1.156996914330202658e-01
5.240000000000000213e-01,-2.571049956304500284e-01,-2.495500315854904672e-01,-1.303591067396929759e-01
5.250000000000000222e-01,-2.530833694840243786e-01,-1.193945078326292680e-01,-1.774716427665362362e-01
5.260000000000000231e-01,8.822414510857599923e-02,1.441534554299129245e-01,-1.863562893779572086e-02
5.270000000000000240e-01,3.142223329948871657e-01,2.243697546816369182e-01,1.318397039031727058e-01
5.280000000000000249e-01,1.589033965169837914e-01,1.546259993117419032e-02,1.647050669776499721e-01
5.290000000000000258e-01,-2.040010985621961148e-01,-2.176235927334356501e-01,-4.985396834719896947e-02
5.300000000000000266e-01,-2.940884766467730116e-01,-1.701708041823129236e-01,-2.035481598126257508e-01
5.310000000000000275e-01,-1.814775434969129186e-02,1.275632267950300713e-01,-9.437864994479280845e-02
5.320000000000000284e-01,2.946764236751839849e-01,2.619402849521452192e-01,1.168740774458737891e-01
5.330000000000000293e-01,2.129408181540629885e-01,5.098789160505597801e-02,1.772337564017048006e-01
5.340000000000000302e-01,-1.413315830067139456e-01,-1.891934400283969420e-01,1.339516859017727407e-02
5.350000000000000311e-01,-3.048687621280177229e-01,-2.078718984954640026e-01,-1.762516932704007722e-01
5.360000000000000320e-01,-7.583332443054875693e-02,9.481025631975763257e-02,-1.508108523369867393e-01
5.370000000000000329e-01,2.212852751216137781e-01,2.597326767677097803e-01,5.557182360682121069e-02
5.380000000000000338e-01,2.751421628041642031e-01,1.153856744655954863e-01,1.917497192721817068e-01
5.390000000000000346e-01,-4.667677884181134496e-02,-1.624089412066170024e-01,7.647536832861012712e-02
5.400000000000000355e-01,-2.907153759388164116e-01,-2.236309037801204047e-01,-1.104928839148399539e-01
5.410000000000000364e-01,-1.938571849631715027e-01,9.617588116720289081e-04,-1.763701742668947747e-01
5.420000000000000373e-01,1.888279711122077265e-01,2.445531891613703934e-01,-2.941109556685128981e-02
5.430000000000000382e-01,3.129122013047972439e-01,1.541335081464437762e-01,1.571209185046474333e-01
5.440000000000000391e-01,3.728909945984795749e-02,-1.181120629447394710e-01,1.068972556477834623e-01
5.450000000000000400e-01,-2.859742351467588484e-01,-2.405512287248711967e-01,-9.973669001886818763e-02
5.460000000000000409e-01,-2.405800787422549825e-01,-4.335129127148628497e-02,-1.836077569958442512e-01
5.470000000000000417e-01,8.449218615267296839e-02,2.083757914781856346e-01,-7.792217234259518621e-02
5.480000000000000426e-01,3.369454717494294593e-01,1.897251892618790070e-01,1.484362743632667292e-01
5.490000000000000435e-01,1.301885910909589272e-01,-8.605188583168948968e-02,1.612290934083560612e-01
5.500000000000000444e-01,-2.122609592160236702e-01,-2.548691098816289191e-01,3.748990290085602028e-03
5.510000000000000453e-01,-2.815754733724247783e-01,-1.022167444611890019e-01,-2.107603168294495954e-01
5.520000000000000462e-01,-7.531859341687871696e-03,1.742055125532606108e-01,-1.220866055361925356e-01
5.530000000000000471e-01,2.960195998742547463e-01,2.068743876054817687e-01,1.138258507307452899e-01
5.540000000000000480e-01,2.157846118041454042e-01,-2.251372519164777236e-02,1.814250367770188221e-01
5.550000000000000488e-01,-1.549798776211790130e-01,-2.438282841910987542e-01,7.208145001131539831e-02
5.560000000000000497e-01,-3.054079403720703079e-01,-1.417435841168233623e-01,-1.826727741088687851e-01
5.570000000000000506e-01,-7.133814825145669281e-02,1.674963415875681538e-01,-1.725252805464105310e-01
5.580000000000000515e-01,2.428622475212747489e-01,2.682611591470088208e-01,1.135084287450067141e-02
5.590000000000000524e-01,2.551202272798287485e-01,2.710067358067035082e-02,1.829981736698441386e-01
5.600000000000000533e-01,-5.228724552703998413e-02,-2.041946110459244568e-01,1.068725647260823780e-01
5.610000000000000542e-01,-3.123249888510502004e-01,-2.013175290323179767e-01,-1.206099225503245304e-01
5.620000000000000551e-01,-1.547241288035244300e-01,9.263015623754100591e-02,-1.807965604515465730e-01
5.629999999999999449e-01,1.900498756336229111e-01,2.549367762778366742e-01,-9.172894790057391917e-03
5.639999999999999458e-01,2.951122010475483726e-01,8.607121541624755678e-02,1.495833793274896073e-01
5.649999999999999467e-01,2.104246181210675873e-02,-1.923384442801746586e-01,1.719171726472279449e-01
5.659999999999999476e-01,-2.988945363828157120e-01,-2.150731223558977334e-01,-1.947829685226144109e-02
5.669999999999999485e-01,-2.494054893947276197e-01,2.431648760787177843e-02,-1.843337935891095902e-01
5.679999999999999494e-01,1.235770520725977539e-01,2.293000081554362191e-01,-6.305439938916927722e-02
5.689999999999999503e-01,3.175587784536587077e-01,1.540107755701293768e-01,1.298657241454894418e-01
5.699999999999999512e-01,8.110846719158645857e-02,-1.657777710756179190e-01,1.833506193099871395e-01
5.709999999999999520e-01,-2.276995151837440667e-01,-2.664396275003799164e-01,2.035088821802360712e-02
5.719999999999999529e-01,-3.127355395797909443e-01,-2.665357671995453176e-02,-1.619771873697619102e-01
5.729999999999999538e-01,3.421435099367053229e-02,2.324351561922388398e-01,-1.431259137395630432e-01
5.739999999999999547e-01,2.994744013936331828e-01,2.000754658668183472e-01,5.682226235428279593e-02
5.749999999999999556e-01,1.550324158010169817e-01,-9.902156161981311155e-02,2.010352828285391913e-01
5.759999999999999565e-01,-1.610276037959780249e-01,-2.504987190099852712e-01,9.352324149278982979e-02
5.769999999999999574e-01,-3.146746798310844917e-01,-7.818949281862734579e-02,-1.158600333750890582e-01
5.779999999999999583e-01,-4.076684974861976424e-02,2.159363311299697663e-01,-1.826546468120118227e-01
5.789999999999999591e-01,2.528634685354619882e-01,2.219944558448742888e-01,-3.941289474571786633e-02
5.799999999999999600e-01,2.517629207589126006e-01,-1.718982095728743484e-02,1.750591668483623964e-01
5.809999999999999609e-01,-7.806974703452576603e-02,-2.562705442865644279e-01,1.620973631039565321e-01
5.819999999999999618e-01,-3.031323016246419422e-01,-1.418158887774843835e-01,-7.010948682577625157e-02
5.829999999999999627e-01,-1.377922209110699903e-01,1.649129413789962306e-01,-1.692068969044422944e-01
5.839999999999999636e-01,2.233722057622311574e-01,2.595458372276511216e-01,-6.566367390740081300e-02
5.849999999999999645e-01,2.827734076957726383e-01,2.406693089054208132e-02,1.444703210965959383e-01
5.859999999999999654e-01,3.896730108911974650e-03,-2.407501060179795260e-01,1.844817271870498876e-01
5.869999999999999662e-01,-3.010455555974248520e-01,-1.706254696298367957e-01,-1.831155369568469859e-02
5.879999999999999671e-01,-2.237220498836104410e-01,8.338092511298764165e-02,-1.689997691701569105e-01
5.889999999999999680e-01,1.386751620923614980e-01,2.478174715803529993e-01,-1.312707867171563902e-01
5.899999999999999689e-01,3.170585215324839279e-01,5.481278366101874355e-02,8.390711914613001310e-02
5.909999999999999698e-01,9.402148621450751032e-02,-1.668220651743724525e-01,1.974087691601908168e-01
5.919999999999999707e-01,-2.476641956834298164e-01,-2.044513037673381661e-01,7.756742280133502310e-02
5.929999999999999716e-01,-3.006402568882341475e-01,4.113070149618217736e-02,-1.559042591598339411e-01
5.939999999999999725e-01,7.658030504950691375e-02,2.348568432660895489e-01,-1.553993871511476499e-01
5.949999999999999734e-01,2.824342863196802611e-01,1.520785048381267102e-01,3.641028988959487539e-02
5.959999999999999742e-01,1.741056914954685064e-01,-1.594449091714382483e-01,2.029885702839724360e-01
5.969999999999999751e-01,-1.860519561077695339e-01,-2.465557714314167703e-01,1.389450205896414769e-01
5.979999999999999760e-01,-3.052649921953289325e-01,-5.649619840034921870e-04,-9.043738731624959004e-02
5.989999999999999769e-01,-4.499030473830305243e-02,2.496640320441341487e-01,-2.048515452866097319e-01
5.999999999999999778e-01,2.695275710904012634e-01,1.625866929516511794e-01,-5.335172388564762835e-02
6.009999999999999787e-01,2.431116666135400006e-01,-9.417713563724465498e-02,1.426471223188409410e-01
6.019999999999999796e-01,-1.181481829045920584e-01,-2.539651739110914686e-01,1.326897066417609128e-01
6.029999999999999805e-01,-3.042389220803110028e-01,-5.127534028892237472e-02,-1.677645175969470423e-02
6.039999999999999813e-01,-9.121398294593936751e-02,1.927272696771475113e-01,-1.718378044513536040e-01
6.049999999999999822e-01,2.206522842904415360e-01,2.120320862152471064e-01,-9.623663142599729603e-02
6.059999999999999831e-01,2.886890490650190766e-01,-6.002692372852091313e-02,1.002053156377447352e-01
6.069999999999999840e-01,3.116530501723706586e-03,-2.629954797367470842e-01,1.758822322753818557e-01
6.079999999999999849e-01,-2.908438122247848923e-01,-1.177284841054308112e-01,3.190336721787650348e-02
6.089999999999999858e-01,-1.834298904111693052e-01,1.485294253818309484e-01,-1.691367104564336643e-01
6.099999999999999867e-01,1.590493473803537838e-01,2.124944845482448497e-01,-1.403033860716634551e-01
6.109999999999999876e-01,3.032704404235113671e-01,-1.557294547787664053e-02,5.214928306043929707e-02
6.119999999999999885e-01,8.395526775486374105e-02,-2.323184046261299041e-01,1.991632844600624286e-01
6.129999999999999893e-01,-2.441896632883650553e-01,-1.916492317007796042e-01,6.654395541751927101e-02
6.139999999999999902e-01,-2.511370765431336638e-01,9.287156793282307088e-02,-1.249147398577343526e-01
6.149999999999999911e-01,7.220540800322475250e-02,2.543376151522344641e-01,-1.797927503929716009e-01
6.159999999999999920e-01,2.966684003275196213e-01,5.305591409818138926e-02,-2.167957007193685795e-02
6.169999999999999929e-01,1.355176033589525486e-01,-2.383950411711801554e-01,1.596939756569268898e-01
6.179999999999999938e-01,-1.761009737479770076e-01,-2.006430800041429374e-01,1.300487637002780972e-01
6.189999999999999947e-01,-2.905566154708705828e-01,6.906422554228634769e-02,-7.847407563057676172e-02
6.199999999999999956e-01,-3.298930265173188794e-04,2.446189831908776313e-01,-2.035981832111015410e-01
6.209999999999999964e-01,2.817101481639720517e-01,9.134212965933521944e-02,-7.079907956282338599e-02
6.219999999999999973e-01,2.424620887710275952e-01,-1.876117098091852342e-01,1.374278201362938157e-01
6.229999999999999982e-01,-1.014414979682829732e-01,-2.383180658875498903e-01,1.723305156223377266e-01
6.239999999999999991e-01,-2.940034174919601839e-01,-1.068393809012959219e-03,-1.530450234975792509e-02
6.250000000000000000e-01,-9.821683628320973525e-02,2.511521700053220840e-01,-1.629620815761224639e-01
6.260000000000000009e-01,2.539457018719378789e-01,1.465712318917872237e-01,-1.335611034219751081e-01
6.270000000000000018e-01,2.819247913671500960e-01,-1.549007843819659724e-01,9.554441793504812874e-02
6.280000000000000027e-01,-2.510872737890524828e-02,-2.351448877178718977e-01,2.095134664502217026e-01
6.290000000000000036e-01,-3.012375937973389983e-01,-4.295743195685008259e-02,8.354836251464588248e-02
6.300000000000000044e-01,-1.847676100728566084e-01,2.076292156189198657e-01,-1.399277928053976328e-01
6.310000000000000053e-01,2.130797871230994400e-01,2.021633922540411188e-01,-1.909543232030934123e-01
6.320000000000000062e-01,2.921272030151718102e-01,-6.546439711391735528e-02,1.469722351657083009e-02
6.330000000000000071e-01,5.439367220782706513e-02,-2.464648089036121925e-01,1.767501810125691186e-01
6.340000000000000080e-01,-2.711214994592474614e-01,-1.030118988438234739e-01,1.242479493154009240e-01
6.350000000000000089e-01,-2.374899738402999894e-01,2.098813426710525454e-01,-7.099459786535133876e-02
6.360000000000000098e-01,9.097916779009507238e-02,2.362076071558213974e-01,-1.724346262654370687e-01
6.370000000000000107e-01,3.247163216309668643e-01,-3.512154479816146507e-02,-6.747621155763385004e-02
6.380000000000000115e-01,1.189570749873116312e-01,-2.733059604812340670e-01,1.289616781970878423e-01
6.390000000000000124e-01,-2.149403081638883162e-01,-1.532682191380029257e-01,1.493051626048249592e-01
6.400000000000000133e-01,-2.997307701166636029e-01,1.568379160126283367e-01,-2.391158482405136149e-02
6.410000000000000142e-01,-2.536546787438560130e-02,2.753625346422347575e-01,-1.751554514843786658e-01
6.420000000000000151e-01,2.983953550465592852e-01,2.369473403131057074e-02,-9.629804046396307771e-02
6.430000000000000160e-01,1.917809613319789164e-01,-2.114726215681498878e-01,8.976470160788349584e-02
6.440000000000000169e-01,-1.274382432286493005e-01,-1.895086760553864602e-01,1.807959573788583130e-01
6.450000000000000178e-01,-3.168792950100442485e-01,8.892423021054134125e-02,4.970366811740256630e-02
6.460000000000000187e-01,-5.631248863388067794e-02,2.651302746706981073e-01,-1.663360112554385928e-01
6.470000000000000195e-01,2.344723041060521318e-01,1.039792772685201178e-01,-1.683943262112191641e-01
6.480000000000000204e-01,2.665884003454080386e-01,-1.944397425663237366e-01,4.882473783480314328e-02
6.490000000000000213e-01,-3.306918277057359357e-02,-2.196280126173047187e-01,1.930309869694465386e-01
6.500000000000000222e-01,-3.122017672774767827e-01,5.043323382912597713e-02,8.701959218974927857e-02
6.510000000000000231e-01,-1.677747486225384110e-01,2.573160737033789447e-01,-9.967305927429856438e-02
6.520000000000000240e-01,1.953585802407104277e-01,1.549890171928108573e-01,-2.239959106233813946e-01
6.530000000000000249e-01,3.243344503174958038e-01,-1.517484398693076386e-01,-2.141309759651758085e-02
6.540000000000000258e-01,2.741326673940506012e-02,-2.234270342696695610e-01,1.894446699786137278e-01
6.550000000000000266e-01,-3.127126808052215212e-01,-3.090402316410142264e-02,1.425082171254592189e-01
6.560000000000000275e-01,-2.288643704166005433e-01,2.294679344880347915e-01,-5.119096994204293954e-02
6.570000000000000284e-01,1.104497699679046208e-01,1.758692128117655684e-01,-1.917879112661442509e-01
6.580000000000000293e-01,2.987381177279854194e-01,-9.692876896906592321e-02,-7.763067853195750045e-02
6.590000000000000302e-01,1.204188363046125726e-01,-2.466511085903329015e-01,1.201340945663794263e-01
6.600000000000000311e-01,-1.916659834090155001e-01,-8.732732665905447444e-02,1.916781725555316840e-01
6.610000000000000320e-01,-3.061793674676701049e-01,1.804947126542988112e-01,4.810311351547648037e-03
6.620000000000000329e-01,-4.926893921738929871e-03,2.147885744354094961e-01,-1.735453990749137865e-01
6.630000000000000338e-01,2.811573784195228187e-01,-7.111239571160170303e-02,-1.317094857494607585e-01
6.640000000000000346e-01,1.974008051088224358e-01,-2.598780190155043357e-01,9.810915076666849866e-02
6.650000000000000355e-01,-1.571412039198624711e-01,-1.176224777125046139e-01,2.004371501722746474e-01
6.660000000000000364e-01,-3.105212021770137332e-01,1.527737884981364702e-01,6.806389584387904923e-02
6.670000000000000373e-01,-8.260433380691910299e-02,2.459035372440158407e-01,-1.551326672492056302e-01
6.680000000000000382e-01,2.702718629658659166e-01,2.568623684865662879e-02,-1.771727644485622533e-01
6.690000000000000391e-01,2.620525205037425587e-01,-2.221047878000005915e-01,1.469767669071313752e-02
6.700000000000000400e-01,-4.987798350901972988e-02,-1.655167765256317092e-01,1.800056845038252029e-01
6.710000000000000409e-01,-3.158029973826820824e-01,9.688843286198065008e-02,1.292930788468565073e-01
6.720000000000000417e-01,-1.282919662059472388e-01,2.617297921055468657e-01,-8.283270352995050767e-02
6.730000000000000426e-01,2.016244887631213067e-01,8.437610193675783299e-02,-1.890108062487587393e-01
6.740000000000000435e-01,2.769408663836627205e-01,-2.131380395714281284e-01,-5.830287846961069997e-02
6.750000000000000444e-01,1.370581174055575564e-02,-2.104923553150279958e-01,1.389999634006079121e-01
6.760000000000000453e-01,-2.659560199008210724e-01,3.832220616529641299e-02,1.809257370824122191e-01
6.770000000000000462e-01,-2.128693782225532516e-01,2.236399942444304567e-01,-2.623913935643283971e-02
6.780000000000000471e-01,1.176532457907587398e-01,1.200512955796073228e-01,-1.861929037642215123e-01
6.790000000000000480e-01,2.921403747135579154e-01,-1.789251243088417764e-01,-9.807968874195004128e-02
6.800000000000000488e-01,1.259804907834279897e-01,-2.548018495916515858e-01,8.473671513853577031e-02
6.810000000000000497e-01,-2.205836534423352702e-01,-8.167054734683876216e-03,2.022697138803900285e-01
6.820000000000000506e-01,-2.627781064136899825e-01,2.366925862118692270e-01,3.426381868263595615e-02
6.830000000000000515e-01,5.168141850122874581e-02,1.864210539975718894e-01,-1.497505251550372840e-01
6.840000000000000524e-01,2.935688971800016200e-01,-1.202957476302737999e-01,-1.607239732790656239e-01
6.850000000000000533e-01,1.974740879286712159e-01,-2.357451269885420808e-01,3.750223943063424326e-02
6.860000000000000542e-01,-1.786027405808433555e-01,-5.303924414751325783e-02,2.022765252020959081e-01
6.870000000000000551e-01,-3.141501662722602228e-01,2.207106036777283786e-01,1.252726780016853725e-01
6.879999999999999449e-01,-6.455653756988205538e-02,2.315696054006878557e-01,-9.764346421951479449e-02
6.889999999999999458e-01,2.676121798284784581e-01,-5.776960797751044818e-02,-1.821113551661327490e-01
6.899999999999999467e-01,2.608587483320817801e-01,-2.629900110931760460e-01,-2.410864197196726372e-02
6.909999999999999476e-01,-9.203307932843163286e-02,-9.306064483750553507e-02,1.419281506364443723e-01
6.919999999999999485e-01,-3.160429370788632730e-01,1.596016932881179073e-01,1.461758008837002187e-01
6.929999999999999494e-01,-1.452862938905145340e-01,2.164025330415838277e-01,-4.840553052291626801e-02
6.939999999999999503e-01,2.090191350925421354e-01,-1.055343753575611020e-03,-2.057285759848788420e-01
6.949999999999999512e-01,3.071091222466033610e-01,-2.586122326556596351e-01,-8.802631250994380485e-02
6.959999999999999520e-01,1.277672378225535796e-02,-1.649441269005867128e-01,1.101135849317975562e-01
6.969999999999999529e-01,-2.768209306200100084e-01,1.377479101789103599e-01,1.795079359353465298e-01
6.979999999999999538e-01,-2.208428485371155547e-01,2.609799821366046713e-01,3.821624138782829527e-02
6.989999999999999547e-01,1.279856869552109255e-01,3.975187157578589231e-02,-1.681738071541999113e-01
6.999999999999999556e-01,3.319363129203306562e-01,-2.055159614289090442e-01,-1.546068517799560893e-01
7.009999999999999565e-01,1.075260867133649573e-01,-1.920030883920876286e-01,4.733955467109575432e-02
7.019999999999999574e-01,-2.171897010551496199e-01,6.266053214709595143e-02,2.052723633025823058e-01
7.029999999999999583e-01,-2.672303062499322701e-01,2.510085855981377123e-01,7.390262718454457258e-02
7.039999999999999591e-01,6.738628021534066870e-02,9.801380018147491657e-02,-1.375453693975614011e-01
7.049999999999999600e-01,3.249685270220264433e-01,-1.640470533172064538e-01,-1.849804446771066146e-01
7.059999999999999609e-01,1.940449715892196836e-01,-2.268266042088467882e-01,4.097332416788340248e-05
7.069999999999999618e-01,-1.816741558907517817e-01,2.034702357942943379e-02,1.828133386658509774e-01
7.079999999999999627e-01,-3.299312276347308726e-01,2.395438975786617353e-01,1.149148922199380585e-01
7.089999999999999636e-01,-2.895151187407775731e-02,1.597551729885127725e-01,-7.105517135746611257e-02
7.099999999999999645e-01,2.467827344677264723e-01,-1.231343240164679137e-01,-1.998195687019837241e-01
7.109999999999999654e-01,2.323160608091672796e-01,-2.372948102272171012e-01,-7.987499449481923197e-02
7.119999999999999662e-01,-9.719613731907451870e-02,-2.105259621659381561e-02,9.781240907213108182e-02
7.129999999999999671e-01,-3.181414262133758220e-01,2.041935332313455365e-01,1.624664054913511069e-01
7.139999999999999680e-01,-1.103185890418131865e-01,1.958051972122288042e-01,-5.337871725566001486e-03
7.149999999999999689e-01,2.060357091506384020e-01,-1.081386234233357724e-01,-2.163044478349201716e-01
7.159999999999999698e-01,2.932477603832437385e-01,-2.503719578236460186e-01,-1.278800488503146204e-01
7.169999999999999707e-01,1.500550821080265862e-03,-7.795119637933008161e-02,6.389408964794804358e-02
7.179999999999999716e-01,-2.767221172853047140e-01,1.798176260708148344e-01,2.023108744556890159e-01
7.189999999999999725e-01,-2.091078556682842704e-01,2.342242702610553562e-01,3.867302932896673345e-02
7.199999999999999734e-01,1.703020919642616871e-01,-4.700945520263351968e-02,-1.504536827072477101e-01
7.209999999999999742e-01,3.314166930727799332e-01,-2.470639792315547922e-01,-1.586228135643199255e-01
7.219999999999999751e-01,6.920031512939360530e-02,-1.338347352933956513e-01,3.583116906072175006e-02
7.229999999999999760e-01,-2.514342057153494681e-01,1.296939524172839864e-01,1.739747856329117714e-01
7.239999999999999769e-01,-2.541609717034798988e-01,2.320655193785436943e-01,1.239371770217302660e-01
7.249999999999999778e-01,7.175506287930788485e-02,4.780330481647168672e-02,-9.874810670760175713e-02
7.259999999999999787e-01,3.210991384256186021e-01,-2.244423956872323156e-01,-1.770008539152805316e-01
7.269999999999999796e-01,1.775500903738606029e-01,-1.873311484606688115e-01,-4.803214281056835538e-02
7.279999999999999805e-01,-1.919334426305014107e-01,8.445842088641651590e-02,1.971528103809284393e-01
7.289999999999999813e-01,-2.625605743733540054e-01,2.459689999377426828e-01,1.582346936770260559e-01
7.299999999999999822e-01,-1.046296305206357788e-02,7.914484507537099256e-02,-9.515744549853159123e-03
7.309999999999999831e-01,2.685156706269319904e-01,-1.874399943747976638e-01,-1.656497559917649298e-01
7.319999999999999840e-01,2.486357363047592417e-01,-2.246567379300215828e-01,-9.762997927773349460e-02
7.329999999999999849e-01,-1.246095693166185819e-01,4.558901644864687269e-02,1.026562178919338680e-01
7.339999999999999858e-01,-3.504775375964141459e-01,2.521499503203518677e-01,1.875698723258341916e-01
7.349999999999999867e-01,-9.258802087745018894e-02,1.311365036136393769e-01,9.290950825320047624e-03
7.359999999999999876e-01,2.359261504529135134e-01,-1.565519223346766020e-01,-1.518236001736370522e-01
7.369999999999999885e-01,2.722933215098594650e-01,-2.305521904962425095e-01,-1.563412684070380476e-01
7.379999999999999893e-01,-1.279331364072045472e-02,-1.063978119856559025e-02,5.034812038466526113e-02
7.389999999999999902e-01,-3.073615606384620391e-01,2.378362553367794618e-01,2.035848932716324555e-01
7.399999999999999911e-01,-1.862329067001428362e-01,1.759782253774123673e-01,1.000631692598202560e-01
7.409999999999999920e-01,1.766654613807300822e-01,-1.133544796799512561e-01,-1.314167392035640314e-01
7.419999999999999929e-01,3.282146808096860768e-01,-2.540600438536151362e-01,-1.702713733400582352e-01
7.429999999999999938e-01,5.576707529455195156e-02,-9.319647729729967078e-02,-1.058968764509909087e-02
7.439999999999999947e-01,-2.946122080559168133e-01,1.831699454129906701e-01,1.846146388449988185e-01
7.449999999999999956e-01,-2.454093953304158360e-01,1.955838641338974726e-01,1.366227755627872353e-01
7.459999999999999964e-01,9.307242198540947864e-02,-6.300746494860350044e-02,-8.101916316756033187e-02
7.469999999999999973e-01,3.318546980230404619e-01,-2.728694000879271497e-01,-1.709043534924103991e-01
7.479999999999999982e-01,1.501887471872007662e-01,-1.233618895573719287e-01,-5.829140563201799796e-02
7.489999999999999991e-01,-1.966258298774934965e-01,1.616847783770975766e-01,1.379183462445603692e-01
7.500000000000000000e-01,-2.876088226932466685e-01,2.409864045342665073e-01,1.586759194232591486e-01
7.510000000000000009e-01,1.033896811242032525e-02,-5.968533409537210392e-03,-9.915969766006744318e-03
7.520000000000000018e-01,3.215006497914229544e-01,-2.323909175382386783e-01,-1.903949154683612366e-01
7.530000000000000027e-01,2.260795615529864744e-01,-1.878699982172566951e-01,-1.348005625902222449e-01
7.540000000000000036e-01,-1.340828544227845587e-01,1.265337443982327281e-01,8.479088573688427222e-02
7.550000000000000044e-01,-3.131970726325919996e-01,2.557636881053660938e-01,1.977063078385592199e-01
7.560000000000000053e-01,-1.028408873148977942e-01,1.017903759020219318e-01,5.693398743670195078e-02
7.570000000000000062e-01,2.669863452578790652e-01,-2.190012877824003557e-01,-1.500820540195392516e-01
7.580000000000000071e-01,2.809051546387005271e-01,-2.077170678397667891e-01,-1.804798612960590576e-01
7.590000000000000080e-01,-4.189464759264605043e-02,8.203024656976223850e-02,2.597902895087822114e-02
7.600000000000000089e-01,-3.153951817348016329e-01,2.424498070055389753e-01,1.853414295001992729e-01
7.610000000000000098e-01,-1.540730274288717727e-01,1.129392019566103356e-01,1.027554687189528304e-01
7.620000000000000107e-01,1.873703132463046817e-01,-1.518559982820040233e-01,-8.036443491803292594e-02
7.630000000000000115e-01,3.147146159569076396e-01,-2.245707857283112674e-01,-1.961073083325703681e-01
7.640000000000000124e-01,5.257640158970944277e-02,8.353083150848660682e-03,-4.856558702971298935e-02
7.650000000000000133e-01,-2.904341680672614667e-01,2.393405037560230320e-01,1.279136199731742973e-01
7.660000000000000142e-01,-2.469199455704917112e-01,1.686824617883384003e-01,1.847963983519645415e-01
7.670000000000000151e-01,1.063148312291263831e-01,-1.166430951329843896e-01,-2.918444863878833992e-02
7.680000000000000160e-01,3.033676615788665210e-01,-2.700683661148939874e-01,-1.972487190315962147e-01
7.690000000000000169e-01,1.087197128916113503e-01,-7.007468668711003268e-02,-1.091249266970024667e-01
7.700000000000000178e-01,-1.941101225595337487e-01,2.289528696785417539e-01,1.243604654549587407e-01
7.710000000000000187e-01,-2.926067130393015248e-01,1.971942938845673843e-01,1.840289986652122178e-01
7.720000000000000195e-01,3.124439420196808287e-02,-8.482692108616494975e-02,2.307319880895764702e-02
7.730000000000000204e-01,2.904155186974999303e-01,-2.631729244783775346e-01,-1.430872086461322523e-01
7.740000000000000213e-01,1.987602367751193921e-01,-1.056615525279497175e-01,-1.547462369008445748e-01
7.750000000000000222e-01,-1.619180018523284637e-01,1.904578787265261142e-01,4.002821487419101071e-02
7.760000000000000231e-01,-3.002514718050881548e-01,2.231208365461479215e-01,1.876234065090030545e-01
7.770000000000000240e-01,-7.461009697173005828e-02,-1.092682577963218285e-02,1.050963122180531284e-01
7.780000000000000249e-01,2.565293665760408071e-01,-2.491318248522598200e-01,-9.580142411082276377e-02
7.790000000000000258e-01,2.672136995728098818e-01,-1.559926138074062552e-01,-1.657345502989724384e-01
7.800000000000000266e-01,-8.712276109200071950e-02,1.278012516320520819e-01,-3.662324870577381847e-02
7.810000000000000275e-01,-2.885858328406975537e-01,2.348289386587779914e-01,1.786534545989300060e-01
7.820000000000000284e-01,-1.433794047038565722e-01,7.665533648486795582e-02,1.519758194482390967e-01
7.830000000000000293e-01,1.920160160924677395e-01,-2.329932881082767693e-01,-7.568640093382879297e-02
7.840000000000000302e-01,2.934286272145478214e-01,-1.937720534525166072e-01,-1.829240251397987460e-01
7.850000000000000311e-01,2.700598205148349584e-02,7.998942727649595297e-02,-9.103508817047618884e-02
7.860000000000000320e-01,-2.942493509552141506e-01,2.326285884648230107e-01,1.052827562252953708e-01
7.870000000000000329e-01,-2.502111751051354083e-01,1.004144089136361218e-01,1.693420815085698306e-01
7.880000000000000338e-01,9.746760691675096511e-02,-1.959858066557753076e-01,-3.886177934454382570e-03
7.890000000000000346e-01,3.179796253490804747e-01,-2.198422053896942896e-01,-1.818984757554319986e-01
7.900000000000000355e-01,1.300234199141549474e-01,2.501975181894723274e-02,-1.206619521370905224e-01
7.910000000000000364e-01,-2.219445054639073989e-01,2.451072789197866197e-01,8.433894398010315097e-02
7.920000000000000373e-01,-2.723009285211414610e-01,1.410399985987429994e-01,1.974499094899812013e-01
7.930000000000000382e-01,4.647859862746384768e-02,-1.390364266227991641e-01,8.420263696302016099e-02
7.940000000000000391e-01,3.404272298110997963e-01,-2.449423003515731889e-01,-1.333053289915697992e-01
7.950000000000000400e-01,1.770418119198861329e-01,-8.691283954652817903e-03,-1.586946337326689549e-01
7.960000000000000409e-01,-1.661473091516456335e-01,2.364133749972042453e-01,2.458586577829226585e-02
7.970000000000000417e-01,-3.186362061975959170e-01,1.943251816585904734e-01,1.944510473087007751e-01
7.980000000000000426e-01,-3.408082607553789695e-02,-9.163724898954457576e-02,1.086461955388384748e-01
7.990000000000000435e-01,2.747897640174434275e-01,-2.476928760416070574e-01,-9.892089810472527722e-02
8.000000000000000444e-01,2.518030419129891340e-01,-7.183647279621233062e-02,-1.847865927693770338e-01
8.010000000000000453e-01,-6.873579484309212673e-02,1.886269500512314790e-01,-6.301047253975396167e-02
8.020000000000000462e-01,-3.215330336597153060e-01,2.186834060629862797e-01,1.382799989187498968e-01
8.030000000000000471e-01,-1.580336720646882687e-01,-1.872626402234158285e-02,1.643839136401212542e-01
8.040000000000000480e-01,2.269430125526300523e-01,-2.400046191976499266e-01,-1.267433438467474929e-02
8.050000000000000488e-01,3.037286291705172392e-01,-1.396678892031172903e-01,-1.885463460051914897e-01
8.060000000000000497e-01,-1.140392815375256171e-02,1.539521484353501557e-01,-9.328769446741072557e-02
8.070000000000000506e-01,-2.894597297264476232e-01,2.279532830163019941e-01,1.162055695915384379e-01
8.080000000000000515e-01,-2.254745381212649724e-01,2.005870576048243356e-02,1.898623478042520407e-01
8.090000000000000524e-01,1.238634670536583188e-01,-2.132152760231160737e-01,4.319734935405127041e-02
8.100000000000000533e-01,3.226625056585599727e-01,-1.735803594992133270e-01,-1.549395523304739342e-01
8.110000000000000542e-01,9.745952172743152508e-02,7.634777623142498248e-02,-1.674557402052803956e-01
8.120000000000000551e-01,-2.274212109473995602e-01,2.421513552439811534e-01,4.892541095434065762e-02
8.129999999999999449e-01,-2.618048141779650284e-01,5.234805845901564780e-02,1.725486848375479554e-01
8.139999999999999458e-01,3.475380400049117580e-02,-2.029157876127934690e-01,1.105142581301588184e-01
8.149999999999999467e-01,3.070561227597970455e-01,-2.235549689820278962e-01,-1.252288068311520619e-01
8.159999999999999476e-01,1.692894595116196110e-01,2.855164080823951317e-02,-1.787557654393136242e-01
8.169999999999999485e-01,-1.960257506060808785e-01,2.228881591384933025e-01,-5.794461457946290667e-02
8.179999999999999494e-01,-3.025378087681917516e-01,1.552806502237748520e-01,1.586903527019032090e-01
8.189999999999999503e-01,-4.806312797883269955e-02,-1.644593742915851642e-01,1.362888468788861218e-01
8.199999999999999512e-01,2.911727203372102557e-01,-2.474859218837071884e-01,-2.733362235495568129e-02
8.209999999999999520e-01,2.409688273002750791e-01,-1.879882618668448843e-02,-1.990711807907580289e-01
8.219999999999999529e-01,-1.233472760562227544e-01,2.347571834082133324e-01,-1.030903515072509602e-01
8.229999999999999538e-01,-3.110610320402508178e-01,1.845990327931937569e-01,1.355228233782561631e-01
8.239999999999999547e-01,-1.183807916725316128e-01,-9.996643031482284336e-02,1.849949744914174965e-01
8.249999999999999556e-01,2.063515505270890615e-01,-2.169173940235974152e-01,1.395898229890723055e-02
8.259999999999999565e-01,2.895084283560374616e-01,-6.273350514335773731e-02,-1.470932154125754177e-01
8.269999999999999574e-01,-8.601388695110867913e-03,2.076928747595384039e-01,-1.535479466795178771e-01
8.279999999999999583e-01,-3.003888569156913380e-01,2.106765803466186804e-01,4.384824206561212245e-02
8.289999999999999591e-01,-1.911557422564630626e-01,-2.480227393762012011e-02,2.028791614580764679e-01
8.299999999999999600e-01,1.465391354131573010e-01,-2.383279140705845678e-01,8.309665135787451529e-02
8.309999999999999609e-01,3.232072861356285465e-01,-1.328534714562420449e-01,-1.066818864967113839e-01
8.319999999999999618e-01,9.220140014907370063e-02,1.550729972104065990e-01,-1.877383857419093471e-01
8.329999999999999627e-01,-2.569434230883425596e-01,2.544214345717238368e-01,5.459317200616891361e-04
8.339999999999999636e-01,-2.445984801747479176e-01,-2.149142746758701469e-02,1.522679348741527161e-01
8.349999999999999645e-01,8.273336896246932803e-02,-2.413451018495716138e-01,1.374259330532086876e-01
8.359999999999999654e-01,3.229223994338074610e-01,-1.567389594100742911e-01,-8.076982321036065005e-02
8.369999999999999662e-01,1.542463479155400108e-01,1.387087299348912783e-01,-1.893583427859756863e-01
8.379999999999999671e-01,-1.987397835989279105e-01,2.626143479458231123e-01,-5.549042995821360652e-02
8.389999999999999680e-01,-3.186072864638394564e-01,7.289436208640340253e-02,1.444247894441554325e-01
8.399999999999999689e-01,-3.414672136675887121e-02,-2.145467061469788494e-01,1.756776687606000642e-01
8.409999999999999698e-01,2.889132855727193916e-01,-1.972370203530008914e-01,-1.413487681820677598e-02
8.419999999999999707e-01,2.421279777979029602e-01,5.694004254765740181e-02,-1.494544050982670735e-01
8.429999999999999716e-01,-1.338666369882542673e-01,2.402820580778640414e-01,-1.337378150920116582e-01
8.439999999999999725e-01,-3.150897528941701276e-01,1.002105155593996239e-01,8.573891843513706257e-02
8.449999999999999734e-01,-9.624469258823036000e-02,-1.729856283018531837e-01,1.935713898099218622e-01
8.459999999999999742e-01,2.293868686356063391e-01,-2.284456806579315269e-01,3.145246868555306996e-02
8.469999999999999751e-01,2.763453353605018203e-01,-9.460066611205804332e-03,-1.349741468311466963e-01
8.479999999999999760e-01,-5.061351329686065298e-02,2.397076345062581493e-01,-1.608291030975940727e-01
8.489999999999999769e-01,-2.941889996608836877e-01,1.717032493182440722e-01,-1.086874705765485637e-02
8.499999999999999778e-01,-1.423335278078693977e-01,-1.173626132154408364e-01,1.919357070194014359e-01
8.509999999999999787e-01,1.744902541258877005e-01,-2.676931963945400339e-01,1.130384911619879279e-01
8.519999999999999796e-01,3.407610092608491792e-01,-2.055450237674937009e-02,-1.105238236330162022e-01
8.529999999999999805e-01,2.746824640645946156e-02,2.106398196761399833e-01,-1.792056432025583568e-01
8.539999999999999813e-01,-2.664663171371687289e-01,1.836457648186574088e-01,-3.418722090121012469e-02
8.549999999999999822e-01,-2.579419713360915356e-01,-7.107852392194471958e-02,1.427011217671170229e-01
8.559999999999999831e-01,8.661081141460176547e-02,-2.351645178387151980e-01,1.330807297684681589e-01
8.569999999999999840e-01,3.281509418086467900e-01,-8.228475090410181103e-02,-6.076193316099565145e-02
8.579999999999999849e-01,1.630525011759974552e-01,1.983494651915981566e-01,-1.812131147734598047e-01
8.589999999999999858e-01,-2.258589769574579353e-01,2.353316801322700713e-01,-8.708074998328373117e-02
8.599999999999999867e-01,-2.844946330367693066e-01,-3.799774974192045990e-02,1.156665693471043699e-01
8.609999999999999876e-01,1.765776876425432032e-02,-2.425117087190073462e-01,1.640867650005519707e-01
8.619999999999999885e-01,2.863309292079659341e-01,-1.805012764516948365e-01,2.298909482395748022e-02
8.629999999999999893e-01,2.323608333606672627e-01,1.580472886747097128e-01,-1.584759908096819159e-01
8.639999999999999902e-01,-1.342163773607948085e-01,2.235693946487093964e-01,-1.424223565650153678e-01
8.649999999999999911e-01,-3.185617175322189576e-01,4.954740089619458915e-02,4.764906341746873164e-02
8.659999999999999920e-01,-8.707439533165783896e-02,-2.503647490801410025e-01,1.841641559456152488e-01
8.669999999999999929e-01,2.637795237909470458e-01,-1.884417504977363433e-01,8.177407302085830387e-02
8.679999999999999938e-01,2.381770075239279527e-01,4.681338484269756406e-02,-1.370110887881171025e-01
8.689999999999999947e-01,-6.806811225747852467e-02,2.565815474425632847e-01,-1.694422809927492446e-01
8.699999999999999956e-01,-3.274052149978971538e-01,1.020343387944998431e-01,-1.374901099113836830e-02
8.709999999999999964e-01,-1.882926450611138169e-01,-1.955854543080149111e-01,1.458750770619476334e-01
8.719999999999999973e-01,1.900161167453885969e-01,-2.335529029848349980e-01,1.540459781172596743e-01
8.729999999999999982e-01,3.224610137336208493e-01,3.187767602114181115e-02,-7.255172002903680084e-02
8.739999999999999991e-01,3.295397377257604232e-02,2.577031649602720131e-01,-1.893165945870367295e-01
8.750000000000000000e-01,-2.884850332244779936e-01,1.454681644495822435e-01,-7.220096260284669665e-02
8.760000000000000009e-01,-2.318729814031193770e-01,-1.542368151608031202e-01,1.184479674818480210e-01
8.770000000000000018e-01,1.292614772777068710e-01,-2.570894974726616877e-01,1.677444924320387054e-01
8.780000000000000027e-01,3.085431520046921783e-01,-3.489166716038705901e-02,-2.258029955918371828e-02
8.790000000000000036e-01,1.264175852821761425e-01,2.275688109164574202e-01,-1.643343901834964926e-01
8.800000000000000044e-01,-2.065846345311658783e-01,1.915997762304946228e-01,-1.284335203876555698e-01
8.810000000000000053e-01,-2.809009116647654958e-01,-1.034126440357917842e-01,7.958071315766659937e-02
8.820000000000000062e-01,2.597540692169510168e-02,-2.521472322697290158e-01,1.582380451101832730e-01
8.830000000000000071e-01,2.886197828790745823e-01,-6.012313645924045880e-02,6.100961654643683590e-02
8.840000000000000080e-01,2.005628674972598502e-01,2.163653198960058255e-01,-1.430278250456719080e-01
8.850000000000000089e-01,-1.423290320649694407e-01,2.248609786783022646e-01,-1.658795369850395440e-01
8.860000000000000098e-01,-2.948274995267592957e-01,-5.636053573075614637e-02,3.195873321128352151e-02
8.870000000000000107e-01,-7.659570200145961183e-02,-2.292757660316360746e-01,1.721930933671556030e-01
8.880000000000000115e-01,2.445544498422096702e-01,-1.516827754514811777e-01,1.062525047528269928e-01
8.890000000000000124e-01,2.361054589682911320e-01,1.999572976953955805e-01,-9.225241630397067183e-02
8.900000000000000133e-01,-8.621182472438528033e-02,2.299095939623888030e-01,-1.988153247990941397e-01
8.910000000000000142e-01,-3.304166744279273815e-01,2.564682407095683972e-02,-5.625063504604600056e-02
8.920000000000000151e-01,-1.475819631609559812e-01,-2.352515783081317036e-01,1.602718477005141973e-01
8.930000000000000160e-01,1.948441098523925885e-01,-1.743550610217377006e-01,1.513254061728885602e-01
8.940000000000000169e-01,2.982864904361069991e-01,1.161011564910243293e-01,-2.820534394702125039e-02
8.950000000000000178e-01,2.981040230838909871e-02,2.549693629861354283e-01,-1.757743602551026241e-01
8.960000000000000187e-01,-2.836118570170285125e-01,7.816695620119827603e-02,-8.678071576943036103e-02
8.970000000000000195e-01,-2.401720630934619238e-01,-2.064869676460109327e-01,1.124543119738678487e-01
8.980000000000000204e-01,1.112800790594217215e-01,-2.385007809969166004e-01,1.961015899859570866e-01
8.990000000000000213e-01,3.357549076181525760e-01,4.409842495311321053e-02,5.902399049975510376e-02
9.000000000000000222e-01,1.119032274364818030e-01,2.603252765611910879e-01,-1.699254918144231519e-01
9.010000000000000231e-01,-2.360216226996753042e-01,1.097956130359566407e-01,-1.433759513803052610e-01
9.020000000000000240e-01,-2.813479341826422564e-01,-1.449665039999173677e-01,4.569055665441022762e-02
9.030000000000000249e-01,4.556426128028533140e-02,-2.182658253007371818e-01,1.821627649191362996e-01
9.040000000000000258e-01,2.879274757045942046e-01,8.048609321651176152e-03,9.797162678802309732e-02
9.050000000000000266e-01,1.856285770389178857e-01,2.425435114005931592e-01,-1.244270419467262551e-01
9.060000000000000275e-01,-1.695330049116962057e-01,1.467761425483045945e-01,-1.956537592813805404e-01
9.070000000000000284e-01,-2.940359085533713057e-01,-1.353276198304555755e-01,-1.474426083985431839e-02
9.080000000000000293e-01,-7.154693910169630799e-02,-2.461283032040172403e-01,1.634681155416035092e-01
9.090000000000000302e-01,2.610579895726961586e-01,-6.519114027636035980e-02,1.668292773536318163e-01
9.100000000000000311e-01,2.471629624807811509e-01,2.072338567748659433e-01,-5.095773347676604836e-02
9.110000000000000320e-01,-1.064353556370414705e-01,2.087815516329969145e-01,-1.915874126273682532e-01
9.120000000000000329e-01,-2.990907870206544472e-01,-6.393291484289460869e-02,-1.006417157769832066e-01
9.130000000000000338e-01,-1.277775090157674542e-01,-2.418645866953227086e-01,1.279101696813087219e-01
9.140000000000000346e-01,2.130024184421573374e-01,-9.839206354258420162e-02,1.620331654347281769e-01
9.150000000000000355e-01,2.954372316940627741e-01,1.911267028419621206e-01,-1.289239551446597597e-02
9.160000000000000364e-01,-3.383915633178163473e-03,2.287193170198654202e-01,-1.416183266959930576e-01
9.170000000000000373e-01,-3.068014011108052275e-01,2.124758578015961338e-02,-1.180601818288560395e-01
9.180000000000000382e-01,-2.245829754747075691e-01,-2.417986445752604296e-01,6.674387029018262474e-02
9.190000000000000391e-01,1.113498581583936831e-01,-1.131333261825430009e-01,2.144660481154491982e-01
9.200000000000000400e-01,3.027873520977550359e-01,1.424385858849533393e-01,6.278096122858234374e-02
9.210000000000000409e-01,1.025572257273326682e-01,2.215550992284954224e-01,-1.237932441086663365e-01
9.220000000000000417e-01,-2.347455172533427226e-01,2.603711139315416020e-02,-1.722984625853758722e-01
9.230000000000000426e-01,-2.584529024558773758e-01,-2.068908994315020455e-01,-1.159438322619439805e-02
9.240000000000000435e-01,7.051242933238506538e-02,-1.904799697753442322e-01,1.975260596684904335e-01
9.250000000000000444e-01,3.004487306160528726e-01,5.521068853836725437e-02,9.787983573727891684e-02
9.260000000000000453e-01,1.822477652133838721e-01,2.495136388442667219e-01,-8.345716777335651648e-02
9.270000000000000462e-01,-1.725863390975632128e-01,9.690726024611946710e-02,-1.723464987684509286e-01
9.280000000000000471e-01,-3.131769679792789085e-01,-1.686151313047823952e-01,-3.912329259755310124e-02
9.290000000000000480e-01,-3.456682378947213002e-02,-2.505252939871439599e-01,1.456473247939417959e-01
9.300000000000000488e-01,2.846731279118313584e-01,3.176543493471239293e-02,1.576839766745067040e-01
9.310000000000000497e-01,2.355913241398259750e-01,2.089914536604854378e-01,-4.774277414716744834e-03
9.320000000000000506e-01,-1.261651444260265265e-01,1.838259127776628865e-01,-1.838187127554275213e-01
9.330000000000000515e-01,-3.304900852387581134e-01,-1.416603162886233835e-01,-1.110195721409209108e-01
9.340000000000000524e-01,-1.377351338890515087e-01,-2.471711031913333412e-01,9.355525343511895964e-02
9.350000000000000533e-01,2.261519835301579184e-01,-4.312213259807044091e-02,1.879977036760252518e-01
9.360000000000000542e-01,2.960777960215870697e-01,1.849057276103838188e-01,2.727729986764840936e-02
9.370000000000000551e-01,-3.681562882857512126e-02,1.985882183179769889e-01,-1.598675754943293670e-01
9.379999999999999449e-01,-3.131866354375868466e-01,-7.927186998106550142e-02,-1.485492831968487082e-01
9.389999999999999458e-01,-2.041689704204154021e-01,-2.463482884172773502e-01,6.561732723874602602e-02
9.399999999999999467e-01,1.124265068338256429e-01,-9.942177620657427495e-02,2.057788760122835903e-01
9.409999999999999476e-01,3.266436598315277107e-01,1.840518574062448842e-01,1.108484147437733408e-01
9.419999999999999485e-01,8.383879586909290249e-02,2.276751347919273860e-01,-1.290453553682019694e-01
9.429999999999999494e-01,-2.632237546267839345e-01,-3.686416643377552621e-02,-1.708894738136497726e-01
9.439999999999999503e-01,-2.432848240068196111e-01,-2.342352655409762618e-01,-3.111241426497143511e-02
9.449999999999999512e-01,8.715457539268849085e-02,-1.426731789165424369e-01,1.600745900474017935e-01
9.459999999999999520e-01,3.014614918908747332e-01,1.350379586415308697e-01,1.483587934494021154e-01
9.469999999999999529e-01,1.652713115811975941e-01,2.235192842170476424e-01,-7.507670972824644073e-02
9.479999999999999538e-01,-2.031757556211727656e-01,5.511003969911742323e-02,-2.011980152448978598e-01
9.489999999999999547e-01,-2.793231375663376981e-01,-2.284423307623001664e-01,-5.650739424283506701e-02
9.499999999999999556e-01,-8.963633218191905880e-03,-1.685871344505072977e-01,1.486864771647081473e-01
9.509999999999999565e-01,2.829181064273758595e-01,1.070773313307324948e-01,1.947350416427489628e-01
9.519999999999999574e-01,2.036813971750887353e-01,2.430583233757279138e-01,1.581073899960404663e-02
9.529999999999999583e-01,-1.088016291277360270e-01,7.830402726501549393e-02,-1.708786125080998808e-01
9.539999999999999591e-01,-3.070932220140207281e-01,-2.118947078412028173e-01,-1.293780126352618021e-01
9.549999999999999600e-01,-1.012582387894543912e-01,-1.976160781886021345e-01,5.016704626396224082e-02
9.559999999999999609e-01,2.197682126453953388e-01,5.589569568376102915e-02,1.711468995854364405e-01
9.569999999999999618e-01,2.943280245815281249e-01,2.396190173597495809e-01,1.095401554208818712e-01
9.579999999999999627e-01,-3.311076564350143303e-02,1.043716483464454808e-01,-1.409464700102503742e-01
9.589999999999999636e-01,-3.099226530933926194e-01,-1.477158285483308187e-01,-1.546245494384576313e-01
9.599999999999999645e-01,-1.853155441658618785e-01,-2.415138447061082050e-01,-1.055178494056647001e-02
9.609999999999999654e-01,1.682236453924902397e-01,-3.255146728054860578e-02,1.521335826350559139e-01
9.619999999999999662e-01,2.906839061977372074e-01,2.211586646500310893e-01,1.310374630881700198e-01
9.629999999999999671e-01,5.482620621943318923e-02,1.954211704013093798e-01,-9.030182115877811999e-02
9.639999999999999680e-01,-2.868866586340605429e-01,-8.901905055021148983e-02,-1.939583725574493267e-01
9.649999999999999689e-01,-2.710078120880046737e-01,-2.515140708329274277e-01,-3.621370577198282370e-02
9.659999999999999698e-01,1.154824008353478731e-01,-1.156464235893453346e-01,1.509703583229003443e-01
9.669999999999999707e-01,3.128321756367197781e-01,2.145525417069214513e-01,1.583086102012732366e-01
9.679999999999999716e-01,1.295018623433512595e-01,2.143026044925514517e-01,-1.841067002650489254e-02
9.689999999999999725e-01,-2.175879608949224664e-01,-1.042551982870915453e-02,-1.932461012855678784e-01
9.699999999999999734e-01,-2.919038393897034345e-01,-2.537831072286431122e-01,-1.201844669656942782e-01
9.709999999999999742e-01,-4.890862592834132640e-03,-1.455180596883563771e-01,1.054665164262986732e-01
9.719999999999999751e-01,2.800907134176405799e-01,1.367105765732573863e-01,1.933265427043428519e-01
9.729999999999999760e-01,2.178471585026607316e-01,2.366865767369742413e-01,4.866810532882885620e-02
9.739999999999999769e-01,-1.412078873860957151e-01,-1.069963680665049141e-02,-1.594338492233003668e-01
9.749999999999999778e-01,-2.953223553430485704e-01,-2.219087588492146546e-01,-1.650530718937688324e-01
9.759999999999999787e-01,-9.309318004254546475e-02,-1.776771819263210095e-01,2.790694350783397976e-02
9.769999999999999796e-01,2.348988866252616214e-01,1.061474139314070725e-01,1.758073553532966404e-01
9.779999999999999805e-01,2.777484308461315998e-01,2.617007460140368669e-01,1.109424285333775878e-01
9.789999999999999813e-01,-7.979501465542709893e-02,7.335578761707202411e-02,-1.182189400056623263e-01
9.799999999999999822e-01,-3.055075953869121896e-01,-2.048267481072154617e-01,-1.885841634471324690e-01
9.809999999999999831e-01,-1.671484749840890238e-01,-1.908514325584810822e-01,-2.752921195873049912e-02
9.819999999999999840e-01,1.582888742914152491e-01,5.066886744856100022e-02,1.796469115370925573e-01
9.829999999999999849e-01,2.867738314575124514e-01,2.658857861504471676e-01,1.743328834935646832e-01
9.839999999999999858e-01,4.570510327562211927e-02,1.164922904160626271e-01,-9.078333790128849390e-02
9.849999999999999867e-01,-2.777347220115109483e-01,-1.753875680687334015e-01,-1.908451477285490472e-01
9.859999999999999876e-01,-2.011429186002757497e-01,-2.190864868957979050e-01,-8.830802887613550811e-02
9.869999999999999885e-01,1.088899068318266716e-01,-7.899757018901980982e-03,1.255267679415277560e-01
9.879999999999999893e-01,3.201470493550412910e-01,2.527406596437321018e-01,1.963609872144211621e-01
9.889999999999999902e-01,9.884143021186707345e-02,1.397470123025977562e-01,1.377881459732792704e-02
9.899999999999999911e-01,-2.193344992382381120e-01,-1.164291221914274116e-01,-1.509236852406411755e-01
9.909999999999999920e-01,-2.891518939702346080e-01,-2.423097819621555515e-01,-1.579271569050618718e-01
9.919999999999999929e-01,5.304225649547111496e-03,-4.018825581062482333e-02,4.276901569368159184e-02
9.929999999999999938e-01,2.887866579866319450e-01,2.396549350286201474e-01,1.825657283058982339e-01
9.939999999999999947e-01,2.123495422028250645e-01,1.833345524565472284e-01,8.392847418129900650e-02
9.949999999999999956e-01,-1.846147432878431360e-01,-6.508177210073080865e-02,-1.116974392827661811e-01
9.959999999999999964e-01,-2.885113631718716487e-01,-2.412766991605134748e-01,-1.840508410951603169e-01
9.969999999999999973e-01,-7.040447510003290665e-02,-9.339640206479296602e-02,1.810695722254516971e-02
9.979999999999999982e-01,2.527961413675889335e-01,1.886321045445706890e-01,1.859448572809605238e-01
9.989999999999999991e-01,2.891257049767151921e-01,2.599021184218841540e-01,1.175950289484470335e-01
1.000000000000000000e+00,-6.733549932218498013e-02,6.949903304957517902e-03,-9.995402160480647280e-02
1.000999999999999890e+00,-3.115901725509064857e-01,-2.576395719183660615e-01,-1.742139400369734359e-01
1.002000000000000002e+00,-1.498236565952455190e-01,-1.451345572502976689e-01,-7.637856425475340882e-02
1.002999999999999892e+00,1.870063669526720040e-01,9.986576563772441018e-02,1.459429327551171884e-01
1.004000000000000004e+00,2.901431390539818689e-01,2.634164474418496660e-01,1.780185169751213603e-01
1.004999999999999893e+00,-7.114762623381578189e-05,7.520884906654447255e-02,2.828825773941413477e-02
1.006000000000000005e+00,-3.060677365314974918e-01,-2.049712606616465593e-01,-1.929078517995645448e-01
1.006999999999999895e+00,-2.190149974614155892e-01,-2.029629774536173548e-01,-1.195843497433555780e-01
1.008000000000000007e+00,1.489365439644822209e-01,1.000502624787068390e-01,9.063244522155568250e-02
1.008999999999999897e+00,2.952167678757088298e-01,2.478368120423516674e-01,2.067207408071808361e-01
1.010000000000000009e+00,1.364572018942897258e-01,9.911767080842846800e-02,5.062293026397794021e-02
1.010999999999999899e+00,-2.336622530467769021e-01,-1.736587011502088718e-01,-1.575560056037392798e-01
1.012000000000000011e+00,-2.732568215851186588e-01,-2.402828428448322562e-01,-1.706179186024097960e-01
1.012999999999999901e+00,3.704940503570738203e-02,4.143681443227979766e-02,3.366996833348371437e-02
1.014000000000000012e+00,2.895213999985079001e-01,2.167798046743819318e-01,1.847069614747438859e-01
1.014999999999999902e+00,1.739652038271057577e-01,1.264875675446193448e-01,1.107247597184168736e-01
1.016000000000000014e+00,-1.690807621723904308e-01,-1.324020800013875343e-01,-1.165157955418250346e-01
1.016999999999999904e+00,-2.800799369117897286e-01,-2.348182377779202967e-01,-2.015449316299392224e-01
1.018000000000000016e+00,-3.071630088522906213e-02,-2.187019401628550672e-02,-3.676388400425882608e-02
1.018999999999999906e+00,2.682466220536338097e-01,2.068174003153920582e-01,1.538157690611821338e-01
1.020000000000000018e+00,2.639759774081497090e-01,2.068245479794546815e-01,1.473710670841849313e-01
1.020999999999999908e+00,-4.331040720211087880e-02,-6.872841005365117051e-02,-3.430826255655928386e-02
1.022000000000000020e+00,-2.909888906880513937e-01,-2.562175569442520784e-01,-1.797230908313078301e-01
1.022999999999999909e+00,-1.511884779022805436e-01,-8.581248217143944146e-02,-1.089160417007463133e-01
1.024000000000000021e+00,2.231732451808181583e-01,1.961218273659998124e-01,1.071115417453652047e-01
1.024999999999999911e+00,2.927023726625392896e-01,2.394086219224017820e-01,1.823236438589893038e-01
1.026000000000000023e+00,4.819407145711534254e-04,-3.915731685799175160e-02,3.726594897459004768e-02
1.026999999999999913e+00,-2.777143584601164394e-01,-2.750316852755403940e-01,-1.507966244311799431e-01
1.028000000000000025e+00,-2.053385464729653442e-01,-1.350830570505677786e-01,-1.320213943227939168e-01
1.028999999999999915e+00,1.394005135804804452e-01,1.550348394969655597e-01,7.791863690161299205e-02
1.030000000000000027e+00,3.491216302589197906e-01,2.634893308766790843e-01,1.979905942746706116e-01
1.030999999999999917e+00,1.120600556046019713e-01,1.694523644608511570e-02,9.967379095072677331e-02
1.032000000000000028e+00,-2.571356069456711135e-01,-2.060089000419903782e-01,-1.300567870441450280e-01
1.032999999999999918e+00,-2.824764720908206628e-01,-1.729563515820975172e-01,-1.733193487244836239e-01
1.034000000000000030e+00,5.354449257060126671e-02,8.088729010528875052e-02,-9.237094082495723307e-03
1.034999999999999920e+00,3.017785868898650303e-01,2.473377950216375243e-01,1.809322743783377263e-01
1.036000000000000032e+00,1.852806570366426209e-01,8.985273166924620525e-02,1.611266423584099550e-01
1.036999999999999922e+00,-1.723527314230816898e-01,-1.784392208292825965e-01,-8.429564961526880840e-02
1.038000000000000034e+00,-3.070472778242764877e-01,-1.954737296432766669e-01,-2.042725886223608067e-01
1.038999999999999924e+00,-4.194924374975290277e-02,5.528163162128515301e-02,-1.009832450102404050e-01
1.040000000000000036e+00,2.770609919614274719e-01,2.727215355725092216e-01,1.139381268666176117e-01
1.040999999999999925e+00,2.391208719692040074e-01,1.470896733558057501e-01,1.706939054157813607e-01
1.042000000000000037e+00,-1.092830984915526549e-01,-1.606597528824693366e-01,8.853442994195466834e-03
1.042999999999999927e+00,-3.038872725450070256e-01,-2.351628229955065319e-01,-1.892611825329813535e-01
1.044000000000000039e+00,-1.140782247981273756e-01,-1.353473198938542031e-02,-1.194696121392953142e-01
1.044999999999999929e+00,2.402451513784016890e-01,2.512716557416656560e-01,9.295598549211046835e-02
1.046000000000000041e+00,3.033471799897619059e-01,1.453938266282996661e-01,1.627144214930715815e-01
1.046999999999999931e+00,-1.503699275616567944e-02,-1.277428565116852932e-01,4.142533970171068114e-02
1.048000000000000043e+00,-3.000245986382087948e-01,-2.320867916212624449e-01,-1.471476202361494401e-01
1.048999999999999932e+00,-2.006960249267876473e-01,-4.733951414226006404e-02,-1.414878126880002307e-01
1.050000000000000044e+00,1.692314744825074158e-01,1.846556448583631105e-01,5.179624017616940752e-03
1.050999999999999934e+00,2.849229425447685204e-01,2.032599049161562810e-01,1.807957629683914769e-01
1.052000000000000046e+00,6.317862725909395571e-02,-4.417370888838056259e-02,1.085849956156063889e-01
1.052999999999999936e+00,-2.773979111808902998e-01,-2.294988875545468654e-01,-1.066736182216436041e-01
1.054000000000000048e+00,-2.903951607300830351e-01,-1.299016367259269167e-01,-2.018167657398937387e-01
1.054999999999999938e+00,3.605891883492088473e-02,1.699074626794522258e-01,-4.403762007051154059e-02
1.056000000000000050e+00,3.374055517325105225e-01,2.377994050964631345e-01,1.425624378692948169e-01
1.056999999999999940e+00,1.454535680161943012e-01,3.344341186143565819e-02,1.820388230205278735e-01
1.058000000000000052e+00,-2.131563994606706369e-01,-2.080840741949246675e-01,-5.458580504493901892e-02
1.058999999999999941e+00,-3.090624103362102360e-01,-1.633466896345630859e-01,-1.597418534365687703e-01
1.060000000000000053e+00,-2.456920181249423046e-02,1.065753276961761559e-01,-9.345101771651771749e-02
1.060999999999999943e+00,3.057511558952681341e-01,2.678169901472033931e-01,8.490930530346937899e-02
1.062000000000000055e+00,2.203725429369722544e-01,5.490065553458629843e-02,1.980136833564491994e-01
1.062999999999999945e+00,-1.285617870186680223e-01,-2.081769842185238750e-01,4.797429109595612029e-02
1.064000000000000057e+00,-3.119996685357055988e-01,-1.991685516010023582e-01,-1.769692393660383667e-01
1.064999999999999947e+00,-9.928265646978279291e-02,6.696864245328160159e-02,-1.521611552334271589e-01
1.066000000000000059e+00,2.397626749287562475e-01,2.555698471255265503e-01,3.769739163691082640e-02
1.066999999999999948e+00,2.753437532752537331e-01,8.469755146433420590e-02,1.857072456452502629e-01
1.068000000000000060e+00,-5.136976667450778716e-02,-1.361731991656422447e-01,8.990106437799466610e-02
1.068999999999999950e+00,-2.981739291667930281e-01,-2.284649186764244888e-01,-1.360376652691768218e-01
1.070000000000000062e+00,-1.951554951295940143e-01,8.718928100426973082e-03,-1.906043059781192262e-01
1.070999999999999952e+00,1.670439724797038450e-01,2.258256454812399838e-01,-3.440529792243683660e-02
1.072000000000000064e+00,3.269988094860536987e-01,1.552399168254869621e-01,1.638627322776202710e-01
1.072999999999999954e+00,2.788986345067162587e-02,-1.057930383723675732e-01,1.483385423634468181e-01
1.074000000000000066e+00,-2.662424585822831258e-01,-2.712517492307801592e-01,-5.101467063765592613e-02
1.074999999999999956e+00,-2.339349937329136264e-01,-4.513036828694920455e-02,-1.788426272415542806e-01
1.076000000000000068e+00,8.227970360958394846e-02,2.010252065263403998e-01,-5.615720412353331081e-02
1.076999999999999957e+00,3.118889639924980473e-01,1.800488007321968675e-01,1.328113406659454931e-01
1.078000000000000069e+00,1.332920485626859497e-01,-6.754724774885988159e-02,1.694009201079545446e-01
1.078999999999999959e+00,-2.099982555979271748e-01,-2.267752955809391735e-01,3.311867621009315175e-03
1.080000000000000071e+00,-2.693468041105935851e-01,-1.167026287181741756e-01,-2.074265963830155823e-01
1.080999999999999961e+00,-3.142651398719518985e-02,2.144518892611279037e-01,-1.347374039731131790e-01
1.082000000000000073e+00,2.894595567508673750e-01,2.063612204716124554e-01,9.760012930370962070e-02
1.082999999999999963e+00,2.102497188583998811e-01,-3.423545494492168800e-02,1.871824663353442719e-01
1.084000000000000075e+00,-1.485373434874021348e-01,-2.338774409564476631e-01,7.972651394452351381e-02
1.084999999999999964e+00,-3.103119477429666651e-01,-1.469774721147599494e-01,-1.233353522579580669e-01
1.086000000000000076e+00,-7.335415648944891565e-02,9.912313158016977654e-02,-1.632982570008043310e-01
1.086999999999999966e+00,2.651955987850612706e-01,2.603726598306265183e-01,-1.670698973957422282e-03
1.088000000000000078e+00,2.870660563113321961e-01,3.626015376389548489e-02,1.792954729112332390e-01
1.088999999999999968e+00,-5.060011789295933149e-02,-2.185998151326363215e-01,1.316853404908503167e-01
1.090000000000000080e+00,-2.830490224517434594e-01,-2.111939742733655867e-01,-8.369364252956396077e-02
1.090999999999999970e+00,-1.996833815652417077e-01,6.711395344230852711e-02,-1.835537343690204215e-01
1.092000000000000082e+00,1.739156294087127463e-01,2.524374415455400977e-01,-5.411846779499148580e-02
1.092999999999999972e+00,3.118753963954633557e-01,8.329990207312158723e-02,1.363966998151161791e-01
1.094000000000000083e+00,5.365560479569922957e-03,-1.641866137624439781e-01,1.698097766792418251e-01
1.094999999999999973e+00,-2.685205100259623889e-01,-2.202014866272340721e-01,-3.043100808573440813e-02
1.096000000000000085e+00,-2.466258513772783822e-01,3.705640890254644371e-03,-1.638591103337112276e-01
1.096999999999999975e+00,8.372838284456113334e-02,2.338211122614004267e-01,-9.603349311002945532e-02
1.098000000000000087e+00,3.088175729282062743e-01,1.276209610888388857e-01,9.474050572259345993e-02
1.098999999999999977e+00,1.288705649333459491e-01,-1.613343866202673893e-01,1.736247445988363391e-01
1.100000000000000089e+00,-2.108423654633541366e-01,-2.390412848862490669e-01,2.946439341092918496e-02
1.100999999999999979e+00,-2.797989727355272849e-01,-2.600333514159572021e-02,-1.396847601256392679e-01
1.102000000000000091e+00,9.789867023271534713e-03,2.362871914831550235e-01,-1.853132802219727426e-01
1.102999999999999980e+00,2.726187132067481866e-01,1.983535796714109289e-01,1.294887805077912270e-02
1.104000000000000092e+00,1.891317690302319332e-01,-1.086778275384330389e-01,1.918642885990651248e-01
1.104999999999999982e+00,-1.761718276836185260e-01,-2.273119344229767580e-01,1.089475635524726344e-01
1.106000000000000094e+00,-2.997358564704091788e-01,-8.605278031234266101e-02,-8.363522537020734449e-02
1.106999999999999984e+00,-5.996937757689921322e-02,2.078197692586143952e-01,-1.515314582884352557e-01
1.108000000000000096e+00,2.464870290047443124e-01,2.196080710370435785e-01,-3.720382333274337844e-02
1.108999999999999986e+00,2.578738925462086828e-01,-2.332003234103573186e-02,1.872811418721740118e-01
1.110000000000000098e+00,-6.635764677976206671e-02,-2.639038122699481348e-01,1.635807068624736405e-01
1.110999999999999988e+00,-2.991279700348900006e-01,-1.044170033967100203e-01,-2.866258150608884045e-02
1.112000000000000099e+00,-1.725788900786789926e-01,1.482624067714587712e-01,-1.691112636943660208e-01
1.112999999999999989e+00,1.884981318694390062e-01,2.584836381599940336e-01,-9.180546512135413784e-02
1.114000000000000101e+00,2.895374945794220722e-01,1.061517982696276799e-02,1.177503472486766678e-01
1.114999999999999991e+00,3.174193509402904734e-02,-2.225216262227687758e-01,1.873930746625311339e-01
1.116000000000000103e+00,-2.673269129720413639e-01,-1.759719189029183561e-01,2.530873489070756266e-02
1.116999999999999993e+00,-2.272899960370375616e-01,9.330692461192792442e-02,-1.388444563290016642e-01
1.118000000000000105e+00,1.013467315709354055e-01,2.377745344194913679e-01,-1.455584554583130019e-01
1.118999999999999995e+00,2.982455502746250708e-01,8.537166197981380100e-02,6.144912104134623437e-02
1.120000000000000107e+00,1.058768449175711002e-01,-1.944630279783969296e-01,1.704752274012624746e-01
1.120999999999999996e+00,-2.243868787031778333e-01,-2.121872670887073320e-01,9.040762313079651891e-02
1.122000000000000108e+00,-2.606316273635384539e-01,5.059627440830184036e-02,-1.289834966392623961e-01
1.122999999999999998e+00,6.573704909042490940e-02,2.495411695022625997e-01,-1.653038431188462998e-01
1.124000000000000110e+00,2.977180503719412674e-01,1.222884017985141764e-01,2.019612392536730347e-02
1.125000000000000000e+00,1.806928289195901816e-01,-1.395392197835841896e-01,1.550570076536158526e-01
1.125999999999999890e+00,-1.675264465255728585e-01,-2.308723658284393410e-01,1.442511475004980004e-01
1.127000000000000002e+00,-2.927346675774447071e-01,-8.190047437679854811e-03,-7.567543499064736945e-02
1.127999999999999892e+00,-4.993161727669957750e-02,2.280485290600891835e-01,-1.887157838305746071e-01
1.129000000000000004e+00,2.653723834019285355e-01,1.630677960314322883e-01,-4.850374741562107905e-02
1.129999999999999893e+00,2.421724504979805292e-01,-1.023325248395910714e-01,1.273751135012619606e-01
1.131000000000000005e+00,-9.190155957132893627e-02,-2.411413300154445494e-01,1.725294915958504594e-01
1.131999999999999895e+00,-3.125608378077990301e-01,-4.707828814784199151e-02,-4.903967063149192000e-03
1.133000000000000007e+00,-1.317105793790298851e-01,1.862238031789509862e-01,-2.020062246674403927e-01
1.133999999999999897e+00,2.380412467596451087e-01,2.194687829880771213e-01,-1.091963085832383246e-01
1.135000000000000009e+00,3.087824808242448649e-01,-6.756790976387531955e-02,1.141620613661891992e-01
1.135999999999999899e+00,2.219159370921392567e-04,-2.150647723990910531e-01,1.780566521174648531e-01
1.137000000000000011e+00,-3.216663004686909355e-01,-1.081229416786391312e-01,3.847933081126989063e-02
1.137999999999999901e+00,-2.292232418464197063e-01,1.655355187859939847e-01,-1.530754236898530241e-01
1.139000000000000012e+00,1.448630173046787650e-01,2.229651364547029779e-01,-1.405995554075562814e-01
1.139999999999999902e+00,3.095247261144936646e-01,-1.578946935325817660e-02,2.591885261492907211e-02
1.141000000000000014e+00,7.789596000554781241e-02,-2.437284375311109530e-01,1.925283267792452790e-01
1.141999999999999904e+00,-2.447818933942671193e-01,-1.779708557974385708e-01,1.055462153687958954e-01
1.143000000000000016e+00,-2.383672561331263429e-01,1.231361568917035132e-01,-9.243917654150500540e-02
1.143999999999999906e+00,6.759931015364283036e-02,2.324440357543393065e-01,-2.116891180599188571e-01
1.145000000000000018e+00,3.087059559295691202e-01,5.675550432991603028e-02,-2.711862579057728456e-02
1.145999999999999908e+00,1.601973899218286368e-01,-2.134687541923716847e-01,1.435630856256855381e-01
1.147000000000000020e+00,-1.853274619889070662e-01,-2.098004806296120128e-01,1.686891550432084719e-01
1.147999999999999909e+00,-2.944017824591446675e-01,6.192510816829029097e-02,-4.652544268835194508e-02
1.149000000000000021e+00,-3.459084663553074757e-02,2.602995624177284473e-01,-1.720358519870376079e-01
1.149999999999999911e+00,2.831429476169536330e-01,9.134206265570475602e-02,-1.084390988893373653e-01
1.151000000000000023e+00,2.408579680856416938e-01,-2.113577367085092418e-01,7.668856515747737856e-02
1.151999999999999913e+00,-1.041335749661335824e-01,-2.368272510278759124e-01,2.095028849854256581e-01
1.153000000000000025e+00,-3.024131168940770720e-01,1.383360714995956683e-02,9.307276947642724452e-03
1.153999999999999915e+00,-1.295268731056357370e-01,2.318842408095486696e-01,-1.751367904235180128e-01
1.155000000000000027e+00,2.175448465420879718e-01,1.536827826732755642e-01,-1.154198948604941155e-01
1.155999999999999917e+00,2.787295717328697187e-01,-1.301172820555185905e-01,5.923419518285345797e-02
1.157000000000000028e+00,-2.632899933938165349e-02,-2.446727509859069338e-01,1.884154257228439489e-01
1.157999999999999918e+00,-3.097898773884463219e-01,-1.838729221382566850e-02,9.067433354538961821e-02
1.159000000000000030e+00,-1.973487649545201672e-01,2.078008379115533211e-01,-1.119433194692584649e-01
1.159999999999999920e+00,1.566837125551936161e-01,1.806310691638383370e-01,-1.770222584490223350e-01
1.161000000000000032e+00,2.726059827396021262e-01,-1.125165864892873763e-01,-2.181840607861222983e-02
1.161999999999999922e+00,7.762138789736670874e-02,-2.384664625747502376e-01,1.679857414467939292e-01
1.163000000000000034e+00,-2.496545694143965100e-01,-9.881550118776646907e-02,1.362204422405297322e-01
1.163999999999999924e+00,-2.584428429764020207e-01,1.731105131208326986e-01,-1.114032716279265423e-01
1.165000000000000036e+00,7.389441506295063578e-02,2.087622543281143772e-01,-1.812324214540536604e-01
1.165999999999999925e+00,3.147673591249664504e-01,-4.245523002554827535e-02,-7.496707784891318282e-02
1.167000000000000037e+00,1.245449813159257846e-01,-2.505555735729770306e-01,1.241461971273672971e-01
1.167999999999999927e+00,-1.995116725357232168e-01,-1.369022578248162703e-01,1.696826481250731378e-01
1.169000000000000039e+00,-2.666733542915772914e-01,1.494367731672578137e-01,-3.028866382148463418e-02
1.169999999999999929e+00,-2.901683757249960346e-02,2.504880390245056154e-01,-1.635217342443123223e-01
1.171000000000000041e+00,2.863355165206575847e-01,3.556983256905205115e-02,-1.359887638274142885e-01
1.171999999999999931e+00,2.176689221464903901e-01,-2.215224739660583697e-01,8.731293022715458374e-02
1.173000000000000043e+00,-1.229591746179928696e-01,-1.894153011811065823e-01,1.873791251467740449e-01
1.173999999999999932e+00,-3.220206704445223722e-01,8.665199882412942534e-02,4.149231312191191401e-02
1.175000000000000044e+00,-1.067282056394376760e-01,2.484187249656728824e-01,-1.605933127732846188e-01
1.175999999999999934e+00,2.283317329567176590e-01,8.149847454356845544e-02,-1.805324837342012767e-01
1.177000000000000046e+00,2.959497682729743673e-01,-1.813135069229668550e-01,1.838385243826985357e-02
1.177999999999999936e+00,-5.606993875194053734e-02,-2.030538775235280202e-01,1.895347832813295552e-01
1.179000000000000048e+00,-3.224520936980285746e-01,2.914802599413126444e-02,1.217102839519434015e-01
1.179999999999999938e+00,-1.872321887995515577e-01,2.237824790140992559e-01,-9.433917263778673901e-02
