time,acc_x,acc_y,acc_z
0.000000000000000000e+00,1.096438269943446064e-01,5.663900447036367830e-02,7.322787751249182353e-02
1.000000000000000021e-03,6.240857793109698404e-02,2.382272963544579056e-02,5.999566134806466611e-02
2.000000000000000042e-03,1.133899080092980703e-02,-1.369551827868586633e-02,2.541287427422436046e-02
3.000000000000000062e-03,-4.377104813157198931e-02,-5.652656226616761814e-02,4.655695368939459337e-03
4.000000000000000083e-03,-9.587026357778190289e-02,-8.219242488056749396e-02,-4.290265752419632206e-02
5.000000000000000104e-03,-1.214966555982767565e-01,-1.069221285173111574e-01,-4.478191468534858943e-02
6.000000000000000125e-03,-1.351181252100556451e-01,-1.177430475839164464e-01,-6.333257423213942139e-02
7.000000000000000146e-03,-1.361803106188140822e-01,-1.076935232838529682e-01,-8.902768946375057280e-02
8.000000000000000167e-03,-1.341078258128379497e-01,-9.089751749442481765e-02,-8.426546045135357987e-02
8.999999999999999320e-03,-9.522796068187459884e-02,-5.774197005103125918e-02,-9.309274969949250800e-02
1.000000000000000021e-02,-4.992067887377164837e-02,-2.332834920862140310e-02,-4.850472277880974598e-02
1.099999999999999936e-02,-2.545493252299093311e-03,1.930982674004082592e-02,-1.776905578763173996e-02
1.200000000000000025e-02,2.909003231727385827e-02,4.847016959993053625e-02,-6.794625445365665671e-03
1.299999999999999940e-02,8.924613989287966120e-02,9.690016836634164632e-02,3.484258552638495876e-02
1.400000000000000029e-02,1.215567512624450286e-01,1.115213626918797746e-01,6.102049279712130209e-02
1.499999999999999944e-02,1.398624613991659438e-01,1.001456891529835663e-01,7.543285485556240622e-02
1.600000000000000033e-02,1.270725806630561006e-01,9.289023437992942334e-02,9.099564430506816570e-02
1.700000000000000122e-02,1.219017768702492510e-01,6.305921879530385077e-02,8.650293253538518523e-02
1.799999999999999864e-02,9.589964488066060611e-02,4.715982798965791950e-02,7.848218566484950476e-02
1.899999999999999953e-02,4.632881655559865919e-02,1.610235251527467916e-03,6.884084338957362215e-02
2.000000000000000042e-02,3.230914320966094835e-04,-3.006655541376773710e-02,3.032445050586723631e-02
2.100000000000000130e-02,-4.792505242621903500e-02,-7.911328420756412461e-02,-9.847159057041960425e-04
2.199999999999999872e-02,-8.728282757406964631e-02,-9.701465916377506604e-02,-3.021556468572412710e-02
2.299999999999999961e-02,-1.174941210744757381e-01,-9.233936050795615857e-02,-6.357429484538605624e-02
2.400000000000000050e-02,-1.453734226392700835e-01,-1.082047687748621811e-01,-9.075705997416590176e-02
2.500000000000000139e-02,-1.502463189994395210e-01,-1.008642360348224326e-01,-8.713761576731170189e-02
2.599999999999999881e-02,-1.186710115641468194e-01,-8.943593107607207549e-02,-8.624205695729661447e-02
2.699999999999999969e-02,-9.577693256474412165e-02,-3.166555486317101237e-02,-6.961236016993964382e-02
2.800000000000000058e-02,-4.088183099779230112e-02,-2.310037222834866386e-02,-5.264031904577010090e-02
2.900000000000000147e-02,6.339710334790656489e-04,3.018622771604819593e-02,-2.217583818307367408e-02
2.999999999999999889e-02,3.499818396045709795e-02,7.771096896976797952e-02,6.795907798338610833e-03
3.099999999999999978e-02,9.105155914450202559e-02,1.037832307638026363e-01,3.995818649667476352e-02
3.200000000000000067e-02,1.222468869386618001e-01,1.130865424097433070e-01,5.675682767529909717e-02
3.300000000000000155e-02,1.516667947909899061e-01,1.124448344304934122e-01,7.870263718400770381e-02
3.400000000000000244e-02,1.378390063649440056e-01,1.098365761237525551e-01,8.341438076267122803e-02
3.500000000000000333e-02,1.076537908497700591e-01,6.726997545109088261e-02,8.184448031309964067e-02
3.599999999999999728e-02,7.570237304060184469e-02,1.967841968398037836e-02,6.176622174451797814e-02
3.699999999999999817e-02,4.309843469798204513e-02,-1.750235598637429196e-02,5.666507269980758377e-02
3.799999999999999906e-02,-1.735568490340138811e-02,-5.346165782476976214e-02,1.028272840513933147e-02
3.899999999999999994e-02,-4.955768788091117344e-02,-8.812067607592793950e-02,-8.999337401867268244e-03
4.000000000000000083e-02,-9.946352213478906745e-02,-1.061740252689507003e-01,-3.977448541456869713e-02
4.100000000000000172e-02,-1.360107775123764184e-01,-1.184331048551209159e-01,-6.068637125097686019e-02
4.200000000000000261e-02,-1.501593173282310678e-01,-1.036241820958412468e-01,-7.039173101742809968e-02
4.299999999999999656e-02,-1.302743538930648537e-01,-8.979197181609648026e-02,-8.021211937765639066e-02
4.399999999999999745e-02,-1.099174089625298972e-01,-5.737979323292988210e-02,-8.055359600414740973e-02
4.499999999999999833e-02,-8.043973508436982889e-02,-1.914223534994107315e-02,-6.368575185779735970e-02
4.599999999999999922e-02,-3.052772307987404454e-02,1.153054986708695190e-02,-5.128304513152821820e-02
4.700000000000000011e-02,8.965502907171522123e-03,5.829594909148910070e-02,-3.631740834605596407e-02
4.800000000000000100e-02,6.436875055850135863e-02,7.591928851747220541e-02,1.004326986474973933e-02
4.900000000000000189e-02,9.575279282011671389e-02,1.148745198148362623e-01,4.275321347004833877e-02
5.000000000000000278e-02,1.309549936009334892e-01,1.144172694857319150e-01,5.724662484766249865e-02
5.099999999999999672e-02,1.405301002485199180e-01,9.796216597826638839e-02,7.731233121991923363e-02
5.199999999999999761e-02,1.389316685799858453e-01,8.683882214374646913e-02,8.982876236256130686e-02
5.299999999999999850e-02,1.158573598780979069e-01,3.912378965971322065e-02,8.131783725757402159e-02
5.399999999999999939e-02,6.203832411937876962e-02,1.504279080641442688e-02,6.929312415927220414e-02
5.500000000000000028e-02,2.347127311889307330e-02,-2.888521834092503890e-02,4.802079172714592004e-02
5.600000000000000117e-02,-2.586342267083305280e-02,-5.869034887735823103e-02,2.305984441128865886e-02
5.700000000000000205e-02,-6.990670026114580160e-02,-1.059512580661720188e-01,-2.127628406770652389e-02
5.800000000000000294e-02,-1.065345053707852513e-01,-1.191976284139378006e-01,-3.408667341059665179e-02
5.899999999999999689e-02,-1.372647023334591931e-01,-1.127835220046977532e-01,-5.117214131814822042e-02
5.999999999999999778e-02,-1.469081452182063874e-01,-9.396013985951177927e-02,-7.326478155929685987e-02
6.099999999999999867e-02,-1.323032253485200982e-01,-6.899722955710972661e-02,-8.065612791242407487e-02
6.199999999999999956e-02,-1.077826294390124839e-01,-5.401531908597005660e-02,-8.657230331864751438e-02
6.300000000000000044e-02,-6.764255689072191935e-02,-2.938477084377859837e-03,-7.679888747758817358e-02
6.400000000000000133e-02,-1.977872306876821834e-02,4.115811516152290822e-02,-5.616198855542640922e-02
6.500000000000000222e-02,4.479161964870452539e-02,7.547217976451207899e-02,-2.481535405853972642e-02
6.600000000000000311e-02,6.365293801263206819e-02,1.075819830804237848e-01,1.331951836623397785e-02
6.700000000000000400e-02,1.191936709809503364e-01,1.192068577548679870e-01,4.202116326448054884e-02
6.800000000000000488e-02,1.349844879358715610e-01,1.212732819820949437e-01,6.622798760619018343e-02
6.900000000000000577e-02,1.472827766592478271e-01,1.098103913833695516e-01,7.729594876408102389e-02
7.000000000000000666e-02,1.316742669036548019e-01,8.105661775858861995e-02,9.473827466425799315e-02
7.099999999999999367e-02,1.016917230913386982e-01,3.951026443872180521e-02,9.100464939063067360e-02
7.199999999999999456e-02,6.718444015297425631e-02,6.724324835087427434e-03,6.307324035884495639e-02
7.299999999999999545e-02,1.777122882898055437e-02,-3.460111914318583087e-02,5.136790049812020587e-02
7.399999999999999634e-02,-2.946074575167475021e-02,-7.845831851819519420e-02,2.377576881165656755e-02
7.499999999999999722e-02,-8.892451493508160554e-02,-1.166866042628024180e-01,-6.031340648561942484e-03
7.599999999999999811e-02,-1.166736660974830447e-01,-1.152711425779802956e-01,-4.195663710558632242e-02
7.699999999999999900e-02,-1.274706317230164532e-01,-1.151808368536939298e-01,-5.332236351923161366e-02
7.799999999999999989e-02,-1.406259510290978065e-01,-8.991199606468980310e-02,-9.265943216504503310e-02
7.900000000000000078e-02,-1.175807454727581247e-01,-6.883431752626521793e-02,-7.757969442107752467e-02
8.000000000000000167e-02,-8.900187946205119494e-02,-2.757315297096397944e-02,-9.717127526735570842e-02
8.100000000000000255e-02,-6.274714278704084103e-02,1.873642114779486972e-02,-6.795026137191659266e-02
8.200000000000000344e-02,-5.502745285915293903e-03,5.953739828157290914e-02,-4.659441114165534942e-02
8.300000000000000433e-02,4.430104218377608344e-02,7.496044664593458362e-02,-1.532050884996494049e-02
8.400000000000000522e-02,7.734183354259314969e-02,1.072088073891638987e-01,2.038778842595175694e-02
8.500000000000000611e-02,1.165141626441431877e-01,1.177762391395354852e-01,4.282995483509081935e-02
8.599999999999999312e-02,1.549580383446343690e-01,1.010068816885244941e-01,6.393925375533664190e-02
8.699999999999999400e-02,1.458128732186445287e-01,7.918023305712378057e-02,7.532451772151990688e-02
8.799999999999999489e-02,1.220605317249415928e-01,5.097030640529969653e-02,8.058125806864785412e-02
8.899999999999999578e-02,9.998226761758198522e-02,3.303141461967350895e-02,7.264029253465247027e-02
8.999999999999999667e-02,3.759018972969937339e-02,-1.723773101607011665e-02,6.930333869549964998e-02
9.099999999999999756e-02,-7.553586538743895136e-03,-6.193987378347073913e-02,3.530241499230306335e-02
9.199999999999999845e-02,-5.505038672118846982e-02,-8.879728440790964072e-02,1.928287813929044489e-03
9.299999999999999933e-02,-1.002901194643184973e-01,-1.085446276093064710e-01,-1.641122318748398923e-02
9.400000000000000022e-02,-1.302654207080704563e-01,-1.146974696137789962e-01,-4.791094876964841626e-02
9.500000000000000111e-02,-1.423697048700629242e-01,-1.069026504721412169e-01,-6.528592288814083489e-02
9.600000000000000200e-02,-1.456428954076099680e-01,-7.302054708631161573e-02,-8.075450606524012254e-02
9.700000000000000289e-02,-1.112883211944157985e-01,-5.226169393270988645e-02,-8.609339066711321764e-02
9.800000000000000377e-02,-9.287854022265214227e-02,-1.348246599452989671e-02,-9.401096970655162255e-02
9.900000000000000466e-02,-5.372797915722867662e-02,3.422216323790729792e-02,-7.695937836594472781e-02
1.000000000000000056e-01,2.009376894574525785e-02,7.336483343696602322e-02,-4.701300876179922289e-02
1.010000000000000064e-01,6.348006729717463326e-02,9.602456958028703082e-02,-2.396102829615687907e-02
1.019999999999999934e-01,1.001571200378604948e-01,1.125092044446670408e-01,1.794514137721227309e-02
1.029999999999999943e-01,1.361227437281171126e-01,9.779247679536702542e-02,5.298326470514062858e-02
1.039999999999999952e-01,1.446260600013572484e-01,1.000416261956174752e-01,5.559930888735635512e-02
1.049999999999999961e-01,1.382383592573871445e-01,6.872714448613512217e-02,6.699536227886260242e-02
1.059999999999999970e-01,1.116985588418194231e-01,4.595603942035424855e-02,9.054614638500102508e-02
1.069999999999999979e-01,7.577773772905471716e-02,1.885350093911937518e-03,6.780165897599628455e-02
1.079999999999999988e-01,3.662082058113819844e-02,-2.454823485967274135e-02,5.519916264674076811e-02
1.089999999999999997e-01,-1.236475351514618876e-02,-6.711676126920371188e-02,5.046785113244395965e-02
1.100000000000000006e-01,-5.422143600725828905e-02,-9.203165575862316816e-02,1.926076674134540034e-02
1.110000000000000014e-01,-1.071727304081409454e-01,-1.187620723485685592e-01,-2.234424301447374139e-02
1.120000000000000023e-01,-1.406550066176697755e-01,-1.173395141359130783e-01,-3.607122180818634477e-02
1.130000000000000032e-01,-1.409497870231921635e-01,-1.037374083317873091e-01,-6.026126516886692180e-02
1.140000000000000041e-01,-1.233040115663718433e-01,-7.731694402589636694e-02,-7.759699270361171408e-02
1.150000000000000050e-01,-1.157890187093120887e-01,-3.294128050667206181e-02,-7.974589714117481798e-02
1.160000000000000059e-01,-7.179020366001227782e-02,1.580210490377861876e-02,-8.174510795115691453e-02
1.170000000000000068e-01,-4.207325668180566386e-02,4.003079781931435932e-02,-5.990904063092093723e-02
1.179999999999999938e-01,1.021801001975951653e-02,8.992496688847442798e-02,-3.799638743107082439e-02
1.189999999999999947e-01,5.733095256089829062e-02,1.041784955776463295e-01,-7.896217642400246359e-03
1.199999999999999956e-01,1.125292517542875181e-01,1.015025993558839185e-01,1.754220240489056531e-02
1.209999999999999964e-01,1.382115809192659972e-01,1.025575305957007050e-01,4.583176803940808286e-02
1.219999999999999973e-01,1.503492920973998059e-01,8.437689790163444004e-02,5.420533029331280062e-02
1.229999999999999982e-01,1.260510466388620743e-01,5.664783411870823876e-02,8.508711631132549746e-02
1.239999999999999991e-01,1.043736681492819923e-01,2.244888075856929857e-02,8.227416513192142844e-02
1.250000000000000000e-01,6.840267655469207952e-02,-2.702783170998897949e-02,7.617420184983594855e-02
1.260000000000000009e-01,2.202731069504666739e-02,-5.547562331328684260e-02,6.276308300164805398e-02
1.270000000000000018e-01,-3.764143625511794794e-02,-9.293970452961516915e-02,5.352172442680544484e-02
1.280000000000000027e-01,-7.378695013162789307e-02,-1.089052779549775918e-01,1.687871613795323411e-02
1.290000000000000036e-01,-1.223122830013311513e-01,-1.082135152590355115e-01,-1.225026796541082812e-02
1.300000000000000044e-01,-1.439849383693258822e-01,-1.163006718944003953e-01,-4.308076732896729683e-02
1.310000000000000053e-01,-1.525146252651771173e-01,-8.288593263990208515e-02,-6.898358961821364488e-02
1.320000000000000062e-01,-1.249692532758521490e-01,-6.412304991871653481e-02,-9.331807955107546126e-02
1.330000000000000071e-01,-1.000022695845865645e-01,-7.784391365299421668e-03,-8.092212020215955315e-02
1.340000000000000080e-01,-6.196250774909681930e-02,2.031744821769652237e-02,-6.136423754553391868e-02
1.350000000000000089e-01,-1.733081359718590189e-02,6.926907954028029002e-02,-6.263871507410043171e-02
1.360000000000000098e-01,3.285588914964430313e-02,1.021980093834676390e-01,-3.030565972249480572e-02
1.370000000000000107e-01,7.502196566594249161e-02,1.110844026789298555e-01,-1.056232970692608762e-02
1.380000000000000115e-01,1.178448229850882489e-01,1.148360880987011196e-01,1.364576402942713901e-02
1.390000000000000124e-01,1.376482088488049649e-01,1.004272205028230447e-01,4.634609463427825232e-02
1.400000000000000133e-01,1.394766088745938160e-01,6.942004240477563093e-02,6.601413473340653204e-02
1.409999999999999865e-01,1.343244411915861247e-01,3.357511746473969966e-02,7.573251561440191848e-02
1.419999999999999873e-01,1.005503714951514194e-01,-2.476879479055423341e-03,7.619580194517797112e-02
1.429999999999999882e-01,5.288743565093519811e-02,-4.063595767035840106e-02,7.694806027798166415e-02
1.439999999999999891e-01,1.781459712410175464e-02,-7.973683882214215035e-02,6.253827544831330743e-02
1.449999999999999900e-01,-4.000968781274056446e-02,-1.087636248952447288e-01,4.347444376813426603e-02
1.459999999999999909e-01,-9.770278776226173911e-02,-1.046048557832268550e-01,1.238569740445127736e-02
1.469999999999999918e-01,-1.171502456354237137e-01,-1.028208616105960732e-01,-1.921835803302849449e-02
1.479999999999999927e-01,-1.384516611933406527e-01,-1.009167209259119180e-01,-4.519852229948622541e-02
1.489999999999999936e-01,-1.389173035200147177e-01,-6.704328793728835112e-02,-6.783056025722764004e-02
1.499999999999999944e-01,-1.337391296557726983e-01,-2.289279188768173628e-02,-8.237331729200673969e-02
1.509999999999999953e-01,-1.084157563027827037e-01,6.726796198259388238e-03,-9.379599320176312816e-02
1.519999999999999962e-01,-4.894814385509027588e-02,5.716069781973616426e-02,-8.802715365879272558e-02
1.529999999999999971e-01,3.186102239396348783e-03,7.030580267152410079e-02,-5.879126753157261354e-02
1.539999999999999980e-01,5.549757704820036663e-02,1.053073283887468181e-01,-3.333472705837469546e-02
1.549999999999999989e-01,8.524890502623394539e-02,1.224620108808637670e-01,-9.882699134565329363e-03
1.559999999999999998e-01,1.261911082237774095e-01,1.150069072983654350e-01,3.321850385372897979e-02
1.570000000000000007e-01,1.569112990874233504e-01,9.869897003730311591e-02,4.678466229494664119e-02
1.580000000000000016e-01,1.441175252945007812e-01,5.871700711354791574e-02,7.422815986560374335e-02
1.590000000000000024e-01,1.248384337516268289e-01,3.609393526958609016e-02,8.310945699585318980e-02
1.600000000000000033e-01,8.238447407083301921e-02,-9.668968451308507933e-03,7.473999799105519870e-02
1.610000000000000042e-01,4.308074880740032225e-02,-4.555148396234132840e-02,7.695652827815180341e-02
1.620000000000000051e-01,-3.967062146047632687e-03,-8.096449428882615540e-02,7.230568888546101691e-02
1.630000000000000060e-01,-5.566323989138385192e-02,-1.003489422587243857e-01,2.428408315195422149e-02
1.640000000000000069e-01,-9.900703689429553311e-02,-1.116985473925012629e-01,9.722339896109042636e-04
1.650000000000000078e-01,-1.339271374084907984e-01,-9.785358930554950707e-02,-2.257893862159567056e-02
1.660000000000000087e-01,-1.377553391780397540e-01,-7.935303300711868402e-02,-5.299683527069557615e-02
1.670000000000000095e-01,-1.358175522562720672e-01,-6.046135661963674551e-02,-7.091344975224742053e-02
1.680000000000000104e-01,-1.099818683485799253e-01,-1.673331585050142831e-02,-7.932271367226696734e-02
1.690000000000000113e-01,-8.500718665340654956e-02,2.740817935691081467e-02,-9.099312284277721874e-02
1.700000000000000122e-01,-3.954572135129680310e-02,6.011002392805839256e-02,-8.038226213816723753e-02
1.710000000000000131e-01,3.733318591916073240e-03,9.768694344451878120e-02,-5.443942463597258030e-02
1.719999999999999862e-01,5.279037241906663763e-02,1.090018832699750501e-01,-2.752718207236795264e-02
1.729999999999999871e-01,1.115695163343507629e-01,1.199135641733598684e-01,-1.545713749333431364e-02
1.739999999999999880e-01,1.168943557535143674e-01,9.851897108536745995e-02,3.208628179987116358e-02
1.749999999999999889e-01,1.387563087101464088e-01,9.060368039441793475e-02,4.382603688719934748e-02
1.759999999999999898e-01,1.392789409482937946e-01,4.734680972405603400e-02,6.712297865644183126e-02
1.769999999999999907e-01,1.075106487088802465e-01,5.820282985620880457e-03,8.236496042738357393e-02
1.779999999999999916e-01,7.258856451782837171e-02,-3.556524477693446401e-02,9.330792610378142726e-02
1.789999999999999925e-01,2.392701226006012719e-02,-7.109163725044159721e-02,6.659959924935190956e-02
1.799999999999999933e-01,-1.434759988286532159e-02,-9.442468291913935774e-02,5.755162059486486348e-02
1.809999999999999942e-01,-6.807314824284953214e-02,-1.043346957997319524e-01,3.291336981315547139e-02
1.819999999999999951e-01,-1.009950075736756603e-01,-1.237199480283485559e-01,2.255827769917106052e-04
1.829999999999999960e-01,-1.373648966710374342e-01,-8.991862689920070151e-02,-2.648861390633237139e-02
1.839999999999999969e-01,-1.371991864211417333e-01,-7.228246706020900747e-02,-3.463787939166097091e-02
1.849999999999999978e-01,-1.271758816841444262e-01,-3.784945277888043108e-02,-8.947941346770510451e-02
1.859999999999999987e-01,-1.156695412784404797e-01,1.649190885424048564e-03,-8.046248533086558519e-02
1.869999999999999996e-01,-7.927045111393803134e-02,3.394837961659073061e-02,-7.880416316592878112e-02
1.880000000000000004e-01,-3.236163270452450946e-02,7.529761687658587110e-02,-6.756481774971731524e-02
1.890000000000000013e-01,1.680751005002457943e-02,9.866978948019822226e-02,-4.266439559811937426e-02
1.900000000000000022e-01,7.962030740898699832e-02,1.289682809369771255e-01,-2.578098056475769742e-02
1.910000000000000031e-01,1.186312575872370961e-01,1.112459399291464146e-01,-5.105679813018067920e-03
1.920000000000000040e-01,1.394975470878661028e-01,9.533634362074652757e-02,2.028138415255374000e-02
1.930000000000000049e-01,1.327567712967679947e-01,6.069565218437213139e-02,6.671853548337031148e-02
1.940000000000000058e-01,1.259499967399365372e-01,1.550083754262778987e-02,7.116368246593893221e-02
1.950000000000000067e-01,1.127748516750270436e-01,-1.201350762316919125e-02,8.525386595394240929e-02
1.960000000000000075e-01,7.582379454877674618e-02,-4.146373099947381347e-02,7.777228094785013091e-02
1.970000000000000084e-01,1.521296391486231560e-02,-8.181879352737499167e-02,6.472410313901745538e-02
1.980000000000000093e-01,-3.741035609208659407e-02,-1.016140752620575405e-01,5.501544509753977102e-02
1.990000000000000102e-01,-8.334897598169384303e-02,-1.110313197586733497e-01,2.542736692555569444e-02
2.000000000000000111e-01,-1.035474887161791646e-01,-1.107931526448688725e-01,-5.589588817656466341e-03
2.010000000000000120e-01,-1.304169295641118276e-01,-9.482689532982861713e-02,-2.035235717075811746e-02
2.020000000000000129e-01,-1.358366979994482249e-01,-5.985863018570690419e-02,-5.621975960193455885e-02
2.030000000000000138e-01,-1.260701020621641244e-01,-1.427466683411369661e-02,-7.243266111786177130e-02
2.039999999999999869e-01,-1.032502930888225950e-01,1.021364585530491233e-02,-8.538451425840894171e-02
2.049999999999999878e-01,-6.024330375306025803e-02,4.260049143969180108e-02,-8.289344276683172086e-02
2.059999999999999887e-01,-2.121051165938979410e-02,8.511432219828980739e-02,-6.854443751589528455e-02
2.069999999999999896e-01,2.388095650729239044e-02,1.135613059362308580e-01,-6.105288225992042822e-02
2.079999999999999905e-01,8.373439425950289505e-02,1.170300826249653092e-01,-3.347049964691121982e-02
2.089999999999999913e-01,1.150948534648119359e-01,1.166495031697579732e-01,9.506772069798238509e-03
2.099999999999999922e-01,1.321965470516074936e-01,9.785947497571798048e-02,4.487512858851171876e-02
2.109999999999999931e-01,1.555283041716968850e-01,5.282288133518651257e-02,5.278967806786173667e-02
2.119999999999999940e-01,1.279448217215616579e-01,1.541180644390592776e-02,8.179555120112032285e-02
2.129999999999999949e-01,9.403301510044129174e-02,-2.783580372805942796e-02,9.042331608845795288e-02
2.139999999999999958e-01,4.801842498257210406e-02,-6.997697077288353440e-02,8.597206450313649162e-02
2.149999999999999967e-01,9.046467957826931361e-03,-8.447602475432006153e-02,7.309610897072950364e-02
2.159999999999999976e-01,-4.437807588758242022e-02,-1.007109442633704471e-01,5.247866230382215030e-02
2.169999999999999984e-01,-9.099910634175355229e-02,-1.222607897556839129e-01,2.629721449856509477e-02
2.179999999999999993e-01,-1.028591247244016044e-01,-1.005907865319925210e-01,-1.107381074314131748e-02
2.190000000000000002e-01,-1.416132806809497213e-01,-7.389320605069786552e-02,-3.342547052788673312e-02
2.200000000000000011e-01,-1.370600157290688126e-01,-3.714815069719942103e-02,-4.562284692562976196e-02
2.210000000000000020e-01,-1.327739662972025059e-01,-1.941943280360133774e-03,-7.297381660860127739e-02
2.220000000000000029e-01,-9.463170849710397792e-02,3.511304780368990769e-02,-8.237640675527585499e-02
2.230000000000000038e-01,-4.031510189213861894e-02,8.209104678760631435e-02,-8.549989167030414006e-02
2.240000000000000047e-01,5.352242475619287988e-04,1.037336622590079444e-01,-6.961275501638912455e-02
2.250000000000000056e-01,6.645145137408915714e-02,1.067792375196429250e-01,-3.893844212335299815e-02
2.260000000000000064e-01,8.972879733871179375e-02,1.185230246694999878e-01,-1.469770248958406252e-02
2.270000000000000073e-01,1.279023024098752681e-01,8.474816123497257159e-02,-2.087257243181938476e-03
2.280000000000000082e-01,1.436133008559120627e-01,7.825102223513988320e-02,2.702114211724176290e-02
2.290000000000000091e-01,1.427146567042704151e-01,2.841735186225690171e-02,6.015097520344640097e-02
2.300000000000000100e-01,1.249464566202194843e-01,-2.046642673606502601e-03,7.185395001817951321e-02
2.310000000000000109e-01,8.692064087812469142e-02,-4.471283516829030469e-02,8.509037532757818267e-02
2.320000000000000118e-01,3.730734819143903536e-02,-7.117610769297877393e-02,7.408038889847545772e-02
2.330000000000000127e-01,-5.418845352250688946e-03,-9.745480410214651945e-02,7.314175232781100489e-02
2.340000000000000135e-01,-6.074600874015857743e-02,-1.134133317175522321e-01,5.311938809791653254e-02
2.349999999999999867e-01,-1.062738761538871285e-01,-1.024100826570276263e-01,1.616129148708366978e-02
2.359999999999999876e-01,-1.253502699765717820e-01,-1.011541830648692714e-01,-1.816586824599947247e-02
2.369999999999999885e-01,-1.434296270125889061e-01,-7.203197502625929838e-02,-2.514723114367425905e-02
2.379999999999999893e-01,-1.356661719182069015e-01,-2.566700866013589544e-02,-5.523018562259984776e-02
2.389999999999999902e-01,-1.112836960336582304e-01,2.012651018515972806e-02,-6.630606589732256084e-02
2.399999999999999911e-01,-8.578693340655248190e-02,6.390888072740623371e-02,-8.371933489075236712e-02
2.409999999999999920e-01,-3.488662886891161913e-02,7.744690662613161469e-02,-7.586207104621768560e-02
2.419999999999999929e-01,1.301584034821677560e-02,9.974097231274065001e-02,-8.415099702599028453e-02
2.429999999999999938e-01,6.780402648155502143e-02,1.207684249244349722e-01,-4.447245590437563095e-02
2.439999999999999947e-01,1.045507387398539878e-01,1.129737693329809223e-01,-3.297540214021920518e-02
2.449999999999999956e-01,1.110102975942679482e-01,9.459581875510734983e-02,1.341642815122114779e-02
2.459999999999999964e-01,1.430363815182309484e-01,4.396038545288857846e-02,4.021296068043951621e-02
2.469999999999999973e-01,1.390735786062162471e-01,2.604885080142053250e-02,5.188282902655891315e-02
2.479999999999999982e-01,1.060394172667449286e-01,-4.381032952713447698e-02,8.013568231460482805e-02
2.489999999999999991e-01,6.581712553774053676e-02,-5.524966332385019413e-02,6.986301187002566526e-02
2.500000000000000000e-01,2.509213796996052556e-02,-9.984559910963823615e-02,8.607898916615090712e-02
2.510000000000000009e-01,-2.904452048352022114e-02,-1.097338920630305664e-01,7.029601122702372473e-02
2.520000000000000018e-01,-6.860008207075027342e-02,-1.304208831119067491e-01,4.646593452725600315e-02
2.530000000000000027e-01,-9.209219362766525585e-02,-1.077928991155800570e-01,1.323627947039861426e-02
2.540000000000000036e-01,-1.471344826293144725e-01,-8.576832506356174557e-02,-7.821100909044450059e-03
2.550000000000000044e-01,-1.455399400519609143e-01,-4.649511236655186341e-02,-4.306745186699726530e-02
2.560000000000000053e-01,-1.341765062119532059e-01,-2.550028807045782650e-02,-5.130431331170191844e-02
2.570000000000000062e-01,-1.071733342869154865e-01,3.703585004469821251e-02,-8.696121608347283372e-02
2.580000000000000071e-01,-6.656975319414444592e-02,6.088696538259025931e-02,-8.455304796354869146e-02
2.590000000000000080e-01,-1.737581942683750005e-02,1.049110198779108216e-01,-8.549904845418800081e-02
2.600000000000000089e-01,2.579367451443433101e-02,1.081704916411130452e-01,-6.244468472406394105e-02
2.610000000000000098e-01,7.598479920290093781e-02,1.038951034801237905e-01,-5.106918266580021126e-02
2.620000000000000107e-01,1.122298453810988556e-01,9.999344447878827369e-02,-1.812317206092560126e-02
2.630000000000000115e-01,1.438111575645093787e-01,7.584724017751950931e-02,5.309913849391056928e-03
2.640000000000000124e-01,1.365815728672874763e-01,4.582798974890310573e-02,4.870018897151505433e-02
2.650000000000000133e-01,1.346917717346061139e-01,-2.474117902343649089e-03,5.050924438523451271e-02
2.660000000000000142e-01,1.055459733316224669e-01,-4.020275521757121079e-02,8.105037682232230090e-02
2.670000000000000151e-01,5.290255560730195566e-02,-8.262826244759173544e-02,8.011549219729999227e-02
2.680000000000000160e-01,7.218011298256572957e-03,-1.051551707345281111e-01,7.566991949550894159e-02
2.690000000000000169e-01,-2.656016400197484112e-02,-1.101958497071587051e-01,6.798703337432368543e-02
2.700000000000000178e-01,-8.183582276351204776e-02,-1.201884757165366940e-01,5.488993196140844882e-02
2.710000000000000187e-01,-1.231706177439315791e-01,-9.928158500134602604e-02,2.762426212103681958e-02
2.720000000000000195e-01,-1.331021962363452826e-01,-7.344324365487599204e-02,-1.233948272597381289e-02
2.730000000000000204e-01,-1.391635950761559715e-01,-2.704543201381181747e-02,-3.134544179464052865e-02
2.740000000000000213e-01,-1.265679954904009308e-01,8.538013964799199412e-03,-6.311205718711755674e-02
2.750000000000000222e-01,-9.340767168065351733e-02,4.167481620830797151e-02,-8.151030258694035024e-02
2.760000000000000231e-01,-6.345289641768642186e-02,6.739586051502478858e-02,-7.322225211237573528e-02
2.770000000000000240e-01,-8.879943458614484447e-03,9.575565468419558468e-02,-7.826862288541354407e-02
2.780000000000000249e-01,4.845282827363901063e-02,1.105730391356935099e-01,-7.179935656029839963e-02
2.790000000000000258e-01,8.370312985616075452e-02,1.098187315005639125e-01,-5.608938693597906311e-02
2.800000000000000266e-01,1.232851057748973189e-01,8.741327538501403316e-02,-1.421841755960854929e-02
2.810000000000000275e-01,1.419277842675200907e-01,5.817920173314820170e-02,9.776875267542122980e-03
2.819999999999999729e-01,1.354611530218575999e-01,1.357102247214295003e-02,3.995135137705334988e-02
2.829999999999999738e-01,1.239698378090245412e-01,-2.161879199927999734e-02,7.223784813042843922e-02
2.839999999999999747e-01,8.685293076502392795e-02,-5.535418100406776926e-02,6.980499745384853572e-02
2.849999999999999756e-01,4.909000606656175464e-02,-9.138071836918966462e-02,1.028947747927128620e-01
2.859999999999999765e-01,1.114458674168252502e-03,-1.095179431043169643e-01,8.515072273111781720e-02
2.869999999999999774e-01,-5.362683224427489126e-02,-1.095841202884749593e-01,6.209029270533470563e-02
2.879999999999999782e-01,-8.748767247818046988e-02,-1.091162290475590491e-01,5.525277585652690893e-02
2.889999999999999791e-01,-1.225760698673905302e-01,-8.351708636129817620e-02,2.729620128053023009e-02
2.899999999999999800e-01,-1.302459035032920431e-01,-4.689831558925778437e-02,-2.845981072448926230e-02
2.909999999999999809e-01,-1.464057128047513701e-01,-1.495398715502941830e-02,-5.679522095523893699e-02
2.919999999999999818e-01,-1.188444487406097316e-01,1.961508863785945897e-02,-6.581095500186409653e-02
2.929999999999999827e-01,-8.717368899626468104e-02,5.279098598139980725e-02,-7.939260064288351793e-02
2.939999999999999836e-01,-3.464909411757750163e-02,8.508568316730794057e-02,-9.332305784918080993e-02
2.949999999999999845e-01,1.062603744847417350e-04,1.147708700171554547e-01,-7.808771828572251550e-02
2.959999999999999853e-01,5.333578253112725848e-02,1.156152678700281961e-01,-6.652224398444261944e-02
2.969999999999999862e-01,9.025144224754443056e-02,1.081390035800653820e-01,-3.838684098872435779e-02
2.979999999999999871e-01,1.336307229065518409e-01,7.043558397921112491e-02,-6.120292380483525162e-03
2.989999999999999880e-01,1.458786611089581686e-01,4.146033516362575971e-02,1.331063007832879175e-02
2.999999999999999889e-01,1.345876611455244232e-01,7.077848357679650086e-03,3.840455204057417055e-02
3.009999999999999898e-01,1.195919998303286991e-01,-4.250368720188884425e-02,6.052112872453060954e-02
3.019999999999999907e-01,8.446987124021088089e-02,-6.498462409589716993e-02,7.108786945289935488e-02
3.029999999999999916e-01,2.995593892309099046e-02,-1.041485391420344520e-01,1.000029523286563166e-01
3.039999999999999925e-01,-5.211274318305606813e-03,-1.113056743897903600e-01,8.406975989642427594e-02
3.049999999999999933e-01,-6.039646358512731211e-02,-1.183688510782227171e-01,6.084822817295520991e-02
3.059999999999999942e-01,-1.005540995914091518e-01,-9.582811192343390627e-02,4.659986086627308094e-02
3.069999999999999951e-01,-1.224436906913310696e-01,-6.570945780262225921e-02,1.656494620614050797e-02
3.079999999999999960e-01,-1.393612152885927991e-01,-3.705002627111206315e-02,-2.477649202242694984e-02
3.089999999999999969e-01,-1.334254338333087098e-01,2.271654784695746609e-02,-3.998928980060456606e-02
3.099999999999999978e-01,-1.097141876393517845e-01,4.218288639256314448e-02,-5.356156575549119586e-02
3.109999999999999987e-01,-6.141142436915189573e-02,7.912061005077310194e-02,-7.165931512590115182e-02
3.119999999999999996e-01,-2.274958612213156053e-02,1.001311359081370478e-01,-9.636051695732153477e-02
3.130000000000000004e-01,2.511523484070580722e-02,1.117507283249653538e-01,-9.022021371806510093e-02
3.140000000000000013e-01,6.627666992908111399e-02,9.940958155338518176e-02,-5.987911070486595655e-02
3.150000000000000022e-01,1.086372272770525921e-01,9.000388430471337187e-02,-2.953252800088642868e-02
3.160000000000000031e-01,1.425527826484465077e-01,6.218203428472947325e-02,-2.792776305648953915e-03
3.170000000000000040e-01,1.457729406498739499e-01,3.245954106953526097e-02,2.631797991147266993e-02
3.180000000000000049e-01,1.390411188416096899e-01,-1.895232866499083416e-02,4.432157533234543784e-02
3.190000000000000058e-01,1.107734553089096963e-01,-5.987048099257040457e-02,6.102771174153726746e-02
3.200000000000000067e-01,6.189249321531774956e-02,-7.173585307615655549e-02,8.780747724213526506e-02
3.210000000000000075e-01,4.060517186155148533e-02,-1.018764713401097977e-01,8.974935761988697691e-02
3.220000000000000084e-01,-1.014658389158528892e-02,-1.213831592487309291e-01,9.855798975640260584e-02
3.230000000000000093e-01,-6.847323656641578216e-02,-9.405356023086769435e-02,7.510118275190516557e-02
3.240000000000000102e-01,-1.081003213416302927e-01,-8.044932135500643122e-02,4.007322746568708211e-02
3.250000000000000111e-01,-1.347597234801403143e-01,-5.102604280123907571e-02,7.447724720016188349e-03
3.260000000000000120e-01,-1.520004518240269942e-01,-1.684478968410916058e-02,-1.162008317488532651e-02
3.270000000000000129e-01,-1.270706751193302342e-01,2.771083937614990736e-02,-6.004067806602025187e-02
3.280000000000000138e-01,-9.562330436380893361e-02,5.207915972238370134e-02,-8.686401902200384384e-02
3.290000000000000147e-01,-7.165468941744906894e-02,8.923440310637145712e-02,-6.934880641356480635e-02
3.300000000000000155e-01,-1.910057771240167984e-02,1.103592849425873434e-01,-8.144252408671226462e-02
3.310000000000000164e-01,3.908031206328497348e-02,1.085440886927702686e-01,-7.013846821004909859e-02
3.320000000000000173e-01,7.556567566298696970e-02,9.630518528683650048e-02,-6.081809640745939466e-02
3.330000000000000182e-01,1.147256956051268262e-01,8.164422742232922692e-02,-4.382461698641693798e-02
3.340000000000000191e-01,1.370937650790235995e-01,5.283791511484823428e-02,-1.297304287993863298e-02
3.350000000000000200e-01,1.353716496933646263e-01,1.432668476907280643e-02,2.158911540164960147e-02
3.360000000000000209e-01,1.295925219945838203e-01,-3.439065914024384829e-02,4.271789372598747830e-02
3.370000000000000218e-01,1.097657859773190775e-01,-7.634646257813475223e-02,6.546949499440417319e-02
3.380000000000000226e-01,5.231605243453749804e-02,-9.888879377233615597e-02,8.520629961819728426e-02
3.390000000000000235e-01,1.607631179398600133e-02,-1.140749588143567528e-01,8.281159175309074638e-02
3.400000000000000244e-01,-2.960460934586907691e-02,-1.170483611352446107e-01,8.929209932054532617e-02
3.410000000000000253e-01,-8.128968789660948047e-02,-1.015034444494971322e-01,6.959763704028255893e-02
3.420000000000000262e-01,-1.124107153452215957e-01,-7.564227303689612103e-02,5.255478801038801495e-02
3.430000000000000271e-01,-1.399007138311416931e-01,-3.612049639971878084e-02,5.356900750438948339e-03
3.439999999999999725e-01,-1.486118463256017319e-01,-3.762386040070109933e-03,-1.954405216321185648e-02
3.449999999999999734e-01,-1.240852985563375005e-01,5.644591733380092957e-02,-4.481686778305869756e-02
3.459999999999999742e-01,-9.254771491744348544e-02,7.881422808218166431e-02,-6.380810357095899332e-02
3.469999999999999751e-01,-4.424373764848230778e-02,1.031532443392083193e-01,-8.534189588261167914e-02
3.479999999999999760e-01,1.747039217275676111e-03,1.174969823471215258e-01,-8.011182722929455213e-02
3.489999999999999769e-01,5.072413551123737541e-02,1.040642756456335305e-01,-7.725788109366869827e-02
3.499999999999999778e-01,8.892814808078178257e-02,9.694629781525912482e-02,-6.335936214145758416e-02
3.509999999999999787e-01,1.254702164622747695e-01,6.578115426675508470e-02,-4.387201616331132259e-02
3.519999999999999796e-01,1.498237039733224529e-01,2.993396969392295506e-02,-8.374967606781909962e-03
3.529999999999999805e-01,1.295079508211197106e-01,1.059001614879854537e-02,1.950661929594372027e-02
3.539999999999999813e-01,1.285968835235493657e-01,-4.593281624725633477e-02,5.201229187238175927e-02
3.549999999999999822e-01,8.215686623440572600e-02,-8.511146550029122237e-02,7.509454877532853456e-02
3.559999999999999831e-01,4.277064686579649944e-02,-1.082403670255077666e-01,8.827394024339234313e-02
3.569999999999999840e-01,-9.176551581253532958e-03,-1.136580333487732242e-01,8.626320448873295299e-02
3.579999999999999849e-01,-5.987051719191846533e-02,-1.210553778943659758e-01,8.114813723686647995e-02
3.589999999999999858e-01,-1.030317084368193442e-01,-7.821328846302302851e-02,5.962057911081971445e-02
3.599999999999999867e-01,-1.214029745425527912e-01,-5.441470668979177944e-02,4.090375106435949204e-02
3.609999999999999876e-01,-1.415916615987782012e-01,-2.516609134492437880e-02,4.277618523400761492e-03
3.619999999999999885e-01,-1.405346205678342786e-01,9.324676194741369356e-03,-1.314234582646628749e-02
3.629999999999999893e-01,-1.179476397460104964e-01,3.917968365503937678e-02,-5.427995400993301800e-02
3.639999999999999902e-01,-9.284530818880611103e-02,8.693461625523692116e-02,-7.519832787345089031e-02
3.649999999999999911e-01,-3.505021809209304950e-02,9.977686497349949613e-02,-8.340509586894755134e-02
3.659999999999999920e-01,1.050468744733477552e-02,9.548959569516157764e-02,-9.052219915067753753e-02
3.669999999999999929e-01,4.749230561496717296e-02,9.300901730312118032e-02,-6.842420029597524878e-02
3.679999999999999938e-01,1.104139954680373042e-01,1.003570496253067268e-01,-6.866747229559418131e-02
3.689999999999999947e-01,1.391174571061744858e-01,5.878623018307066461e-02,-2.377223850333897576e-02
3.699999999999999956e-01,1.345926813146676171e-01,-2.224697969435506691e-05,-3.334258637121746954e-03
3.709999999999999964e-01,1.321402634981247715e-01,-2.970862605275517709e-02,1.314518889438131416e-02
3.719999999999999973e-01,1.206383094451783516e-01,-7.091121529602543994e-02,5.784157416970019810e-02
3.729999999999999982e-01,8.883340032762992999e-02,-9.701940869619767038e-02,7.787730815568139064e-02
3.739999999999999991e-01,4.833963144437460752e-02,-1.233143620284417041e-01,8.989736711819107384e-02
3.750000000000000000e-01,-1.960968033816832753e-02,-1.134629337468458510e-01,7.229404885082953147e-02
3.760000000000000009e-01,-5.833505390759324144e-02,-1.053859332808244620e-01,8.962916734485169845e-02
3.770000000000000018e-01,-1.085901415817573795e-01,-7.231420954828339520e-02,6.611760835850437334e-02
3.780000000000000027e-01,-1.177921513255155567e-01,-5.531031190986954865e-02,4.121257268544514102e-02
3.790000000000000036e-01,-1.444274421266480979e-01,-2.958982945598587037e-03,1.035789160475689835e-02
3.800000000000000044e-01,-1.378383697661033358e-01,4.049514785805765488e-02,-2.634804741924862137e-02
3.810000000000000053e-01,-1.143220957137806304e-01,7.621343478421860329e-02,-5.649729035041589631e-02
3.820000000000000062e-01,-7.854868100464983127e-02,9.642348547175684514e-02,-7.258386982069373050e-02
3.830000000000000071e-01,-3.943663968902239719e-02,1.243198604052474510e-01,-6.455029856179926584e-02
3.840000000000000080e-01,1.632091169632311073e-02,9.961782712386667293e-02,-8.917982880762188869e-02
3.850000000000000089e-01,7.048504990890090693e-02,7.776248797939093460e-02,-8.092593217085021495e-02
3.860000000000000098e-01,1.020747841721413862e-01,6.943149368428103152e-02,-6.295919732938519420e-02
3.870000000000000107e-01,1.267785121887171074e-01,3.212950250184268275e-02,-3.003093381407149001e-02
3.880000000000000115e-01,1.462644542764948430e-01,3.768710258874171434e-03,-4.033278636135995826e-03
3.890000000000000124e-01,1.385161398214746487e-01,-3.656225883494802764e-02,2.422135668647720438e-02
3.900000000000000133e-01,1.085392010248785316e-01,-7.784823179789120140e-02,5.802665398832541205e-02
3.910000000000000142e-01,6.730556684818300717e-02,-1.080969591625971782e-01,7.609976687231356784e-02
3.920000000000000151e-01,1.910983868812562991e-02,-1.102397236223741223e-01,8.188613691497576008e-02
3.930000000000000160e-01,-2.770089277171789224e-02,-1.153043467092549901e-01,8.465833872224477752e-02
3.940000000000000169e-01,-8.052449769085008591e-02,-8.198231210137278679e-02,7.584564290029616185e-02
3.950000000000000178e-01,-1.088324687744038066e-01,-5.607828941437834058e-02,5.184060349349170482e-02
3.960000000000000187e-01,-1.417169750058720479e-01,-2.649914774165108497e-02,4.542552383333731819e-02
3.970000000000000195e-01,-1.263745767247427265e-01,1.105024976642879006e-02,-8.506236785205215437e-03
3.980000000000000204e-01,-1.272838646034820664e-01,4.072644706434038614e-02,-3.224017403103709989e-02
3.990000000000000213e-01,-9.288028026367677048e-02,7.120209439783756200e-02,-6.617306316792251342e-02
4.000000000000000222e-01,-5.562156207685914344e-02,1.044492049326707500e-01,-8.216703056054443233e-02
4.010000000000000231e-01,-1.630173060099667642e-02,1.080591233382499350e-01,-7.802785262655277665e-02
4.020000000000000240e-01,4.595518496524687857e-02,9.575577998676627900e-02,-7.868176412074566473e-02
4.030000000000000249e-01,8.026264454289541717e-02,8.792161009817997530e-02,-7.829388751444855965e-02
4.040000000000000258e-01,1.133510728670522882e-01,6.117897023493367586e-02,-5.110442129437413328e-02
4.050000000000000266e-01,1.472701645060770781e-01,1.374950502735171852e-02,-2.197358914137896926e-02
4.060000000000000275e-01,1.350507229052746727e-01,-2.307793018176266045e-02,-5.897404019760291112e-05
4.069999999999999729e-01,1.255222344730073381e-01,-6.951066327793235800e-02,2.752771594072477013e-02
4.079999999999999738e-01,9.666993377837654333e-02,-8.772043373317023329e-02,5.796745443115082497e-02
4.089999999999999747e-01,5.253655133933879395e-02,-1.236860994193887398e-01,7.733264390330640836e-02
4.099999999999999756e-01,1.492691719949074299e-02,-9.495734969050630137e-02,8.511846288369490088e-02
4.109999999999999765e-01,-4.453499215403786127e-02,-9.990012011375015710e-02,9.160721537366102452e-02
4.119999999999999774e-01,-8.907494919101087427e-02,-7.394306991219988523e-02,7.019379384686830203e-02
4.129999999999999782e-01,-1.371146312044034532e-01,-6.260391909110500641e-02,6.293677188040867898e-02
4.139999999999999791e-01,-1.388697607709006299e-01,-5.546834801540606943e-03,2.666189577374423331e-02
4.149999999999999800e-01,-1.424361372795088787e-01,2.799707801559054784e-02,-1.024200235910696470e-02
4.159999999999999809e-01,-1.209075534889201414e-01,7.088939494082890924e-02,-2.555149238166292205e-02
4.169999999999999818e-01,-8.956155829971465532e-02,1.064211494514319817e-01,-5.764075672400894440e-02
4.179999999999999827e-01,-4.898766209810001548e-02,1.232075469094543185e-01,-8.448002670222365396e-02
4.189999999999999836e-01,6.864055347863522692e-03,1.199209741767037346e-01,-7.785695405219374143e-02
4.199999999999999845e-01,4.608191355334461531e-02,8.568551683287138621e-02,-8.049538925267944733e-02
4.209999999999999853e-01,9.449169526115687445e-02,8.503936550046367615e-02,-7.130399578974233599e-02
4.219999999999999862e-01,1.374030513695644606e-01,3.717967928031311320e-02,-6.006696769144909825e-02
4.229999999999999871e-01,1.538004623058077946e-01,1.478951437114307647e-02,-3.423180696971444420e-02
4.239999999999999880e-01,1.294677591909261516e-01,-3.906417793517630993e-02,1.559773081730107293e-02
4.249999999999999889e-01,1.215654313655956525e-01,-6.757104501133494312e-02,2.738698327329188234e-02
4.259999999999999898e-01,8.414107416172195153e-02,-1.035502147083391805e-01,5.447481664029388965e-02
4.269999999999999907e-01,4.243901632819372521e-02,-1.231835230582218332e-01,7.954201534120909634e-02
4.279999999999999916e-01,-2.393001556840736524e-02,-1.115065398467987717e-01,7.873887600880294380e-02
4.289999999999999925e-01,-4.703162251623624335e-02,-8.311960774584163658e-02,9.092429799978878069e-02
4.299999999999999933e-01,-9.522859539963635100e-02,-7.843751612056912292e-02,8.730287584376945909e-02
4.309999999999999942e-01,-1.276139770131121398e-01,-2.868568019136850597e-02,4.754158656296197938e-02
4.319999999999999951e-01,-1.321049383355294427e-01,1.345261250706693106e-02,2.733514795572116601e-02
4.329999999999999960e-01,-1.484651960609933707e-01,4.834488126129402041e-02,1.720154493712126170e-02
4.339999999999999969e-01,-1.163056150822012330e-01,8.724175933563234342e-02,-3.090665498971299427e-02
4.349999999999999978e-01,-8.340050179197391889e-02,1.172710171201325896e-01,-5.995095144226240264e-02
4.359999999999999987e-01,-3.936397810314910817e-02,1.110984142948449604e-01,-8.514136594788922208e-02
4.369999999999999996e-01,1.937613643048096551e-02,1.108136958647400472e-01,-8.418336860241985853e-02
4.380000000000000004e-01,5.318472864143892337e-02,8.942011896596027687e-02,-7.091061598412500000e-02
4.390000000000000013e-01,9.569605982529598431e-02,5.540770694815874697e-02,-8.516279779378588266e-02
4.400000000000000022e-01,1.183622144440608370e-01,1.968471093681398512e-02,-4.413148576812452734e-02
4.410000000000000031e-01,1.378352830996316392e-01,-2.943066499813473680e-02,-1.476579905122654517e-02
4.420000000000000040e-01,1.382344550182295628e-01,-4.316606030565117019e-02,1.521896400213318575e-02
4.430000000000000049e-01,1.235018432628498947e-01,-9.188824924880037437e-02,3.568908142184822052e-02
4.440000000000000058e-01,6.457455826639271756e-02,-1.062548720679728914e-01,5.526699591012608492e-02
4.450000000000000067e-01,3.526191513505818470e-02,-1.156611461694113940e-01,7.147854418187778169e-02
4.460000000000000075e-01,-2.159953000759692876e-02,-1.071555805958549629e-01,9.264418120551179414e-02
4.470000000000000084e-01,-7.360285833178803472e-02,-7.703153573903231965e-02,9.243613194240801745e-02
4.480000000000000093e-01,-1.191884331821403270e-01,-5.422614249417218035e-02,7.579405484951466654e-02
4.490000000000000102e-01,-1.240558054850184611e-01,2.162084170279249295e-04,4.576299020164140141e-02
4.500000000000000111e-01,-1.451546183818044622e-01,2.407016648026574085e-02,6.419887119574406789e-03
4.510000000000000120e-01,-1.348110861488983903e-01,5.859538884345478343e-02,-9.525790444277664262e-03
4.520000000000000129e-01,-1.026659445123357661e-01,8.293132042872931875e-02,-2.723141837792143749e-02
4.530000000000000138e-01,-7.431496117910091348e-02,1.213351803100295168e-01,-6.002205658000035055e-02
4.540000000000000147e-01,-3.669695737433450317e-02,1.171741274963463281e-01,-7.989315293213644642e-02
4.550000000000000155e-01,2.263209583474627348e-02,1.054780268092397472e-01,-8.519122546418490816e-02
4.560000000000000164e-01,8.190327990691939619e-02,7.893246716671412089e-02,-8.041912216997167129e-02
4.570000000000000173e-01,1.042845544067684121e-01,4.438925641135101074e-02,-6.914701099218185931e-02
4.580000000000000182e-01,1.470349221454416155e-01,-6.319024070810693589e-03,-4.069238167908344195e-02
4.590000000000000191e-01,1.367849917155056494e-01,-3.586149656218900333e-02,-2.441585254409758127e-02
4.600000000000000200e-01,1.337856991154930952e-01,-6.387785559284332726e-02,1.797238700899831537e-02
4.610000000000000209e-01,1.138727883861886669e-01,-1.066060758299084005e-01,4.989547380258200354e-02
4.620000000000000218e-01,6.714962816689815095e-02,-1.130678502570708205e-01,5.024937817126504114e-02
4.630000000000000226e-01,2.279297624263854072e-02,-1.077681214163054568e-01,9.182679392840727151e-02
4.640000000000000235e-01,-3.612234030972624049e-02,-9.238253812302384127e-02,9.189913778188862903e-02
4.650000000000000244e-01,-7.870654615923812492e-02,-6.990853718854084242e-02,7.980538727907703078e-02
4.660000000000000253e-01,-1.017865230701475582e-01,-4.169538901313574880e-02,7.549587124626561119e-02
4.670000000000000262e-01,-1.292349643783574087e-01,1.071161224265773822e-02,3.796290021736845044e-02
4.680000000000000271e-01,-1.504385836986766867e-01,5.027184142623265101e-02,2.695446619351943990e-02
4.689999999999999725e-01,-1.321241922542619185e-01,7.658152477034191330e-02,-1.529841640864610178e-02
4.699999999999999734e-01,-8.909122836082404573e-02,1.097063594987127549e-01,-5.320652480366643705e-02
4.709999999999999742e-01,-6.526104196399951096e-02,1.096271626786918252e-01,-6.298723029937508544e-02
4.719999999999999751e-01,-1.756687260428390837e-02,1.116575215722340475e-01,-7.477475902283842180e-02
4.729999999999999760e-01,5.483777613285946428e-02,9.638430999287160572e-02,-9.290837735124674035e-02
4.739999999999999769e-01,7.605849999763955593e-02,5.587896837822665247e-02,-7.309356990475474047e-02
4.749999999999999778e-01,1.210252008214549313e-01,2.538143948913934231e-02,-5.139044339875106088e-02
4.759999999999999787e-01,1.389704948046891486e-01,-2.801499565817234388e-02,-4.358515772951468414e-02
4.769999999999999796e-01,1.435043367562622296e-01,-6.512496970781520012e-02,-4.895176019518355896e-03
4.779999999999999805e-01,1.162779494460111085e-01,-7.472565613832338194e-02,4.689282082585271433e-03
4.789999999999999813e-01,9.471480948164681668e-02,-1.130285728539922874e-01,4.366124433934134158e-02
4.799999999999999822e-01,6.348811094472930905e-02,-1.089670710074024801e-01,5.713613327691222793e-02
4.809999999999999831e-01,3.057957637163265328e-03,-1.071852072026478614e-01,8.057391429503588109e-02
4.819999999999999840e-01,-4.926618438665877897e-02,-8.385180555960089488e-02,8.382001457245721876e-02
4.829999999999999849e-01,-9.029802359768041020e-02,-5.368071682222769897e-02,7.331341647106609516e-02
4.839999999999999858e-01,-1.189993990651264377e-01,-2.584270407350650750e-02,6.695831698410259492e-02
4.849999999999999867e-01,-1.327634425266284168e-01,2.489279449187067894e-02,4.606319464722131302e-02
4.859999999999999876e-01,-1.328666298414195868e-01,6.821642349834552976e-02,1.330583169072869706e-02
4.869999999999999885e-01,-1.106381202323095114e-01,8.765631168949275520e-02,-2.118519881473418520e-02
4.879999999999999893e-01,-8.358354174945774318e-02,9.880825827062425515e-02,-3.928365056136639416e-02
4.889999999999999902e-01,-4.029466731459795809e-02,1.156553950680074272e-01,-7.218629452529060075e-02
4.899999999999999911e-01,1.241934522071905939e-02,1.085448448509384184e-01,-8.090209997522519736e-02
4.909999999999999920e-01,5.485075353668456000e-02,7.332454795420915994e-02,-8.243130408533988485e-02
4.919999999999999929e-01,1.057885820224154227e-01,5.349557530449423892e-02,-8.003309019641918765e-02
4.929999999999999938e-01,1.228130786866843960e-01,1.803462262346170212e-03,-5.954690691746899328e-02
4.939999999999999947e-01,1.363914763650656004e-01,-3.335251254039668656e-02,-3.611663443841865023e-02
4.949999999999999956e-01,1.291596706522513127e-01,-6.203331535739014385e-02,-1.194064035195979527e-02
4.959999999999999964e-01,1.174924033686465669e-01,-1.191029605294842419e-01,1.239710792744606925e-03
4.969999999999999973e-01,1.000528271010952680e-01,-1.228094838345356321e-01,5.179979035594236420e-02
4.979999999999999982e-01,4.877801396151280888e-02,-1.097028500959273539e-01,5.694487849077983083e-02
4.989999999999999991e-01,-2.820966662184237750e-02,-1.183331311196106628e-01,8.664969712081062314e-02
5.000000000000000000e-01,-5.625320538666531145e-02,-7.395856468157724350e-02,9.489519071119553728e-02
5.010000000000000009e-01,-1.018658084680295756e-01,-4.732184614588706012e-02,7.411367145547549662e-02
5.020000000000000018e-01,-1.265106793613498537e-01,-3.770687292935968448e-03,7.019643263259740806e-02
5.030000000000000027e-01,-1.476189064882442170e-01,3.529555883433688201e-02,4.116824646902846052e-02
5.040000000000000036e-01,-1.415101603358065174e-01,7.709243182194808197e-02,1.343378955345542192e-02
5.050000000000000044e-01,-1.223276610032345557e-01,1.078179564296875420e-01,-1.589858032871473842e-02
5.060000000000000053e-01,-7.991859604518641857e-02,1.102975577820378417e-01,-5.069667375960393990e-02
5.070000000000000062e-01,-3.457390689867295697e-02,1.187253660563508256e-01,-6.787760867501811679e-02
5.080000000000000071e-01,1.407947656846928776e-02,9.701425159937197840e-02,-9.677972884405494636e-02
5.090000000000000080e-01,5.629284921245562845e-02,6.516167120319854567e-02,-8.517925615789188887e-02
5.100000000000000089e-01,1.046225759836842267e-01,3.386244549807967269e-02,-8.327352575674983048e-02
5.110000000000000098e-01,1.304225113642615008e-01,-2.590864497812431482e-03,-5.701311134046291307e-02
5.120000000000000107e-01,1.460325696620111691e-01,-4.111305398902154878e-02,-4.404428513581878923e-02
5.130000000000000115e-01,1.210373864294270185e-01,-7.883143648318417795e-02,-1.860376475749350722e-02
5.140000000000000124e-01,1.142472950128659293e-01,-1.089908070642905819e-01,1.663106071740352160e-02
5.150000000000000133e-01,7.464904759484140839e-02,-1.124100339505137436e-01,4.284829724312100990e-02
5.160000000000000142e-01,3.113926803881196526e-02,-9.838965883858949435e-02,7.364667026150484297e-02
5.170000000000000151e-01,-3.206034131881866506e-02,-8.933604918203261192e-02,7.644429892227548595e-02
5.180000000000000160e-01,-7.534854153315138914e-02,-5.384819313755549036e-02,8.542891839985185254e-02
5.190000000000000169e-01,-1.066699183525824934e-01,-1.819930113863483731e-02,7.528102110626225252e-02
5.200000000000000178e-01,-1.250081144292730095e-01,1.672992753626725490e-02,6.654833127733025822e-02
5.210000000000000187e-01,-1.421697245001903864e-01,5.560704628308749814e-02,4.084517665789679647e-02
5.220000000000000195e-01,-1.254644479303997917e-01,8.648763641441427341e-02,3.801348892484912329e-03
5.230000000000000204e-01,-9.195427086035586062e-02,1.010141322666463087e-01,-2.813001374612282210e-02
5.240000000000000213e-01,-6.341341598011679404e-02,1.098247800981244915e-01,-5.991807981150956697e-02
5.250000000000000222e-01,-1.967091333313082321e-02,1.079830593390375820e-01,-7.544569208227924761e-02
5.260000000000000231e-01,2.510394317005839454e-02,9.724547096391120138e-02,-7.947115598274580306e-02
5.270000000000000240e-01,6.832512714236115003e-02,4.754445512788326583e-02,-8.790778494626884376e-02
5.280000000000000249e-01,1.180709901858072869e-01,8.186703079452998036e-03,-7.626363795031973480e-02
5.290000000000000258e-01,1.321067617303806341e-01,-3.884456620720701941e-02,-8.312063773298633551e-02
5.300000000000000266e-01,1.434283668194518135e-01,-6.447697731069892968e-02,-5.056614553776558191e-02
5.310000000000000275e-01,1.297347608863572421e-01,-7.441653549729661254e-02,3.172969123585278172e-03
5.320000000000000284e-01,9.941525965180754432e-02,-1.081364069109604920e-01,1.859151924137822723e-02
5.330000000000000293e-01,5.940768865635921020e-02,-1.123996032895941410e-01,5.152959424703904001e-02
5.340000000000000302e-01,1.731274138173240218e-02,-1.099926322837846832e-01,7.021939699430519710e-02
5.350000000000000311e-01,-3.461614078931410377e-02,-8.481119063438151418e-02,8.166754397508513286e-02
5.360000000000000320e-01,-7.622489009600220966e-02,-3.910065232914513439e-02,1.001842739989325937e-01
5.370000000000000329e-01,-1.196874789090566632e-01,-3.970532280064956177e-03,7.280630519316344529e-02
5.380000000000000338e-01,-1.259345035651707190e-01,3.325184501707677265e-02,5.490221321865389886e-02
5.390000000000000346e-01,-1.447892483552419840e-01,6.458335489128716467e-02,4.330774503600273717e-02
5.400000000000000355e-01,-1.174846450210136201e-01,1.016719402169740938e-01,8.315562300077246338e-03
5.410000000000000364e-01,-1.060255790498342704e-01,1.093310271488484448e-01,-1.912191600714608503e-02
5.420000000000000373e-01,-5.479908518710872173e-02,1.245053347154676110e-01,-4.964854172325287862e-02
5.430000000000000382e-01,2.761056529895867650e-03,9.853755905412073246e-02,-5.447635339076960237e-02
5.440000000000000391e-01,4.604329135178648891e-02,7.411358864158680559e-02,-7.783919800886678064e-02
5.450000000000000400e-01,8.433346065915882372e-02,3.763941464496373124e-02,-8.440552524793412670e-02
5.460000000000000409e-01,1.224700749322125831e-01,-5.977306807810379291e-03,-6.010836854854294253e-02
5.470000000000000417e-01,1.295099540511527314e-01,-4.893674949508135252e-02,-4.384668990664297022e-02
5.480000000000000426e-01,1.408668485614348875e-01,-7.243825654318088170e-02,-2.901734871879138242e-02
5.490000000000000435e-01,1.261132103235534929e-01,-9.285419021657295713e-02,-3.650105049700102817e-03
5.500000000000000444e-01,8.956966393704231255e-02,-1.182666236372059837e-01,3.175711821902665183e-02
5.510000000000000453e-01,5.703797928536635115e-02,-1.002703018427314463e-01,4.628791054127825294e-02
5.520000000000000462e-01,-7.585072053839093768e-03,-8.273491669603756649e-02,6.528526644902488130e-02
5.530000000000000471e-01,-4.955404639750848883e-02,-6.406788969047244597e-02,8.355761717272590372e-02
5.540000000000000480e-01,-8.795915851331786994e-02,-2.358039980404912431e-02,8.978504668388494203e-02
5.550000000000000488e-01,-1.261515694656392683e-01,1.919234853941964580e-02,8.400650409281464059e-02
5.560000000000000497e-01,-1.432290586867480953e-01,5.591032625904675951e-02,4.628268723545469338e-02
5.570000000000000506e-01,-1.324337155081747042e-01,8.894239676219946322e-02,3.912007602269690354e-02
5.580000000000000515e-01,-1.205199585711929644e-01,1.041739440497540525e-01,1.508642841073132941e-03
5.590000000000000524e-01,-8.973515206970905655e-02,1.176896710382360906e-01,-8.369222273627409739e-03
5.600000000000000533e-01,-4.593045043650022252e-02,1.060276355794271819e-01,-6.071175362528390129e-02
5.610000000000000542e-01,6.107555782573302790e-03,8.623238064657628987e-02,-5.592307438820817711e-02
5.620000000000000551e-01,6.088987804132903192e-02,6.094198647811453068e-02,-6.784361303172690982e-02
5.629999999999999449e-01,1.019663017384827425e-01,2.115627273737700001e-02,-8.468051688694443191e-02
5.639999999999999458e-01,1.325365432637181651e-01,-3.282796473616851618e-02,-7.912927530852298386e-02
5.649999999999999467e-01,1.418094186470795215e-01,-6.700149896966885177e-02,-6.311322011129417986e-02
5.659999999999999476e-01,1.521743899058357608e-01,-8.387827643870200689e-02,-3.399048583548918562e-02
5.669999999999999485e-01,1.191642481050294022e-01,-1.000806209277666642e-01,-1.694287445717128360e-02
5.679999999999999494e-01,6.764425451729276506e-02,-1.106540031612946867e-01,3.984583876700232424e-02
5.689999999999999503e-01,3.510332389513003137e-02,-1.000114781951334797e-01,3.901530550242740536e-02
5.699999999999999512e-01,-1.042387192108220652e-02,-7.846602609797688477e-02,7.789306900695340541e-02
5.709999999999999520e-01,-5.713590955312843750e-02,-4.465743587498346295e-02,6.336470835788921008e-02
5.719999999999999529e-01,-1.026569846435118616e-01,-1.787483373810162465e-02,9.078608751833044943e-02
5.729999999999999538e-01,-1.314319961165487383e-01,3.460024329171453028e-02,8.302405940965550124e-02
5.739999999999999547e-01,-1.470295619168694445e-01,7.596695785694586311e-02,5.821654115695886617e-02
5.749999999999999556e-01,-1.373534106581847936e-01,9.415750924773555464e-02,2.850134812042648749e-02
5.759999999999999565e-01,-1.210245980558397189e-01,1.045235238669106059e-01,4.299215552381222688e-03
5.769999999999999574e-01,-8.096833688197747902e-02,1.097784403754425708e-01,-2.103854469475360117e-02
5.779999999999999583e-01,-2.177977624130498710e-02,1.072952816707875984e-01,-6.526181592544616494e-02
5.789999999999999591e-01,2.585770495827238377e-02,7.623682004626576580e-02,-6.913870930255756886e-02
5.799999999999999600e-01,6.914735254698681222e-02,4.283025251309247050e-02,-8.432855434644748183e-02
5.809999999999999609e-01,1.006198700261137641e-01,1.523719721044797595e-02,-7.827342405637187361e-02
5.819999999999999618e-01,1.344186309365008047e-01,-4.197957218622474368e-02,-7.684644540451476824e-02
5.829999999999999627e-01,1.315828047712105653e-01,-8.544028794639285662e-02,-7.213757675003697190e-02
5.839999999999999636e-01,1.371347311230566579e-01,-1.005863644215807956e-01,-3.198797746964603811e-02
5.849999999999999645e-01,9.866448368656731416e-02,-1.094262318574240472e-01,9.145586518659107669e-03
5.859999999999999654e-01,6.909146043997115016e-02,-1.157523311036112723e-01,2.671860405863874660e-02
5.869999999999999662e-01,2.800310553243321940e-02,-1.066446053940548755e-01,5.993637813325412150e-02
5.879999999999999671e-01,-3.082799499711651181e-02,-5.811587789278509220e-02,7.654620778156458194e-02
5.889999999999999680e-01,-7.326940183376558224e-02,-3.612599213060297548e-02,9.199369845454515027e-02
5.899999999999999689e-01,-1.203348860096756651e-01,7.251233023637001368e-03,9.125844283245830579e-02
5.909999999999999698e-01,-1.318715566628633484e-01,3.970489933867565185e-02,6.765896838744978048e-02
5.919999999999999707e-01,-1.319654610268640449e-01,8.196185903175032261e-02,4.600361288646578201e-02
5.929999999999999716e-01,-1.328175890289284289e-01,1.019586258276666130e-01,2.376232585071118980e-02
5.939999999999999725e-01,-1.170303113356272046e-01,1.146850792176555695e-01,-1.858329708762467697e-02
5.949999999999999734e-01,-6.738423030887211174e-02,1.032922196031625245e-01,-3.263591521366289439e-02
5.959999999999999742e-01,-1.771310506426528389e-02,8.594614577224367336e-02,-6.257538201689365198e-02
5.969999999999999751e-01,2.889884745715051023e-02,6.994687607551035302e-02,-7.073264366902712319e-02
5.979999999999999760e-01,8.698616859623502229e-02,1.950183389275837384e-02,-9.251774097938204877e-02
5.989999999999999769e-01,1.204621242820398813e-01,-1.695969696870724616e-02,-7.387520529062957531e-02
5.999999999999999778e-01,1.385298287503931025e-01,-4.266228495258998082e-02,-6.523716589509115371e-02
6.009999999999999787e-01,1.400869626714281169e-01,-8.908843806724189851e-02,-6.469217122500149630e-02
6.019999999999999796e-01,1.241337927366049226e-01,-1.172505226213451518e-01,-3.484901606801016349e-02
6.029999999999999805e-01,9.665470170991331822e-02,-1.252123360678773778e-01,6.967560404615135046e-03
6.039999999999999813e-01,5.024234435961841272e-02,-1.008520045800850307e-01,3.124166030318183823e-02
6.049999999999999822e-01,1.587089134548968702e-02,-8.425335910539839823e-02,5.532748592354710948e-02
6.059999999999999831e-01,-3.486169748323406092e-02,-4.820298918484799272e-02,7.113074724100745816e-02
6.069999999999999840e-01,-8.175318705049025581e-02,-1.945805442827998333e-02,8.436948448332885764e-02
6.079999999999999849e-01,-1.222436171282610395e-01,1.825246406569012991e-02,7.693311265088265127e-02
6.089999999999999858e-01,-1.421234842187626413e-01,7.340847830166713495e-02,6.991325793602391758e-02
6.099999999999999867e-01,-1.401798048235148864e-01,9.581865951091320110e-02,4.940672192309315813e-02
6.109999999999999876e-01,-1.267751947932847512e-01,1.179086093004734631e-01,1.956403243637214531e-02
6.119999999999999885e-01,-8.428347893480216124e-02,1.183253144394999373e-01,-1.719905429471139295e-03
6.129999999999999893e-01,-5.654825167711282491e-02,9.516111846440673816e-02,-3.902432380593130051e-02
6.139999999999999902e-01,-3.235558838268723673e-04,8.665128460576040914e-02,-4.988105929380723391e-02
6.149999999999999911e-01,4.755866897756180767e-02,5.432845723864679344e-02,-7.756849561328063580e-02
6.159999999999999920e-01,9.441279898686043281e-02,-3.226521681000536334e-03,-7.786932079178816857e-02
6.169999999999999929e-01,1.173386462449568374e-01,-2.695496365572579503e-02,-8.438556890663179155e-02
6.179999999999999938e-01,1.381758234547890707e-01,-7.076712320633624098e-02,-5.539562508367353727e-02
6.189999999999999947e-01,1.509563752169287565e-01,-1.081111849131666386e-01,-4.943738703091460351e-02
6.199999999999999956e-01,1.190968889333167691e-01,-1.155690661261066510e-01,-3.788317970228610720e-02
6.209999999999999964e-01,7.503436197220232640e-02,-1.157117052508083305e-01,-2.634154656761904072e-03
6.219999999999999973e-01,3.014820291305581393e-02,-9.706104568251684717e-02,4.022923856738321036e-02
6.229999999999999982e-01,5.050488331685608345e-03,-6.874937444277712251e-02,6.659215290883253868e-02
6.239999999999999991e-01,-7.199407635414400985e-02,-3.936173470374783323e-02,7.376653358132007066e-02
6.250000000000000000e-01,-9.636006904899240000e-02,-1.024327710105331878e-02,7.731407782409761842e-02
6.260000000000000009e-01,-1.350369650399956822e-01,3.879390167702737729e-02,9.217708375149777367e-02
6.270000000000000018e-01,-1.368277665522750486e-01,8.296991523346980424e-02,7.579334118490786698e-02
6.280000000000000027e-01,-1.442148827088773344e-01,9.306479906245665457e-02,5.263229988021197320e-02
6.290000000000000036e-01,-1.305831644205096287e-01,1.161749225205916253e-01,2.223149661018766765e-02
6.300000000000000044e-01,-8.527592383464548120e-02,9.391907720998730891e-02,4.532527137449265248e-03
6.310000000000000053e-01,-4.156492851602265615e-02,8.021324663122672560e-02,-3.414153138861172887e-02
6.320000000000000062e-01,1.261594380486266015e-02,5.585215811866557634e-02,-5.151659686954523920e-02
6.330000000000000071e-01,6.321885900714019346e-02,4.398849137616565874e-02,-7.860389900178725575e-02
6.340000000000000080e-01,1.014012292289667022e-01,-1.628921509808620507e-02,-8.408370145031712761e-02
6.350000000000000089e-01,1.284540514211389706e-01,-5.739820388077485069e-02,-8.265866030756373328e-02
6.360000000000000098e-01,1.350876651182379429e-01,-8.885749771716006107e-02,-6.349964591682248638e-02
6.370000000000000107e-01,1.347790828210851111e-01,-1.219729237355999113e-01,-5.573796092504088723e-02
6.380000000000000115e-01,9.692285627059639419e-02,-1.092242242423196452e-01,-3.371663227163176901e-02
6.390000000000000124e-01,8.380387633212339760e-02,-9.876068025477557910e-02,1.026133912598557740e-02
6.400000000000000133e-01,3.754463660738900643e-02,-8.437631827137118123e-02,1.820968559683446009e-02
6.410000000000000142e-01,-1.039574454286869981e-02,-5.100921313003876911e-02,5.378773414134960240e-02
6.420000000000000151e-01,-6.565506554666025729e-02,-2.093866794190853489e-02,8.021359742825881489e-02
6.430000000000000160e-01,-1.041936585093038298e-01,1.519921665122662448e-02,8.838981823649511016e-02
6.440000000000000169e-01,-1.300908015790158412e-01,5.840194460645622976e-02,6.439433602215116625e-02
6.450000000000000178e-01,-1.469841082433303303e-01,9.047171817837895702e-02,7.968202240925710556e-02
6.460000000000000187e-01,-1.424155170477397758e-01,1.153809567650232459e-01,4.306304640569703912e-02
6.470000000000000195e-01,-1.124333322166321536e-01,1.106318913978121404e-01,3.514374047417855029e-02
6.480000000000000204e-01,-7.604947521728684656e-02,1.138890647751418239e-01,1.833821468619830893e-03
6.490000000000000213e-01,-3.040870409144454806e-02,8.350794422041814269e-02,-3.119064928321821015e-02
6.500000000000000222e-01,2.840610319385454552e-02,4.453633121829728148e-02,-6.390582911167683178e-02
6.510000000000000231e-01,6.661854222204156850e-02,1.325915964608848519e-03,-9.413771403896847856e-02
6.520000000000000240e-01,1.162358841281898453e-01,-2.898458640076118781e-02,-8.177200954161242819e-02
6.530000000000000249e-01,1.397366555165834301e-01,-7.890286644953146966e-02,-9.996647603120184522e-02
6.540000000000000258e-01,1.557106490562251699e-01,-9.241714040055062918e-02,-6.896441973748156096e-02
6.550000000000000266e-01,1.343348443722557350e-01,-1.095541400451522651e-01,-3.846395457628405679e-02
6.560000000000000275e-01,1.047709124270116005e-01,-1.105782625788439694e-01,-3.244594767838214489e-02
6.570000000000000284e-01,6.981961422209878587e-02,-9.505634240462278173e-02,3.494185184206550967e-03
6.580000000000000293e-01,1.558725781226638456e-02,-7.226518282889717038e-02,4.676705215010173999e-02
6.590000000000000302e-01,-1.849228483441043430e-02,-4.604147937422824188e-02,6.357749642307411464e-02
6.600000000000000311e-01,-7.889389212622187342e-02,7.608403933971738184e-03,8.706405205894070243e-02
6.610000000000000320e-01,-1.153208992619285805e-01,3.327485916465599408e-02,8.683718508058799190e-02
6.620000000000000329e-01,-1.318183502084347425e-01,8.068528012798127647e-02,8.282414417607904256e-02
6.630000000000000338e-01,-1.498492465359192172e-01,1.045043983942044730e-01,7.170700621275102882e-02
6.640000000000000346e-01,-1.156567501645198309e-01,1.195813490722266587e-01,4.912177910509491624e-02
6.650000000000000355e-01,-9.269005590961126861e-02,1.079671618185086418e-01,2.660548188023851082e-02
6.660000000000000364e-01,-6.725337076486058441e-02,8.455447275983396516e-02,-1.826329944851495454e-02
6.670000000000000373e-01,-1.457134559034954473e-02,7.276092693531918676e-02,-3.536229561248325354e-02
6.680000000000000382e-01,3.814835330009713060e-02,2.904227047489594746e-02,-4.638524645845100436e-02
6.690000000000000391e-01,6.710668852643884852e-02,-4.085759350840389298e-03,-7.612109470860257965e-02
6.700000000000000400e-01,1.144550043809975520e-01,-4.743810875917246761e-02,-8.953839803225679961e-02
6.710000000000000409e-01,1.361836811135807568e-01,-8.962202102394899172e-02,-8.639582880615961913e-02
6.720000000000000417e-01,1.424009138192871560e-01,-1.074062860658102775e-01,-7.673620355054106001e-02
6.730000000000000426e-01,1.269722115405572671e-01,-1.179379037302520500e-01,-3.562593305254511261e-02
6.740000000000000435e-01,9.151065980024888913e-02,-1.043180554765954920e-01,-1.105796166802266133e-02
6.750000000000000444e-01,6.154850847535609654e-02,-9.206310273223913820e-02,1.578757387936142315e-02
6.760000000000000453e-01,1.241860305168706984e-02,-6.757587205468749969e-02,4.874453652257427355e-02
6.770000000000000462e-01,-4.688184433305045418e-02,-1.572619900881322072e-02,6.308412696705553713e-02
6.780000000000000471e-01,-8.810917110795898899e-02,1.858142157541717993e-02,6.668339164995878976e-02
6.790000000000000480e-01,-1.260990197163153470e-01,5.659828065298944805e-02,8.771540056270955843e-02
6.800000000000000488e-01,-1.334313810360424346e-01,8.623880800345710973e-02,8.118934766263442848e-02
6.810000000000000497e-01,-1.437194036271571274e-01,1.085689349144657451e-01,6.029233177086791573e-02
6.820000000000000506e-01,-1.125990192229112952e-01,1.026764603060931619e-01,4.473406970963322155e-02
6.830000000000000515e-01,-8.128358374905875205e-02,1.066132926916483481e-01,1.563687558175092668e-02
6.840000000000000524e-01,-4.222364843249235694e-02,8.713399609912962640e-02,-1.259119812800661709e-02
6.850000000000000533e-01,-1.396554945264118219e-03,5.645468481443775832e-02,-3.807615527344628686e-02
6.860000000000000542e-01,5.448812737637324238e-02,9.406721562070053527e-03,-6.164653396194363921e-02
6.870000000000000551e-01,9.681614507810311354e-02,-2.438672321554944539e-02,-7.213812230513690082e-02
6.879999999999999449e-01,1.359295630568552737e-01,-5.273901846426781032e-02,-8.381665475160277046e-02
6.889999999999999458e-01,1.422454384955487428e-01,-9.981348856090789534e-02,-7.612441563735715400e-02
6.899999999999999467e-01,1.401945365516915898e-01,-1.073363038397243535e-01,-6.083522723516234659e-02
6.909999999999999476e-01,1.160334621017290180e-01,-1.137827242600146227e-01,-4.858836736077529195e-02
6.919999999999999485e-01,8.398066034337907382e-02,-8.425176367478119654e-02,-6.621414175860929063e-03
6.929999999999999494e-01,3.770198151035403927e-02,-6.487538925142050106e-02,4.340895081481195052e-03
6.939999999999999503e-01,-5.768882886526622428e-03,-3.677819198385325061e-02,4.088080509205528623e-02
6.949999999999999512e-01,-5.029440305013333640e-02,-1.690767854494589634e-02,7.010822289661265694e-02
6.959999999999999520e-01,-9.075931554314026206e-02,3.169940481155174988e-02,7.122722561276000064e-02
6.969999999999999529e-01,-1.319144248159409560e-01,6.278918351610510151e-02,7.548099997866024313e-02
6.979999999999999538e-01,-1.458283552711232001e-01,8.900231170154200566e-02,7.749201473706537890e-02
6.989999999999999547e-01,-1.426112802965098514e-01,1.172544394576332111e-01,6.161884179826538493e-02
6.999999999999999556e-01,-1.155896704624265470e-01,1.062297868357139630e-01,4.463397761561516824e-02
7.009999999999999565e-01,-7.754864038107327218e-02,8.638980288227134097e-02,1.172238260947930204e-02
7.019999999999999574e-01,-3.784357209552380308e-02,7.772166215446468795e-02,-2.779508384910372651e-02
7.029999999999999583e-01,1.184186212284429190e-02,3.212661008102465909e-02,-5.181350354535306513e-02
7.039999999999999591e-01,6.017097172763033464e-02,-6.301054543531351380e-03,-6.644152355839125224e-02
7.049999999999999600e-01,1.075198577388710719e-01,-4.028266004054513461e-02,-8.722741671506863137e-02
7.059999999999999609e-01,1.386124664785383376e-01,-7.687605679381483148e-02,-8.564677132321255049e-02
7.069999999999999618e-01,1.400347119992517986e-01,-1.003318842475288131e-01,-8.880846012677157120e-02
7.079999999999999627e-01,1.403060288569563108e-01,-1.187408157555219501e-01,-5.961944917824322371e-02
7.089999999999999636e-01,1.232322937488445069e-01,-1.079092633307594251e-01,-3.982238664395094940e-02
7.099999999999999645e-01,6.858434158500471833e-02,-8.256291529132363249e-02,-1.241632729656692163e-02
7.109999999999999654e-01,2.490316579416495743e-02,-6.966252498290315120e-02,1.596548799615585268e-02
7.119999999999999662e-01,-1.826071997034671435e-02,-2.097530232665583555e-02,3.677911317535213775e-02
7.129999999999999671e-01,-6.760615054783140898e-02,1.418560228096206119e-02,6.548626898272057184e-02
7.139999999999999680e-01,-9.962601540264902356e-02,5.425040991010545571e-02,6.590317885557067656e-02
7.149999999999999689e-01,-1.309014808897730475e-01,8.993984930387899368e-02,7.895699833689417968e-02
7.159999999999999698e-01,-1.318616035127314901e-01,1.118829225620706497e-01,8.028852163105637540e-02
7.169999999999999707e-01,-1.268048303133806620e-01,1.156814570621115118e-01,6.212423677498966901e-02
7.179999999999999716e-01,-9.530999324338373935e-02,1.108749248487826550e-01,3.672265112177702795e-02
7.189999999999999725e-01,-7.896912059027418052e-02,8.163667786749415067e-02,9.980964462333199658e-03
7.199999999999999734e-01,-2.795185936905200674e-02,6.570742349586339293e-02,-1.469784883853613063e-02
7.209999999999999742e-01,3.142709005644062775e-02,2.253726004948245973e-02,-3.619262428489665451e-02
7.219999999999999751e-01,5.985929904681301650e-02,-1.500548538464327973e-02,-6.097111238232732350e-02
7.229999999999999760e-01,1.170227265294793845e-01,-7.199068931867939891e-02,-7.305292091543380550e-02
7.239999999999999769e-01,1.276656900944324879e-01,-9.719407590490106164e-02,-7.844477983497102902e-02
7.249999999999999778e-01,1.405509144789912623e-01,-1.025857204001719702e-01,-7.151540485115785717e-02
7.259999999999999787e-01,1.386927132817795394e-01,-9.869989116318896027e-02,-6.569814889455277696e-02
7.269999999999999796e-01,9.907977551813892947e-02,-1.030038931596781449e-01,-3.715501460695410513e-02
7.279999999999999805e-01,7.065187751463890276e-02,-8.249385892658177288e-02,-1.204418617947542597e-02
7.289999999999999813e-01,1.664054866690317484e-03,-4.610934507806289245e-02,2.435283252095596027e-02
7.299999999999999822e-01,-3.169332934923693029e-02,-1.863360491999592819e-02,2.853505938283023777e-02
7.309999999999999831e-01,-7.459557361778271223e-02,3.245711394481351486e-02,6.938798769028915736e-02
7.319999999999999840e-01,-1.193105518707383433e-01,7.663863900252779193e-02,7.289665977636589078e-02
7.329999999999999849e-01,-1.360074415078444676e-01,8.616154377550920562e-02,8.064135534754683643e-02
7.339999999999999858e-01,-1.393995689791990844e-01,1.008006785718152110e-01,8.283284612910142564e-02
7.349999999999999867e-01,-1.200903066513261813e-01,1.155605948528327237e-01,5.524730139588107658e-02
7.359999999999999876e-01,-9.400433273627148423e-02,1.071084137690607174e-01,3.561523356289916092e-02
7.369999999999999885e-01,-6.331608118828267739e-02,7.187049046573863731e-02,6.632620715697807971e-03
7.379999999999999893e-01,-7.485631537922043249e-03,3.392677072703790403e-02,-2.508879487873850664e-02
7.389999999999999902e-01,3.397178384021595082e-02,8.723710849686542451e-03,-5.720891261848794901e-02
7.399999999999999911e-01,1.019589580065899947e-01,-3.625698268197412311e-02,-6.430848527273973214e-02
7.409999999999999920e-01,1.157951598202157928e-01,-7.489002896016165589e-02,-7.142641604541920264e-02
7.419999999999999929e-01,1.458956815345153757e-01,-9.618416429440836135e-02,-9.344708582081773240e-02
7.429999999999999938e-01,1.517217443330775850e-01,-9.434073308339191444e-02,-9.246114558638500458e-02
7.439999999999999947e-01,1.267915963524897383e-01,-1.094363123100489665e-01,-6.196367767611543620e-02
7.449999999999999956e-01,8.601394799547787406e-02,-9.925665698276255056e-02,-3.835806014178588103e-02
7.459999999999999964e-01,5.134563789538045681e-02,-6.899867413700244700e-02,-1.026682927842233715e-02
7.469999999999999973e-01,-9.496804867603649697e-03,-2.599618996250394748e-02,2.265136888400687623e-02
7.479999999999999982e-01,-5.833509214122442610e-02,1.036927813227488462e-02,4.578429514981691151e-02
7.489999999999999991e-01,-8.921382291266791165e-02,4.874982090545022795e-02,7.742508492715843849e-02
7.500000000000000000e-01,-1.258969296544448502e-01,8.080696402433963643e-02,1.008680849138301333e-01
7.510000000000000009e-01,-1.295966643462943824e-01,1.147676653295432447e-01,7.990450740263828344e-02
7.520000000000000018e-01,-1.417325092483999460e-01,1.097683870414221524e-01,8.309066411940316255e-02
7.530000000000000027e-01,-1.161638056517384499e-01,9.879190172505848688e-02,6.688129361689967856e-02
7.540000000000000036e-01,-9.339893456007364314e-02,8.896842365460941315e-02,1.602319947000174424e-02
7.550000000000000044e-01,-4.989196709881099645e-02,5.574013808085240274e-02,1.697064488344918881e-02
7.560000000000000053e-01,1.494577831489429581e-03,1.976693728953502274e-02,-1.898337590544853237e-02
7.570000000000000062e-01,4.506564387454484871e-02,-2.562420020553564728e-02,-4.699931746895124468e-02
7.580000000000000071e-01,8.138022291246903295e-02,-4.915441151829477717e-02,-6.236264017979128299e-02
7.590000000000000080e-01,1.276024060130215576e-01,-9.692634675518380094e-02,-9.407831570886955597e-02
7.600000000000000089e-01,1.383216084573563598e-01,-1.168168035415918099e-01,-8.599285471427893512e-02
7.610000000000000098e-01,1.359429527227033474e-01,-1.164149961570322273e-01,-7.238790065831238185e-02
7.620000000000000107e-01,1.195448352981258733e-01,-1.052633831999046365e-01,-6.283760391589178484e-02
7.630000000000000115e-01,8.094138403725206765e-02,-7.471153000576032099e-02,-3.677449691128702874e-02
7.640000000000000124e-01,3.447584656481290921e-02,-5.964754836405908311e-02,3.332448955618461106e-03
7.650000000000000133e-01,-1.652587175760448016e-02,-1.009054016222199306e-02,1.978402344591603454e-02
7.660000000000000142e-01,-6.479559932742098849e-02,2.494239784082833908e-02,6.105408599592550278e-02
7.670000000000000151e-01,-1.170316506048928590e-01,6.558958631312220011e-02,5.615127098026651692e-02
7.680000000000000160e-01,-1.256038248845877670e-01,1.012683807250760043e-01,8.342665249913751302e-02
7.690000000000000169e-01,-1.440903349183918214e-01,1.052520736442364990e-01,8.184072520172896992e-02
7.700000000000000178e-01,-1.281933003599472209e-01,1.278370639617809057e-01,8.563394360419168683e-02
7.710000000000000187e-01,-1.116014752720894537e-01,9.075662580434573634e-02,6.099731995544516172e-02
7.720000000000000195e-01,-7.785682179656046309e-02,8.778362115850432690e-02,4.599609059614954282e-02
7.730000000000000204e-01,-3.678252900074548137e-02,4.531226993832431632e-02,4.686260398138742712e-03
7.740000000000000213e-01,2.688067223713471246e-02,-5.359933345258542127e-03,-3.024040445256766935e-02
7.750000000000000222e-01,7.698012037891206749e-02,-3.932405579304815851e-02,-6.360023481503510046e-02
7.760000000000000231e-01,1.067671007025776525e-01,-7.023917220812098128e-02,-5.751739887826592956e-02
7.770000000000000240e-01,1.340744609110330332e-01,-9.691591623326607785e-02,-8.163857637216537233e-02
7.780000000000000249e-01,1.420544511514306163e-01,-1.074010173265573936e-01,-9.170237506862470578e-02
7.790000000000000258e-01,1.380403522168578423e-01,-1.162386115409284465e-01,-7.130285969200858553e-02
7.800000000000000266e-01,1.190650859918127163e-01,-1.038444464413014329e-01,-4.818039091443012539e-02
7.810000000000000275e-01,7.311271326485045685e-02,-6.949921622696386692e-02,-5.254198955776901575e-02
7.820000000000000284e-01,1.413491257652962386e-02,-4.425949531880815635e-02,6.917414149239681578e-03
7.830000000000000293e-01,-4.064638056211558603e-02,7.634062483561399742e-03,3.613915042837232555e-02
7.840000000000000302e-01,-6.941628167524377391e-02,3.396475072389434219e-02,5.635679340655062874e-02
7.850000000000000311e-01,-1.176275249807256645e-01,8.160665716650476742e-02,7.252813566778268384e-02
7.860000000000000320e-01,-1.491987876944305125e-01,9.541547413606202288e-02,8.757914273080373568e-02
7.870000000000000329e-01,-1.493555958285358032e-01,1.099612858398839321e-01,7.436185580488861857e-02
7.880000000000000338e-01,-1.268301871031244643e-01,1.105296781963009956e-01,6.909986823017426338e-02
7.890000000000000346e-01,-9.718307430105921352e-02,9.393046384801254090e-02,5.362622753060457964e-02
7.900000000000000355e-01,-6.892821464996827519e-02,5.439321372854956371e-02,2.383795122019127105e-02
7.910000000000000364e-01,-2.755275394032263847e-02,1.758835941019671820e-02,-2.417095897723514630e-03
7.920000000000000373e-01,3.631934674488469794e-02,-2.546666669855485524e-02,-3.039191388495809942e-02
7.930000000000000382e-01,7.169867093409586223e-02,-4.586026628010074491e-02,-5.123831589989007174e-02
7.940000000000000391e-01,1.051225152370362098e-01,-7.942293389306603890e-02,-7.806456659500995987e-02
7.950000000000000400e-01,1.475041573377494641e-01,-1.138978227138224830e-01,-8.524861972236230656e-02
7.960000000000000409e-01,1.423764200219370391e-01,-1.165446084758817863e-01,-9.318572405549047089e-02
7.970000000000000417e-01,1.352853704217824860e-01,-9.721054222440890513e-02,-8.278213615271017012e-02
7.980000000000000426e-01,1.041946039464332757e-01,-8.804730248745196164e-02,-5.178001404573637917e-02
7.990000000000000435e-01,6.011745290707160017e-02,-6.007335459753208873e-02,-2.547078342770025053e-02
8.000000000000000444e-01,1.015659421983914311e-02,-1.665185627103851068e-02,-2.898201044518237610e-03
8.010000000000000453e-01,-2.888699249267750319e-02,2.081085463978538802e-02,2.341788044195089111e-02
8.020000000000000462e-01,-7.958518511801669637e-02,5.579397874315984024e-02,6.080823825250849385e-02
8.030000000000000471e-01,-1.267181031975990468e-01,9.134211891250113013e-02,8.305466601810423954e-02
8.040000000000000480e-01,-1.438424362837234516e-01,1.115404397653545765e-01,7.663714554372209886e-02
8.050000000000000488e-01,-1.278977615585079330e-01,1.104265651890146416e-01,8.182249794160284528e-02
8.060000000000000497e-01,-1.249957699566873748e-01,1.125778209999829527e-01,6.487427224254602165e-02
8.070000000000000506e-01,-9.131552053958237603e-02,7.652299105490023567e-02,5.421104355197372410e-02
8.080000000000000515e-01,-4.862947803668432600e-02,4.890580434272201460e-02,4.052266062318448520e-02
8.090000000000000524e-01,-6.017498299604043428e-03,6.694648705506554311e-03,-2.298076598729871262e-03
8.100000000000000533e-01,3.317566774307921518e-02,-2.404105524197190646e-02,-2.971071184818267416e-02
8.110000000000000542e-01,9.850377254370125402e-02,-5.777719180956181200e-02,-6.638540940617898567e-02
8.120000000000000551e-01,1.229938661539316247e-01,-1.009695604730760504e-01,-8.829269327904645803e-02
8.129999999999999449e-01,1.414597109609906089e-01,-1.068716322366871502e-01,-7.906777967320623157e-02
8.139999999999999458e-01,1.409808946791956952e-01,-1.097443739105268684e-01,-9.488696430579618424e-02
8.149999999999999467e-01,1.187677639338796665e-01,-1.004554605255330718e-01,-7.172753483442413647e-02
8.159999999999999476e-01,9.841785589440303628e-02,-7.539327029695569449e-02,-5.964038877468338939e-02
8.169999999999999485e-01,4.454297916676740882e-02,-4.530991150585658711e-02,-2.893565416400438808e-02
8.179999999999999494e-01,-1.008880602358701827e-02,4.941577725061071028e-03,5.982581386563928490e-04
8.189999999999999503e-01,-5.380161825324441399e-02,4.112784514085907062e-02,2.990968893446506460e-02
8.199999999999999512e-01,-1.091607463324051619e-01,8.564630421342989131e-02,6.163333284484557445e-02
8.209999999999999520e-01,-1.290731019260816792e-01,1.061508243174016652e-01,6.392572825937918590e-02
8.219999999999999529e-01,-1.458251032493264321e-01,1.163602883092711843e-01,8.771682750203196877e-02
8.229999999999999538e-01,-1.449234419523459938e-01,1.093616275209507299e-01,8.267013669882863902e-02
8.239999999999999547e-01,-1.341267015793252693e-01,9.934276002824452001e-02,7.349867908660434601e-02
8.249999999999999556e-01,-8.218548351685212028e-02,7.716793284679504539e-02,5.318742279278744489e-02
8.259999999999999565e-01,-3.949523891271344844e-02,4.039960852315591100e-02,2.052556019644866114e-02
8.269999999999999574e-01,2.021275616788348675e-02,-8.012215703818258497e-03,-2.934512001774205038e-04
8.279999999999999583e-01,6.542092172855304422e-02,-5.001851273522736618e-02,-3.849640853602284002e-02
8.289999999999999591e-01,8.677733566635968676e-02,-8.331773398757091886e-02,-5.617549146618799893e-02
8.299999999999999600e-01,1.312579631671630387e-01,-1.069894030212592689e-01,-7.605586524449527153e-02
8.309999999999999609e-01,1.330718269543659515e-01,-1.068070369225487259e-01,-9.043463254433750653e-02
8.319999999999999618e-01,1.385885570366775510e-01,-1.000048656569366978e-01,-8.744135023895686920e-02
8.329999999999999627e-01,1.322156968220264406e-01,-9.253409857628952517e-02,-7.171103385254458396e-02
8.339999999999999636e-01,8.664409758362599800e-02,-6.624581664929445057e-02,-5.127705119206955181e-02
8.349999999999999645e-01,3.913752720756333292e-02,-1.089746007875740108e-02,-1.844539415113595135e-02
8.359999999999999654e-01,-7.885223513639160950e-03,2.956838343589372059e-02,7.548414182340882662e-03
8.369999999999999662e-01,-5.271711749080504328e-02,6.620499757435435728e-02,2.949811840384377118e-02
8.379999999999999671e-01,-9.414035828918425330e-02,8.197756169246506186e-02,6.387535253395607016e-02
8.389999999999999680e-01,-1.436905915692130720e-01,1.074762530455913162e-01,8.569770734827784897e-02
8.399999999999999689e-01,-1.481184560584098142e-01,1.138476119012435395e-01,8.574247427585818260e-02
8.409999999999999698e-01,-1.339554835092031382e-01,1.059392282176412070e-01,8.142329247813123727e-02
8.419999999999999707e-01,-1.135039373107554345e-01,7.083636109787554147e-02,6.867796415531024490e-02
8.429999999999999716e-01,-7.767267024315563373e-02,5.517319036349256633e-02,5.602699546337392561e-02
8.439999999999999725e-01,-2.309141902228361437e-02,1.795662170828435031e-02,3.323615089388731042e-02
8.449999999999999734e-01,1.681819356550887101e-02,-2.956389808958455323e-02,-1.915299025495023622e-02
8.459999999999999742e-01,7.132132053711924546e-02,-5.613234133260133762e-02,-3.225315939417618127e-02
8.469999999999999751e-01,1.203965265966275566e-01,-9.236874809762282701e-02,-6.091168661853326588e-02
8.479999999999999760e-01,1.397848778743897014e-01,-1.183438696141987378e-01,-7.889316602170254322e-02
8.489999999999999769e-01,1.406614495719132329e-01,-1.060651392282463412e-01,-9.316486994843320435e-02
8.499999999999999778e-01,1.417789267989476576e-01,-1.078355409295785883e-01,-8.591832524179716934e-02
8.509999999999999787e-01,1.070684526297915606e-01,-7.692578314227796477e-02,-7.797479318025524186e-02
8.519999999999999796e-01,6.628458762893946199e-02,-4.915757127780592123e-02,-5.298484325996577482e-02
8.529999999999999805e-01,9.522098406145103333e-03,1.672191721362441741e-03,-2.704475572270146136e-02
8.539999999999999813e-01,-2.710831346376264828e-02,3.595048367000507755e-02,1.001076677815544540e-02
8.549999999999999822e-01,-7.896554065601799066e-02,6.799056032334320487e-02,4.741035034442933616e-02
8.559999999999999831e-01,-1.155818970584083644e-01,8.424037390398350644e-02,6.034484594088780629e-02
8.569999999999999840e-01,-1.380466849371121962e-01,1.203988002416626346e-01,7.955030193761075674e-02
8.579999999999999849e-01,-1.382971804668467475e-01,1.073187846720790872e-01,8.451100260663840791e-02
8.589999999999999858e-01,-1.367352797794798291e-01,8.686868648229099932e-02,8.196417336794127595e-02
8.599999999999999867e-01,-1.163796790307215084e-01,7.595536458160347115e-02,5.828331975876507171e-02
8.609999999999999876e-01,-6.304379054697376028e-02,4.352856238553452772e-02,4.050189017019336507e-02
8.619999999999999885e-01,-2.260430141500114481e-02,-7.537688097771468509e-04,2.894375362906130567e-02
8.629999999999999893e-01,3.962325836808621576e-02,-4.592942578832277106e-02,-1.174382892498426062e-02
8.639999999999999902e-01,7.505601851361717869e-02,-9.066280940646613551e-02,-3.117535043802645289e-02
8.649999999999999911e-01,1.135996475460433197e-01,-9.643864980566299594e-02,-6.453098926345494923e-02
8.659999999999999920e-01,1.342559302118886966e-01,-1.081716909276280308e-01,-6.887710525415008389e-02
8.669999999999999929e-01,1.175844498512235020e-01,-9.981207699369769315e-02,-7.565017898147621822e-02
8.679999999999999938e-01,1.310277474271735187e-01,-9.270042870094691301e-02,-7.735288860798353316e-02
8.689999999999999947e-01,9.143566641728978484e-02,-6.746772362811410961e-02,-7.034020773333926613e-02
8.699999999999999956e-01,5.566093023479762314e-02,-1.426532269790132396e-02,-4.210678773186395801e-02
8.709999999999999964e-01,8.872706919299276629e-03,1.974673800116952607e-02,-9.250985033882826863e-03
8.719999999999999973e-01,-4.578154442553668962e-02,5.293822765870225683e-02,1.625253858168445795e-02
8.729999999999999982e-01,-9.173260031563136574e-02,8.296875027750255649e-02,4.398552759414190577e-02
8.739999999999999991e-01,-1.233757772721884999e-01,1.096920824818285733e-01,5.370703412700876533e-02
8.750000000000000000e-01,-1.175289694109332844e-01,1.255853428082364664e-01,8.751738666048936022e-02
8.760000000000000009e-01,-1.332328486441362037e-01,1.124198588933093407e-01,8.542516133020391922e-02
8.770000000000000018e-01,-1.096527420745215947e-01,8.162851451576771944e-02,8.756782923498851456e-02
8.780000000000000027e-01,-8.583715041383230271e-02,5.679696683824444342e-02,6.583524586499744924e-02
8.790000000000000036e-01,-4.468944214850670976e-02,2.909775064148813900e-02,4.369614838575095611e-02
8.800000000000000044e-01,-1.330149209953986750e-02,-2.112138602202860704e-02,2.157736277704673869e-02
8.810000000000000053e-01,6.124236281589341691e-02,-6.386080080664238712e-02,-2.003839352841571206e-02
8.820000000000000062e-01,9.962300247683938959e-02,-9.647139916165148321e-02,-2.941975984105158967e-02
8.830000000000000071e-01,1.306560277251488933e-01,-1.067491798351882931e-01,-6.044028955936714409e-02
8.840000000000000080e-01,1.464201883932741144e-01,-1.076375832693468870e-01,-8.828392306765292519e-02
8.850000000000000089e-01,1.319527111829116306e-01,-1.010355018265255700e-01,-1.040577376263579212e-01
8.860000000000000098e-01,1.286773406701440803e-01,-6.979526660054335974e-02,-8.865696164328604190e-02
8.870000000000000107e-01,9.050512204986944920e-02,-5.259968403097483453e-02,-6.104705246723148709e-02
8.880000000000000115e-01,4.800500111185689034e-02,-1.271593917837583569e-02,-4.694401377078991772e-02
8.890000000000000124e-01,-1.151865455201090890e-02,3.068922137736009373e-02,-9.860987325334963707e-03
8.900000000000000133e-01,-6.080568052791292949e-02,6.739550840782480845e-02,2.102692154089403145e-02
8.910000000000000142e-01,-8.675684805261806021e-02,9.909690639772469889e-02,2.909086232642467060e-02
8.920000000000000151e-01,-1.269077535425676417e-01,9.725628692097167127e-02,6.369482774271140180e-02
8.930000000000000160e-01,-1.486011905558483615e-01,1.027212158874265535e-01,6.801358956051442584e-02
8.940000000000000169e-01,-1.312090262071538838e-01,9.809415399121189372e-02,1.023082782484665137e-01
8.950000000000000178e-01,-1.221119826579594586e-01,7.672220981707245091e-02,6.764612301661475369e-02
8.960000000000000187e-01,-8.014841812131361098e-02,2.841828077896815449e-02,6.422138702744964456e-02
8.970000000000000195e-01,-4.465361130086752811e-02,-1.901494452429444541e-04,3.707162484914348216e-02
8.980000000000000204e-01,1.790712752637175012e-02,-4.374904763648585632e-02,1.992367658807324762e-02
8.990000000000000213e-01,6.643552396911706071e-02,-7.206441907671200242e-02,-7.513753225646371998e-03
9.000000000000000222e-01,1.041265040255090896e-01,-9.039854395510515950e-02,-4.541921417817394030e-02
9.010000000000000231e-01,1.235657023846704478e-01,-1.267751712123766361e-01,-7.374027728945486970e-02
9.020000000000000240e-01,1.437076250468905525e-01,-1.260345520961060617e-01,-7.775892049273536166e-02
9.030000000000000249e-01,1.426633523735170439e-01,-9.278962739873448939e-02,-9.411336267508055298e-02
9.040000000000000258e-01,1.169645075596403433e-01,-5.433796813941148274e-02,-9.848943181946132053e-02
9.050000000000000266e-01,7.792008395328223203e-02,-2.803806695066791976e-02,-6.555212597254750362e-02
9.060000000000000275e-01,2.347224593308372062e-02,9.385845824675945887e-03,-2.848892698603382179e-02
9.070000000000000284e-01,-1.429907837482884657e-02,6.600642084825876499e-02,-1.868794427101638442e-02
9.080000000000000293e-01,-6.048720101108961272e-02,8.313742490567956056e-02,1.758793262797588366e-02
9.090000000000000302e-01,-9.667847910497306962e-02,1.161089049598869188e-01,3.828390228052421657e-02
9.100000000000000311e-01,-1.334198160519780296e-01,1.257451534378982438e-01,7.090053402949290928e-02
9.110000000000000320e-01,-1.465059238792850438e-01,1.170269865745121735e-01,7.731435960587226819e-02
9.120000000000000329e-01,-1.340888082855503649e-01,7.806612969497869758e-02,9.028489455074888148e-02
9.130000000000000338e-01,-9.925863758283035021e-02,5.281257757504141670e-02,9.634757976730279339e-02
9.140000000000000346e-01,-7.712879451764405314e-02,1.968311534360003834e-02,7.224929461411272458e-02
9.150000000000000355e-01,-2.377849081253745334e-02,-3.257498292670248097e-02,4.146308797080210801e-02
9.160000000000000364e-01,2.954470874464025856e-02,-5.726742722860649754e-02,1.032125693236145107e-02
9.170000000000000373e-01,7.020057206628692315e-02,-8.845583187031781647e-02,-1.812759598243148321e-02
9.180000000000000382e-01,1.139908210930447308e-01,-1.012774762189123656e-01,-4.642858742183966769e-02
9.190000000000000391e-01,1.409446413038248913e-01,-1.302539088706743953e-01,-5.999363214801316929e-02
9.200000000000000400e-01,1.457793675360086472e-01,-1.096520066673717653e-01,-7.582577258109772511e-02
9.210000000000000409e-01,1.277376369054024075e-01,-1.028070844084993385e-01,-7.672479720270269921e-02
9.220000000000000417e-01,1.162129347755986447e-01,-5.522444715795915560e-02,-8.378610462646615686e-02
9.230000000000000426e-01,7.075730446860432898e-02,-1.622576456964109834e-02,-5.268132984187446494e-02
9.240000000000000435e-01,2.244990519421918851e-02,2.943190675511161980e-02,-3.459098667643301789e-02
9.250000000000000444e-01,-3.620174005755717045e-02,6.036648645815389375e-02,-2.522487404022513702e-02
9.260000000000000453e-01,-7.927698918838732567e-02,9.379055981769633676e-02,1.665945481827749847e-02
9.270000000000000462e-01,-1.270428612977950455e-01,1.064499892495046479e-01,4.157996910570414123e-02
9.280000000000000471e-01,-1.236313649093419842e-01,1.150551486284293740e-01,5.427526734030854033e-02
9.290000000000000480e-01,-1.354812195910987394e-01,9.085346350147070760e-02,9.118160236563038756e-02
9.300000000000000488e-01,-1.300357508381316529e-01,8.206510253245069553e-02,8.279013651573838284e-02
9.310000000000000497e-01,-1.113808048906015646e-01,3.149816876862261000e-02,7.923871012362343480e-02
9.320000000000000506e-01,-5.835763495762067571e-02,1.147438077782607542e-02,6.475662751389947569e-02
9.330000000000000515e-01,-1.143972890252649595e-02,-3.607493787372355321e-02,3.659568266661948621e-02
9.340000000000000524e-01,3.565044127286284836e-02,-7.603473370250549146e-02,9.707752388799171725e-03
9.350000000000000533e-01,8.311677205634572518e-02,-1.040491717434792324e-01,-2.057169113045640568e-02
9.360000000000000542e-01,1.108949287542549261e-01,-1.216526896895014365e-01,-5.274422086584458491e-02
9.370000000000000551e-01,1.416784663799826871e-01,-1.160286347313597699e-01,-6.683587195959718452e-02
9.379999999999999449e-01,1.404539557390410698e-01,-1.018967968001142782e-01,-8.407216914020121390e-02
9.389999999999999458e-01,1.428661129492527215e-01,-6.144218051405989089e-02,-9.974887078481692315e-02
9.399999999999999467e-01,9.226012343445609554e-02,-2.088282114953596627e-02,-7.313287262819929968e-02
9.409999999999999476e-01,4.690051376102086222e-02,3.879590000876877599e-03,-6.725424099394647359e-02
9.419999999999999485e-01,-1.522955774575835591e-04,3.282515515970022696e-02,-3.853402996643349315e-02
9.429999999999999494e-01,-4.656487359341012627e-02,7.580355886791666220e-02,2.444700163365439837e-03
9.439999999999999503e-01,-8.210447521170383123e-02,9.724831170776729317e-02,3.521726284155926590e-02
9.449999999999999512e-01,-1.283725389059128252e-01,1.116344419342281402e-01,5.238343043105361807e-02
9.459999999999999520e-01,-1.372210898697544257e-01,8.543412101143037229e-02,8.011156910734960890e-02
9.469999999999999529e-01,-1.471703628056287294e-01,1.002181040257194983e-01,8.640420663006065372e-02
9.479999999999999538e-01,-1.367694629654311600e-01,6.886633502794750616e-02,9.466851258026967586e-02
9.489999999999999547e-01,-1.086161698088828065e-01,3.320747567392468708e-02,7.742642676557649761e-02
9.499999999999999556e-01,-3.765223114944891286e-02,-1.668865929330772338e-02,5.995766487797598437e-02
9.509999999999999565e-01,1.631552650432107785e-03,-4.863326504724189286e-02,4.005527004169567862e-02
9.519999999999999574e-01,5.533254912109411561e-02,-8.792811573876908871e-02,-3.672577033514215494e-03
9.529999999999999583e-01,9.763379610875573544e-02,-1.122394505732000475e-01,-2.004582941453886616e-02
9.539999999999999591e-01,1.236929757552462927e-01,-1.081060065685072596e-01,-5.470110984087311196e-02
9.549999999999999600e-01,1.397474545166023929e-01,-1.072839552451161638e-01,-6.122593597911867719e-02
9.559999999999999609e-01,1.365224716225283685e-01,-9.407058316861302560e-02,-7.620530604823086418e-02
9.569999999999999618e-01,1.209859348086494146e-01,-5.971300663909815537e-02,-8.402278309778339616e-02
9.579999999999999627e-01,7.192982490099061876e-02,-9.654327947174252966e-03,-8.109193709945111683e-02
9.589999999999999636e-01,4.240086366754974162e-02,1.895157387855906164e-02,-5.004495975611979869e-02
9.599999999999999645e-01,-1.080611944001247035e-02,4.934835637598804226e-02,-2.873218104674208143e-02
9.609999999999999654e-01,-4.995155600370396187e-02,8.882867104206644548e-02,-1.267703321266954244e-02
9.619999999999999662e-01,-8.715117487041477984e-02,1.160914602149151487e-01,2.826539371604232589e-02
9.629999999999999671e-01,-1.254988630712567388e-01,1.225620770151952532e-01,4.686628110335518821e-02
9.639999999999999680e-01,-1.316349656965083714e-01,1.124081733227411534e-01,6.656795813930709016e-02
9.649999999999999689e-01,-1.465359200252793759e-01,9.427961255100394955e-02,8.454528843863395871e-02
9.659999999999999698e-01,-1.087614623345148496e-01,4.701452287359095955e-02,7.982242891401646057e-02
9.669999999999999707e-01,-7.403693150353990449e-02,5.729754638091692429e-03,8.225897566397520622e-02
9.679999999999999716e-01,-4.297573314163553176e-02,-3.493404166106395259e-02,6.202103290571343852e-02
9.689999999999999725e-01,2.412773612175887067e-02,-6.701673860633546032e-02,4.333855733951382655e-02
9.699999999999999734e-01,6.091309560248462512e-02,-9.338620912821135600e-02,-3.522674889898066205e-04
9.709999999999999742e-01,1.112430816308007941e-01,-1.034903554380923740e-01,-2.914821194133596430e-02
9.719999999999999751e-01,1.456718194596118565e-01,-1.039772317046387257e-01,-5.116858007678481979e-02
9.729999999999999760e-01,1.434038651548416865e-01,-8.984967966193228850e-02,-7.459430912795557422e-02
9.739999999999999769e-01,1.415862468810673291e-01,-8.078245279907832199e-02,-8.735588944094312136e-02
9.749999999999999778e-01,1.013840465225522985e-01,-3.037384205964836076e-02,-8.219261700739197152e-02
9.759999999999999787e-01,6.443902578759129474e-02,7.912684386995809220e-04,-7.295432726680448066e-02
9.769999999999999796e-01,2.195721033160241698e-02,4.663216030656807537e-02,-6.642237651412219446e-02
9.779999999999999805e-01,-4.354458115224288384e-02,9.150855917546003859e-02,-3.126108866480929727e-02
9.789999999999999813e-01,-8.134953815711541691e-02,1.009324265388363978e-01,-8.637553344910535100e-03
9.799999999999999822e-01,-1.095402105972791279e-01,1.184437219538848340e-01,2.792972319215585725e-02
9.809999999999999831e-01,-1.286266062598191429e-01,1.045968050363472734e-01,5.201971526634491944e-02
9.819999999999999840e-01,-1.242587490210668721e-01,8.913825547768655655e-02,8.174421615169225053e-02
9.829999999999999849e-01,-1.219667929372883486e-01,7.304706730186501240e-02,8.683371848976485785e-02
9.839999999999999858e-01,-1.046190160736315544e-01,2.488472276719298076e-02,9.416617101946216095e-02
9.849999999999999867e-01,-6.690905674954727989e-02,-1.579030666831981664e-02,8.169099601614604467e-02
9.859999999999999876e-01,-1.013095272146582841e-02,-5.806608668084409924e-02,5.720607168952926425e-02
9.869999999999999885e-01,2.468669861106115651e-02,-8.166046970439543029e-02,2.870979511564344250e-02
9.879999999999999893e-01,8.895659186707235988e-02,-1.047268507633274809e-01,2.878983223972224337e-03
9.889999999999999902e-01,1.223626911018668578e-01,-1.218816228235714699e-01,-3.126637019606112733e-02
9.899999999999999911e-01,1.396187494803369233e-01,-9.812306937444341404e-02,-5.583392345255324546e-02
9.909999999999999920e-01,1.485553198064117064e-01,-8.371424935263681311e-02,-7.361306875560721941e-02
9.919999999999999929e-01,1.321267602387063700e-01,-5.479708501284701050e-02,-8.802355971060613071e-02
9.929999999999999938e-01,1.015238444304496640e-01,-3.669960106608182587e-02,-7.291223328978531371e-02
9.939999999999999947e-01,6.265427551482265212e-02,3.899232508628245469e-02,-7.863888774530754244e-02
9.949999999999999956e-01,2.057073636032107078e-02,5.565194060630740402e-02,-5.722302357409491530e-02
9.959999999999999964e-01,-4.643184337116287863e-02,7.765240899935819952e-02,-2.757606813745834898e-02
9.969999999999999973e-01,-7.815855281176745106e-02,1.190494523553535244e-01,8.082266471308618278e-03
9.979999999999999982e-01,-1.130390566308142331e-01,1.065265392801671152e-01,3.260384575223096437e-02
9.989999999999999991e-01,-1.363797404710779815e-01,1.160301156967650793e-01,5.203805328984925649e-02
1.000000000000000000e+00,-1.422304883910899542e-01,8.096409590133366030e-02,7.145209708911762214e-02
1.000999999999999890e+00,-1.161001014977852824e-01,4.543318517558696257e-02,8.399773066874269278e-02
1.002000000000000002e+00,-1.011960319168120209e-01,8.804013851798520029e-03,8.676169510521712647e-02
1.002999999999999892e+00,-5.101826589306484444e-02,-1.612380399033632589e-02,5.810952579719050326e-02
1.004000000000000004e+00,-1.482212544246620974e-02,-6.812379703730048197e-02,5.026879199063363085e-02
1.004999999999999893e+00,4.520953568754225438e-02,-9.230555853923538834e-02,2.297828179048238065e-02
1.006000000000000005e+00,9.225535794169402448e-02,-1.157852840646937803e-01,6.177294604460053899e-03
1.006999999999999895e+00,1.155025044458791311e-01,-1.081760125616082480e-01,-2.273424197985592088e-02
1.008000000000000007e+00,1.380716452283394513e-01,-9.384893662903802392e-02,-4.481381552083824049e-02
1.008999999999999897e+00,1.428419006182852780e-01,-9.014130691259954198e-02,-6.578316672675350862e-02
1.010000000000000009e+00,1.351296173160333736e-01,-3.949493748682417205e-02,-7.890817035023392489e-02
1.010999999999999899e+00,9.940219931758140226e-02,-3.988648535550616027e-03,-8.400869401111837886e-02
1.012000000000000011e+00,4.241537185227482049e-02,4.281826071208241075e-02,-7.900228169655189314e-02
1.012999999999999901e+00,-4.304375427097872735e-03,7.268879813000038437e-02,-5.083232268389005493e-02
1.014000000000000012e+00,-5.293830562054736844e-02,9.512301470023093453e-02,-1.992453391634914361e-02
1.014999999999999902e+00,-8.960925606172640001e-02,1.107512450660167319e-01,3.865945821593529293e-03
1.016000000000000014e+00,-1.152316423290544040e-01,1.064585288760432763e-01,4.520981173652759144e-02
1.016999999999999904e+00,-1.465870233254581989e-01,1.022248105311091976e-01,6.284216442522098933e-02
1.018000000000000016e+00,-1.432899772436971864e-01,7.482521345505011023e-02,8.022534505774946145e-02
1.018999999999999906e+00,-1.322766876815192338e-01,3.735046489158998229e-02,8.929602591446297866e-02
1.020000000000000018e+00,-9.273730124374002237e-02,-7.008583562923526022e-03,8.224279795738463628e-02
1.020999999999999908e+00,-5.083557785662893430e-02,-2.579684003369969031e-02,6.685916153606549783e-02
1.022000000000000020e+00,9.929757813928121943e-03,-8.022562365590453493e-02,5.821675486004578015e-02
1.022999999999999909e+00,6.303119080627217485e-02,-1.084830349690666801e-01,3.396353410497267994e-02
1.024000000000000021e+00,9.015548915040748346e-02,-1.194378536927844514e-01,-1.114638202535000663e-02
1.024999999999999911e+00,1.239528569254568918e-01,-1.186798331614524193e-01,-2.944956926532104127e-02
1.026000000000000023e+00,1.297499824399336865e-01,-9.438149539029092039e-02,-4.550438172281034283e-02
1.026999999999999913e+00,1.334312504216829121e-01,-6.493358791786889295e-02,-8.084768302054660960e-02
1.028000000000000025e+00,1.230304032279258414e-01,-1.935464781763188494e-02,-7.246882604952703533e-02
1.028999999999999915e+00,7.936048479318476290e-02,5.207574221588485812e-03,-8.201947434293209438e-02
1.030000000000000027e+00,3.050170617694155165e-02,5.277417806157418123e-02,-7.612979500408934008e-02
1.030999999999999917e+00,-1.751686423132759601e-02,8.745439237744793981e-02,-5.795785404449635414e-02
1.032000000000000028e+00,-6.982664881698957826e-02,1.114144522767229195e-01,-2.054050203903349039e-02
1.032999999999999918e+00,-1.055925897826733434e-01,1.140370669400607856e-01,-8.389246802494114072e-03
1.034000000000000030e+00,-1.298567668668068609e-01,9.563176209192221500e-02,2.922238344257193851e-02
1.034999999999999920e+00,-1.490927724037581503e-01,8.339067766779582891e-02,6.821719069792885060e-02
1.036000000000000032e+00,-1.342079532572015843e-01,4.833506032805404140e-02,7.656601281890478006e-02
1.036999999999999922e+00,-1.193736057745560103e-01,1.924782287164700234e-02,7.950210606821002390e-02
1.038000000000000034e+00,-7.462772626975534840e-02,-2.273577093290361090e-02,8.464014920176828050e-02
1.038999999999999924e+00,-1.995604277576813398e-02,-6.847918452937158673e-02,7.429263269296024208e-02
1.040000000000000036e+00,1.127640889836575150e-02,-9.596885415657159524e-02,4.727513557053301951e-02
1.040999999999999925e+00,6.117122998551213775e-02,-1.104879154292192217e-01,1.830089086166877127e-02
1.042000000000000037e+00,1.124376931610982511e-01,-1.322488266202403451e-01,-7.046301801846619958e-03
1.042999999999999927e+00,1.272848075124270173e-01,-9.722754115053722224e-02,-3.919063907287528847e-02
1.044000000000000039e+00,1.399046867469868893e-01,-7.665617929079432402e-02,-5.644296540203250223e-02
1.044999999999999929e+00,1.333967172198686768e-01,-4.044288008116672661e-02,-7.336528508707884644e-02
1.046000000000000041e+00,1.149134235546360877e-01,-8.968536903343251807e-03,-8.533127243391669392e-02
1.046999999999999931e+00,7.168009183004242502e-02,2.923137518024948936e-02,-9.657470709789348073e-02
1.048000000000000043e+00,1.921161822974080599e-02,7.567716858429934801e-02,-5.976537441275069085e-02
1.048999999999999932e+00,-3.559181199717613431e-02,1.096981142130703385e-01,-5.113105310342888621e-02
1.050000000000000044e+00,-6.420434692140328248e-02,1.175469070521410614e-01,-1.395177563785847917e-02
1.050999999999999934e+00,-1.111120349883518293e-01,1.093123625016118178e-01,2.998652963084735747e-03
1.052000000000000046e+00,-1.402565591874518069e-01,1.092906946362756648e-01,5.198746303665375407e-02
1.052999999999999936e+00,-1.414915184054064967e-01,8.681653583516427131e-02,7.030099828805265461e-02
1.054000000000000048e+00,-1.282257053208648578e-01,4.844286915849117803e-02,7.871509979910698562e-02
1.054999999999999938e+00,-1.018820829674512568e-01,-2.707533524970412442e-03,1.019940724906633345e-01
1.056000000000000050e+00,-6.713500620945062058e-02,-2.776235933736700967e-02,8.829563037932537661e-02
1.056999999999999940e+00,-1.819415810839300485e-02,-8.553123368057027887e-02,7.521397655399340854e-02
1.058000000000000052e+00,3.126727654156324920e-02,-1.008584613771832394e-01,5.394710166199782192e-02
1.058999999999999941e+00,7.559204430141497344e-02,-1.134462814064382818e-01,2.059882023199005943e-02
1.060000000000000053e+00,1.135102965727853574e-01,-1.113300665930609806e-01,-7.941364635983766754e-03
1.060999999999999943e+00,1.405594135352495055e-01,-8.551065204782976048e-02,-4.669064871472076300e-02
1.062000000000000055e+00,1.427166108901291308e-01,-6.250807232037532135e-02,-6.618232852675405564e-02
1.062999999999999945e+00,1.310544138376021628e-01,-7.235643198803405965e-03,-7.076355856297826541e-02
1.064000000000000057e+00,1.036651612267969064e-01,1.407924700477728233e-02,-9.116006054690735383e-02
1.064999999999999947e+00,5.551932000469198686e-02,4.973611031894236562e-02,-7.449334224561081352e-02
1.066000000000000059e+00,1.267671312332688434e-02,7.960845558721588167e-02,-7.790410714563737737e-02
1.066999999999999948e+00,-3.308568690575648674e-02,1.064278526584293144e-01,-5.118291778280724402e-02
1.068000000000000060e+00,-1.000037991602924226e-01,1.048546151273813121e-01,-1.845889132602580168e-02
1.068999999999999950e+00,-1.273810671442983378e-01,1.091902960507992043e-01,1.238133977852629583e-03
1.070000000000000062e+00,-1.371892714682823589e-01,8.516692332630458606e-02,4.495865262865919587e-02
1.070999999999999952e+00,-1.440277181905243176e-01,5.172678100235583026e-02,5.197602263329390709e-02
1.072000000000000064e+00,-1.221919626435813838e-01,2.316730593791678158e-02,1.026109487744998189e-01
1.072999999999999954e+00,-8.980433780782916264e-02,-1.043307913958531341e-02,7.750308589120732949e-02
1.074000000000000066e+00,-4.528377644176762723e-02,-4.781233462715823307e-02,8.543331870253140226e-02
1.074999999999999956e+00,-6.952625779021157082e-03,-7.830319164993522485e-02,6.497394683383053704e-02
1.076000000000000068e+00,6.003064161199869048e-02,-1.159744188848749885e-01,4.270053345406123885e-02
1.076999999999999957e+00,1.026371282876777230e-01,-1.108373284150166449e-01,5.996942730620341035e-03
1.078000000000000069e+00,1.171905548119004936e-01,-1.061628664961162816e-01,-5.463252511277305254e-03
1.078999999999999959e+00,1.419341726144552618e-01,-8.195205079814628368e-02,-3.109493458545605979e-02
1.080000000000000071e+00,1.425856369621873732e-01,-5.084408872221143905e-02,-6.541748514469412912e-02
1.080999999999999961e+00,1.088354163877511549e-01,-1.851466394829718578e-03,-9.023596415505799606e-02
1.082000000000000073e+00,8.777992681268917408e-02,2.994037383971568170e-02,-8.212005361384219770e-02
1.082999999999999963e+00,4.203872750940369774e-02,6.156050203124747294e-02,-7.294547353348114493e-02
1.084000000000000075e+00,2.030752130612196657e-03,1.021114480803196056e-01,-7.666684098706734452e-02
1.084999999999999964e+00,-6.194647565253595667e-02,1.042252455740437095e-01,-4.308105560539947365e-02
1.086000000000000076e+00,-9.855743419398312055e-02,1.174637349549621235e-01,-1.290978701101777419e-02
1.086999999999999966e+00,-1.256295575468814596e-01,1.188314455157662292e-01,1.417553585961920867e-02
1.088000000000000078e+00,-1.310777853660085313e-01,6.632761816929366727e-02,4.903910504445115753e-02
1.088999999999999968e+00,-1.362744759509957881e-01,3.809498575153817679e-02,6.323178487948592774e-02
1.090000000000000080e+00,-1.209717841636795965e-01,6.574712112085600267e-03,8.646452499119404445e-02
1.090999999999999970e+00,-8.304759731419560087e-02,-5.626989560244981953e-02,7.242724890867115184e-02
1.092000000000000082e+00,-3.466581624617014190e-02,-7.019813964750011570e-02,8.308184514099799245e-02
1.092999999999999972e+00,9.797098252180599931e-03,-9.250911069497139150e-02,6.138322915526010087e-02
1.094000000000000083e+00,5.564508227486942432e-02,-1.116884383232013001e-01,3.598070907793066847e-02
1.094999999999999973e+00,1.040846508781528151e-01,-1.066213936799186995e-01,1.998447093406284167e-02
1.096000000000000085e+00,1.405945899744237837e-01,-1.017012633002380428e-01,-1.191842484395594197e-02
1.096999999999999975e+00,1.430697660855710374e-01,-6.013826549357619011e-02,-3.685548947323942504e-02
1.098000000000000087e+00,1.362534696588063310e-01,-3.942516616619251568e-02,-6.774470138949449660e-02
1.098999999999999977e+00,1.193130549478022967e-01,-1.363825408531572914e-02,-7.354190922542105935e-02
1.100000000000000089e+00,7.493997082449849190e-02,3.443390338566545278e-02,-7.952343480982337898e-02
1.100999999999999979e+00,3.167736942295356489e-02,7.352050909996001027e-02,-7.795767674398496050e-02
1.102000000000000091e+00,-1.595459045634678094e-02,9.999402572957571955e-02,-6.601194343069681503e-02
1.102999999999999980e+00,-6.777323895741080295e-02,1.117696067982832525e-01,-4.434269937590164246e-02
1.104000000000000092e+00,-1.156016902868005070e-01,1.093718552682981099e-01,-1.638776704071281259e-02
1.104999999999999982e+00,-1.247089554037870002e-01,9.512877247857237650e-02,1.505431003357754136e-02
1.106000000000000094e+00,-1.354096806545718179e-01,5.576870464361927821e-02,4.663869162512361555e-02
1.106999999999999984e+00,-1.343862047925350189e-01,2.582253543650090896e-02,6.708103084635783087e-02
1.108000000000000096e+00,-1.028854065786447836e-01,-1.431715283086938857e-02,8.995173764934659422e-02
1.108999999999999986e+00,-7.157446753987932453e-02,-5.035594111107329074e-02,8.298331027308905594e-02
1.110000000000000098e+00,-2.258789750804708271e-02,-8.978818393809903653e-02,7.806785609103060464e-02
1.110999999999999988e+00,2.480567099275200402e-02,-9.978944351976423710e-02,6.164754187136464031e-02
1.112000000000000099e+00,7.457249781538262401e-02,-1.088103269193930051e-01,1.609737142110543098e-02
1.112999999999999989e+00,1.113722400057574474e-01,-1.130988787625922948e-01,1.999258819740404314e-02
1.114000000000000101e+00,1.324489394665613606e-01,-7.847808477875657662e-02,-2.850417680862859030e-02
1.114999999999999991e+00,1.399068900739882937e-01,-5.998195878597799985e-02,-4.832561843076747105e-02
1.116000000000000103e+00,1.329961441280635148e-01,-3.686374144218082429e-03,-6.596911642208541648e-02
1.116999999999999993e+00,1.064736391075194327e-01,1.815779134861439381e-02,-8.533134728230462596e-02
1.118000000000000105e+00,6.339057936971877194e-02,6.684359126159818143e-02,-9.362882262775550080e-02
1.118999999999999995e+00,2.559273551802452445e-02,9.742937047314519095e-02,-8.631338647820567533e-02
1.120000000000000107e+00,-3.643396656295858765e-02,1.094773434126442707e-01,-5.895661911722080428e-02
1.120999999999999996e+00,-7.131228479143718324e-02,1.197558159395476773e-01,-4.348728378312836235e-02
1.122000000000000108e+00,-1.055952832194122781e-01,1.063859119562717004e-01,-2.695815077354650133e-02
1.122999999999999998e+00,-1.368027267714102269e-01,7.915224322966432635e-02,1.325590853894679719e-02
1.124000000000000110e+00,-1.399883762944722221e-01,4.829674367316690031e-02,4.558161498370808667e-02
1.125000000000000000e+00,-1.306353143269691208e-01,9.956713310204799629e-04,6.105942731373976279e-02
1.125999999999999890e+00,-1.056951166487264532e-01,-2.752803150730835646e-02,7.916170669200184307e-02
1.127000000000000002e+00,-5.392306689859729940e-02,-6.183884470864312033e-02,9.542422800006415684e-02
1.127999999999999892e+00,-9.693922335760043682e-03,-9.069993145127941414e-02,9.096617846780873096e-02
1.129000000000000004e+00,5.029384502014557640e-02,-1.227944914318562092e-01,5.868640384624924239e-02
1.129999999999999893e+00,7.907494020312938465e-02,-1.184967076891509097e-01,4.990272086142403390e-02
1.131000000000000005e+00,1.115939790566653628e-01,-1.130522681875266305e-01,2.375156545954885609e-02
1.131999999999999895e+00,1.315645131817802238e-01,-8.336873264338802436e-02,-1.448225835660071036e-02
1.133000000000000007e+00,1.574268706674300244e-01,-4.448625286088683101e-02,-4.236005337113381980e-02
1.133999999999999897e+00,1.367318547205854107e-01,-9.018355919359878625e-03,-6.266458244094942620e-02
1.135000000000000009e+00,1.007482431776239168e-01,3.413773807344119143e-02,-8.747432565423672590e-02
1.135999999999999899e+00,6.077809974497118406e-02,8.545310543364022238e-02,-8.244785459831270591e-02
1.137000000000000011e+00,-3.580354310804185775e-04,9.603991894025977472e-02,-7.686944398909088816e-02
1.137999999999999901e+00,-3.866051151187904766e-02,1.103061330597340517e-01,-5.804837909000565288e-02
1.139000000000000012e+00,-8.957950815486405427e-02,1.108879871560064512e-01,-5.075861804698692664e-02
1.139999999999999902e+00,-1.268821557213403450e-01,9.362296702271488691e-02,-1.108667612926136914e-02
1.141000000000000014e+00,-1.481602907191946483e-01,6.421260862675529091e-02,1.645519371251956756e-02
1.141999999999999904e+00,-1.282311062594655715e-01,4.138713531503485782e-02,4.741908114058435847e-02
1.143000000000000016e+00,-1.260001299463680835e-01,-3.616116305981684816e-04,6.534043164884141552e-02
1.143999999999999906e+00,-1.088786147307126417e-01,-5.588463192342647129e-02,7.221040751257906676e-02
1.145000000000000018e+00,-3.575480000615031961e-02,-8.513668917568066596e-02,8.242833550225277250e-02
1.145999999999999908e+00,3.472513551462977268e-03,-1.033944014748283541e-01,7.272327946425356793e-02
1.147000000000000020e+00,5.252411083315755569e-02,-1.199341670967318252e-01,6.657849929125901622e-02
1.147999999999999909e+00,9.300614196429557445e-02,-1.042680056681122291e-01,2.758591610407652023e-02
1.149000000000000021e+00,1.460671109523433153e-01,-9.712953541191053641e-02,2.324233509117622914e-02
1.149999999999999911e+00,1.317794046003836761e-01,-5.294814104180223246e-02,-2.572256110893551828e-02
1.151000000000000023e+00,1.359677739396237262e-01,-1.566574895378567214e-02,-4.042319025189883286e-02
1.151999999999999913e+00,1.172961906949162303e-01,1.796123919243240025e-02,-5.584384410551774397e-02
1.153000000000000025e+00,9.733049578035969651e-02,5.134156292630269458e-02,-8.243626128777174766e-02
1.153999999999999915e+00,4.320754568569639548e-02,7.902731695321936478e-02,-7.059499096038851507e-02
1.155000000000000027e+00,-7.836152017780515650e-03,9.492320152030314651e-02,-7.200377508393135395e-02
1.155999999999999917e+00,-5.482648511490435111e-02,1.112751966451969998e-01,-5.984777295672970288e-02
1.157000000000000028e+00,-8.974951700586462910e-02,1.079151548514324099e-01,-4.141687643741197300e-02
1.157999999999999918e+00,-1.311239593344352972e-01,8.775433624977214964e-02,-2.465871871339976422e-03
1.159000000000000030e+00,-1.379311669079842373e-01,5.222551792076307597e-02,2.235511660852588026e-02
1.159999999999999920e+00,-1.411203153821587730e-01,9.484089861606976105e-03,4.215456678871701973e-02
1.161000000000000032e+00,-1.238756239924488772e-01,-1.977173505295291497e-02,5.603124396676682079e-02
1.161999999999999922e+00,-7.249177715030546976e-02,-7.009976273321788520e-02,9.230929857622442725e-02
1.163000000000000034e+00,-2.218090322978862744e-02,-9.450649052986073717e-02,8.055252914667192232e-02
1.163999999999999924e+00,1.740782641437381775e-02,-1.135635684642332249e-01,7.693177448667307128e-02
1.165000000000000036e+00,5.612406719568231728e-02,-1.106574177794321379e-01,6.127998817835535877e-02
1.165999999999999925e+00,1.092698488695831027e-01,-1.111198068089377378e-01,2.020835270244063578e-02
1.167000000000000037e+00,1.209356692784030046e-01,-9.432855968780831657e-02,7.095107292568163943e-03
1.167999999999999927e+00,1.401213378253707564e-01,-3.750077190955450335e-02,-1.608585395907874416e-02
1.169000000000000039e+00,1.415853316723159894e-01,-8.027852127467689433e-03,-4.385873898121524922e-02
1.169999999999999929e+00,1.035104837237695724e-01,4.031576755278250962e-02,-6.890407321855340772e-02
1.171000000000000041e+00,7.252113991165649864e-02,7.315719660334638053e-02,-7.373492531808897854e-02
1.171999999999999931e+00,2.743477240598055089e-02,1.005928228004602243e-01,-8.666529297953305677e-02
1.173000000000000043e+00,-7.225771908114247619e-03,1.167933471718290428e-01,-8.239763989344710271e-02
1.173999999999999932e+00,-8.111005482285885138e-02,1.140126157019973469e-01,-5.340918171100188933e-02
1.175000000000000044e+00,-1.069731039172153592e-01,9.590402348752587181e-02,-2.967873342041105200e-02
1.175999999999999934e+00,-1.311619373639552333e-01,6.809749588284830235e-02,-6.277071373290693881e-03
1.177000000000000046e+00,-1.548965349384918977e-01,4.070073842882605125e-02,2.401140004844274506e-02
1.177999999999999936e+00,-1.364597669003069502e-01,-7.065843093470640553e-03,6.599219449057829034e-02
1.179000000000000048e+00,-9.329086648525751480e-02,-5.245193796399138381e-02,6.827507559240954260e-02
1.179999999999999938e+00,-6.814909103362223886e-02,-7.597750072793407750e-02,9.070795125324834784e-02
