time,acc_x,acc_y,acc_z
0.000000000000000000e+00,-2.691080898253525033e-01,-1.013624914784848619e-01,-1.894747743526424832e-01
1.000000000000000021e-03,1.010909854756104204e-01,2.169799133741846242e-01,-1.726793309122277853e-02
2.000000000000000042e-03,2.197706206561893250e-01,3.683261744613055555e-01,4.664336557019060914e-02
3.000000000000000062e-03,7.980813189174618127e-02,2.383727091878728443e-01,-6.874207350868884181e-02
4.000000000000000083e-03,-1.166198477496605268e-01,8.016614217956417876e-02,-2.071944734097243557e-01
5.000000000000000104e-03,-2.094632241313319765e-01,-1.659762314740522446e-03,-2.647552123737200724e-01
6.000000000000000125e-03,1.996084848572665660e-02,1.238266346622795694e-01,-1.184812101116065747e-01
7.000000000000000146e-03,4.660490750662327764e-01,4.040718326793403814e-01,1.555124403595544436e-01
8.000000000000000167e-03,7.853357346878726553e-01,5.950848075731782760e-01,4.651837966770738797e-01
8.999999999999999320e-03,8.600957582835152548e-01,5.748384274204706434e-01,5.428072556837444385e-01
1.000000000000000021e-02,5.516936403376443421e-01,2.723686564191574178e-01,4.359177829284766048e-01
1.099999999999999936e-02,7.131507007491556804e-02,-1.654943141193364609e-01,1.940648549445111448e-01
1.200000000000000025e-02,-3.153774550847261993e-01,-4.243780122883695771e-01,-6.185283946649282327e-02
1.299999999999999940e-02,-3.800528959261638695e-01,-4.207644728020442648e-01,-1.055820811060920461e-01
1.400000000000000029e-02,-1.191597643651960414e-01,-2.628460018965758649e-01,3.220184744312357822e-02
1.499999999999999944e-02,1.055820205400819639e-01,-2.097960875949008569e-02,1.743007238865545983e-01
1.600000000000000033e-02,1.493049426681423431e-01,1.763323650362602982e-03,2.147748802856090378e-01
1.700000000000000122e-02,-1.353415600905643612e-01,-2.153358017282810954e-01,2.499994768084360525e-02
1.799999999999999864e-02,-5.893695803023784041e-01,-4.942126302705112662e-01,-2.575113957488091021e-01
1.899999999999999953e-02,-8.872566819079992229e-01,-6.010516410852925206e-01,-4.947207521005276276e-01
2.000000000000000042e-02,-8.133043228959478954e-01,-4.363594137159730879e-01,-5.731032087804361908e-01
2.100000000000000130e-02,-3.661675421627274551e-01,-4.202955281097705414e-02,-3.909613169292265877e-01
2.199999999999999872e-02,1.760643249617866168e-01,4.141491605956223454e-01,-5.403165198763223293e-02
2.299999999999999961e-02,4.938124129510333971e-01,6.088446661880879685e-01,1.604597634573416975e-01
2.400000000000000050e-02,4.639668388020496415e-01,4.623946312639141132e-01,1.277036014886624715e-01
2.500000000000000139e-02,1.764772435428730579e-01,2.008524771608024284e-01,2.777524644472947543e-02
2.599999999999999881e-02,-1.006750937709601917e-01,-4.363307559967729427e-02,-1.127235619436980640e-01
2.699999999999999969e-02,-8.014076957565398340e-02,-6.193485910088672322e-05,-1.429233041704893459e-01
2.800000000000000058e-02,2.443562290545200355e-01,2.716917590630499868e-01,3.992997250051725372e-02
2.900000000000000147e-02,6.649020030001151493e-01,5.084617182349199238e-01,3.191969216241452578e-01
2.999999999999999889e-02,9.023983888613360538e-01,5.344133200598548683e-01,5.108464930296695572e-01
3.099999999999999978e-02,6.731056144985454459e-01,2.405954079343750884e-01,5.199647899443218257e-01
3.200000000000000067e-02,1.836411526529872218e-01,-2.037486661224667539e-01,3.177656902762354685e-01
3.300000000000000155e-02,-3.874200611556081197e-01,-6.039325251896655589e-01,5.136494002316256691e-03
3.400000000000000244e-02,-6.581019429982596369e-01,-6.656410365159605158e-01,-2.155171962657091156e-01
3.500000000000000333e-02,-5.463088487698063433e-01,-4.395393354510646611e-01,-2.428077375086736545e-01
3.599999999999999728e-02,-1.726396607607348366e-01,-9.547573165955816621e-02,-7.497382998831127188e-02
3.699999999999999817e-02,7.592357193660666248e-02,6.425880555540508521e-02,9.639030698581460554e-02
3.799999999999999906e-02,3.649532676251222851e-02,-2.935932448384051888e-02,1.204754287153901177e-01
3.899999999999999994e-02,-2.947488588906806983e-01,-2.869971655930014798e-01,-4.591375287189559257e-02
4.000000000000000083e-02,-6.931457106097546061e-01,-4.747607092669301476e-01,-3.254717315432608116e-01
4.100000000000000172e-02,-7.828519894233638698e-01,-4.111174806261854164e-01,-5.591366354056633847e-01
4.200000000000000261e-02,-5.024585342697626134e-01,-2.398464625554078047e-03,-5.109372575948888384e-01
4.299999999999999656e-02,2.512649690500115204e-02,4.351557126154965705e-01,-2.494223879840206659e-01
4.399999999999999745e-02,5.986547403854960425e-01,6.909119730565425055e-01,6.070023501356496681e-02
4.499999999999999833e-02,7.600385128391102807e-01,6.627236458473461100e-01,3.178463771728048393e-01
4.599999999999999922e-02,5.769350598068969660e-01,3.559457043181364910e-01,2.978597101776201406e-01
4.700000000000000011e-02,2.026174453515784957e-01,-3.783451925437164576e-02,1.223061820062150140e-01
4.800000000000000100e-02,-6.830946027325894565e-02,-1.486032617902359465e-01,-4.279078605887325776e-02
4.900000000000000189e-02,-3.612379598962466715e-02,-4.208390687602487495e-02,-6.189067021143535713e-02
5.000000000000000278e-02,3.146454378720598966e-01,2.538607406222572194e-01,1.161443545273736361e-01
5.099999999999999672e-02,6.469294480039569084e-01,4.019317299050552683e-01,3.545236343555297487e-01
5.199999999999999761e-02,6.313432402234712137e-01,2.049370380675231695e-01,4.881585098372384635e-01
5.299999999999999850e-02,2.895865679545787108e-01,-1.794913545364076324e-01,4.455122289768212451e-01
5.399999999999999939e-02,-2.889860114127236201e-01,-5.957591429039909015e-01,1.661352738500761761e-01
5.500000000000000028e-02,-7.406013403063931300e-01,-7.510532956621198686e-01,-1.564654302916178297e-01
5.600000000000000117e-02,-8.237942246877165697e-01,-5.610532696111957263e-01,-3.689672528356764958e-01
5.700000000000000205e-02,-5.356412855879331136e-01,-2.020039646120851407e-01,-3.731804877509105056e-01
5.800000000000000294e-02,-1.346921883751466542e-01,1.149411242298489927e-01,-1.908149538687364255e-01
5.899999999999999689e-02,7.719213069030639307e-02,1.856969447938596751e-01,6.702604541841313164e-03
5.999999999999999778e-02,1.532805490732287376e-02,3.910363398785880046e-02,3.104587549493670329e-02
6.099999999999999867e-02,-3.356897046400024731e-01,-2.704203151447828191e-01,-1.312527621225634544e-01
6.199999999999999956e-02,-5.487326802079086630e-01,-2.522976010623405596e-01,-3.517582187288624818e-01
6.300000000000000044e-02,-4.526182160427063561e-01,-4.141692699216939499e-02,-4.580703266149361297e-01
6.400000000000000133e-02,-3.767008200282855740e-02,3.849627546673283218e-01,-3.449873192106973629e-01
6.500000000000000222e-02,4.735957180771790398e-01,6.686195022206469218e-01,-4.827838916573406330e-02
6.600000000000000311e-02,8.521370276360517027e-01,7.151557683363934936e-01,2.675112385307028551e-01
6.700000000000000400e-02,8.234157593410892373e-01,4.357618602475661351e-01,3.982627983117012493e-01
6.800000000000000488e-02,4.436668014421271677e-01,6.822365562841789521e-02,3.871582283832074034e-01
6.900000000000000577e-02,6.474621417254139422e-02,-2.327008033008794996e-01,1.898950477622754762e-01
7.000000000000000666e-02,-1.213668023250393246e-01,-2.224591345321778324e-01,7.945263435290759318e-03
7.099999999999999367e-02,1.148609535261558776e-02,1.306078981861072581e-02,-2.245070414128091246e-03
7.199999999999999456e-02,2.413036709551880654e-01,1.617498825561681508e-01,1.502172635340276174e-01
7.299999999999999545e-02,3.883567033692519321e-01,1.049446699359184165e-01,3.304542910017173596e-01
7.399999999999999634e-02,2.271191798386475169e-01,-1.731960577887712016e-01,3.623116918581117951e-01
7.499999999999999722e-02,-1.828788902229719904e-01,-5.052507593911010897e-01,2.519580519930976759e-01
7.599999999999999811e-02,-6.970423656899171760e-01,-7.115465908010023544e-01,-8.662667705295541698e-02
7.699999999999999900e-02,-8.692266125300612822e-01,-6.181784752436169095e-01,-3.370258172286288434e-01
7.799999999999999989e-02,-7.335081498458296823e-01,-2.504170875150185105e-01,-4.458686609909014442e-01
7.900000000000000078e-02,-3.012638354364011173e-01,1.314039389676647240e-01,-3.484398157686994790e-01
8.000000000000000167e-02,3.523061256431539445e-02,3.121241620691783125e-01,-1.426389564504280116e-01
8.100000000000000255e-02,1.683813974934066093e-01,2.488081495035484869e-01,-4.735159021905373244e-02
8.200000000000000344e-02,-9.945069921673004368e-03,3.674994407858758055e-02,-2.872917649202296961e-02
8.300000000000000433e-02,-2.197942926451567081e-01,-5.665111581475464758e-02,-1.557373408366183321e-01
8.400000000000000522e-02,-2.433865722790228003e-01,6.584780125128548989e-02,-2.616700164005680840e-01
8.500000000000000611e-02,-3.064595896637233030e-02,3.107511310077116229e-01,-2.729890512118096635e-01
8.599999999999999312e-02,4.184595726390145654e-01,5.624642452700175932e-01,-8.813395617482684685e-02
8.699999999999999400e-02,7.465824781358654239e-01,6.411850087282380262e-01,1.308186458808373309e-01
8.799999999999999489e-02,8.347028619799834459e-01,3.718438032533110116e-01,3.852301811525328801e-01
8.899999999999999578e-02,5.468715680494335984e-01,8.602867937559221384e-03,4.827735163531668983e-01
8.999999999999999667e-02,1.544796329255860023e-01,-2.757960204322985609e-01,3.302979331804509200e-01
9.099999999999999756e-02,-1.383231053843768099e-01,-3.367582432440120455e-01,1.014803424272465310e-01
9.199999999999999845e-02,-1.651324706091993610e-01,-1.846557534967940839e-01,-1.748751261981167657e-03
9.299999999999999933e-02,-1.410061968813341483e-02,-3.285090262169143571e-02,5.075066235709482787e-03
9.400000000000000022e-02,1.374501708768336439e-01,-3.727994950399957791e-02,1.359911567032422997e-01
9.500000000000000111e-02,7.837851231004337726e-02,-1.721737612465848444e-01,2.107840501164823799e-01
9.600000000000000200e-02,-1.964542619148603175e-01,-4.547821681971307983e-01,1.767804966540482692e-01
9.700000000000000289e-02,-5.977719715533676981e-01,-5.592766127732655690e-01,-4.287025638556699741e-02
9.800000000000000377e-02,-7.746457803588757685e-01,-4.612415501485315761e-01,-2.709636846255238929e-01
9.900000000000000466e-02,-6.951027298243339647e-01,-1.518475958259157821e-01,-4.486266730510967138e-01
1.000000000000000056e-01,-3.686880297450937372e-01,2.155404457097427340e-01,-3.915088523993748848e-01
1.010000000000000064e-01,3.560433314960171486e-02,3.858310081084105891e-01,-2.495877369240360466e-01
1.019999999999999934e-01,2.599893588280495216e-01,3.536961540138315319e-01,-5.732387139629589040e-02
1.029999999999999943e-01,1.718219375408120420e-01,1.602136153413919184e-01,2.137388646699388620e-02
1.039999999999999952e-01,1.201217360655231457e-02,3.264290794211449631e-02,2.377036586251646526e-03
1.049999999999999961e-01,-7.014231333438807059e-02,1.509035474023165679e-01,-1.337402963982486648e-01
1.059999999999999970e-01,6.688922620332131419e-02,3.175289832956135205e-01,-1.733904707065540840e-01
1.069999999999999979e-01,3.753888782150902048e-01,4.754887155284350797e-01,-6.357213140227158110e-02
1.079999999999999988e-01,7.138057842303531242e-01,5.031773601341404945e-01,1.904280303421412579e-01
1.089999999999999997e-01,7.782468596377208891e-01,2.853165020018802456e-01,3.749478203412864308e-01
1.100000000000000006e-01,5.201098130850395629e-01,-1.156478896217915664e-01,4.662209452670315613e-01
1.110000000000000014e-01,1.093116956953824187e-01,-3.806471494100229225e-01,3.668965426921570461e-01
1.120000000000000023e-01,-2.646600691941870531e-01,-4.433901135281249628e-01,1.911644497518669994e-01
1.130000000000000032e-01,-3.571243041131916818e-01,-3.041313305714623549e-01,1.016879679308568298e-02
1.140000000000000041e-01,-1.903228976341614087e-01,-1.237282394788371542e-01,-9.564915027911123635e-02
1.150000000000000050e-01,-3.472806244630763373e-02,-4.024688844600032844e-02,7.834243402859859470e-03
1.160000000000000059e-01,2.569263639774767901e-03,-1.871067289640018505e-01,1.158739348758421328e-01
1.170000000000000068e-01,-2.183469458390845941e-01,-4.101721976047545404e-01,1.323366674604875282e-01
1.179999999999999938e-01,-5.454531016499604146e-01,-5.024781106310639567e-01,1.279885604404210585e-02
1.189999999999999947e-01,-7.622863447040008067e-01,-3.669288640879088126e-01,-2.703717749487217770e-01
1.199999999999999956e-01,-6.668133443257424631e-01,7.539192191388860605e-03,-4.512950536622959974e-01
1.209999999999999964e-01,-3.263609684722189597e-01,3.696596558671224608e-01,-5.014374298578255784e-01
1.219999999999999973e-01,1.603327911001559136e-01,5.504603879430030045e-01,-3.122820976533296489e-01
1.229999999999999982e-01,4.401243924947336184e-01,4.541918127208848244e-01,-8.463718283182616875e-02
1.239999999999999991e-01,4.250371596022877174e-01,2.264921016709303958e-01,1.594032343114721584e-01
1.250000000000000000e-01,2.205052770922765193e-01,1.780518705989598757e-02,1.402816853583788992e-01
1.260000000000000009e-01,1.523965962062228188e-02,7.425860197510918137e-02,3.673187301891769202e-02
1.270000000000000018e-01,1.980299168695091178e-02,2.300831606135974594e-01,-8.925702607833518876e-02
1.280000000000000027e-01,3.280125490194104598e-01,4.488278844095319742e-01,-7.373590765976990868e-02
1.290000000000000036e-01,6.591459916120644413e-01,4.024858236220359986e-01,8.978209520864148530e-02
1.300000000000000044e-01,7.533567050714442548e-01,1.770085982797749702e-01,3.446062353736264461e-01
1.310000000000000053e-01,5.533919380105839503e-01,-2.551100461151070142e-01,4.912064323034797120e-01
1.320000000000000062e-01,5.701612646426107434e-02,-5.828133594503174253e-01,4.859768289674219477e-01
1.330000000000000071e-01,-3.995842980937876487e-01,-6.215687725879115444e-01,2.585475478057854826e-01
1.340000000000000080e-01,-6.202962992596620095e-01,-4.112155733018837966e-01,-6.310769570206672952e-02
1.350000000000000089e-01,-4.806901797711626290e-01,-7.680319759181361561e-02,-2.100730722731806166e-01
1.360000000000000098e-01,-1.897377234400605683e-01,1.718873758540490765e-02,-1.890193982684560403e-01
1.370000000000000107e-01,1.929712827184659057e-02,-7.443083217869160551e-02,-9.372187412992921685e-02
1.380000000000000115e-01,-5.935679824341694860e-02,-2.651007180985036626e-01,7.607176569645096587e-02
1.390000000000000124e-01,-3.934404283037187811e-01,-4.132690934475136135e-01,5.073887823198943575e-02
1.400000000000000133e-01,-6.675447630409747646e-01,-2.759337841214242748e-01,-1.092858304323944263e-01
1.409999999999999865e-01,-6.996179698374022093e-01,7.436030250448927292e-02,-4.042216218530565452e-01
1.419999999999999873e-01,-3.620651378351224525e-01,4.713369949834544936e-01,-5.391281415113052811e-01
1.429999999999999882e-01,1.864521681432270428e-01,7.027218550612054360e-01,-4.679417958662295263e-01
1.439999999999999891e-01,6.533326123959722898e-01,5.862524818380957514e-01,-1.593783406423472659e-01
1.449999999999999900e-01,7.683036098480642284e-01,2.725444674300091519e-01,1.830703846226498510e-01
1.459999999999999909e-01,5.037672991375040654e-01,-5.073465101475602840e-02,3.324574683852954404e-01
1.469999999999999918e-01,1.112442563624734815e-01,-1.505203906803247449e-01,2.760546393221984807e-01
1.479999999999999927e-01,-8.578027771461298190e-02,3.622605239556485335e-02,8.505846548035042587e-02
1.489999999999999936e-01,4.842657455193057070e-02,2.737065937755262524e-01,-5.187849634087501188e-02
1.499999999999999944e-01,3.884341048568324406e-01,3.498139906673346511e-01,-3.473168372169747886e-02
1.509999999999999953e-01,6.258559147054998384e-01,1.024226564872605938e-01,2.161065490169618575e-01
1.519999999999999962e-01,5.693695783167459501e-01,-3.241608917137252521e-01,4.318841240831211570e-01
1.529999999999999971e-01,1.587738743291913501e-01,-6.834194556789129349e-01,5.057354468121640911e-01
1.539999999999999980e-01,-4.276199009955395369e-01,-7.454700106762066625e-01,4.137061957832993131e-01
1.549999999999999989e-01,-8.032645104464805064e-01,-5.178778028494528396e-01,5.815063869595822610e-02
1.559999999999999998e-01,-7.967009264566523585e-01,-1.100841349026601690e-01,-2.582003562072283653e-01
1.570000000000000007e-01,-4.572710042304536371e-01,1.943903437735666484e-01,-4.055110881713813176e-01
1.580000000000000016e-01,-3.031033452163467770e-02,1.707753750020037098e-01,-3.605944589994416472e-01
1.590000000000000024e-01,1.102710839059929532e-01,-2.897322090542069420e-02,-1.379066233190723023e-01
1.600000000000000033e-01,-4.782096749589880014e-02,-2.565548029858195078e-01,4.824254678035989202e-02
1.610000000000000042e-01,-4.005203066062359429e-01,-2.578293555453954333e-01,7.396641193726685541e-03
1.620000000000000051e-01,-5.278144243120549417e-01,7.946799747271943160e-02,-1.659818486792574987e-01
1.630000000000000060e-01,-4.162577410469616157e-01,4.776343960152519275e-01,-3.985488474119520674e-01
1.640000000000000069e-01,4.624046521087588069e-02,7.447961619023388824e-01,-4.685138412819968012e-01
1.650000000000000078e-01,6.470276277587723168e-01,7.314123754303213376e-01,-2.747999954683994495e-01
1.660000000000000087e-01,9.642420122881958378e-01,3.555427323841106046e-01,2.092495999982545152e-02
1.670000000000000095e-01,7.965435444308176516e-01,-5.666723740345279425e-02,3.182387682052630340e-01
1.680000000000000104e-01,3.429481013434095837e-01,-3.030594112004311169e-01,4.758186753686195480e-01
1.690000000000000113e-01,-5.492937120372087118e-02,-2.444281407931749583e-01,3.621705571387142109e-01
1.700000000000000122e-01,-1.799232155630929031e-01,4.119512136361806742e-02,1.290754699255051430e-01
1.710000000000000131e-01,1.726465327404777062e-03,2.036067296945379967e-01,-6.625460218981728266e-02
1.719999999999999862e-01,3.400395878716084286e-01,1.069917275403137052e-01,-1.544049265813464238e-02
1.729999999999999871e-01,4.594187831794024901e-01,-2.360043256165529901e-01,1.209321600913008943e-01
1.739999999999999880e-01,2.260358822061364070e-01,-5.875720439250782245e-01,3.616491079785491003e-01
1.749999999999999889e-01,-2.653931269963094586e-01,-7.644379641598658681e-01,3.991712922806979758e-01
1.759999999999999898e-01,-7.626250267259775395e-01,-5.784127490398379701e-01,2.090742343967021133e-01
1.769999999999999907e-01,-9.484848872882003512e-01,-1.771710754246195729e-01,-9.838672499589340426e-02
1.779999999999999916e-01,-7.104458062353257164e-01,2.459670962099084479e-01,-4.414487121367384193e-01
1.789999999999999925e-01,-2.368291654625641340e-01,4.045037373928898616e-01,-5.249362600007325685e-01
1.799999999999999933e-01,1.474757708598427863e-01,2.574828232896101410e-01,-3.755081158924864493e-01
1.809999999999999942e-01,2.531153366488127499e-01,3.007345717818076664e-02,-1.413054308597623820e-01
1.819999999999999951e-01,8.649326477851807318e-03,-1.078360347860402302e-01,4.000613151370008974e-02
1.829999999999999960e-01,-2.423481395748341982e-01,1.957149840906001817e-02,7.217131585525403403e-02
1.839999999999999969e-01,-3.190468053489479150e-01,3.380478497246846015e-01,-1.428048189743301721e-01
1.849999999999999978e-01,-3.599484277261980752e-02,6.461093349940664199e-01,-2.644720412074074711e-01
1.859999999999999987e-01,4.559830709210546673e-01,6.879002559267578532e-01,-3.206775084207228455e-01
1.869999999999999996e-01,8.463734577183188446e-01,4.109681433454771549e-01,-1.044538366725791811e-01
1.880000000000000004e-01,9.029965979062601900e-01,-6.691470512153549488e-02,1.831783738554925434e-01
1.890000000000000013e-01,5.966166997702763153e-01,-4.098643496782493068e-01,4.600727861403632879e-01
1.900000000000000022e-01,8.637803924029972824e-02,-4.756123312857427066e-01,4.664440059716637443e-01
1.910000000000000031e-01,-2.887905560411821448e-01,-2.386822337040106212e-01,3.765459627107646812e-01
1.920000000000000040e-01,-3.338433358910742332e-01,-2.426386376394173289e-02,1.041982393662878176e-01
1.930000000000000049e-01,-6.262385384053632820e-02,6.450794109222167394e-02,-3.047467748352042372e-02
1.940000000000000058e-01,1.399687188465253140e-01,-1.422930593012823042e-01,-5.388724906206568410e-02
1.950000000000000067e-01,1.699811958466125872e-01,-4.499643438380210858e-01,1.252420440783379441e-01
1.960000000000000075e-01,-1.456668424029387010e-01,-6.309644346277003546e-01,2.203727077587218919e-01
1.970000000000000084e-01,-5.856369490329815797e-01,-5.465982890233712643e-01,2.200543664563344715e-01
1.980000000000000093e-01,-8.598100051677695088e-01,-1.352716250196612513e-01,-4.062560391717637276e-03
1.990000000000000102e-01,-7.979125667344549866e-01,2.660275486126520983e-01,-2.746777616039529080e-01
2.000000000000000111e-01,-3.901318671734015364e-01,5.004437055861623573e-01,-5.028184995657869472e-01
2.010000000000000120e-01,7.498693759278048099e-02,4.569035252858926754e-01,-4.711943683536382599e-01
2.020000000000000129e-01,3.789633276165744746e-01,2.195530497579269713e-01,-2.997688801231446210e-01
2.030000000000000138e-01,3.421046833562091383e-01,-9.719479631331812836e-03,-5.609369894017802310e-02
2.039999999999999869e-01,1.255755952151939858e-01,1.893829889571211917e-03,9.708161843201781882e-02
2.049999999999999878e-01,-3.490567494146162159e-02,2.390005516138228592e-01,7.631015352587224021e-02
2.059999999999999887e-01,-3.579082184983155886e-03,4.699759897743535086e-01,-8.574381793428566267e-02
2.069999999999999896e-01,3.148131849964303508e-01,5.352672221449588097e-01,-1.192971360005868897e-01
2.079999999999999905e-01,6.195100011186153166e-01,2.926038410188682715e-01,-1.184597319114994857e-01
2.089999999999999913e-01,8.197992917426907278e-01,-8.361063726574274879e-02,9.324390925026938837e-02
2.099999999999999922e-01,5.749401633812820656e-01,-4.400305067079737231e-01,3.397625705717121636e-01
2.109999999999999931e-01,1.621850073602873754e-01,-5.419574883414802757e-01,5.078051596889188168e-01
2.119999999999999940e-01,-2.731795676534108930e-01,-3.869193095543010941e-01,4.634537627145143834e-01
2.129999999999999949e-01,-4.578961766428623070e-01,-1.787256569975750053e-01,2.222681984731958438e-01
2.139999999999999958e-01,-4.043482196222779601e-01,-1.752884167017132455e-02,-4.295490138963544563e-03
2.149999999999999967e-01,-1.431625777408217781e-01,-7.061457331243889413e-02,-1.038271262497902220e-01
2.159999999999999976e-01,-2.777320077086984501e-02,-2.931001665941023182e-01,-9.717919940561586811e-02
2.169999999999999984e-01,-1.227161810107167267e-01,-4.120650053686062964e-01,2.673957591051843562e-03
2.179999999999999993e-01,-4.197928302341656925e-01,-3.551909727917135218e-01,7.885541651963706711e-02
2.190000000000000002e-01,-6.937334542775248636e-01,-5.585447490919812769e-02,-7.436331371547462085e-03
2.200000000000000011e-01,-6.664403233958510198e-01,3.252719220235003039e-01,-2.188066643020648017e-01
2.210000000000000020e-01,-3.741231936616684628e-01,5.374345225531906856e-01,-4.248840091705674005e-01
2.220000000000000029e-01,1.254281241781746714e-01,5.125037772321794360e-01,-4.943553202877492558e-01
2.230000000000000038e-01,4.241415631707332046e-01,2.989952258977580657e-01,-3.588470774672353758e-01
2.240000000000000047e-01,5.120008531856975464e-01,9.114610057130896614e-02,-1.014970261670808810e-01
2.250000000000000056e-01,3.568423654015988600e-01,3.797107770228188434e-02,8.683314179942458466e-02
2.260000000000000064e-01,1.368375331877446643e-01,1.023360697434606004e-01,1.916124706456873716e-01
2.270000000000000073e-01,9.153813562931398251e-02,3.053532125441891232e-01,1.017836526869857344e-01
2.280000000000000082e-01,2.738023004277697625e-01,3.533556422155940124e-01,3.716300315990155034e-02
2.290000000000000091e-01,4.879808002863579852e-01,1.359860205415734657e-01,-2.524790592753973356e-02
2.300000000000000100e-01,6.366547101343269510e-01,-2.262241458175684172e-01,7.242830388796946128e-02
2.310000000000000109e-01,4.752258077624833543e-01,-5.111951868989693670e-01,2.747092247229308559e-01
2.320000000000000118e-01,9.417394839183718114e-02,-5.722702840532405411e-01,4.460992196361223128e-01
2.330000000000000127e-01,-3.113770330841540979e-01,-4.125215889955348714e-01,4.535221799435583678e-01
2.340000000000000135e-01,-5.885384581349379918e-01,-1.801409996364959076e-01,2.442868693060890051e-01
2.349999999999999867e-01,-4.980144432191803139e-01,-3.592884815214206218e-03,3.992529180753368739e-03
2.359999999999999876e-01,-2.923139835856696234e-01,-1.896350806769675143e-02,-1.646569457702147243e-01
2.369999999999999885e-01,-1.090388915482033982e-01,-2.052792207564937133e-01,-1.998478150641915807e-01
2.379999999999999893e-01,-6.956861446116856251e-02,-2.912921458524639351e-01,-1.399402632936628532e-01
2.389999999999999902e-01,-3.107745227828823675e-01,-1.591787482397253872e-01,-1.071682471316095543e-02
2.399999999999999911e-01,-5.362705658956093968e-01,1.014376348410701290e-01,-1.759702573298237149e-02
2.409999999999999920e-01,-5.406990493058638769e-01,4.221419501233467098e-01,-1.791842217706216822e-01
2.419999999999999929e-01,-2.910813108480290179e-01,6.084004021838067544e-01,-3.479145857797648067e-01
2.429999999999999938e-01,2.077180518651537411e-01,5.367726620829690320e-01,-4.437401402597950795e-01
2.439999999999999947e-01,5.837898142944553115e-01,3.196133515435344852e-01,-3.831676875286978423e-01
2.449999999999999956e-01,6.948941291761330241e-01,3.450971095227055307e-02,-1.202957562483221027e-01
2.459999999999999964e-01,5.059885315043921583e-01,-5.067355988899960306e-02,1.276033045884166772e-01
2.469999999999999973e-01,2.017975762935612094e-01,9.117149714347783790e-03,2.751920304034626841e-01
2.479999999999999982e-01,4.235923925742067497e-02,1.815516427506152219e-01,2.374074061428961546e-01
2.489999999999999991e-01,9.117390435218360178e-02,1.895252676874749076e-01,1.121984917203914939e-01
2.500000000000000000e-01,3.573146308005026861e-01,1.677105473092903656e-02,4.213250404834258112e-02
2.510000000000000009e-01,5.059962634779290314e-01,-2.937282168654816172e-01,3.475609788721362170e-02
2.520000000000000018e-01,4.339751381388754492e-01,-5.925616004492072486e-01,1.918215942557305043e-01
2.530000000000000027e-01,5.900555571272459582e-02,-6.802081807279881653e-01,3.837967625572725194e-01
2.540000000000000036e-01,-4.695958608934650003e-01,-4.530627428320789241e-01,4.669571018665721329e-01
2.550000000000000044e-01,-7.480667055611227578e-01,-1.185361224151856852e-01,2.923180781855143073e-01
2.560000000000000053e-01,-7.324828859069962839e-01,1.445482178723994093e-01,3.810726095955641740e-02
2.570000000000000062e-01,-4.219084189282852893e-01,1.406391196113774555e-01,-2.982650841084570903e-01
2.580000000000000071e-01,-7.312159080172903058e-02,-1.966308255738074412e-02,-3.986471958954751482e-01
2.590000000000000080e-01,5.275086726582776248e-02,-1.812629721698436058e-01,-2.943915120274087083e-01
2.600000000000000089e-01,-9.256369081116579134e-02,-1.530040554536998276e-01,-1.484738317185133327e-01
2.610000000000000098e-01,-3.607027995202222725e-01,1.778837023338274981e-01,3.544341436501714793e-02
2.620000000000000107e-01,-5.071729578990478160e-01,5.302285968372333347e-01,-3.117151389772447601e-02
2.630000000000000115e-01,-2.663319457650671906e-01,6.933693827833362633e-01,-2.139379600255480185e-01
2.640000000000000124e-01,1.909801065449010238e-01,6.223461125334600608e-01,-3.857625010337848992e-01
2.650000000000000133e-01,6.850079594264172345e-01,2.476314089129122153e-01,-4.090811533826940738e-01
2.660000000000000142e-01,8.876708613298743833e-01,-1.006145743569565321e-01,-2.268704103231151403e-01
2.670000000000000151e-01,6.594454585326204876e-01,-2.712708840982814840e-01,1.017213078523397096e-01
2.680000000000000160e-01,2.710775507078276303e-01,-1.848085007458311613e-01,4.061497462092588107e-01
2.690000000000000169e-01,-6.428113420345094031e-02,5.040320001257179300e-03,4.748926002115109180e-01
2.700000000000000178e-01,-1.732598837104537826e-01,1.558193921034337348e-01,2.963072618415213966e-01
2.710000000000000187e-01,4.626332671082439285e-02,2.982181085892841171e-02,1.055389170409606753e-01
2.720000000000000195e-01,3.298749897593595271e-01,-3.144629789231633832e-01,-2.082968771276933612e-02
2.730000000000000204e-01,3.880321571976006467e-01,-6.295010762396306969e-01,-1.547000905131746228e-02
2.740000000000000213e-01,8.207720889356996674e-02,-7.216629008843544746e-01,2.042315683963533968e-01
2.750000000000000222e-01,-4.302868075466173003e-01,-4.843534731148970152e-01,3.790567715560621553e-01
2.760000000000000231e-01,-8.718632381433352174e-01,-5.417461420831313351e-02,3.635463706804264450e-01
2.770000000000000240e-01,-9.587912483081800774e-01,3.018029684279268654e-01,1.474562691751348242e-01
2.780000000000000249e-01,-6.115317663325152697e-01,4.144402960171325034e-01,-2.272744338988920698e-01
2.790000000000000258e-01,-1.383343534379960216e-01,2.261751259899371924e-01,-4.567513522804940163e-01
2.800000000000000266e-01,2.423963907003006402e-01,-6.258284343065387278e-02,-5.102732412694945818e-01
2.810000000000000275e-01,2.752083655989978062e-01,-8.562342906337336301e-02,-2.993215088082515352e-01
2.819999999999999729e-01,-4.650247671729397514e-03,9.608283097133814288e-02,-7.549379813852824528e-02
2.829999999999999738e-01,-2.521824810519832094e-01,4.486770310970784603e-01,8.196297857737296078e-02
2.839999999999999747e-01,-2.786693104079315253e-01,7.004902443535587775e-01,2.489060299272119643e-03
2.849999999999999756e-01,6.692677844230798812e-02,6.466955660869856404e-01,-1.448002072693909681e-01
2.859999999999999765e-01,5.621552835849922269e-01,2.793830603688127745e-01,-2.926277686309923798e-01
2.869999999999999774e-01,9.426945118151434100e-01,-1.493097692339896976e-01,-2.598076595486211726e-01
2.879999999999999782e-01,8.648492482741725329e-01,-4.791843623093928750e-01,-4.114315545926357232e-02
2.889999999999999791e-01,4.794177012769667567e-01,-4.557336792110622259e-01,3.027814063500766650e-01
2.899999999999999800e-01,-5.140253967999790230e-02,-1.834659276600131561e-01,4.964110163713174595e-01
2.909999999999999809e-01,-3.784406549622459925e-01,5.952417158177041728e-02,5.229324212217000278e-01
2.919999999999999818e-01,-3.293806924546642811e-01,7.229060925156134687e-02,3.291174709506784479e-01
2.929999999999999827e-01,-2.064503893255037470e-02,-1.790568727321982245e-01,3.267281856399541912e-02
2.939999999999999836e-01,1.898649478962533554e-01,-5.272194339604688862e-01,-1.620037863513775489e-01
2.949999999999999845e-01,1.863151832126722918e-01,-6.645825640774671861e-01,-5.358425521044862805e-02
2.959999999999999853e-01,-1.878728086376817985e-01,-4.505132130776743904e-01,1.218358975356208518e-01
2.969999999999999862e-01,-6.853809975058675619e-01,-5.741691514787153339e-02,2.507260605053286961e-01
2.979999999999999871e-01,-9.492035539253033116e-01,4.104394809469242289e-01,1.921219578277085782e-01
2.989999999999999880e-01,-7.715907869479455838e-01,5.896122901454201592e-01,-4.995540136368144951e-02
2.999999999999999889e-01,-2.805299923882751956e-01,4.622639613199729935e-01,-3.310248732366490865e-01
3.009999999999999898e-01,2.293911279770172174e-01,1.898728040245567239e-01,-5.778818847478860432e-01
3.019999999999999907e-01,5.097051129022482918e-01,-5.527129062769164242e-02,-5.386412626449712526e-01
3.029999999999999916e-01,3.669546579448186296e-01,-4.704169108847700703e-02,-2.744400967050809603e-01
3.039999999999999925e-01,1.043953430312306446e-01,2.239021476511904030e-01,4.013264890531617612e-02
3.049999999999999933e-01,-1.343855869717210938e-01,5.042180062045147348e-01,2.016059057585425085e-01
3.059999999999999942e-01,-6.858813936674806877e-02,5.772679445973337709e-01,1.257420843256716880e-01
3.069999999999999951e-01,3.077852898849003371e-01,2.864637038575458261e-01,-3.866543109588622268e-02
3.079999999999999960e-01,7.570746891780025800e-01,-1.703518360543977150e-01,-1.983165742429236766e-01
3.089999999999999969e-01,9.168007487245096732e-01,-5.493707956037069406e-01,-1.213211803107687586e-01
3.099999999999999978e-01,5.997179649356944031e-01,-6.380733210293761948e-01,1.024825513030345192e-01
3.109999999999999987e-01,9.936112218945858388e-02,-4.198282020395799896e-01,4.236877220567031310e-01
3.119999999999999996e-01,-4.111008359277651403e-01,-1.246736152599796921e-01,5.926548247623298904e-01
3.130000000000000004e-01,-5.999129936169504962e-01,6.002902709656436631e-02,5.000794326002643286e-01
3.140000000000000013e-01,-4.606072757158010678e-01,-3.566949144016546419e-02,1.845599795629622175e-01
3.150000000000000022e-01,-1.076131562277475862e-01,-2.736269724306569229e-01,-7.914719801900177432e-02
3.160000000000000031e-01,4.295136534812613732e-02,-4.619060844016401601e-01,-2.483679661205847877e-01
3.170000000000000040e-01,-5.620057408840962304e-02,-4.042214613409368384e-01,-1.585994916224599538e-01
3.180000000000000049e-01,-3.876236231214799099e-01,-5.922447248526186564e-02,-2.421159147355585531e-02
3.190000000000000058e-01,-6.805578755892868204e-01,3.812997206349136303e-01,1.229900037288221004e-01
3.200000000000000067e-01,-7.549898748069917565e-01,6.349625002030098164e-01,4.409647497452754555e-02
3.210000000000000075e-01,-3.839333941177360265e-01,6.300969160353244725e-01,-1.947425956971312044e-01
3.220000000000000084e-01,1.379480446787406112e-01,3.467077065315306017e-01,-4.656443723655593336e-01
3.230000000000000093e-01,5.734373853069882898e-01,3.630912253542992879e-02,-5.259043147363388071e-01
3.240000000000000102e-01,6.668566668064493941e-01,-8.378839334733105548e-02,-3.968677613163623108e-01
3.250000000000000111e-01,4.465676925313653567e-01,4.579970727542571896e-02,-1.459664309046886654e-01
3.260000000000000120e-01,1.555443921566398713e-01,2.583271038350196114e-01,1.462798342911050820e-01
3.270000000000000129e-01,-3.978022569450779394e-02,3.539161083197571722e-01,2.576964821478945344e-01
3.280000000000000138e-01,1.380318708629962865e-01,2.107655198326470192e-01,2.099003264232515986e-01
3.290000000000000147e-01,4.708521780408413404e-01,-1.702876231505482396e-01,5.930628392741562477e-02
3.300000000000000155e-01,6.515516172427870956e-01,-5.159350031211927812e-01,-7.407208171298618193e-02
3.310000000000000164e-01,5.641788452153614353e-01,-6.800686574683134644e-01,3.034070737074741342e-02
3.320000000000000173e-01,1.453699104393772756e-01,-5.002597210845740605e-01,2.276521773275364813e-01
3.330000000000000182e-01,-3.826622922013825923e-01,-2.105411509550701721e-01,4.280888553088406656e-01
3.340000000000000191e-01,-6.999746421161728849e-01,3.045246567837035442e-02,4.953813396759482179e-01
3.350000000000000200e-01,-6.512907042273089475e-01,8.427146322518085098e-02,3.001154700748742132e-01
3.360000000000000209e-01,-4.074891265171759480e-01,-5.433808034719523478e-02,2.640808294235728881e-02
3.370000000000000218e-01,-1.238111950530867283e-01,-1.723270600334199376e-01,-2.107632594622136646e-01
3.380000000000000226e-01,-2.823884335540890675e-02,-2.004787271067620669e-01,-2.866957118675282912e-01
3.390000000000000235e-01,-1.950578644307047471e-01,4.706925954372838394e-02,-2.319130258656104948e-01
3.400000000000000244e-01,-4.306792705711764979e-01,3.943459900870482371e-01,-6.611026169565727140e-02
3.410000000000000253e-01,-4.601374597492206564e-01,6.156451898316871452e-01,-2.123236130251458798e-02
3.420000000000000262e-01,-2.864585674497415191e-01,6.406531957082248763e-01,-1.259700723445713599e-01
3.430000000000000271e-01,1.269551816745227990e-01,3.615130588099631503e-01,-2.712314383403152118e-01
3.439999999999999725e-01,5.568737413788882318e-01,4.998599339866822977e-02,-4.229732847789901551e-01
3.449999999999999734e-01,7.475433311902539568e-01,-1.056615032077308503e-01,-3.757876415470576270e-01
3.459999999999999742e-01,5.811841196336825499e-01,-5.036739647270034592e-02,-2.003110140729544020e-01
3.469999999999999751e-01,3.065622661466991805e-01,7.479128484235091079e-02,8.723789348578796232e-02
3.479999999999999760e-01,4.624605144334494738e-02,1.007499305608921952e-01,3.136389155139280294e-01
3.489999999999999769e-01,5.640509944600147901e-02,3.063240914304375326e-02,3.236247702481750421e-01
3.499999999999999778e-01,2.426608329112353024e-01,-2.544374124233673151e-01,1.973647538509301635e-01
3.509999999999999787e-01,3.984123280824036772e-01,-5.428549140202552081e-01,8.117812594164798556e-02
3.519999999999999796e-01,3.537812484448203953e-01,-6.435006059511102494e-01,3.856722801977775089e-02
3.529999999999999805e-01,1.720913180843984883e-02,-4.878049899405321188e-01,1.493491535525440783e-01
3.539999999999999813e-01,-3.918823480368454071e-01,-1.627869148340371774e-01,3.067512743415601317e-01
3.549999999999999822e-01,-7.050194511506694406e-01,8.299740238685102134e-02,3.572495857531931551e-01
3.559999999999999831e-01,-7.448431709783062127e-01,1.705266832428078694e-01,2.523293128410297737e-01
3.569999999999999840e-01,-4.782506829806865145e-01,8.879882159960396371e-02,2.183428960414613915e-02
3.579999999999999849e-01,-1.798213477956334405e-01,-6.925780574415739410e-02,-1.911189869818537279e-01
3.589999999999999858e-01,-1.003087771191639097e-02,-5.269150831519150285e-02,-3.499794499179081364e-01
3.599999999999999867e-01,-3.189731058537924324e-02,1.610032774145104817e-01,-3.393341376326812209e-01
3.609999999999999876e-01,-2.307892622547629835e-01,4.432959650801200358e-01,-2.019703901133030610e-01
3.619999999999999885e-01,-3.079152065507232416e-01,6.309750954001334122e-01,-6.967722258557898507e-02
3.629999999999999893e-01,-1.762293111136004897e-01,5.618780774619835938e-01,-5.324151514636572824e-02
3.639999999999999902e-01,1.981518352123624871e-01,2.986717379027495900e-01,-1.522425004059919929e-01
3.649999999999999911e-01,6.214999272585091106e-01,-2.087080208850674093e-02,-3.119022444884115286e-01
3.659999999999999920e-01,8.060547626562857282e-01,-2.446233488201837170e-01,-3.128346250476100043e-01
3.669999999999999929e-01,6.675468330729268374e-01,-2.154745856292461514e-01,-1.376844780890603692e-01
3.679999999999999938e-01,3.420740357634934892e-01,-6.605400715958349711e-02,9.898337843104951239e-02
3.689999999999999947e-01,6.818930623384091699e-03,3.874295432888290314e-02,3.627901176069541767e-01
3.699999999999999956e-01,-7.817862587993504309e-02,-5.123312330863861314e-02,4.061035938163508052e-01
3.709999999999999964e-01,1.474812574888171831e-03,-2.947866707376375905e-01,3.259149989352913002e-01
3.719999999999999973e-01,2.028906865566509343e-01,-5.531359339933753505e-01,1.605717787235150240e-01
3.729999999999999982e-01,2.319693672421397068e-01,-6.061655940610672921e-01,2.313270133975274187e-02
3.739999999999999991e-01,-2.586978649995861496e-02,-4.335641606727230757e-01,5.375682044481474436e-02
3.750000000000000000e-01,-4.222528224221890336e-01,-4.277090527709153517e-02,1.828184082548826583e-01
3.760000000000000009e-01,-7.647850553992433520e-01,2.804321737622305077e-01,3.260641557698047976e-01
3.770000000000000018e-01,-8.425956788182362711e-01,3.248734833395616195e-01,2.694391059242461361e-01
3.780000000000000027e-01,-5.352011119582645859e-01,2.005493843189028735e-01,5.332856918709676097e-02
3.790000000000000036e-01,-1.269187960734096121e-01,-9.281671397567220483e-03,-2.085789698072395559e-01
3.800000000000000044e-01,1.862279483773252031e-01,6.948431463078779237e-04,-4.181621231183321741e-01
3.810000000000000053e-01,1.791753505869543850e-01,1.544122214628983192e-01,-4.614302709438917738e-01
3.820000000000000062e-01,-7.585996115169500904e-03,4.011092828743872407e-01,-2.895102245059453239e-01
3.830000000000000071e-01,-1.908480482056781335e-01,6.195424089131192913e-01,-8.904758147402311308e-02
3.840000000000000080e-01,-1.303381049465256181e-01,5.475768875465492069e-01,3.867706870928040025e-02
3.850000000000000089e-01,2.083338417165145340e-01,2.071472724669531085e-01,-2.788983774692252449e-02
3.860000000000000098e-01,6.367454706061886904e-01,-1.804137511659656967e-01,-1.514239578551754839e-01
3.870000000000000107e-01,9.022453378932456802e-01,-4.368207702524317115e-01,-2.523657784754747557e-01
3.880000000000000115e-01,7.775105972919541530e-01,-4.154554737091564753e-01,-1.952851846580560824e-01
3.890000000000000124e-01,3.747787109202111444e-01,-1.624249102455989635e-01,2.003317486219785906e-02
3.900000000000000133e-01,-1.104769570240742432e-01,-1.307448597230425474e-02,3.213923019001846404e-01
3.910000000000000142e-01,-3.275629867424165731e-01,-7.978315811625859982e-03,5.312008380117537731e-01
3.920000000000000151e-01,-2.896901112332372907e-01,-2.513325917723526204e-01,4.756476069864023493e-01
3.930000000000000160e-01,-1.577608421223978099e-03,-5.319309354196569695e-01,2.731467205001514853e-01
3.940000000000000169e-01,1.708667521922558608e-01,-5.835536325477398423e-01,1.952848598062051138e-03
3.950000000000000178e-01,7.629153129680202317e-02,-3.651187544363229676e-01,-1.128773450517258498e-01
3.960000000000000187e-01,-3.110425759387739908e-01,4.161153466840394888e-02,-3.597744636533441870e-02
3.970000000000000195e-01,-7.713987980132258615e-01,4.346706356170387253e-01,1.710608223418647877e-01
3.980000000000000204e-01,-9.019006827947566585e-01,5.571115423534156452e-01,2.038289034736172345e-01
3.990000000000000213e-01,-6.828906872636530956e-01,4.360440933625442939e-01,1.494941525049000020e-01
4.000000000000000222e-01,-1.623743842679120641e-01,1.172041861647038635e-01,-1.192764754326754578e-01
4.010000000000000231e-01,3.126602340073931230e-01,-3.072463646502295725e-02,-4.323948705201707265e-01
4.020000000000000240e-01,5.258794593102922299e-01,8.676773044426811660e-03,-5.543500755694448223e-01
4.030000000000000249e-01,3.640925342735508163e-01,3.100003318995888102e-01,-4.704530098012266737e-01
4.040000000000000258e-01,3.448980113918938967e-02,5.250976573456286323e-01,-2.437959847721478113e-01
4.050000000000000266e-01,-1.141129882639926735e-01,5.073625977503912754e-01,7.465532348239191374e-02
4.060000000000000275e-01,-1.452764963346475473e-02,1.719677724853229395e-01,1.674267491928741747e-01
4.069999999999999729e-01,4.195561944325942871e-01,-2.835909323850102082e-01,1.311087803241112182e-01
4.079999999999999738e-01,8.057275213393477742e-01,-6.028210875438898553e-01,-9.408573229208974653e-02
4.089999999999999747e-01,8.522176485045699357e-01,-6.220126160359896739e-01,-1.480887706175149920e-01
4.099999999999999756e-01,4.869037516909572871e-01,-4.152503412652581716e-01,-8.211485386557977606e-02
4.109999999999999765e-01,-5.410786544569720635e-02,-5.060136786150810917e-02,2.052925148573890302e-01
4.119999999999999774e-01,-5.260570146005409953e-01,1.037398882619685464e-01,4.379592300492008428e-01
4.129999999999999782e-01,-6.548411170873750242e-01,-3.934594676110607370e-02,5.801584725147517219e-01
4.139999999999999791e-01,-4.120292532799855190e-01,-3.136328544803658747e-01,4.537360251815572010e-01
4.149999999999999800e-01,-6.985032001944198321e-02,-4.881503650519179449e-01,1.562549629626967251e-01
4.159999999999999809e-01,1.313266604229892109e-01,-4.057983307007218543e-01,-1.505569515407296222e-01
4.169999999999999818e-01,-7.644896245732973883e-02,5.607310092107828381e-02,-2.791698545309286850e-01
4.179999999999999827e-01,-4.886183849259809198e-01,4.966104241702944400e-01,-1.561333845156817057e-01
4.189999999999999836e-01,-7.864121411970855791e-01,7.127056121195870508e-01,1.770555075325143737e-02
4.199999999999999845e-01,-7.288836820332528221e-01,6.046513655574462520e-01,1.546140375690495117e-01
4.209999999999999853e-01,-2.895045417004432631e-01,2.647939013867298130e-01,1.832911972156285379e-03
4.219999999999999862e-01,2.798640724122105627e-01,-2.990746027095133805e-02,-2.469996524967873197e-01
4.229999999999999871e-01,7.031910062832218422e-01,-1.315777736470451209e-01,-4.781509377892408930e-01
4.239999999999999880e-01,7.042820553280262352e-01,2.643145996829905642e-02,-5.473306729298846873e-01
4.249999999999999889e-01,3.839925104490610752e-01,3.089108456495126553e-01,-3.931517421256034983e-01
4.259999999999999898e-01,6.111400018551803315e-02,4.012505473043170845e-01,-5.508352721618198916e-02
4.269999999999999907e-01,-8.242889989507205806e-02,1.875209145471888605e-01,2.518697345954464817e-01
4.279999999999999916e-01,1.290852113839253690e-01,-3.033229809404289212e-01,3.118803531912818783e-01
4.289999999999999925e-01,4.725928516010667879e-01,-6.538536067548718078e-01,2.126451164337463950e-01
4.299999999999999933e-01,7.017902822869800383e-01,-7.793346989250078405e-01,1.186237925174214031e-02
4.309999999999999942e-01,5.441069829720073248e-01,-5.143571659115834249e-01,-9.483224738459564152e-02
4.319999999999999951e-01,8.589078673080746684e-02,-1.247210783174413223e-01,2.480121920032860028e-02
4.329999999999999960e-01,-5.128196717261949145e-01,1.800936136874302929e-01,2.274684257251410602e-01
4.339999999999999969e-01,-8.226832736969765802e-01,1.571108001625326211e-01,5.076399128061530597e-01
4.349999999999999978e-01,-7.514493861400782793e-01,-5.479488535467536003e-02,4.827063905839468205e-01
4.359999999999999987e-01,-3.648084914033185577e-01,-2.823814292848974561e-01,2.893021993533116398e-01
4.369999999999999996e-01,-3.944297382886836206e-03,-2.564809020538108553e-01,-1.370905006154581225e-02
4.380000000000000004e-01,7.578020170495670949e-02,4.516911200694927186e-02,-3.076405244663185656e-01
4.390000000000000013e-01,-1.222135723088993708e-01,4.249561388190114530e-01,-3.887565811071183597e-01
4.400000000000000022e-01,-4.640928891981986326e-01,7.333708458910102035e-01,-2.353691829547743253e-01
4.410000000000000031e-01,-5.556414964817341096e-01,6.903252790448681786e-01,-5.703846551255595254e-02
4.420000000000000040e-01,-3.683343180096222969e-01,3.687977435239031543e-01,2.978792451708091316e-02
4.430000000000000049e-01,1.670595011341187985e-01,-2.833028365766607562e-03,-6.728456022571734085e-02
4.440000000000000058e-01,6.682108861670884581e-01,-2.206928241414523317e-01,-2.510775045541595585e-01
4.450000000000000067e-01,8.491784429368549603e-01,-1.983923351496021115e-01,-4.464015097155769607e-01
4.460000000000000075e-01,7.014330774432900872e-01,2.629601623228570995e-02,-4.359788694445957957e-01
4.470000000000000084e-01,3.099334027860436991e-01,2.047665550064037554e-01,-1.971907384630530446e-01
4.480000000000000093e-01,-4.486055038036465548e-02,5.634695065343476444e-02,1.360508915370222671e-01
4.490000000000000102e-01,-9.900832476384030523e-02,-2.253053827516960927e-01,3.764182085500543118e-01
4.500000000000000111e-01,1.268410364626365305e-01,-5.615046292355780899e-01,4.025417450522860152e-01
4.510000000000000120e-01,3.919518419290218825e-01,-7.010048670414039673e-01,2.579887374992377858e-01
4.520000000000000129e-01,3.761841550544946511e-01,-5.557199682071543023e-01,7.209554132782174107e-02
4.530000000000000138e-01,1.123406143813993757e-01,-2.002941692698063936e-01,-2.538204628358118817e-02
4.540000000000000147e-01,-3.730895600023798053e-01,1.663756701950438455e-01,4.885139821831898516e-02
4.550000000000000155e-01,-7.732692544527689504e-01,2.781788663092404912e-01,2.648484674191435295e-01
4.560000000000000164e-01,-8.415193166370786848e-01,2.058078785366316277e-01,3.702458980042968029e-01
4.570000000000000173e-01,-5.729052223647932429e-01,-9.292513824582550319e-03,3.174015700766572023e-01
4.580000000000000182e-01,-1.528787119164592423e-01,-3.000022453985406665e-02,8.066804202953543890e-02
4.590000000000000191e-01,7.839773011967647587e-02,6.994009095763444039e-02,-2.604347421722416067e-01
4.600000000000000200e-01,1.025289384467523573e-01,3.870949608493259309e-01,-4.297544643963920885e-01
4.610000000000000209e-01,-7.586399789520822945e-02,6.088637119218296423e-01,-3.918919775976306696e-01
4.620000000000000218e-01,-2.829838916427409035e-01,5.860345110559976867e-01,-2.383393018611979775e-01
4.630000000000000226e-01,-2.007084311791141606e-01,3.654848003776443588e-01,-4.856592383228589688e-02
4.640000000000000235e-01,1.442408990104878663e-01,-3.556101694823340237e-02,-1.935431313009570650e-02
4.650000000000000244e-01,5.588756227977480506e-01,-3.095024145629062251e-01,-1.046044399966982313e-01
4.660000000000000253e-01,8.225742902875297080e-01,-3.568673441644604760e-01,-1.911688816585394024e-01
4.670000000000000262e-01,7.755196481970281219e-01,-2.014401991323309660e-01,-2.753834013382624457e-01
4.680000000000000271e-01,4.299777734926503170e-01,-9.448321976550638074e-03,-2.332538036507260104e-01
4.689999999999999725e-01,1.478459186387083048e-02,-3.918152431772612548e-02,4.068604095515478136e-02
4.699999999999999734e-01,-1.950606762261543059e-01,-2.258644270374703389e-01,3.392971004508716359e-01
4.709999999999999742e-01,-1.149001011368292746e-01,-4.516608435357019613e-01,4.722581760960934960e-01
4.719999999999999751e-01,5.692072414949744807e-02,-5.689833220119062673e-01,3.829487331511347015e-01
4.729999999999999760e-01,1.274120804428000853e-01,-4.568333874069551714e-01,1.947733526742824184e-01
4.739999999999999769e-01,2.696761325345423815e-02,-9.055244843539485278e-02,5.612978644720448967e-02
4.749999999999999778e-01,-3.772271969412777093e-01,2.418000871079955816e-01,4.732024586308771971e-03
4.759999999999999787e-01,-7.211739090604530888e-01,3.930326780888827032e-01,1.050725885312172730e-01
4.769999999999999796e-01,-8.339369982381384938e-01,3.078611005783631893e-01,2.058475342737401681e-01
4.779999999999999805e-01,-5.734976711877463051e-01,1.619237555591313549e-01,1.890305445521084093e-01
4.789999999999999813e-01,-1.848884862198857393e-01,3.969669841111098108e-02,1.002630354234453902e-01
4.799999999999999822e-01,1.377594567818445082e-01,1.312192362152362346e-01,-1.899932036434699989e-01
4.809999999999999831e-01,2.681306056402998350e-01,3.718087448201138345e-01,-4.185756458499408361e-01
4.819999999999999840e-01,1.324019912381018960e-01,4.987990263887245312e-01,-4.369608935793889426e-01
4.829999999999999849e-01,-6.717951694943845309e-02,4.911803813507124583e-01,-3.361682794722043455e-01
4.839999999999999858e-01,-1.586731118064633322e-02,2.342240832098336500e-01,-1.389234259430710827e-01
4.849999999999999867e-01,1.897399814994332745e-01,-1.789591349189145753e-01,-3.882972416356127686e-03
4.859999999999999876e-01,5.398676466829295251e-01,-4.240400607323864257e-01,-5.407705304408157165e-03
4.869999999999999885e-01,7.586409206422946028e-01,-4.477748354083053162e-01,-1.029984185608355390e-01
4.879999999999999893e-01,7.371385718502106998e-01,-2.551412990919562640e-01,-1.606414604482172270e-01
4.889999999999999902e-01,3.689407677155511767e-01,-9.011962468996129183e-02,-1.466446897788778458e-01
4.899999999999999911e-01,-5.929722487593051816e-02,-3.560813247135411613e-02,8.950852029231602669e-02
4.909999999999999920e-01,-3.047315702426458550e-01,-2.206418043164566634e-01,2.894248619259528477e-01
4.919999999999999929e-01,-3.063734210906245425e-01,-4.244669297491668880e-01,4.454191845054610299e-01
4.929999999999999938e-01,-1.320341553790398692e-01,-5.015920247240245322e-01,4.359166389195924807e-01
4.939999999999999947e-01,1.818646479876842581e-02,-3.204512080580667055e-01,2.565518671768561854e-01
4.949999999999999956e-01,-3.877691528560087142e-02,7.215929097307739737e-02,8.332802600992238184e-02
4.959999999999999964e-01,-3.345037214426857530e-01,4.159777909248497663e-01,-8.307885849973493941e-02
4.969999999999999973e-01,-6.490471742455584669e-01,5.118830131842420084e-01,-5.662793746245205900e-02
4.979999999999999982e-01,-7.877635705582862746e-01,4.075464037353657698e-01,6.916239281193184429e-02
4.989999999999999991e-01,-5.750340342504410840e-01,1.953321226919558229e-01,9.958461942778354392e-02
5.000000000000000000e-01,-1.303327225807765222e-01,2.294632180718605020e-03,8.656409426916225613e-02
5.010000000000000009e-01,2.857994174442552437e-01,5.070568705502528917e-02,-1.339868123377602749e-01
5.020000000000000018e-01,4.491476152804883548e-01,2.991498984586075105e-01,-4.116880498335622751e-01
5.030000000000000027e-01,3.564604445684678158e-01,4.297640357830710967e-01,-4.967265331364856262e-01
5.040000000000000036e-01,7.912638092941710888e-02,3.926420338804038068e-01,-4.134627095524691653e-01
5.050000000000000044e-01,7.689776483419659067e-03,1.061369228618101040e-01,-1.785946086830436097e-01
5.060000000000000053e-01,1.291098968374479461e-01,-3.054782764890103808e-01,2.469424819069180460e-02
5.070000000000000062e-01,4.481160605413370135e-01,-5.634848744439140411e-01,1.583129492552256545e-01
5.080000000000000071e-01,7.234371039739043718e-01,-5.822734806191662837e-01,1.228985710456276526e-01
5.090000000000000080e-01,7.245103141327257079e-01,-3.344688904921277461e-01,-3.231368077058107552e-02
5.100000000000000089e-01,3.658079977933241800e-01,-7.050664770155541661e-02,-1.144880806570578585e-01
5.110000000000000098e-01,-1.568193093882492561e-01,8.218521906276466532e-03,-2.474656886388882857e-02
5.120000000000000107e-01,-5.371641795441999268e-01,-1.102856768797635112e-01,2.161262636290476324e-01
5.130000000000000115e-01,-6.072121929267799700e-01,-3.122654548094134230e-01,4.409869326534909262e-01
5.140000000000000124e-01,-3.456306111334828679e-01,-4.240494112578604424e-01,5.336060033935096092e-01
5.150000000000000133e-01,-3.798975881537837440e-02,-2.161826208595866439e-01,3.918981513113991566e-01
5.160000000000000142e-01,1.473713201848137443e-02,1.450443310772231154e-01,6.352911746148369454e-02
5.170000000000000151e-01,-1.839503186189002937e-01,5.318619533146695666e-01,-1.716895551500353945e-01
5.180000000000000160e-01,-5.133721381517708515e-01,6.934058065323934761e-01,-2.152024807846958099e-01
5.190000000000000169e-01,-7.182121983717666414e-01,5.446000570640836536e-01,-1.520148166179830784e-01
5.200000000000000178e-01,-6.075064127065480379e-01,2.173207932134057496e-01,5.644667634855658755e-02
5.210000000000000187e-01,-1.736689448270920810e-01,-6.491546726608468654e-02,1.177825873573336291e-01
5.220000000000000195e-01,3.961412470239127903e-01,-9.512543753129941437e-02,-7.602560869526321652e-02
5.230000000000000204e-01,7.048501833817019113e-01,1.093160795359748722e-01,-2.970844728683402769e-01
5.240000000000000213e-01,6.795148290038618422e-01,3.090434287365044774e-01,-5.059445020744317567e-01
5.250000000000000222e-01,3.362987389406292826e-01,3.626394078686840383e-01,-5.108902038817058067e-01
5.260000000000000231e-01,2.823415575914174983e-02,6.286477935991531540e-02,-2.585567434508074802e-01
5.270000000000000240e-01,-3.758832101998668684e-02,-3.938889972701812847e-01,1.887686115105734197e-02
5.280000000000000249e-01,1.959835906488782420e-01,-7.139687716342818513e-01,2.368153566372638852e-01
5.290000000000000258e-01,5.222386594151566808e-01,-7.445542706190131366e-01,3.266876672748361132e-01
5.300000000000000266e-01,6.685019944445911300e-01,-4.490391370238726587e-01,1.436771791606445692e-01
5.310000000000000275e-01,4.190887148660284445e-01,-5.407028160673867795e-02,-1.446513340703996448e-03
5.320000000000000284e-01,-1.130891708649904848e-01,1.700121011430142381e-01,-8.543139728667860366e-02
5.330000000000000293e-01,-6.411770803339272851e-01,1.739253616361497445e-01,8.853875876272286616e-02
5.340000000000000302e-01,-8.333893018088683879e-01,-5.889074844379580537e-02,3.122130232175958642e-01
5.350000000000000311e-01,-6.637129106297819936e-01,-2.768670190064727032e-01,4.990545601649136742e-01
5.360000000000000320e-01,-2.628576582186251120e-01,-2.545766774471846516e-01,4.796455124888042709e-01
5.370000000000000329e-01,6.143937615779560685e-02,1.174395743610183868e-01,2.344296181457696804e-01
5.380000000000000338e-01,1.097417336121080250e-01,5.340455266425776504e-01,-1.072552416963549887e-01
5.390000000000000346e-01,-2.022601123216522245e-01,7.705861574759629296e-01,-3.687597860531415250e-01
5.400000000000000355e-01,-4.772960794640019322e-01,6.801289063923209310e-01,-4.120755112633236461e-01
5.410000000000000364e-01,-5.328902287783067182e-01,2.830055997150435210e-01,-1.991204778617017002e-01
5.420000000000000373e-01,-2.346291049353302627e-01,-1.389748537092448666e-01,-1.009833814210218906e-03
5.430000000000000382e-01,2.981575474763383249e-01,-3.010773226291703630e-01,6.108978896094966610e-02
5.440000000000000391e-01,8.014158362196592833e-01,-1.888040455380139426e-01,-8.875241623700791394e-02
5.450000000000000400e-01,9.022420680474437793e-01,6.870019392402793024e-02,-3.035163721406891058e-01
5.460000000000000409e-01,6.504771541014471303e-01,2.189517474482173265e-01,-4.846504361346943845e-01
5.470000000000000417e-01,1.767548213805496538e-01,8.600402795044935489e-02,-4.211804570013810700e-01
5.480000000000000426e-01,-1.651843169414955459e-01,-2.886107820833658244e-01,-1.217739921180297086e-01
5.490000000000000435e-01,-1.483076211069499495e-01,-6.504694043814576165e-01,2.009477876178877298e-01
5.500000000000000444e-01,1.594461697365243957e-01,-7.662992907811018162e-01,4.570518261898013357e-01
5.510000000000000453e-01,4.315585650334133327e-01,-5.186282207927446208e-01,4.573313419651377498e-01
5.520000000000000462e-01,4.115033979991941648e-01,-8.936469276085291791e-02,2.199391177769216554e-01
5.530000000000000471e-01,4.266377136827725208e-02,2.955589573513781043e-01,1.236274514164578328e-02
5.540000000000000480e-01,-4.875862251554683446e-01,3.767164072442756861e-01,-2.961342305326000734e-02
5.550000000000000488e-01,-9.122337909089223151e-01,2.200509066446692530e-01,4.763824358837459583e-02
5.560000000000000497e-01,-9.168240272310500538e-01,-1.065845069110617563e-02,2.728021029092325689e-01
5.570000000000000506e-01,-5.403508483456462841e-01,-1.157434848635034708e-01,3.979643787879095784e-01
5.580000000000000515e-01,-7.143704118810489945e-02,5.412068020500152010e-02,3.221314775567643562e-01
5.590000000000000524e-01,2.629537331331650019e-01,4.061084650122007145e-01,5.046737374252695946e-02
5.600000000000000533e-01,2.119592366942138206e-01,6.723904450780705533e-01,-3.167849672660440485e-01
5.610000000000000542e-01,-1.009552564140063918e-01,6.349166031924882159e-01,-5.032832721162432410e-01
5.620000000000000551e-01,-3.330906643507572928e-01,3.217459632219681342e-01,-4.456247220521200036e-01
5.629999999999999449e-01,-2.507592615431232796e-01,-1.135197045059093413e-01,-2.004002236682430882e-01
5.639999999999999458e-01,1.545959858427097544e-01,-4.076907822258362124e-01,-2.250545788577314188e-03
5.649999999999999467e-01,6.674785819936664977e-01,-4.355514240786216296e-01,6.826928567526291403e-02
5.659999999999999476e-01,9.128992921779626180e-01,-2.020002723626436181e-01,-6.330134733206822795e-02
5.669999999999999485e-01,8.327943995354831763e-01,6.820005678581869679e-02,-2.134020004444656393e-01
5.679999999999999494e-01,3.890036875180211129e-01,5.361061441599986738e-02,-3.181559542041804134e-01
5.689999999999999503e-01,-8.472448487603721767e-02,-1.666339317479814675e-01,-2.095793354184228852e-01
5.699999999999999512e-01,-3.356915541204285591e-01,-5.121922904832084678e-01,8.599125133547751154e-02
5.709999999999999520e-01,-2.301084593151028757e-01,-6.458048165316787603e-01,3.848341503290294563e-01
5.719999999999999529e-01,3.402257108161745730e-02,-5.033545455084383891e-01,5.516597046735820520e-01
5.729999999999999538e-01,2.115612160903899419e-01,-8.769827065261014132e-02,4.487181352187682437e-01
5.739999999999999547e-01,9.053839894760257190e-02,3.058785737014598216e-01,2.118178680253760271e-01
5.749999999999999556e-01,-2.891072211201286546e-01,5.078671013261571998e-01,-7.517954865474039960e-03
5.759999999999999565e-01,-7.421736337997950628e-01,4.105155997716808391e-01,-8.947818253807321431e-02
5.769999999999999574e-01,-8.722997592752512741e-01,1.810898414055295003e-01,-6.635093349058359367e-03
5.779999999999999583e-01,-6.582461323757154981e-01,4.555255962725256527e-03,1.657998816267132192e-01
5.789999999999999591e-01,-2.074705865311669839e-01,5.324343928681683769e-02,2.565078714953111239e-01
5.799999999999999600e-01,2.270600608415210275e-01,2.837926635704699496e-01,1.169820458042006017e-01
5.809999999999999609e-01,3.789668714707761232e-01,5.108797984397457359e-01,-1.703343987595869191e-01
5.819999999999999618e-01,2.922290687198556558e-01,4.950558500999461264e-01,-4.195570750090798495e-01
5.829999999999999627e-01,1.537009998214331971e-02,2.735099212132436342e-01,-5.545066915187971679e-01
5.839999999999999636e-01,-8.760744423675054238e-02,-1.056857655081053504e-01,-4.266424471535261720e-01
5.849999999999999645e-01,8.067005069312899179e-02,-5.039913302136890261e-01,-1.250906318240292137e-01
5.859999999999999654e-01,4.709018957661889604e-01,-5.036519526275645697e-01,4.041011108214541403e-02
5.869999999999999662e-01,7.449254172782134864e-01,-3.471854501058582176e-01,9.958866681816447297e-02
5.879999999999999671e-01,7.520823415289114022e-01,-1.570893213876977390e-01,2.393861933724728691e-02
5.889999999999999680e-01,4.340537055343824391e-01,-2.626254413244261815e-02,-1.288541765466375277e-01
5.899999999999999689e-01,-2.173503499246563081e-02,-1.051018012105843502e-01,-1.569592252564607215e-01
5.909999999999999698e-01,-3.994730912384676369e-01,-3.296296636258855273e-01,6.198477005810446722e-02
5.919999999999999707e-01,-4.755853073809375164e-01,-4.611601737316706195e-01,2.806707141116563942e-01
5.929999999999999716e-01,-2.631957890610518436e-01,-2.961268065201844712e-01,4.719562210704152938e-01
5.939999999999999725e-01,-6.021770292755779241e-02,-6.875207454946002245e-03,4.844903931700261235e-01
5.949999999999999734e-01,1.992462268258859970e-03,3.891856629805157120e-01,3.168010155314331944e-01
5.959999999999999742e-01,-2.445909148708497183e-01,6.114937894836437460e-01,6.936049581258225960e-02
5.969999999999999751e-01,-5.426862616286967089e-01,5.042767345793436329e-01,-9.697012259403191281e-02
5.979999999999999760e-01,-7.095235463521492036e-01,2.878775603361695690e-01,-1.419771937880655310e-01
5.989999999999999769e-01,-5.985143655180996669e-01,3.149858531607873519e-02,-5.105703489967215736e-02
5.999999999999999778e-01,-1.853784653900959478e-01,3.915940281255961969e-02,7.147906187942114353e-02
6.009999999999999787e-01,2.319875039058477695e-01,1.717040953292502947e-01,7.867996760151145519e-02
6.019999999999999796e-01,4.708130627944728808e-01,3.197717053028031886e-01,-1.401844320840606173e-01
6.029999999999999805e-01,4.727838919234774173e-01,3.456044185839406979e-01,-3.430462921498010909e-01
6.039999999999999813e-01,2.330367153558051130e-01,1.042691530164073371e-01,-4.509669145752286945e-01
6.049999999999999822e-01,8.833860851320259056e-02,-2.199874925974447115e-01,-4.142063562789052855e-01
6.059999999999999831e-01,1.172639598940851541e-01,-5.224490155025475202e-01,-2.035937224916606614e-01
6.069999999999999840e-01,3.693747473872579512e-01,-5.566945558785869608e-01,2.041366028574389049e-02
6.079999999999999849e-01,5.983101471527066950e-01,-4.005525592163802773e-01,1.230363608119526136e-01
6.089999999999999858e-01,6.072989488943940639e-01,-1.523114753187498338e-01,1.436458274512748545e-01
6.099999999999999867e-01,3.527137516842424048e-01,-9.990511026752522603e-03,4.726731161211439325e-02
6.109999999999999876e-01,-1.003986432466065504e-01,-1.002566190875697934e-02,-3.943554099176849181e-02
6.119999999999999885e-01,-4.845328516746674752e-01,-2.078882778882340798e-01,1.528702253818265376e-02
6.129999999999999893e-01,-5.534363001085641498e-01,-3.073686234533459793e-01,1.883915717369101239e-01
6.139999999999999902e-01,-4.069322986137283160e-01,-1.696826947582046052e-01,3.868037026902373388e-01
6.149999999999999911e-01,-1.821749882274219801e-01,1.406955131881667820e-01,4.352995020540706417e-01
6.159999999999999920e-01,-9.104035601960039359e-02,4.822638629915599329e-01,3.526683611028952336e-01
6.169999999999999929e-01,-1.568949104405768791e-01,6.484478469225964936e-01,1.018890919061864603e-01
6.179999999999999938e-01,-4.256568652278141518e-01,5.120069532401324564e-01,-1.058937187462017232e-01
6.189999999999999947e-01,-5.879492045967904534e-01,2.508212716076170801e-01,-2.176993857445084501e-01
6.199999999999999956e-01,-4.750216533925566420e-01,-2.459019856038209724e-03,-1.901441923142598300e-01
6.209999999999999964e-01,-1.259786916827745906e-01,-3.261616472307032888e-02,-7.448784643055247900e-02
6.219999999999999973e-01,3.432833757822733034e-01,3.927064723069070840e-02,5.722654508696916817e-03
6.229999999999999982e-01,6.363545478298058278e-01,1.681968376649945474e-01,-9.216130409763308162e-02
6.239999999999999991e-01,6.165716335345716725e-01,1.734098515264959617e-01,-2.733739147541732195e-01
6.250000000000000000e-01,3.627496644597612008e-01,-1.839508020613444747e-02,-4.398688039544307871e-01
6.260000000000000009e-01,9.909942983974820430e-02,-3.692378911626881255e-01,-4.390078741997301415e-01
6.270000000000000018e-01,1.338235280980229827e-02,-6.685204117635356047e-01,-2.702486706981465647e-01
6.280000000000000027e-01,2.365838746999198994e-01,-6.499802535354273214e-01,8.766851267358750574e-03
6.290000000000000036e-01,4.598225285554775610e-01,-4.027127024892456220e-01,2.373432606658067989e-01
6.300000000000000044e-01,5.417355971350750199e-01,-8.433129858418308977e-02,3.087479399428160742e-01
6.310000000000000053e-01,2.717375638688248607e-01,1.034419940733048299e-01,1.969977019977479926e-01
6.320000000000000062e-01,-1.583654927559374759e-01,1.031009224477968944e-01,6.944168900075216311e-02
6.330000000000000071e-01,-6.029974364211934112e-01,-7.416354493532850700e-02,-1.932289241375342468e-03
6.340000000000000080e-01,-7.644883486629820979e-01,-1.860852733370911560e-01,1.512710024395373942e-01
6.350000000000000089e-01,-5.954335068482905502e-01,-1.086663959252267830e-01,3.075699933219115390e-01
6.360000000000000098e-01,-2.549717075347083806e-01,2.334839910473287816e-01,4.538437372569377737e-01
6.370000000000000107e-01,-1.967981004152738120e-02,5.382715312623695958e-01,3.674876347778119334e-01
6.380000000000000115e-01,3.637771900247534218e-03,7.342762302616655523e-01,1.838877827709054225e-01
6.390000000000000124e-01,-1.884810687159634290e-01,5.622077185411825662e-01,-1.442336984130590527e-01
6.400000000000000133e-01,-4.502414482128262452e-01,2.533332337761269315e-01,-3.540855748299807093e-01
6.410000000000000142e-01,-4.580797448572548336e-01,-1.570130575942700335e-01,-3.563417396304859874e-01
6.420000000000000151e-01,-6.632952961745697262e-02,-2.752230772228929645e-01,-2.064530318284537036e-01
6.430000000000000160e-01,4.201367665288994191e-01,-1.632970505124910487e-01,-1.919590448155523640e-02
6.440000000000000169e-01,7.736414874475293635e-01,3.824645084789950883e-02,2.187115772025400792e-02
6.450000000000000178e-01,8.303084259832457237e-01,1.495125665769399814e-01,-1.387994233124416055e-01
6.460000000000000187e-01,5.267204645016569931e-01,-1.131836492776595177e-02,-3.318560421051323650e-01
6.470000000000000195e-01,1.188010549985207692e-01,-4.135628432127516074e-01,-4.443748084874324378e-01
6.480000000000000204e-01,-1.443855502473891383e-01,-6.817425342678765654e-01,-3.249712093974820304e-01
6.490000000000000213e-01,-1.049515828039517262e-01,-6.894565363656602885e-01,-4.488893952492357259e-02
6.500000000000000222e-01,1.897619795102406248e-01,-3.916549894616663252e-01,2.594408757106725916e-01
6.510000000000000231e-01,3.887066501859569589e-01,7.927850531356566560e-03,4.248765348409767606e-01
6.520000000000000240e-01,3.126952768062625232e-01,3.365976836600380606e-01,3.817674202500903058e-01
6.530000000000000249e-01,-8.251284734955229017e-02,3.655054782029392157e-01,1.953025255786695336e-01
6.540000000000000258e-01,-6.269058484001253095e-01,1.779091706729040157e-01,-4.483325210586823831e-03
6.550000000000000266e-01,-9.211239669927400175e-01,-5.265552861526080070e-02,-3.781344287773859281e-02
6.560000000000000275e-01,-8.467260865392449709e-01,-1.082216861937491392e-01,1.104393051130004300e-01
6.570000000000000284e-01,-4.417756418633574378e-01,1.289955829813086430e-01,3.141347822975046333e-01
6.580000000000000293e-01,6.270300036764862861e-02,5.100158612354873666e-01,3.927565651143693493e-01
6.590000000000000302e-01,2.903863771259965199e-01,7.195259358332192212e-01,2.395072160551472151e-01
6.600000000000000311e-01,1.852678585183403503e-01,6.393298997510051818e-01,-3.172521598419299899e-02
6.610000000000000320e-01,-1.408226436646619895e-01,2.095205016413586308e-01,-3.685645984953063170e-01
6.620000000000000329e-01,-3.245833670900740708e-01,-2.407050313606336478e-01,-5.194545538972106247e-01
6.630000000000000338e-01,-1.863536668012730491e-01,-4.755949358159850537e-01,-4.128587476846817261e-01
6.640000000000000346e-01,2.802735381059490161e-01,-4.426007195893684742e-01,-1.751843165830142823e-01
6.650000000000000355e-01,8.043470405869392881e-01,-1.578760706521658563e-01,1.958115254024626536e-02
6.660000000000000364e-01,9.815241808856457473e-01,5.412003589531644288e-02,4.181130255410987762e-02
6.670000000000000373e-01,7.605242882245210057e-01,6.234514600802334994e-02,-5.603831255771325043e-02
6.680000000000000382e-01,2.471894015015569934e-01,-2.480290062437546517e-01,-2.561208836700236691e-01
6.690000000000000391e-01,-2.321345724258515875e-01,-5.578652885971779884e-01,-3.274434708070231848e-01
6.700000000000000400e-01,-4.296436499822029464e-01,-6.475781256354551374e-01,-1.833510898798499378e-01
6.710000000000000409e-01,-2.296468730691098858e-01,-4.177161137813340530e-01,1.270293180417998713e-01
6.720000000000000417e-01,9.745375127292457695e-02,1.773898014129934517e-02,4.412863412298685395e-01
6.730000000000000426e-01,2.399674268259519294e-01,4.168732649801903389e-01,5.719864956334272943e-01
6.740000000000000435e-01,3.792748752600742790e-02,5.984952961570115804e-01,4.145116428824100474e-01
6.750000000000000444e-01,-4.264047971655799407e-01,3.987091202473562745e-01,1.573220717719312212e-01
6.760000000000000453e-01,-8.444773843791432144e-01,9.829358604807784949e-02,-7.894205256425058936e-02
6.770000000000000462e-01,-9.447551713389725769e-01,-6.336046528858892135e-02,-1.246743531287776569e-01
6.780000000000000471e-01,-6.334461305010895549e-01,-1.709670059991618904e-02,5.160069820084833836e-02
6.790000000000000480e-01,-5.153062223378299805e-02,2.916211956745519140e-01,1.994825380002636095e-01
6.800000000000000488e-01,3.721671632293714893e-01,5.068494825705769369e-01,2.839860069172970847e-01
6.810000000000000497e-01,5.158764869287576493e-01,5.259602389081616813e-01,5.389165313322452633e-02
6.820000000000000506e-01,3.018035026525438536e-01,2.246541472228076319e-01,-2.221546470624995440e-01
6.830000000000000515e-01,-2.798863229200578007e-02,-2.468703271709647984e-01,-5.268181449037061537e-01
6.840000000000000524e-01,-1.573678363424957649e-01,-5.680283209541483469e-01,-5.846511349426327664e-01
6.850000000000000533e-01,6.106520285527733405e-02,-6.440203096215847411e-01,-3.803023134955899609e-01
6.860000000000000542e-01,4.945076789883652846e-01,-3.553146224555230881e-01,-1.422316957329859133e-01
6.870000000000000551e-01,8.524901265575918208e-01,-4.521906413591934848e-02,1.348489806735246044e-01
6.879999999999999449e-01,8.133113548732465725e-01,8.993561752504321272e-02,1.729472605437890331e-01
6.889999999999999458e-01,4.091653754444612434e-01,-3.840468652023326657e-02,1.899646640184317684e-02
6.899999999999999467e-01,-1.404887685240458484e-01,-3.199613190953163322e-01,-1.517540457463029402e-01
6.909999999999999476e-01,-5.274354732385573286e-01,-4.837821780019885276e-01,-1.865936437194994080e-01
6.919999999999999485e-01,-5.694346629544129179e-01,-3.830678276766359969e-01,-6.447016078082469168e-03
6.929999999999999494e-01,-3.010411637308916255e-01,9.056216144011898506e-03,2.654257376608375463e-01
6.939999999999999503e-01,-2.278376381452872426e-02,4.524601377379057765e-01,5.094323491115267943e-01
6.949999999999999512e-01,6.590853848035216345e-02,6.863414792275680520e-01,5.402092422383958370e-01
6.959999999999999520e-01,-1.732366176356095466e-01,5.810284116236091867e-01,3.553294443855105622e-01
6.969999999999999529e-01,-5.618015947542274180e-01,2.851110120713488683e-01,2.797184858960441445e-02
6.979999999999999538e-01,-7.801159830300398168e-01,6.112382304464220950e-05,-2.164969905997092270e-01
6.989999999999999547e-01,-6.492078688487661342e-01,-3.912658591666175883e-02,-2.129039974963409243e-01
6.999999999999999556e-01,-1.801525135757365004e-01,1.150258234359994580e-01,-7.290457988096259168e-02
7.009999999999999565e-01,3.198454849840367542e-01,3.010103114326820317e-01,1.181682867576526047e-01
7.019999999999999574e-01,6.563448407268794860e-01,3.573407464312367554e-01,8.967442156862033553e-02
7.029999999999999583e-01,6.012631194556068426e-01,1.716871772916179206e-01,-7.138810210829391045e-02
7.039999999999999591e-01,2.804115163154279333e-01,-2.391999119635236648e-01,-3.629106805917207135e-01
7.049999999999999600e-01,2.246804458057058071e-02,-5.785139420984197756e-01,-5.038604822790963000e-01
7.059999999999999609e-01,1.760140502178186850e-02,-6.657198318256970504e-01,-4.720830464344035748e-01
7.069999999999999618e-01,2.981018394965902485e-01,-4.886103970466079693e-01,-2.503287850533842396e-01
7.079999999999999627e-01,5.625891171872948737e-01,-1.504043162530429856e-01,7.475188445076338950e-02
7.089999999999999636e-01,6.497729893978847482e-01,5.392256106982951103e-02,2.809512794084410570e-01
7.099999999999999645e-01,4.222816923611593665e-01,7.766327688874280488e-02,2.285708060788552431e-01
7.109999999999999654e-01,-8.297257354722251121e-02,-1.038761752419147533e-01,8.212554174954715680e-02
7.119999999999999662e-01,-5.296182806924022435e-01,-2.580079194237627216e-01,-3.229604357012361149e-02
7.129999999999999671e-01,-7.096420111767973715e-01,-1.862484850439183603e-01,-6.047583600773495660e-03
7.139999999999999680e-01,-5.623713737283698721e-01,1.127885908053890968e-01,1.765126960102693932e-01
7.149999999999999689e-01,-2.491723696227722828e-01,4.315634433524715430e-01,3.432211560325251209e-01
7.159999999999999698e-01,-6.188773445727872857e-02,6.874690439421389243e-01,4.845029509918262756e-01
7.169999999999999707e-01,-8.297197600620975777e-02,6.002327661865967112e-01,4.371233361750904156e-01
7.179999999999999716e-01,-2.839436090155576520e-01,3.140254495053352302e-01,1.347347589711761218e-01
7.189999999999999725e-01,-5.124132575607762696e-01,1.671254385908080287e-02,-1.706327459734323371e-01
7.199999999999999734e-01,-4.889718309436446586e-01,-1.134186820092518977e-01,-2.948534469221664733e-01
7.209999999999999742e-01,-1.444278744361052469e-01,-5.725313866337387869e-02,-2.823091119054316200e-01
7.219999999999999751e-01,3.379329625994327291e-01,7.357883664658934619e-02,-1.218081777887889683e-01
7.229999999999999760e-01,6.694774394349501945e-01,1.242983857618376459e-01,-2.483252343411759475e-02
7.239999999999999769e-01,7.215931820924827989e-01,9.542467704744341667e-03,-6.882111449451859542e-02
7.249999999999999778e-01,4.954227768746113370e-01,-2.912505899211196292e-01,-2.055070714480962124e-01
7.259999999999999787e-01,1.741316700513611815e-01,-5.988085664023179433e-01,-3.627004109233977758e-01
7.269999999999999796e-01,2.628790207927368325e-02,-6.401188011794186616e-01,-4.183048251275099383e-01
7.279999999999999805e-01,9.403144064346355413e-02,-4.591886601680646995e-01,-2.724344530886571580e-01
7.289999999999999813e-01,2.990720807035812667e-01,-1.518958782536440066e-01,-2.566104048274821248e-03
7.299999999999999822e-01,3.950373183661723964e-01,9.604789094685273199e-02,2.198916464490867362e-01
7.309999999999999831e-01,2.336689727779556747e-01,1.588401821669351288e-01,3.124937811940415311e-01
7.319999999999999840e-01,-1.341570216581537134e-01,8.565113915115536714e-02,2.260452708046005177e-01
7.329999999999999849e-01,-5.135801887611425309e-01,-8.022131343441742113e-02,1.022033851722885522e-01
7.339999999999999858e-01,-7.770568358989295987e-01,-1.920362829541272590e-02,-4.373392769326871557e-03
7.349999999999999867e-01,-6.499629461470138869e-01,1.941068461455699168e-01,7.148045373844931494e-02
7.359999999999999876e-01,-3.840814651170475491e-01,4.883606505048951330e-01,2.558001334573491992e-01
7.369999999999999885e-01,-5.587111664835036490e-02,6.751170317472853233e-01,3.297790929876753263e-01
7.379999999999999893e-01,4.131115585990711991e-02,5.355211738595228033e-01,3.331373147380792266e-01
7.389999999999999902e-01,-1.347138135184468566e-01,2.407880760634466544e-01,1.441296825097265477e-01
7.399999999999999911e-01,-3.212580695033723233e-01,-8.436452889510843989e-02,-1.113861495474962188e-01
7.409999999999999920e-01,-3.245638582979880615e-01,-2.508330369815594540e-01,-3.292033068258140016e-01
7.419999999999999929e-01,-4.127395341936795914e-02,-1.889650952275312712e-01,-3.521237943277590876e-01
7.429999999999999938e-01,3.442371361020387655e-01,-3.885653221975761407e-02,-2.381230145022616707e-01
7.439999999999999947e-01,6.868257140675866346e-01,2.751101915870571984e-02,-1.091785779648809102e-01
7.449999999999999956e-01,8.078613663532884237e-01,-6.854395076979361012e-02,-4.016181580259233636e-02
7.459999999999999964e-01,5.559734657713198969e-01,-3.412295817518736785e-01,-1.046511937181281021e-01
7.469999999999999973e-01,1.559431195954148752e-01,-5.863582358729507726e-01,-2.907310348173706704e-01
7.479999999999999982e-01,-5.621284263237722595e-02,-5.798235810230736309e-01,-3.254261989523064558e-01
7.489999999999999991e-01,-5.501332720140482413e-02,-3.655746708265220635e-01,-2.516783427379495897e-01
7.500000000000000000e-01,7.490896024296167521e-02,-1.071689587670116017e-02,-3.619131132971527276e-02
7.510000000000000009e-01,2.526761162083988044e-01,2.840668087508517736e-01,2.132481663811380268e-01
7.520000000000000018e-01,1.697670956535760056e-01,3.410221321832272445e-01,3.961355418724190613e-01
7.530000000000000027e-01,-1.554969579668973867e-01,1.911159068213856838e-01,3.957873189454075291e-01
7.540000000000000036e-01,-6.046500979069820980e-01,5.483428393922998995e-02,2.025419561621753239e-01
7.550000000000000044e-01,-8.210679723267130248e-01,-3.772443978751684190e-03,7.520114120710021111e-02
7.560000000000000053e-01,-7.383632486625774094e-01,1.965377685039751132e-01,2.082777242711473815e-03
7.570000000000000062e-01,-3.957835562855863687e-01,4.707972043756249447e-01,8.958173160596114015e-02
7.580000000000000071e-01,2.765571615047520901e-02,6.667770627677268580e-01,2.808468555061361394e-01
7.590000000000000080e-01,1.837973433524406897e-01,4.989610348932326245e-01,2.948420456744857976e-01
7.600000000000000089e-01,1.127578846443349353e-01,1.425030487101782983e-01,1.625315544070797535e-01
7.610000000000000098e-01,-1.269347276214507214e-01,-2.676115408603684243e-01,-1.099097867827151104e-01
7.620000000000000107e-01,-1.892914727080164117e-01,-4.169148517355344419e-01,-3.430173028864926810e-01
7.630000000000000115e-01,-3.760334162999313945e-02,-3.821293680568047524e-01,-5.083419823341741584e-01
7.640000000000000124e-01,3.421809675376120685e-01,-1.484941340604321869e-01,-3.733221150876759875e-01
7.650000000000000133e-01,7.274094817718358419e-01,2.558320389517974164e-02,-1.823915403126916135e-01
7.660000000000000142e-01,9.106827371899421930e-01,-3.779466228129957361e-02,1.346599649972785896e-02
7.670000000000000151e-01,6.361452161235224834e-01,-2.636463460228566369e-01,1.057646628892813280e-02
7.680000000000000160e-01,1.657800799982462325e-01,-5.625339899278820610e-01,-1.048575417882812860e-01
7.690000000000000169e-01,-2.009567688308274702e-01,-5.785367543507771160e-01,-2.532492251133885430e-01
7.700000000000000178e-01,-3.515119416665784535e-01,-3.409806309130217206e-01,-2.546767884263343995e-01
7.710000000000000187e-01,-1.741842420789239398e-01,1.168530807635466268e-01,-8.490888137399550673e-02
7.720000000000000195e-01,8.639872837591278110e-02,4.321309945439321121e-01,1.921357647616817599e-01
7.730000000000000204e-01,1.713583885376104288e-01,5.085658613300969577e-01,4.210307793733258919e-01
7.740000000000000213e-01,-8.119598203309585926e-02,3.709931704634912286e-01,5.060831213055785316e-01
7.750000000000000222e-01,-4.964614397031668624e-01,9.522063886829537638e-02,4.046871077373015435e-01
7.760000000000000231e-01,-8.608692889097732115e-01,-5.171977749995020773e-02,1.078922419991533294e-01
7.770000000000000240e-01,-8.696098025109511021e-01,4.532988402677635281e-02,-4.437492207706368597e-02
7.780000000000000249e-01,-4.716696606535137892e-01,3.579096164343918973e-01,-8.314732879819394795e-02
7.790000000000000258e-01,2.900206918563830172e-02,5.471139286659241208e-01,5.169529805391878674e-02
7.800000000000000266e-01,4.569496663765557631e-01,4.588520381575969531e-01,2.067634433275472305e-01
7.810000000000000275e-01,4.915812898447222135e-01,1.169534256234226743e-01,1.924645643394396755e-01
7.820000000000000284e-01,1.933308154467534290e-01,-3.241714807288853528e-01,-2.895325004700403590e-02
7.830000000000000293e-01,-6.121090498654702117e-02,-6.334074959750419787e-01,-3.301941364060267947e-01
7.840000000000000302e-01,-1.053945624749035859e-01,-5.883314045636561795e-01,-5.250661348661768146e-01
7.850000000000000311e-01,1.754557969295141573e-01,-2.931429873426960597e-01,-5.641732792388259865e-01
7.860000000000000320e-01,5.872286251503883170e-01,5.638790319557499681e-03,-3.364768961012120640e-01
7.870000000000000329e-01,8.739173061963965150e-01,1.009264431446366822e-01,-3.386561733484828862e-02
7.880000000000000338e-01,7.341317543764235287e-01,-8.636549672811534573e-02,1.479208738505255749e-01
7.890000000000000346e-01,2.914000042103491728e-01,-3.681177884884411222e-01,1.419307512515712577e-01
7.900000000000000355e-01,-3.056841187046273611e-01,-5.017076764634180730e-01,-2.326580286680348525e-02
7.910000000000000364e-01,-6.276737777101304427e-01,-2.994028499294346113e-01,-1.156966495733068173e-01
7.920000000000000373e-01,-5.674475905089794159e-01,1.083865838837934636e-01,-1.561542332790783194e-01
7.930000000000000382e-01,-2.427177082870034253e-01,5.492315093476431986e-01,6.880048549814471448e-02
7.940000000000000391e-01,4.127306345285079725e-02,7.622572652855315045e-01,3.579777968232230601e-01
7.950000000000000400e-01,3.530355292376537168e-02,5.965140798399218847e-01,5.919001111609700772e-01
7.960000000000000409e-01,-2.265154640627714822e-01,2.065657959145281719e-01,5.330003358977962735e-01
7.970000000000000417e-01,-6.864224435909599409e-01,-7.635778514814388351e-02,2.750440468186162724e-01
7.980000000000000426e-01,-8.191402729781255276e-01,-1.162248626129918500e-01,-4.870059011741924293e-02
7.990000000000000435e-01,-6.087169856967995507e-01,1.064198881764328308e-01,-2.249083408456197253e-01
8.000000000000000444e-01,-5.928980136116358823e-02,3.570929277376605482e-01,-2.349006868366248502e-01
8.010000000000000453e-01,4.903679083890933321e-01,4.076967696140133546e-01,-3.070497717024307099e-02
8.020000000000000462e-01,7.323771714398511490e-01,9.603755670682877221e-02,1.031847417523888005e-01
8.030000000000000471e-01,6.189936947355311192e-01,-3.198849373644150340e-01,1.269238275294667651e-01
8.040000000000000480e-01,2.416400909265341290e-01,-6.725780790726485492e-01,-1.103679708596303349e-01
8.050000000000000488e-01,-6.053921655796750539e-02,-7.557402185559226604e-01,-4.036363308592306742e-01
8.060000000000000497e-01,-1.206757638858156449e-02,-4.635985514978317457e-01,-5.626711153089422046e-01
8.070000000000000506e-01,2.649424937174560402e-01,-7.496508303651683303e-02,-4.815813241161972513e-01
8.080000000000000515e-01,6.156499999619147179e-01,1.449812493171402927e-01,-2.016290229433176651e-01
8.090000000000000524e-01,6.888325393823655496e-01,1.413596653947755966e-01,1.429400403148174958e-01
8.100000000000000533e-01,3.672331081048843537e-01,-8.716783095332007736e-02,3.305970215907609311e-01
8.110000000000000542e-01,-1.646358324169330256e-01,-3.102549026642616448e-01,2.801326743253254592e-01
8.120000000000000551e-01,-6.514058106954969674e-01,-2.055637936726890103e-01,1.008826995934007653e-01
8.129999999999999449e-01,-8.178040259666056189e-01,7.880417663604770417e-02,-6.176772059814752275e-02
8.139999999999999458e-01,-5.872654354817042899e-01,5.138164932506332772e-01,-6.555080703645073392e-02
8.149999999999999467e-01,-2.013915503289091802e-01,7.590292117621288970e-01,1.452290820491463352e-01
8.159999999999999476e-01,6.266523585705259525e-02,6.882626174363981608e-01,4.216375853400211038e-01
8.169999999999999485e-01,1.038941121505087238e-02,3.137519255338828139e-01,5.262824509197332468e-01
8.179999999999999494e-01,-2.913841671321207305e-01,-9.361106259911050609e-02,4.194761483179755279e-01
8.189999999999999503e-01,-5.440683357604184645e-01,-2.212523779059456519e-01,9.053269381819011030e-02
8.199999999999999512e-01,-5.343927068640090816e-01,-1.337873270129494030e-01,-1.920022169535754442e-01
8.209999999999999520e-01,-1.356420828329292227e-01,4.631597535487365358e-02,-3.279776442380746837e-01
8.219999999999999529e-01,3.835506644191635228e-01,1.749842081220116530e-01,-3.198372422732690956e-01
8.229999999999999538e-01,7.717343385632520203e-01,5.589661648379710274e-02,-1.163335903354635464e-01
8.239999999999999547e-01,8.146366781093135057e-01,-3.026277857532937432e-01,3.274532872048896426e-02
8.249999999999999556e-01,5.353091831552583280e-01,-6.130193105850689772e-01,1.560820768048533196e-02
8.259999999999999565e-01,1.407010711560966743e-01,-7.148094128114024226e-01,-1.820006630949123627e-01
8.269999999999999574e-01,-1.105175764384878495e-01,-5.156110690918465078e-01,-3.815041140061016800e-01
8.279999999999999583e-01,-1.116180914827278811e-02,-1.241244344651458303e-01,-4.424500200091286417e-01
8.289999999999999591e-01,2.233370317230549407e-01,2.190003719354859379e-01,-3.378268197458619837e-01
8.299999999999999600e-01,4.135178150301300759e-01,2.941445067883589060e-01,-1.574798281112932408e-02
8.309999999999999609e-01,3.573233596139674395e-01,1.762419264450144907e-01,3.115897109487313910e-01
8.319999999999999618e-01,-6.694597045568159710e-02,-2.047802203011109962e-02,4.161336684847565248e-01
8.329999999999999627e-01,-6.003096273004784322e-01,-6.039032746739121660e-02,3.308574492213560703e-01
8.339999999999999636e-01,-8.524576436830254567e-01,1.227091264066656612e-01,1.520463988572584579e-01
8.349999999999999645e-01,-7.404797475859525857e-01,4.289047410319002385e-01,-2.142910295939089854e-02
8.359999999999999654e-01,-4.286159251888493338e-01,6.493258176010816562e-01,3.400322833231798902e-02
8.369999999999999662e-01,-2.830239173913377121e-02,6.227901437796731221e-01,1.828225900682137472e-01
8.379999999999999671e-01,1.335996703417138276e-01,2.933839242329200347e-01,3.548445938673704947e-01
8.389999999999999680e-01,3.167714541297155656e-02,-6.187719347388979246e-02,3.416329937671518380e-01
8.399999999999999689e-01,-1.676991503893271729e-01,-3.163112384516124087e-01,2.057421488075136806e-01
8.409999999999999698e-01,-2.962510405358024790e-01,-3.297081831397757901e-01,-8.743508921270214118e-02
8.419999999999999707e-01,-8.449495080982934170e-02,-1.537459718415715715e-01,-3.653823455061167014e-01
8.429999999999999716e-01,3.223303180092245146e-01,-1.314477436688898417e-02,-4.418457602250069338e-01
8.439999999999999725e-01,6.849329523042758661e-01,-3.833836896134396044e-02,-3.291729832733775729e-01
8.449999999999999734e-01,8.478020959654090083e-01,-2.430347574107827313e-01,-1.569302526968830713e-01
8.459999999999999742e-01,6.719312047515857422e-01,-5.416745968511040843e-01,-2.375097926880631247e-02
8.469999999999999751e-01,2.734241811801446098e-01,-5.814045575885750106e-01,-4.216920613206376345e-02
8.479999999999999760e-01,-9.657736808545537566e-02,-3.995035524762279855e-01,-1.740308196275780206e-01
8.489999999999999769e-01,-1.703304345236780759e-01,-3.519973833295335364e-02,-3.038466437748083560e-01
8.499999999999999778e-01,-5.492790798600560853e-02,2.696264845626176188e-01,-2.694347231457103198e-01
8.509999999999999787e-01,1.320452494798729504e-01,3.834706700058495565e-01,-6.332925187490533181e-02
8.519999999999999796e-01,1.121323958144482685e-01,2.904158848586363972e-01,2.081962971124382833e-01
8.529999999999999805e-01,-9.270315228114359152e-02,1.167772993318921398e-01,4.063510432595909827e-01
8.539999999999999813e-01,-5.153513293067019108e-01,5.794344916398443124e-02,4.340712626293777299e-01
8.549999999999999822e-01,-7.798448672356853573e-01,1.250385956592948711e-01,2.617078726190231186e-01
8.559999999999999831e-01,-7.790217240667582921e-01,3.738333268901904427e-01,1.084336201996181082e-01
8.569999999999999840e-01,-4.446790790580092967e-01,5.597087007387482327e-01,-4.941531501369542979e-03
8.579999999999999849e-01,-6.513274767121959852e-02,4.511817848316735935e-01,5.415000359168805483e-02
8.589999999999999858e-01,2.223227151419535919e-01,1.704250242706497331e-01,1.507110243650480186e-01
8.599999999999999867e-01,2.308868065132454739e-01,-2.040898094796969875e-01,2.721653419793134687e-01
8.609999999999999876e-01,5.449789825006977340e-02,-4.184792134280720943e-01,1.617623529187452169e-01
8.619999999999999885e-01,-1.005383670389854017e-01,-4.180308113798006375e-01,-8.004466557492112555e-02
8.629999999999999893e-01,-5.367991832586991446e-03,-2.366527215614359914e-01,-3.155651312615728177e-01
8.639999999999999902e-01,3.174725279286031432e-01,-7.570717575279381495e-02,-4.719149022546184069e-01
8.649999999999999911e-01,6.207778939569547072e-01,-7.486884414545463828e-02,-3.891860665041237399e-01
8.659999999999999920e-01,8.097507890363256911e-01,-2.389164863982294329e-01,-2.483346029538958666e-01
8.669999999999999929e-01,6.033157953972402288e-01,-4.535493237981343406e-01,-3.363959140759131133e-02
8.679999999999999938e-01,2.150687369859891063e-01,-4.973688444964423638e-01,2.028272378351725358e-02
8.689999999999999947e-01,-1.891644644811872611e-01,-2.362324809822169969e-01,-2.425900031486490083e-02
8.699999999999999956e-01,-3.236752860089690542e-01,8.434173902439925929e-02,-1.534600108798647722e-01
8.709999999999999964e-01,-2.593745436712077135e-01,3.754699744334196176e-01,-2.086709872757134265e-01
8.719999999999999973e-01,-3.313197728067209663e-02,4.967138514852855180e-01,-1.857857555835665600e-02
8.729999999999999982e-01,2.639686588970834719e-02,3.695534653690689120e-01,1.962679357826819793e-01
8.739999999999999991e-01,-1.690655999381739660e-01,1.754814603058330591e-01,4.070251280543565331e-01
8.750000000000000000e-01,-4.740209762277980965e-01,9.582604913165123153e-03,4.799851938871966817e-01
8.760000000000000009e-01,-7.474652953075150430e-01,9.389657982899347888e-02,3.529498381452551570e-01
8.770000000000000018e-01,-7.362017257075671450e-01,3.159943155405988691e-01,1.389935044411841070e-01
8.780000000000000027e-01,-4.034314083482671287e-01,4.441436503529666568e-01,-3.669191784441896975e-02
8.790000000000000036e-01,5.843419212227538712e-02,3.647750832807035160e-01,-6.874030148947124497e-02
8.800000000000000044e-01,3.976809994339253196e-01,3.448269397716167972e-02,2.324644574030303862e-02
8.810000000000000053e-01,4.286173057191054458e-01,-3.605071980985675162e-01,1.210913290711649326e-01
8.820000000000000062e-01,2.293233503603677170e-01,-5.698798422698658772e-01,1.388325272320020398e-01
8.830000000000000071e-01,1.596034002030604151e-02,-5.617590589209852103e-01,-5.278954729924749401e-02
8.840000000000000080e-01,-1.884195376749913525e-02,-2.807821386791636842e-01,-3.171526632744575136e-01
8.850000000000000089e-01,2.324942374729665195e-01,-2.831339183103549068e-02,-4.995741233292610994e-01
8.860000000000000098e-01,5.669673262452822327e-01,4.004697869383898323e-02,-4.705401039474053637e-01
8.870000000000000107e-01,7.654400786317884231e-01,-1.279777676356893268e-01,-2.936155476922278074e-01
8.880000000000000115e-01,6.350705061483358227e-01,-3.519044549688024603e-01,-4.086586363656139614e-02
8.890000000000000124e-01,1.823885924636589884e-01,-4.235755990419659001e-01,1.063317520249746212e-01
8.900000000000000133e-01,-3.156910954695157367e-01,-2.161081268916812126e-01,1.366463656584414321e-01
8.910000000000000142e-01,-5.794086149501982419e-01,2.207938623244770082e-01,2.440686051113522340e-02
8.920000000000000151e-01,-5.149115462509308294e-01,5.691462414592520780e-01,-1.270946033464977476e-01
8.930000000000000160e-01,-2.120917992469622260e-01,6.962492541341949170e-01,-5.715775449010557924e-02
8.940000000000000169e-01,-3.763325088010888164e-02,5.057478204505335695e-01,1.215647849570946765e-01
8.950000000000000178e-01,-3.273498578732492170e-02,1.439068720410789648e-01,3.721104201340645901e-01
8.960000000000000187e-01,-3.177868627794278589e-01,-4.689676288830031681e-02,5.126479131920127497e-01
8.970000000000000195e-01,-6.573329100438051187e-01,-7.514945260442934538e-02,4.817632287258674095e-01
8.980000000000000204e-01,-7.527924841450386317e-01,1.243583634286840461e-01,2.007855169967242837e-01
8.990000000000000213e-01,-4.518313093401178371e-01,3.310772758959655837e-01,-8.597460370073481406e-02
9.000000000000000222e-01,1.023127579368535850e-01,3.062882381020468059e-01,-2.335227627586320409e-01
9.010000000000000231e-01,5.858427919988761223e-01,3.065026582913983957e-02,-1.881624243497623250e-01
9.020000000000000240e-01,6.985350141786046407e-01,-4.330683961721326636e-01,1.090729555440497116e-03
9.030000000000000249e-01,5.568799172600638059e-01,-6.970694063135466356e-01,8.941744141423241254e-02
9.040000000000000258e-01,1.851837896767566383e-01,-6.636283663786818332e-01,-1.120217620585056391e-03
9.050000000000000266e-01,-4.894815862907177934e-02,-3.570558886089333361e-01,-1.657525092871786621e-01
9.060000000000000275e-01,1.705647019133686845e-03,-1.278891564004137719e-02,-4.263762963049812504e-01
9.070000000000000284e-01,3.288358894949268696e-01,2.212970413072097853e-01,-5.430626173032827575e-01
9.080000000000000293e-01,6.477024148147975113e-01,1.153665656561232156e-01,-4.295738115982482008e-01
9.090000000000000302e-01,6.178892168155463160e-01,-1.188673475501061394e-01,-7.890117981679199699e-02
9.100000000000000311e-01,2.699340385765809924e-01,-2.849518014440597380e-01,1.998553255297713660e-01
9.110000000000000320e-01,-3.408131028871578261e-01,-1.395498487142427246e-01,2.919101663448477879e-01
9.120000000000000329e-01,-7.408487277216775357e-01,1.819249719907615470e-01,2.266432354208755828e-01
9.130000000000000338e-01,-8.270044883000725600e-01,6.278721317129561941e-01,6.988122854713824106e-02
9.140000000000000346e-01,-5.113151801199111723e-01,7.784829508281123633e-01,-1.060354128082271891e-01
9.150000000000000355e-01,-8.647127691590576759e-02,6.240979696487999329e-01,-3.426333756408929399e-02
9.160000000000000364e-01,1.218409651906299240e-01,1.955141273057837692e-01,2.216311890533969597e-01
9.170000000000000373e-01,-2.374912036497285259e-02,-1.515088844623404263e-01,4.194665678093137395e-01
9.180000000000000382e-01,-3.505575507507141531e-01,-3.186440523892904442e-01,5.356927651751413055e-01
9.190000000000000391e-01,-6.130322408510129328e-01,-1.356852997945725559e-01,3.587023555351138704e-01
9.200000000000000400e-01,-4.928623352511197209e-01,1.062420293755550887e-01,5.472154704955821923e-03
9.210000000000000409e-01,-7.106141978223343147e-02,2.560856415657997154e-01,-3.073710173969181891e-01
9.220000000000000417e-01,5.425913432427030836e-01,2.946420264953399440e-02,-3.811883619825408576e-01
9.230000000000000426e-01,8.877807398394140792e-01,-3.640059273071458157e-01,-2.990846592580848617e-01
9.240000000000000435e-01,8.429882491356046614e-01,-6.967034221944673478e-01,-6.988253901214681874e-02
9.250000000000000444e-01,4.626196558511939672e-01,-7.885159362644726944e-01,6.534176306307046267e-02
9.260000000000000453e-01,-6.803598826074218906e-04,-4.460693234914470673e-01,8.642201996539249087e-03
9.270000000000000462e-01,-1.741591210827157787e-01,-1.005957294905808486e-02,-2.021093834695324720e-01
9.280000000000000471e-01,-5.283412858495815240e-02,3.275420998972705666e-01,-4.574954414678906178e-01
9.290000000000000480e-01,2.798391085030429437e-01,3.556207890273346273e-01,-4.538579477961380282e-01
9.300000000000000488e-01,4.874399386506215182e-01,1.733867279009323747e-01,-2.883261174266299465e-01
9.310000000000000497e-01,3.172363876395653537e-01,-7.498270731658163157e-02,5.283925692417367620e-02
9.320000000000000506e-01,-1.421179399053191239e-01,-1.644537612557794015e-01,4.046061644379273514e-01
9.330000000000000515e-01,-7.069731267122273399e-01,9.989379448534042860e-02,4.521519173605294539e-01
9.340000000000000524e-01,-9.498335299292121059e-01,5.048762814813062549e-01,3.023886390921153300e-01
9.350000000000000533e-01,-7.656886601976286011e-01,7.048507234825011070e-01,1.281240636735282712e-01
9.360000000000000542e-01,-3.325043477999035657e-01,6.314335767109382491e-01,-5.243944221563709429e-02
9.370000000000000551e-01,1.165854674603413882e-01,2.876596655584880979e-01,3.128541586541812303e-02
9.379999999999999449e-01,2.470884608628454715e-01,-1.654563727287554076e-01,2.196053984487219002e-01
9.389999999999999458e-01,7.964809576772968747e-02,-4.409986071164573862e-01,4.009042615233645579e-01
9.399999999999999467e-01,-2.109984435139164449e-01,-4.129850527107554736e-01,3.741658025495660511e-01
9.409999999999999476e-01,-3.439747208250714117e-01,-1.738846714389512271e-01,1.531440255400705608e-01
9.419999999999999485e-01,-1.415296584301821425e-01,5.963175247627099801e-02,-1.707221351147159005e-01
9.429999999999999494e-01,3.672877108139653846e-01,5.161324284845200672e-02,-4.491055595312884452e-01
9.439999999999999503e-01,8.249988587831869058e-01,-2.371815378530675589e-01,-5.037510790445575148e-01
9.449999999999999512e-01,9.100435545036634766e-01,-5.474381289482905810e-01,-3.390422046452458149e-01
9.459999999999999520e-01,6.666174746801546425e-01,-6.275068219109177781e-01,-9.691150401561814121e-02
9.469999999999999529e-01,1.837996806436874575e-01,-4.581553862156450552e-01,4.450900462953246567e-02
9.479999999999999538e-01,-2.047066046505228443e-01,-5.480999520597006763e-02,1.535903419018903350e-02
9.489999999999999547e-01,-3.390496201429886169e-01,3.764280916517557252e-01,-2.032495596699377127e-01
9.499999999999999556e-01,-1.300681417695907505e-01,5.172632154224654499e-01,-3.374310172541736264e-01
9.509999999999999565e-01,1.369599575143354842e-01,4.024494038768849369e-01,-2.728840061509981707e-01
9.519999999999999574e-01,1.826070419663703426e-01,1.257959388738886797e-01,-5.481050571681340272e-02
9.529999999999999583e-01,-4.701865171158603474e-02,-1.265178198553398858e-02,2.323112725108851806e-01
9.539999999999999591e-01,-4.966303172339255334e-01,5.839622194395686916e-02,5.026353838635242433e-01
9.549999999999999600e-01,-8.541456278227850252e-01,3.352908247877622872e-01,5.097115677050971794e-01
9.559999999999999609e-01,-8.352476459962514532e-01,5.433273600278095694e-01,3.153781853212823116e-01
9.569999999999999618e-01,-4.978423670487313046e-01,5.342536314282334553e-01,5.614832499115367942e-02
9.579999999999999627e-01,1.133643389261540166e-02,2.355231641191959935e-01,-8.680851392442065495e-02
9.589999999999999636e-01,3.626450846140091833e-01,-2.357735695937418774e-01,-3.968113751615377077e-02
9.599999999999999645e-01,3.707651846591055733e-01,-4.946684002816228998e-01,1.266761488777098099e-01
9.609999999999999654e-01,1.779913982100830572e-01,-5.409294000168659577e-01,2.177641591279151911e-01
9.619999999999999662e-01,-3.945792028652521377e-02,-3.010314900951105987e-01,1.876762721016423385e-01
9.629999999999999671e-01,-5.089899978111696310e-02,-1.197363500879186499e-01,-3.726509383426706429e-02
9.639999999999999680e-01,2.230707554515861946e-01,-2.414305429138742867e-02,-3.185136256534972787e-01
9.649999999999999689e-01,5.852809075020135587e-01,-1.672551438777558352e-01,-5.000172434038776537e-01
9.659999999999999698e-01,8.302308924207769669e-01,-3.623421129272326180e-01,-5.028774551681605143e-01
9.669999999999999707e-01,6.922685794423383276e-01,-4.384821448773790764e-01,-3.116400408181028148e-01
9.679999999999999716e-01,2.996708436805661790e-01,-3.089170118305324952e-01,-1.189000397816342321e-02
9.689999999999999725e-01,-1.780943455197555036e-01,7.032663421765998624e-02,9.306834789357502913e-02
9.699999999999999734e-01,-4.346493401572517623e-01,3.960839597782616073e-01,7.599442818932101995e-02
9.709999999999999742e-01,-4.160935924196457192e-01,5.779091686144389728e-01,-9.772501785320755752e-02
9.719999999999999751e-01,-1.553866720189834849e-01,4.797950729099280109e-01,-1.379717703938263262e-01
9.729999999999999760e-01,-1.843698378534069232e-02,2.271636516378586212e-01,-8.412277866883954847e-02
9.739999999999999769e-01,-1.020484574856876520e-01,3.991638150272410618e-02,1.386650490378579237e-01
9.749999999999999778e-01,-3.506595242878731700e-01,6.178711238204687151e-02,3.578017296719054330e-01
9.759999999999999787e-01,-6.494673709653208116e-01,2.159947788989810546e-01,5.230008907973496823e-01
9.769999999999999796e-01,-7.452294012574995907e-01,3.223295082240398290e-01,3.943860436712364193e-01
9.779999999999999805e-01,-4.607218242653453033e-01,2.959287199465737150e-01,2.082589577074076270e-01
9.789999999999999813e-01,2.691010829603091362e-02,4.839820180024451829e-02,-8.472670862248617152e-02
9.799999999999999822e-01,3.849844193235572032e-01,-2.592298440160724082e-01,-1.127395703534970067e-01
9.809999999999999831e-01,5.006841295041163376e-01,-5.698019608403804837e-01,-8.221037430458881523e-02
9.819999999999999840e-01,3.966694890523627670e-01,-5.645006210971447169e-01,8.025135583790421467e-03
9.829999999999999849e-01,1.826043479850755491e-01,-3.277529631993217896e-01,8.896824813268106036e-02
9.839999999999999858e-01,6.208902670142428526e-02,-8.858772059652916808e-02,-2.006529080632249787e-02
9.849999999999999867e-01,1.950399682376614263e-01,2.175327779260622166e-02,-2.581990847260433597e-01
9.859999999999999876e-01,4.521590844897905304e-01,-5.976700837709824493e-02,-4.382317057613238087e-01
9.869999999999999885e-01,6.331977178972676423e-01,-2.254828468742658132e-01,-4.643512522952996657e-01
9.879999999999999893e-01,5.561028172201707420e-01,-2.691315337681052799e-01,-3.422346461163113251e-01
9.889999999999999902e-01,2.020898149312570224e-01,-1.263196717568482175e-01,-1.065301048296251329e-01
9.899999999999999911e-01,-2.680268423745965634e-01,1.918996350120650840e-01,1.091569263938211298e-01
9.909999999999999920e-01,-5.117121026770030667e-01,5.069252792269203223e-01,1.578091061768139569e-01
9.919999999999999929e-01,-5.413934701472907784e-01,6.222981468344435108e-01,8.809087238150088706e-02
9.929999999999999938e-01,-3.358118322633401043e-01,4.948765038169448682e-01,7.795034014390173245e-03
9.939999999999999947e-01,-1.187002957946355769e-01,2.090208184892292376e-01,1.320392460342839636e-02
9.949999999999999956e-01,-8.433381141561183125e-02,1.937193553186650164e-03,1.174999098685831078e-01
9.959999999999999964e-01,-2.857624878518811307e-01,-4.425213110343239470e-02,3.284996738441263164e-01
9.969999999999999973e-01,-5.137430937711996437e-01,1.021090650995678389e-01,4.471326496559170360e-01
9.979999999999999982e-01,-5.689313060488013774e-01,2.231982642387792537e-01,4.238222665115741195e-01
9.989999999999999991e-01,-3.291010278337798134e-01,1.839308941382888085e-01,2.153944982665275676e-01
1.000000000000000000e+00,7.664114511337560831e-02,-4.560042773257484694e-02,-1.034420354731683915e-02
1.000999999999999890e+00,4.952960543327947773e-01,-4.225283863650683980e-01,-2.062818969358708732e-01
1.002000000000000002e+00,6.909186061311386462e-01,-6.243475002955637398e-01,-1.936136788473852843e-01
1.002999999999999892e+00,5.269375055660207030e-01,-6.130333814417027183e-01,-7.136279807616864590e-02
1.004000000000000004e+00,2.214111954123562098e-01,-3.646990517703748713e-01,7.921470945507207151e-03
1.004999999999999893e+00,4.238740532252759791e-02,-3.428431789196911134e-02,-2.437916401881376482e-02
1.006000000000000005e+00,1.043679100939060855e-01,1.538728194672655258e-01,-1.717872847366623823e-01
1.006999999999999895e+00,2.963231598259131738e-01,8.793171298289491344e-02,-3.394029191087991060e-01
1.008000000000000007e+00,5.076624399366121976e-01,-7.690166474646480121e-02,-4.442875348785912948e-01
1.008999999999999897e+00,4.614278059131552978e-01,-1.664669821720076992e-01,-3.376643631481127117e-01
1.010000000000000009e+00,1.208363883222949992e-01,-7.248880304312711742e-02,-1.003870165599878433e-01
1.010999999999999899e+00,-3.406926865695746875e-01,2.624263794007789530e-01,1.449066884257566301e-01
1.012000000000000011e+00,-7.112141469453729936e-01,6.059338894749034532e-01,2.572953351030863867e-01
1.012999999999999901e+00,-7.542272367818927403e-01,6.918523850277017440e-01,2.404429147346842932e-01
1.014000000000000012e+00,-4.457513145786446418e-01,5.288217408421840293e-01,8.509815506909776395e-02
1.014999999999999902e+00,-1.203552743208393672e-01,1.501104454075664341e-01,4.883180691461098261e-02
1.016000000000000014e+00,5.785757852731283901e-02,-1.708653446331011849e-01,4.605116072407112321e-02
1.016999999999999904e+00,-7.794595793133003714e-02,-2.545652151779062011e-01,2.466310144617396560e-01
1.018000000000000016e+00,-3.341679278260761277e-01,-8.128563304259406319e-02,4.118012325108203475e-01
1.018999999999999906e+00,-4.781872696762308195e-01,1.001637108442055280e-01,4.553215040504906552e-01
1.020000000000000018e+00,-3.385383984745141128e-01,1.378024721234935024e-01,2.935313688988278602e-01
1.020999999999999908e+00,1.204075309512173536e-01,-7.351068110535341482e-02,-2.875034949090173042e-02
1.022000000000000020e+00,5.905492569622906585e-01,-4.309839329902716010e-01,-3.098655972557741167e-01
1.022999999999999909e+00,8.405818714346163789e-01,-6.691458287904373803e-01,-3.443491373853125870e-01
1.024000000000000021e+00,7.473382519603541940e-01,-6.769949367493267589e-01,-2.832172514910121230e-01
1.024999999999999911e+00,3.578373536706324076e-01,-3.414179011965753907e-01,-1.290726172822746765e-01
1.026000000000000023e+00,-2.324715755357794483e-02,7.636544897813063448e-02,-1.161224827893586956e-02
1.026999999999999913e+00,-1.200597718363069499e-01,3.767440329194933768e-01,-5.051871022284312035e-02
1.028000000000000025e+00,4.008070533678234626e-02,3.377652284578901987e-01,-2.608528968064768305e-01
1.028999999999999915e+00,3.042635222137667905e-01,9.818233171206865173e-02,-4.141298905721677026e-01
1.030000000000000027e+00,4.004397910851815179e-01,-1.047778633997488995e-01,-4.220824476165535577e-01
1.030999999999999917e+00,1.598929603907161823e-01,-8.186103902646434116e-02,-1.884425043514377229e-01
1.032000000000000028e+00,-2.980737938270150988e-01,1.919320455001289338e-01,1.133539881577931424e-01
1.032999999999999918e+00,-7.996127180192414974e-01,5.353440269631805082e-01,3.763886172554572473e-01
1.034000000000000030e+00,-9.502974377926270977e-01,7.616484439134949547e-01,4.254572604092605181e-01
1.034999999999999920e+00,-6.765472298009174157e-01,6.037170833187870400e-01,3.018159329803857815e-01
1.036000000000000032e+00,-2.152469294805621769e-01,1.724032783207073427e-01,1.796964147473507217e-02
1.036999999999999922e+00,1.507398804545285187e-01,-2.819037429028826147e-01,-1.499013497424753552e-02
1.038000000000000034e+00,2.210102100578115181e-01,-5.203049407488562483e-01,2.583105593915304907e-02
1.038999999999999924e+00,3.115528096531261504e-03,-3.755188940430856936e-01,2.441780463997091921e-01
1.040000000000000036e+00,-2.283689522697253116e-01,-9.795590760336377045e-02,3.953923475308949165e-01
1.040999999999999925e+00,-3.139324218229421204e-01,6.953492745856978963e-02,3.284062724250466081e-01
1.042000000000000037e+00,-2.933696205885873501e-02,3.729610606041022097e-02,7.004790880846847867e-02
1.042999999999999927e+00,4.966718789540955914e-01,-2.887197607473508398e-01,-2.724127865183129660e-01
1.044000000000000039e+00,9.060667333620305852e-01,-6.190613544657891376e-01,-4.818520663882074895e-01
1.044999999999999929e+00,9.338979338486750326e-01,-6.842530993763624725e-01,-4.784042317775838993e-01
1.046000000000000041e+00,5.882697665712494084e-01,-3.810500230729577109e-01,-2.953045984179256123e-01
1.046999999999999931e+00,6.676057978131755277e-02,6.443266433566785523e-02,-6.131365589690537798e-02
1.048000000000000043e+00,-3.304812389445711540e-01,4.725895764651805164e-01,7.735887233374914851e-02
1.048999999999999932e+00,-3.443206972049765446e-01,5.358866096530594536e-01,-1.743131077560794093e-02
1.050000000000000044e+00,-8.638513142460448047e-02,4.026359542815525772e-01,-2.189787921050169728e-01
1.050999999999999934e+00,2.121896656775369983e-01,6.904613185767344286e-02,-3.187342965089798863e-01
1.052000000000000046e+00,2.218572442585457771e-01,-4.441815443577229461e-02,-2.900204745731372324e-01
1.052999999999999936e+00,-1.379287326873333830e-01,4.091994764354263403e-02,-9.864317557666996833e-03
1.054000000000000048e+00,-6.039552355334460998e-01,3.233951982112233114e-01,3.225826232476233235e-01
1.054999999999999938e+00,-9.621056646160077719e-01,5.889184130991472754e-01,5.245501721587554345e-01
1.056000000000000050e+00,-8.736579708171675618e-01,5.196698025638751828e-01,5.162029500393112702e-01
1.056999999999999940e+00,-3.810524486577540615e-01,1.818847479377317666e-01,2.862633703150230247e-01
1.058000000000000052e+00,1.330738937106098752e-01,-2.969079923927309128e-01,-2.494068919130948414e-02
1.058999999999999941e+00,4.889905259874373633e-01,-5.904699889371026744e-01,-1.337148937441053898e-01
1.060000000000000053e+00,4.495937841838519300e-01,-6.036911354994973777e-01,-5.245403082356561719e-02
1.060999999999999943e+00,1.225088528057585030e-01,-3.038342779252320991e-01,1.170128529783710097e-01
1.062000000000000055e+00,-1.427528011808122665e-01,-2.772192931553041362e-02,2.520567699795696059e-01
1.062999999999999945e+00,-7.833233139291499725e-02,8.130551284800976997e-02,1.810636691452829072e-01
1.064000000000000057e+00,2.252341921436949446e-01,-1.148147287581358783e-01,-7.383458837112995277e-02
1.064999999999999947e+00,6.799924880689466322e-01,-3.462445292870571234e-01,-4.027646342444163308e-01
1.066000000000000059e+00,9.004336378051133183e-01,-5.175690948043638606e-01,-5.977393308841975061e-01
1.066999999999999948e+00,7.189534982799148377e-01,-3.483461251496280386e-01,-5.142991375936453169e-01
1.068000000000000060e+00,1.835903182212602625e-01,1.002614130327550424e-01,-2.457178521367985036e-01
1.068999999999999950e+00,-3.184890605947863218e-01,4.824857243378815608e-01,5.428541115608635781e-02
1.070000000000000062e+00,-5.813404427615131986e-01,6.689685393169595429e-01,2.013669476271313652e-01
1.070999999999999952e+00,-4.669402844148948239e-01,5.554601015602159686e-01,1.208998594226401435e-01
1.072000000000000064e+00,-1.480226768285575756e-01,2.454307213248576591e-01,-1.349634542668344539e-01
1.072999999999999954e+00,7.469664234878049813e-02,-8.017289469025966212e-04,-1.752941244322040459e-01
1.074000000000000066e+00,-1.998627042836073446e-03,-5.832418080638335917e-02,-8.424744211712359432e-02
1.074999999999999956e+00,-3.312365353263351242e-01,1.007833202296797293e-01,1.683924181213531934e-01
1.076000000000000068e+00,-6.898429553225793320e-01,3.487480676266210833e-01,4.280206819272177610e-01
1.076999999999999957e+00,-7.717758876001982182e-01,3.324209490990200355e-01,6.088416039366862931e-01
1.078000000000000069e+00,-4.886306131024616417e-01,1.039210698605181477e-01,4.257517969357716980e-01
1.078999999999999959e+00,4.132457592609221214e-02,-2.775426553330554436e-01,1.542504218709284391e-01
1.080000000000000071e+00,4.916022118899296411e-01,-6.285478956909803516e-01,-1.282449496298876668e-01
1.080999999999999961e+00,6.630024843969393178e-01,-6.919156007822910848e-01,-2.413144078871482801e-01
1.082000000000000073e+00,5.036684097293127049e-01,-4.362092588506619184e-01,-1.712561393228440310e-01
1.082999999999999963e+00,1.552910152008834810e-01,-1.117075946175613149e-01,3.296785089599307134e-02
1.084000000000000075e+00,-2.066348776070689452e-03,1.058258678548581744e-01,1.212681351494044601e-01
1.084999999999999964e+00,7.595627194363335777e-02,1.018652852752803956e-01,-4.648820988825617430e-03
1.086000000000000076e+00,3.615584502014292934e-01,-1.208667911718019489e-01,-2.025415072911694314e-01
1.086999999999999966e+00,6.423088199643406382e-01,-2.514035765498454089e-01,-4.432904925834038057e-01
1.088000000000000078e+00,5.913281239468042294e-01,-1.725320841949481154e-01,-5.257734225871453226e-01
1.088999999999999968e+00,2.585603430132589753e-01,1.208771689427387691e-01,-3.572688743603009698e-01
1.090000000000000080e+00,-2.791664972879294160e-01,4.767965780656515662e-01,-7.879388296652804768e-02
1.090999999999999970e+00,-6.395851592331553981e-01,6.368190899746642986e-01,1.557166244874746974e-01
1.092000000000000082e+00,-7.037186561594758194e-01,5.998233827700718557e-01,2.474333247850170336e-01
1.092999999999999972e+00,-4.457541963881743174e-01,2.981252289448750314e-01,1.547578448704452492e-01
1.094000000000000083e+00,-1.502478264427157817e-01,2.562701237213301994e-02,1.639514570397328577e-02
1.094999999999999973e+00,-2.333395071679727692e-02,-1.115708159406784417e-01,-4.183405917241760780e-02
1.096000000000000085e+00,-1.394598237482290726e-01,-3.298634394979508416e-02,7.551983709489185070e-02
1.096999999999999975e+00,-4.117376728864319269e-01,1.310811432199578963e-01,2.758221852505320926e-01
1.098000000000000087e+00,-5.559996119040895302e-01,1.638049164297945837e-01,4.608520846618973654e-01
1.098999999999999977e+00,-3.662161958146683549e-01,-3.246402732215214471e-02,4.829412589973116066e-01
1.100000000000000089e+00,1.929361329099581537e-02,-3.311526747983062902e-01,2.836257903161629179e-01
1.100999999999999979e+00,4.792621298247281003e-01,-6.046982868958242774e-01,-1.966554845354401629e-02
1.102000000000000091e+00,6.985994422647492375e-01,-6.382870299896860056e-01,-2.306481690912899618e-01
1.102999999999999980e+00,6.545249586314741963e-01,-4.052683689047869575e-01,-2.863207093766250710e-01
1.104000000000000092e+00,3.146719722223978999e-01,-9.273399279007724094e-02,-1.806021340660994012e-01
1.104999999999999982e+00,8.289954151669846893e-02,1.318748046617543579e-01,-2.553339401942206210e-02
1.106000000000000094e+00,5.067599739909703707e-03,1.618627759075746131e-01,1.926110735409644961e-02
1.106999999999999984e+00,2.003842499651405651e-01,1.800204806594896036e-03,-1.361687076658204265e-01
1.108000000000000096e+00,4.089411658462154264e-01,-1.063735755733760252e-01,-3.192713467777996694e-01
1.108999999999999986e+00,3.615818914296856090e-01,-2.203321774565691893e-02,-4.310374642686577440e-01
1.110000000000000098e+00,1.161101412481997663e-01,2.278424746629061637e-01,-3.745244369392423112e-01
1.110999999999999988e+00,-3.049191983064440947e-01,4.742671304807389854e-01,-1.436432244593542906e-01
1.112000000000000099e+00,-6.373619641260634960e-01,6.058232539324690524e-01,1.474785259299314921e-01
1.112999999999999989e+00,-7.512125236459967770e-01,5.321856881639869252e-01,2.815309317051790106e-01
1.114000000000000101e+00,-5.391508459438671963e-01,1.955778920489564532e-01,3.021157877950482740e-01
1.114999999999999991e+00,-2.046743172012735756e-01,-9.323337794936645273e-02,2.154963584966398393e-01
1.116000000000000103e+00,8.461822326223020468e-05,-2.298818709624207424e-01,7.802265332538377285e-02
1.116999999999999993e+00,-2.072279926862846677e-02,-1.464377219711501810e-01,7.032815620849004745e-02
1.118000000000000105e+00,-2.108135386841762382e-01,-2.170719489392885018e-02,1.841104724536957449e-01
1.118999999999999995e+00,-3.506340747823508686e-01,1.553820501337297572e-02,3.615206453242537088e-01
1.120000000000000107e+00,-2.428257960762275902e-01,-1.380296581378705478e-01,4.033875404937877773e-01
1.120999999999999996e+00,1.123597310272804461e-01,-3.975799449587648082e-01,2.485813484326279132e-01
1.122000000000000108e+00,5.392503554828211865e-01,-6.235292810395594021e-01,1.803921204891959298e-02
1.122999999999999998e+00,8.156890722886233069e-01,-5.679397558817892433e-01,-2.630770915678150579e-01
1.124000000000000110e+00,6.842266743927463146e-01,-3.449255991467604643e-01,-3.675658682572539582e-01
1.125000000000000000e+00,3.911296002376346559e-01,6.497312845475927690e-02,-2.908172472046520185e-01
1.125999999999999890e+00,6.326304612157049312e-02,2.994183094217709451e-01,-1.688095975547864169e-01
1.127000000000000002e+00,-1.150410968919471227e-01,3.039421070494311983e-01,-4.350749379182189402e-02
1.127999999999999892e+00,9.987415733558682035e-03,1.296615225548647388e-01,-5.303171633103853644e-02
1.129000000000000004e+00,2.003490807399241069e-01,2.996165104595075596e-02,-2.107079419700815526e-01
1.129999999999999893e+00,2.843653185029416108e-01,2.497009154709135120e-02,-3.248023673129152855e-01
1.131000000000000005e+00,4.602276622968000386e-02,2.792318853537929524e-01,-3.348923772523436093e-01
1.131999999999999895e+00,-3.755425047484174383e-01,5.195690676621596005e-01,-1.346318257827850695e-01
1.133000000000000007e+00,-7.394646002114362293e-01,6.190299713791402869e-01,1.176170132892814524e-01
1.133999999999999897e+00,-8.251413359893674526e-01,4.381651040326245972e-01,3.561561845992247677e-01
1.135000000000000009e+00,-6.044938569719612298e-01,1.012102757111645046e-01,3.994387265926555020e-01
1.135999999999999899e+00,-2.102711423251469036e-01,-2.812621174688464398e-01,2.885284262499363539e-01
1.137000000000000011e+00,8.971062789465039655e-02,-4.367898327452218732e-01,1.413356668483873313e-01
1.137999999999999901e+00,1.772471980480970211e-01,-3.127220641183799388e-01,-1.025277306219640576e-02
1.139000000000000012e+00,1.243549606629465280e-02,-1.013302045956260694e-01,6.873659654138744579e-02
1.139999999999999902e+00,-1.781940295276195074e-01,4.624687923368379222e-02,2.080842967471312199e-01
1.141000000000000014e+00,-1.806098257617154978e-01,-6.562134812293972386e-02,2.986701227892867294e-01
1.141999999999999904e+00,1.145302869276485502e-01,-3.413500646385675963e-01,2.537142680490278579e-01
1.143000000000000016e+00,5.446771771878374802e-01,-5.791294879445796351e-01,3.413166590377304799e-02
1.143999999999999906e+00,8.308427845894498232e-01,-5.703416734949742217e-01,-2.544165939664952969e-01
1.145000000000000018e+00,8.336020143986540010e-01,-2.565259854162345032e-01,-4.183145483774405871e-01
1.145999999999999908e+00,4.621212352684477276e-01,1.866423708627240607e-01,-4.326098445017864669e-01
1.147000000000000020e+00,-1.191646398849806679e-02,4.859091782094101530e-01,-2.653232725835759087e-01
1.147999999999999909e+00,-3.080112010440127501e-01,5.437659118690740812e-01,-8.039920315610593615e-02
1.149000000000000021e+00,-2.860273200526367021e-01,3.508588442823150078e-01,3.525874183636754089e-02
1.149999999999999911e+00,-5.019175145514763459e-02,5.567906326355771124e-02,-3.422230356749833557e-02
1.151000000000000023e+00,1.266335664387104598e-01,-5.604275211776224563e-02,-1.793448692089258389e-01
1.151999999999999913e+00,9.852304848185496067e-02,1.168570672636552593e-01,-2.575882899901867362e-01
1.153000000000000025e+00,-2.582704853063823580e-01,4.051377385621421912e-01,-1.758061530905928316e-01
1.153999999999999915e+00,-6.622013015751357923e-01,5.655002330369753860e-01,7.067377269691973996e-02
1.155000000000000027e+00,-8.785053813518363119e-01,4.627692118371513064e-01,3.745724582263481595e-01
1.155999999999999917e+00,-7.562783267779144003e-01,3.524224657518883197e-02,5.101276536197953959e-01
1.157000000000000028e+00,-2.722869917374373672e-01,-4.059502162195711139e-01,4.929079117017640121e-01
1.157999999999999918e+00,2.327594591449313743e-01,-6.493366155925931471e-01,2.172096472356816466e-01
1.159000000000000030e+00,5.198506987653065403e-01,-5.830373820700915921e-01,-1.142848199792240345e-02
1.159999999999999920e+00,4.090439528153625992e-01,-2.542005979334251431e-01,-6.889658450173102855e-02
1.161000000000000032e+00,8.256956969086660936e-02,1.124269438829140697e-02,6.432938852469406721e-03
1.161999999999999922e+00,-1.386342275403410484e-01,8.288455694069056523e-02,1.599302386683766342e-01
1.163000000000000034e+00,-6.283748038391868962e-02,-1.707134976750724065e-01,2.167055273223412459e-01
1.163999999999999924e+00,3.498738634291615468e-01,-4.060215997063178484e-01,1.026945118494715231e-01
1.165000000000000036e+00,7.817185497967298335e-01,-4.826190244034063714e-01,-1.436000799307277365e-01
1.165999999999999925e+00,8.555950173933406511e-01,-2.961397331890293083e-01,-4.291443830752640354e-01
1.167000000000000037e+00,5.824067798144667574e-01,1.630330378988500140e-01,-5.517408628153883665e-01
1.167999999999999927e+00,4.831276451124150856e-02,5.711709629008970834e-01,-4.459759004126117587e-01
1.169000000000000039e+00,-4.728544722833626923e-01,7.155412404872666388e-01,-1.582921144805521096e-01
1.169999999999999929e+00,-6.514406681157126622e-01,5.097042053126463745e-01,8.942079690243556755e-02
1.171000000000000041e+00,-4.244968083733124953e-01,1.632603889021880250e-01,1.798014629996425584e-01
1.171999999999999931e+00,-1.012283153771909167e-01,-5.432994007623060534e-02,5.766843617598099020e-02
1.173000000000000043e+00,1.267138201686651144e-01,-9.954258208269950448e-02,-1.284070620318144285e-01
1.173999999999999932e+00,-4.156623858528496473e-02,1.511754552674198504e-01,-1.825641128950460657e-01
1.175000000000000044e+00,-4.006784574883554551e-01,3.671069990825982510e-01,-3.579234706481604356e-02
1.175999999999999934e+00,-7.479826990954293597e-01,3.689184960400315738e-01,2.421003823415737721e-01
1.177000000000000046e+00,-8.279053951718027271e-01,7.286165038268409277e-02,4.945916674692771298e-01
1.177999999999999936e+00,-3.841533271270785588e-01,-4.090135497356477412e-01,6.008144105602101215e-01
1.179000000000000048e+00,1.402881608469493391e-01,-7.134000045331247986e-01,3.863113547159463534e-01
1.179999999999999938e+00,6.854913514482144921e-01,-6.942254099628676345e-01,5.133244773376112458e-02
1.181000000000000050e+00,7.260498868007790874e-01,-4.468715561239982037e-01,-1.853742088035041646e-01
