time,acc_x,acc_y,acc_z
0.000000000000000000e+00,1.342602342831971940e-01,-4.045223534977073626e-03,1.706021949740209598e-01
1.000000000000000021e-03,-3.001004088893670652e-01,-2.998394195035664067e-01,-1.226411231611701375e-01
2.000000000000000042e-03,-4.882086208238209379e-01,-3.953569016769304389e-01,-2.936526878993313550e-01
3.000000000000000062e-03,-3.069467805448675701e-01,-1.355965409027503898e-01,-2.576435056487372810e-01
4.000000000000000083e-03,1.458074233415415366e-01,2.475295337666376938e-01,1.149539055892385454e-02
5.000000000000000104e-03,4.367940083004513419e-01,3.824431438759577917e-01,2.213333920696240742e-01
6.000000000000000125e-03,4.545515128659640136e-01,2.450125332757540353e-01,2.707491751667693292e-01
7.000000000000000146e-03,3.240405188894258937e-02,-1.017668812733242834e-01,1.077452481610893659e-01
8.000000000000000167e-03,-3.855551378952620234e-01,-3.717463856124287314e-01,-1.286571690378266464e-01
8.999999999999999320e-03,-4.781361352136439535e-01,-3.514593824779473352e-01,-2.627447478855756136e-01
1.000000000000000021e-02,-2.245539805845713222e-01,7.889906340332889173e-04,-2.019164315949203148e-01
1.099999999999999936e-02,2.132573264117936795e-01,2.876189297579173076e-01,2.185824769819145683e-02
1.200000000000000025e-02,4.974831635133434848e-01,3.713638784730377007e-01,2.371410600744952302e-01
1.299999999999999940e-02,3.571294259534194548e-01,1.745824947679179562e-01,3.054267788852082499e-01
1.400000000000000029e-02,-5.691840983908643542e-02,-2.093542428278490075e-01,1.075330311095599733e-01
1.499999999999999944e-02,-4.116048223501405090e-01,-3.895254679928222830e-01,-1.533537672656009876e-01
1.600000000000000033e-02,-4.662350048446456396e-01,-2.754974616552013922e-01,-3.464799450240225731e-01
1.700000000000000122e-02,-1.327242251065427203e-01,6.580457112417266441e-02,-1.945026001442905494e-01
1.799999999999999864e-02,2.913594366841423255e-01,3.816647007567317007e-01,6.150991503538607436e-02
1.899999999999999953e-02,4.545086187281535128e-01,3.705257816024289386e-01,2.369891394036050258e-01
2.000000000000000042e-02,3.221566960720080863e-01,6.241004159971193926e-02,3.038166432747467227e-01
2.100000000000000130e-02,-1.347986535854285017e-01,-2.947116723597937860e-01,6.328430141660321140e-02
2.199999999999999872e-02,-4.617461605476420594e-01,-3.865502319339880755e-01,-1.890059969668844986e-01
2.299999999999999961e-02,-4.186433257283403431e-01,-2.379184547937454319e-01,-3.150098609983522646e-01
2.400000000000000050e-02,-2.090861424243113317e-02,1.705205439414918533e-01,-1.969089223446360282e-01
2.500000000000000139e-02,3.792892050005975957e-01,3.648769610948776609e-01,1.022568504065417411e-01
2.599999999999999881e-02,4.844090024168827280e-01,2.818984626739511334e-01,2.993365396991041760e-01
2.699999999999999969e-02,1.940323883116190362e-01,-5.326011404398557636e-02,2.342838179160363632e-01
2.800000000000000058e-02,-2.336568206482551868e-01,-3.453486859041541290e-01,3.221084562379909755e-02
2.900000000000000147e-02,-5.072037684130318302e-01,-3.870128222032737098e-01,-2.285058089863915842e-01
2.999999999999999889e-02,-3.581901746618417204e-01,-9.537069858218877316e-02,-2.963240215759465612e-01
3.099999999999999978e-02,3.668368555847052043e-02,2.543515389247655856e-01,-1.395122070089634680e-01
3.200000000000000067e-02,4.394176021243082486e-01,3.846408334163438081e-01,1.698052559562903407e-01
3.300000000000000155e-02,4.524345739208615602e-01,2.292792534569280394e-01,2.886136544069927701e-01
3.400000000000000244e-02,1.189083009375968558e-01,-1.398485469423824124e-01,2.228166160368351412e-01
3.500000000000000333e-02,-3.139560289319016650e-01,-3.827949135515124057e-01,-2.662020621880736761e-03
3.599999999999999728e-02,-5.109618322003826041e-01,-3.161457294632246118e-01,-2.675947485936996384e-01
3.699999999999999817e-02,-2.799313693022032479e-01,9.835019764736255624e-03,-2.758674896570547097e-01
3.799999999999999906e-02,1.229741130885566164e-01,3.058952143560374481e-01,-1.007372267696953622e-01
3.899999999999999994e-02,4.431111563484534943e-01,3.688793991106688597e-01,1.816524165864062956e-01
4.000000000000000083e-02,4.274865508584610452e-01,1.243335122429746475e-01,2.913825383212528264e-01
4.100000000000000172e-02,2.121355584633721411e-02,-2.155405572898382582e-01,1.738235542381285914e-01
4.200000000000000261e-02,-4.003745113557763968e-01,-4.271152162841369559e-01,-6.094919344956892249e-02
4.299999999999999656e-02,-4.664121362560693096e-01,-2.241437969289900578e-01,-2.504523550241581353e-01
4.399999999999999745e-02,-2.243348897107813045e-01,1.162110142905936755e-01,-2.692297339265116718e-01
4.499999999999999833e-02,2.314564420247516574e-01,3.712680701893925628e-01,-5.716367254137703219e-02
4.599999999999999922e-02,5.178484693106635284e-01,3.056954731288267224e-01,1.828879679329716845e-01
4.700000000000000011e-02,3.392910638192904726e-01,4.088155801796523880e-02,3.134489495409837900e-01
4.800000000000000100e-02,-5.480667805640899309e-02,-3.180649847841259814e-01,1.395287101407123309e-01
4.900000000000000189e-02,-4.520717373969758701e-01,-3.865344722526140586e-01,-9.957759496270661426e-02
5.000000000000000278e-02,-4.593951024872088285e-01,-1.293500025397275877e-01,-2.723474779861697059e-01
5.099999999999999672e-02,-1.109767464215835886e-01,2.088652932382160099e-01,-2.484207031803823129e-01
5.199999999999999761e-02,3.112646949057273349e-01,3.846667284168406864e-01,-1.916713285829815816e-02
5.299999999999999850e-02,5.100015902854893035e-01,2.782300640930653879e-01,2.199130217571184931e-01
5.399999999999999939e-02,3.073657303922422979e-01,-5.337426808386250970e-02,2.868403915320572040e-01
5.500000000000000028e-02,-1.776118749770585203e-01,-3.536875888827376024e-01,1.421820201355047664e-01
5.600000000000000117e-02,-4.732970170049429770e-01,-3.732381739014632993e-01,-1.262169706670275005e-01
5.700000000000000205e-02,-3.986198403186940742e-01,-7.586475194746422623e-02,-3.000346891585211617e-01
5.800000000000000294e-02,-2.233553332915329606e-02,3.072206698792482316e-01,-2.133355349005643109e-01
5.899999999999999689e-02,3.677524511269441021e-01,3.929486711872472449e-01,3.119858920352476181e-02
5.999999999999999778e-02,4.697737398278057364e-01,2.088134691938110243e-01,2.459479705984560782e-01
6.099999999999999867e-02,2.082809670872585450e-01,-1.844523715225142024e-01,2.704102069167075850e-01
6.199999999999999956e-02,-2.339362961969387866e-01,-4.020072457347572681e-01,1.158891786902630922e-01
6.300000000000000044e-02,-4.827257019618432787e-01,-3.206199762526278363e-01,-1.636773352791219549e-01
6.400000000000000133e-02,-3.697683153622249308e-01,2.058998243053987778e-02,-2.789082934360304078e-01
6.500000000000000222e-02,6.588536613961952504e-02,3.486367095805943395e-01,-1.898063968394658185e-01
6.600000000000000311e-02,4.107989040597678221e-01,3.614534376121409931e-01,6.154037007561166672e-02
6.700000000000000400e-02,4.692358449859093117e-01,9.807976443018720514e-02,2.761990374170397722e-01
6.800000000000000488e-02,1.153136388326291978e-01,-2.497925405108014640e-01,2.867013058753145049e-01
6.900000000000000577e-02,-3.376694340152869289e-01,-3.918562752458133458e-01,5.237829197568503320e-02
7.000000000000000666e-02,-5.027126510205335297e-01,-2.319661027707466405e-01,-2.150504320299307104e-01
7.099999999999999367e-02,-2.869607718193079582e-01,1.219974940393778462e-01,-3.042869732246106240e-01
7.199999999999999456e-02,1.669720753134303903e-01,3.571856539032002842e-01,-1.655486305355694798e-01
7.299999999999999545e-02,4.616496117378672270e-01,3.233451901319919219e-01,9.611741914962275424e-02
7.399999999999999634e-02,4.460610433178970879e-01,1.231544719436713196e-02,2.955370952867762968e-01
7.499999999999999722e-02,2.489518286750098952e-02,-3.083339490139994643e-01,2.313533855931501904e-01
7.599999999999999811e-02,-3.690801229241393311e-01,-3.808617485727905927e-01,1.495184072215299115e-02
7.699999999999999900e-02,-4.981320007169215969e-01,-1.433669345727457411e-01,-2.032936692874764695e-01
7.799999999999999989e-02,-2.031873974505383207e-01,2.231096535729591712e-01,-2.893250100419789694e-01
7.900000000000000078e-02,2.679854518958064702e-01,4.107407888022437392e-01,-1.226600341720261167e-01
8.000000000000000167e-02,5.502693926512898237e-01,2.407378486467589840e-01,1.362821485051454173e-01
8.100000000000000255e-02,3.398458617748715271e-01,-1.245069192887107989e-01,2.838274005091815377e-01
8.200000000000000344e-02,-8.856736373836704423e-02,-3.698466576747460599e-01,2.182247796744055945e-01
8.300000000000000433e-02,-4.597702036221856248e-01,-3.443503571554115683e-01,-4.421453700813617743e-03
8.400000000000000522e-02,-4.391903019048742363e-01,-4.086865357583480823e-02,-2.722972360128960712e-01
8.500000000000000611e-02,-1.260869776788087482e-01,3.387136813522224066e-01,-2.955247390026711218e-01
8.599999999999999312e-02,3.488811763584612202e-01,3.828374384426164734e-01,-1.017785958435978716e-01
8.699999999999999400e-02,5.028228598267440175e-01,1.286158227592366643e-01,1.434616723103375457e-01
8.799999999999999489e-02,2.591269024474749938e-01,-2.260947306445679206e-01,2.891659164599456044e-01
8.899999999999999578e-02,-1.612924380633050658e-01,-3.919662014196801381e-01,2.059463608808974888e-01
8.999999999999999667e-02,-4.485031861656850194e-01,-2.670206090342586158e-01,-5.113213074519048357e-02
9.099999999999999756e-02,-4.096899155037745377e-01,4.940430494742475281e-02,-2.630706558537961315e-01
9.199999999999999845e-02,1.039940138730234206e-02,3.480214079343901812e-01,-2.632147526656097303e-01
9.299999999999999933e-02,4.064168184425305808e-01,3.661894997463449597e-01,-7.183658393549753607e-02
9.400000000000000022e-02,5.006506375290242783e-01,5.690902295157589802e-02,1.998460757088978135e-01
9.500000000000000111e-02,2.075092437647472754e-01,-2.987210129746570297e-01,3.062997205094357689e-01
9.600000000000000200e-02,-2.301912478174926169e-01,-3.966327626449159260e-01,1.966125540689315776e-01
9.700000000000000289e-02,-4.976437057887211357e-01,-1.468462705169731042e-01,-8.704573721714954637e-02
9.800000000000000377e-02,-3.547814321615263000e-01,1.559846461967935860e-01,-2.497668835151410915e-01
9.900000000000000466e-02,6.008307507668610853e-02,4.060360030349488558e-01,-2.378489659721805261e-01
1.000000000000000056e-01,4.537966424505015528e-01,2.883073690234165820e-01,-3.644534740277517726e-02
1.010000000000000064e-01,4.683138392247663262e-01,-5.910511003073747049e-02,2.364465636367401868e-01
1.019999999999999934e-01,8.849564283030401934e-02,-3.213553750805153153e-01,3.199062983814719985e-01
1.029999999999999943e-01,-3.085555619235721969e-01,-3.773697444205448281e-01,1.442079889334861864e-01
1.039999999999999952e-01,-5.150055294020977614e-01,-1.134096676942202703e-01,-1.377636312383073991e-01
1.049999999999999961e-01,-2.704346290355424953e-01,2.497589053077892418e-01,-2.430405486034835361e-01
1.059999999999999970e-01,1.754510333554723800e-01,3.789502028694770042e-01,-2.022814932976643165e-01
1.069999999999999979e-01,4.882992230611691298e-01,2.440292906962137076e-01,-3.630873963213252648e-02
1.079999999999999988e-01,3.899475541161995240e-01,-1.687835881191255549e-01,2.362342395776264870e-01
1.089999999999999997e-01,2.165412854830801436e-03,-3.808943340397942245e-01,2.716107122376300032e-01
1.100000000000000006e-01,-3.920484215034454323e-01,-2.962841988171591723e-01,1.018614582026415305e-01
1.110000000000000014e-01,-4.886890464148557767e-01,-1.056983137409495642e-02,-1.357614812489649214e-01
1.120000000000000023e-01,-1.677763838700223331e-01,3.116358487313388159e-01,-2.995256586584001401e-01
1.130000000000000032e-01,2.596418374859488787e-01,4.095425681300691734e-01,-2.276230396602511863e-01
1.140000000000000041e-01,5.073138475889190646e-01,1.304133591021625349e-01,5.696986163657138252e-02
1.150000000000000050e-01,3.567609517188536916e-01,-2.385930740897433122e-01,2.799155542115848716e-01
1.160000000000000059e-01,-6.458037648172797185e-02,-3.868619797424451279e-01,2.886089406474134922e-01
1.170000000000000068e-01,-4.464747271111903504e-01,-2.582952883045378512e-01,9.396701053325631769e-02
1.179999999999999938e-01,-4.588283852497938020e-01,1.039009957527699535e-01,-1.829637592756934716e-01
1.189999999999999947e-01,-7.729027694728048126e-02,3.718713958579972778e-01,-3.016931513012065524e-01
1.199999999999999956e-01,3.244655373751009764e-01,3.189911962752562391e-01,-2.074151283988818484e-01
1.209999999999999964e-01,5.094685380741975633e-01,2.693541193685852070e-02,8.686191663901028648e-02
1.219999999999999973e-01,2.404074323117092182e-01,-2.941393428160894441e-01,3.060479005910067274e-01
1.229999999999999982e-01,-1.903083432620008564e-01,-3.614308155283952328e-01,2.839205872875112946e-01
1.239999999999999991e-01,-5.032469485087551764e-01,-1.779715947670236775e-01,4.075856826621347684e-02
1.250000000000000000e-01,-3.886543407467998312e-01,2.203450325717089264e-01,-2.182428773470896088e-01
1.260000000000000009e-01,5.425988137107047582e-04,3.940869769610602646e-01,-2.960918952447174068e-01
1.270000000000000018e-01,3.789576030531112694e-01,2.709887613823465657e-01,-1.429503736156722826e-01
1.280000000000000027e-01,4.712604051572609754e-01,-6.009228257548154123e-02,1.143708300641778225e-01
1.290000000000000036e-01,1.952265244062362515e-01,-3.656694454323377030e-01,3.059464029384968420e-01
1.300000000000000044e-01,-2.729317187030573799e-01,-3.807660133846328954e-01,2.127112451978770413e-01
1.310000000000000053e-01,-4.839825448856962531e-01,-7.946057618465830752e-02,-2.535923160077382596e-03
1.320000000000000062e-01,-3.509673864322825354e-01,2.886234978416114538e-01,-2.433523368384301611e-01
1.330000000000000071e-01,9.834218576288850100e-02,4.089369777732505540e-01,-2.791772508937132025e-01
1.340000000000000080e-01,4.373330030198120943e-01,2.173243084668469993e-01,-1.105768200327522238e-01
1.350000000000000089e-01,4.572962422327438436e-01,-1.871926727638432708e-01,1.480566055729545250e-01
1.360000000000000098e-01,7.734010069376968943e-02,-3.887666599608666784e-01,2.869393887614695160e-01
1.370000000000000107e-01,-3.383289178493507077e-01,-2.884009653785814531e-01,2.254624084233319281e-01
1.380000000000000115e-01,-5.078797192497955804e-01,6.551537977692489800e-02,-3.831479164174009244e-02
1.390000000000000124e-01,-2.499380120711539310e-01,3.360402705366790088e-01,-2.555793095790191427e-01
1.400000000000000133e-01,1.671807376826580371e-01,3.613294260826914184e-01,-3.061460766398449995e-01
1.409999999999999865e-01,4.799517455557788526e-01,9.454382963023727493e-02,-6.259352483193050820e-02
1.419999999999999873e-01,3.772313342021253457e-01,-2.705936086130549811e-01,1.888468886585374651e-01
1.429999999999999882e-01,1.668800705149159000e-02,-4.044979811394317504e-01,3.152918883198918554e-01
1.439999999999999891e-01,-4.029887814263584667e-01,-2.539887601130786932e-01,1.770531954522878149e-01
1.449999999999999900e-01,-4.583519100400249013e-01,1.521000003214384166e-01,-6.738274937492817751e-02
1.459999999999999909e-01,-1.498879688994838311e-01,4.021947255426161494e-01,-2.686137664388408286e-01
1.469999999999999918e-01,2.813164999199039285e-01,3.337348205333148798e-01,-3.013881164896648479e-01
1.479999999999999927e-01,5.162692342766650455e-01,1.033514987237985419e-02,-3.619012608234385697e-02
1.489999999999999936e-01,3.509500624830148019e-01,-3.398699733589826688e-01,2.222823394037727329e-01
1.499999999999999944e-01,-1.018147704858267943e-01,-3.945950734848019392e-01,3.187467867958547196e-01
1.509999999999999953e-01,-4.496930014238081919e-01,-1.241982669224610814e-01,1.531978128853730692e-01
1.519999999999999962e-01,-4.732606232781995104e-01,2.391505310221228864e-01,-1.032081252746425010e-01
1.529999999999999971e-01,-8.451839833448135386e-02,4.069151545825193117e-01,-3.121556597270826461e-01
1.539999999999999980e-01,3.594373742999540933e-01,2.723761195006469404e-01,-2.648654568220695782e-01
1.549999999999999989e-01,5.284260096882349433e-01,-1.231105636714454610e-01,-2.586434639435088514e-02
1.559999999999999998e-01,2.566436187336102459e-01,-3.507867711277231626e-01,2.239183495075600938e-01
1.570000000000000007e-01,-1.634948904546820181e-01,-3.257628820050273988e-01,2.690938856811123103e-01
1.580000000000000016e-01,-4.486007770689403040e-01,-2.458667319174254531e-02,1.199339470897047982e-01
1.590000000000000024e-01,-3.983160512945295717e-01,3.040445700941771801e-01,-1.478820755282948540e-01
1.600000000000000033e-01,-1.966336473536195017e-03,3.706006642623200231e-01,-3.094055195319758145e-01
1.610000000000000042e-01,3.869603450081870455e-01,1.659579039052642147e-01,-2.102084322272718409e-01
1.620000000000000051e-01,4.935107850785913630e-01,-2.316183570719221319e-01,1.337005597141598633e-02
1.630000000000000060e-01,1.861211919358129740e-01,-3.900587927428564861e-01,2.484136256963567491e-01
1.640000000000000069e-01,-2.767063177295779330e-01,-2.717956650482259429e-01,2.738549257407212889e-01
1.650000000000000078e-01,-5.032253915484331541e-01,5.776960541147624362e-02,1.021956025798501227e-01
1.660000000000000087e-01,-3.230318822023190428e-01,3.721612668649898481e-01,-1.864142623220783612e-01
1.670000000000000095e-01,1.113572285411159879e-01,3.567754996640248311e-01,-3.005340099748117777e-01
1.680000000000000104e-01,4.511381827363442065e-01,7.971963898367413759e-02,-1.949584668763445772e-01
1.690000000000000113e-01,4.433736076064967446e-01,-2.927296484695188217e-01,6.467519263690064968e-02
1.700000000000000122e-01,8.857663244417712800e-02,-3.930205145438540049e-01,2.547541742737057802e-01
1.710000000000000131e-01,-3.574197020996895402e-01,-2.167496158586286747e-01,2.428078047035068798e-01
1.719999999999999862e-01,-4.874758140059972655e-01,1.688635735788836245e-01,6.529232712239167735e-02
1.729999999999999871e-01,-2.578591221680111012e-01,3.687929498693773844e-01,-2.115031393926514180e-01
1.739999999999999880e-01,2.180149553631880732e-01,3.052097733782152544e-01,-2.673963172506255148e-01
1.749999999999999889e-01,4.709896279569851241e-01,-4.330544721186792984e-02,-1.622080608445121142e-01
1.759999999999999898e-01,3.895984745420492668e-01,-3.396939516592141772e-01,8.905175654571746702e-02
1.769999999999999907e-01,1.477795212254232222e-02,-3.789120183635678596e-01,2.928751840822738095e-01
1.779999999999999916e-01,-4.115949078075525902e-01,-1.113518337697516347e-01,2.243760314213006923e-01
1.789999999999999925e-01,-4.504093650707181040e-01,2.549501487645389752e-01,2.229204607545666114e-02
1.799999999999999933e-01,-1.452892492482827924e-01,3.822306343689518271e-01,-2.202384852087146683e-01
1.809999999999999942e-01,2.720582978937255425e-01,2.119084532904988993e-01,-2.751934487443271071e-01
1.819999999999999951e-01,4.916022018406797645e-01,-1.247497975126307251e-01,-1.595904752699687790e-01
1.829999999999999960e-01,3.151644685665271894e-01,-3.701092875488247724e-01,1.262198655664472924e-01
1.839999999999999969e-01,-1.030450785919662660e-01,-3.195526351308614621e-01,2.566240845780102808e-01
1.849999999999999978e-01,-4.806735724136121934e-01,-2.902826246294473028e-02,2.285781466244746207e-01
1.859999999999999987e-01,-4.389738535978899292e-01,3.247804501333697025e-01,-1.641277947455006478e-02
1.869999999999999996e-01,-6.372294444877597830e-02,4.133006319557839814e-01,-2.593673039362264232e-01
1.880000000000000004e-01,3.792381220289403609e-01,1.442845021104239012e-01,-2.631372941583023373e-01
1.890000000000000013e-01,5.127261428735562232e-01,-2.227966030034489175e-01,-6.909539103233353075e-02
1.900000000000000022e-01,2.473437439687231065e-01,-4.223792987187369730e-01,1.848327628811695378e-01
1.910000000000000031e-01,-2.067280899029353414e-01,-2.221474523104964294e-01,2.790794282910999402e-01
1.920000000000000040e-01,-4.820220486279720995e-01,9.712996243130790630e-02,2.042941881285194050e-01
1.930000000000000049e-01,-3.993987363250494083e-01,3.835463074323655630e-01,-4.413242751763772620e-02
1.940000000000000058e-01,2.304345845463947814e-02,3.471215292618775039e-01,-2.818754130494535715e-01
1.950000000000000067e-01,4.336714744500582697e-01,3.869809004401369296e-02,-2.735321571090378878e-01
1.960000000000000075e-01,4.633112559526080254e-01,-2.792023803120523562e-01,-7.298450451061190558e-02
1.970000000000000084e-01,1.421587470822860133e-01,-4.058636039609599955e-01,2.065927653638197359e-01
1.980000000000000093e-01,-2.819846766541793670e-01,-1.545782032799636607e-01,2.987117313465315616e-01
1.990000000000000102e-01,-4.986310243641851048e-01,2.139156559089779308e-01,1.582375432424599493e-01
2.000000000000000111e-01,-3.142828339125657844e-01,3.911425782311092614e-01,-8.676947444846627722e-02
2.010000000000000120e-01,1.004881749867817947e-01,2.631399657007508219e-01,-2.864314181446635521e-01
2.020000000000000129e-01,4.392308128497431352e-01,-5.338987836355354316e-02,-2.649367393985035957e-01
2.030000000000000138e-01,4.273858658047156034e-01,-3.675479071164766687e-01,-4.144046092243341278e-02
2.039999999999999869e-01,5.581869720451068662e-02,-3.592851794003519283e-01,2.019078595101608808e-01
2.049999999999999878e-01,-3.556030855830518700e-01,-7.089477006354064081e-02,2.797889113133817940e-01
2.059999999999999887e-01,-5.083228751042220273e-01,2.816276060385803914e-01,1.541931905592786867e-01
2.069999999999999896e-01,-2.122222962338099483e-01,3.780492425520968203e-01,-1.176474798653387444e-01
2.079999999999999905e-01,2.100459051606132777e-01,1.895655715575724209e-01,-3.053462715717373266e-01
2.089999999999999913e-01,4.984734150029818123e-01,-1.766565255382763766e-01,-2.266528334756162666e-01
2.099999999999999922e-01,3.904486464280694236e-01,-3.878235133479877583e-01,1.083839802207793405e-02
2.109999999999999931e-01,-5.582813187525301896e-02,-2.992128171729199204e-01,2.585899776073157796e-01
2.119999999999999940e-01,-4.313207811837702632e-01,2.694568513671324883e-02,2.833779393667011925e-01
2.129999999999999949e-01,-4.665988661783974090e-01,3.609294192150099279e-01,1.333540539330773655e-01
2.139999999999999958e-01,-1.707284678960725444e-01,3.694372611978825049e-01,-1.371845103680160161e-01
2.149999999999999967e-01,3.091415455497693587e-01,8.897232194446773323e-02,-2.801343975320864099e-01
2.159999999999999976e-01,5.183444048564302964e-01,-2.506520271200425864e-01,-2.139605502174560248e-01
2.169999999999999984e-01,3.438687452328954564e-01,-4.024088532831244791e-01,5.112750128729215415e-02
2.179999999999999993e-01,-1.140369728671999372e-01,-2.200833065868522120e-01,2.498203656580327281e-01
2.190000000000000002e-01,-4.225794412262967592e-01,1.233193279703296980e-01,2.929885729439868358e-01
2.200000000000000011e-01,-4.277914412885852613e-01,3.727966469662091775e-01,9.310206641018436979e-02
2.210000000000000020e-01,-5.874637013911809813e-02,3.298020020529812135e-01,-1.862210811729136661e-01
2.220000000000000029e-01,3.632492896091849000e-01,-3.136778364903193388e-04,-2.894796548954913229e-01
2.230000000000000038e-01,5.176477196781265055e-01,-3.710184091453442301e-01,-1.717591094232007176e-01
2.240000000000000047e-01,2.510754083232714096e-01,-3.832992627304091515e-01,1.262614867307677302e-01
2.250000000000000056e-01,-1.937282902377281957e-01,-1.301991771816666532e-01,2.516173092469360939e-01
2.260000000000000064e-01,-4.653593468391155619e-01,1.961919640333668613e-01,2.246559241308997701e-01
2.270000000000000073e-01,-3.703260300707066355e-01,3.962757375806650328e-01,4.256956113781060896e-02
2.280000000000000082e-01,1.510944127633858519e-02,2.446468189276516936e-01,-2.097232099684653017e-01
2.290000000000000091e-01,4.286697554299287449e-01,-1.178171318140134455e-01,-3.225017044862895088e-01
2.300000000000000100e-01,4.582285399740192444e-01,-3.418088104880185885e-01,-1.229654554983215936e-01
2.310000000000000109e-01,1.444232198875559925e-01,-3.625615291590379430e-01,1.544878214502502511e-01
2.320000000000000118e-01,-2.873720156341516563e-01,-3.547784606408288521e-02,2.877586425940912296e-01
2.330000000000000127e-01,-4.869704229016340591e-01,2.827091396654179412e-01,2.493872371525581444e-01
2.340000000000000135e-01,-3.007714882509213705e-01,4.169552820267090620e-01,-2.957742115826982390e-02
2.349999999999999867e-01,1.201386419698255575e-01,1.639832153103745471e-01,-2.368660381817304927e-01
2.359999999999999876e-01,4.571811125522922681e-01,-1.870313338904207590e-01,-2.780415309682675029e-01
2.369999999999999885e-01,4.166150755469350542e-01,-4.017027448790751465e-01,-1.150706385354433731e-01
2.379999999999999893e-01,5.039756913164181173e-02,-2.439138877193167132e-01,1.497572940757605497e-01
2.389999999999999902e-01,-3.813498886094437990e-01,6.343645891133083137e-02,2.758462148377356926e-01
2.399999999999999911e-01,-4.743687333775412074e-01,4.003378701258676897e-01,1.687194783817743404e-01
2.409999999999999920e-01,-2.222973325185452764e-01,3.490683881233376806e-01,-2.843623417634197695e-02
2.419999999999999929e-01,2.068281914023917811e-01,9.424478709215258765e-02,-2.490252681772926191e-01
2.429999999999999938e-01,5.008843707864045758e-01,-3.182223975446168973e-01,-2.917992237395134469e-01
2.439999999999999947e-01,3.737067615655079722e-01,-3.969280110665763250e-01,-8.886233829413915652e-02
2.449999999999999956e-01,-6.417067156934835870e-02,-1.989399827005740862e-01,1.850095946451167095e-01
2.459999999999999964e-01,-4.263234239894699296e-01,1.849912499569729141e-01,3.063272257887086902e-01
2.469999999999999973e-01,-4.427457674037279522e-01,3.764739094126455798e-01,1.836303641363129235e-01
2.479999999999999982e-01,-1.551617625964587521e-01,3.141588146909479184e-01,-1.028340187135361045e-01
2.489999999999999991e-01,2.969736688038487893e-01,-4.497212735784950066e-02,-2.730734032244689913e-01
2.500000000000000000e-01,4.686009421581945333e-01,-3.041189963427029519e-01,-2.763562774661825205e-01
2.510000000000000009e-01,3.099223038697340171e-01,-3.626606598493780087e-01,-3.851461890943642247e-02
2.520000000000000018e-01,-1.574786892189822818e-01,-1.237966686126546340e-01,2.261839402178438541e-01
2.530000000000000027e-01,-4.351442989139588380e-01,2.746205449722234904e-01,2.719683742328402598e-01
2.540000000000000036e-01,-4.235489305370922497e-01,3.916572792631895505e-01,1.525108611480929799e-01
2.550000000000000044e-01,-2.147438469619638440e-02,2.496502108904550821e-01,-1.033514015672432618e-01
2.560000000000000053e-01,3.665388014626972391e-01,-1.433562970097801148e-01,-2.974997837107589138e-01
2.570000000000000062e-01,4.835463886539345113e-01,-3.758835496253462027e-01,-2.266388584763158742e-01
2.580000000000000071e-01,1.931897864410970223e-01,-3.205959484626975109e-01,4.249369708004184162e-03
2.590000000000000080e-01,-2.024919650230988521e-01,-8.458070495534082342e-03,2.391547298058904203e-01
2.600000000000000089e-01,-4.513900890203856320e-01,3.073475858057752030e-01,2.956728942270221427e-01
2.610000000000000098e-01,-3.447692029109662992e-01,3.632393456507214125e-01,1.339249853484403008e-01
2.620000000000000107e-01,4.805582851775534042e-02,1.155283566094417458e-01,-1.399901134955754411e-01
2.630000000000000115e-01,4.182421915105246635e-01,-2.184322211065898578e-01,-2.978364693956544462e-01
2.640000000000000124e-01,4.626256836783145809e-01,-3.979623151054645924e-01,-1.968221380715696189e-01
2.650000000000000133e-01,1.217894362938792274e-01,-2.490049905813846443e-01,5.084433337682809848e-03
2.660000000000000142e-01,-3.036571730767441690e-01,1.149722466503071833e-01,2.306605174460721330e-01
2.670000000000000151e-01,-4.845354637091019989e-01,3.821279112044828619e-01,2.792889476184595154e-01
2.680000000000000160e-01,-3.022671969537565895e-01,3.541088495298652661e-01,6.761779836181727732e-02
2.690000000000000169e-01,1.381491404475917728e-01,3.901543136224563946e-02,-1.949813882158026590e-01
2.700000000000000178e-01,4.665126760389107785e-01,-3.113533735860095075e-01,-2.828513136812688122e-01
2.710000000000000187e-01,4.219198819728824379e-01,-3.807508332298208398e-01,-1.843962792582767296e-01
2.720000000000000195e-01,1.544702725269461036e-02,-1.750587630684680429e-01,5.854649770710956130e-02
2.730000000000000204e-01,-3.561746613858483013e-01,1.802790618402826950e-01,2.607116854569022646e-01
2.740000000000000213e-01,-5.158383507832275949e-01,4.294935697112936546e-01,2.467169296465939743e-01
2.750000000000000222e-01,-1.895122305862879664e-01,2.747794492781174269e-01,3.314273238788113807e-02
2.760000000000000231e-01,2.446023362523132572e-01,-5.993909239533942723e-02,-2.184578191825320148e-01
2.770000000000000240e-01,4.864125505701860641e-01,-3.413363327413911907e-01,-2.927233955564642609e-01
2.780000000000000249e-01,3.523619932813016331e-01,-3.465005489873716482e-01,-1.802340357493167344e-01
2.790000000000000258e-01,-6.046357852204032463e-02,-6.940546731399467595e-02,9.816574533144971360e-02
2.800000000000000266e-01,-4.334483414214870822e-01,2.702863713191989148e-01,2.859830233689703016e-01
2.810000000000000275e-01,-4.953591193908117307e-01,3.950679094598548713e-01,2.169705640901152810e-01
2.819999999999999729e-01,-1.377474421270173943e-01,1.831607793195950129e-01,1.286654270083534670e-03
2.829999999999999738e-01,3.281740747959820403e-01,-1.719235501570356983e-01,-2.498259823415555636e-01
2.839999999999999747e-01,4.755928534521827733e-01,-3.856462387813622827e-01,-2.834053619603447149e-01
2.849999999999999756e-01,3.112637473882633454e-01,-2.954086873045760897e-01,-1.348378560702831186e-01
2.859999999999999765e-01,-1.482716063069694223e-01,6.257809204915663892e-02,1.432582097891568762e-01
2.869999999999999774e-01,-4.646556768329443976e-01,3.474003529960716929e-01,2.781915358577004005e-01
2.879999999999999782e-01,-4.368588667534580305e-01,3.453005382794915312e-01,2.589297422464805765e-01
2.889999999999999791e-01,-5.614971105056010270e-02,1.010213753991127256e-01,-3.854919158307407168e-02
2.899999999999999800e-01,3.829024169645592890e-01,-2.514064323499959897e-01,-2.896036952953477406e-01
2.909999999999999809e-01,4.840210035186413018e-01,-3.644201567780172013e-01,-2.698977347259994830e-01
2.919999999999999818e-01,2.127119240860058103e-01,-2.042752134888419224e-01,-9.299195373535415476e-02
2.929999999999999827e-01,-2.307059484121605497e-01,1.154596469003414255e-01,2.031418968527162472e-01
2.939999999999999836e-01,-4.563909341635304928e-01,4.066179826994367197e-01,3.140751590403463300e-01
2.949999999999999845e-01,-3.817787971452210605e-01,3.481377955868037444e-01,1.753802561332742094e-01
2.959999999999999853e-01,5.712406969451479938e-02,1.548785580176539889e-02,-1.029252450751877435e-01
2.969999999999999862e-01,4.408991931235441974e-01,-3.543160853291706380e-01,-2.983870504890325237e-01
2.979999999999999871e-01,4.546894248694045571e-01,-3.842975071328877945e-01,-2.716795746045345683e-01
2.989999999999999880e-01,1.256993133498658655e-01,-1.287134152829186029e-01,-4.041800825091417665e-02
2.999999999999999889e-01,-3.079228039540876094e-01,2.273777014229467486e-01,2.034297762390769870e-01
3.009999999999999898e-01,-5.071459741464405813e-01,3.915175382718718011e-01,2.919119146050569991e-01
3.019999999999999907e-01,-3.074649436545403014e-01,2.339556236873889250e-01,1.700754965064426028e-01
3.029999999999999916e-01,1.549254993040409811e-01,-9.827294711503883895e-02,-9.636456162601420017e-02
3.039999999999999925e-01,4.572744412348880849e-01,-3.937578705996365169e-01,-2.559409956479819503e-01
3.049999999999999933e-01,4.222482459182884673e-01,-3.339287537940320849e-01,-2.408587918048450960e-01
3.059999999999999942e-01,2.646283845587465294e-02,-3.610432989695762374e-02,1.571763806446603573e-02
3.069999999999999951e-01,-3.869125815184517037e-01,3.293882507172302132e-01,2.627529063599022274e-01
3.079999999999999960e-01,-4.810190791743113592e-01,3.821618711232964705e-01,2.926670652205186074e-01
3.089999999999999969e-01,-2.000478586581617702e-01,1.786103572211741319e-01,1.202319358918162440e-01
3.099999999999999978e-01,2.531019086235272719e-01,-1.801481689369736350e-01,-1.781346422692000886e-01
3.109999999999999987e-01,4.915710540895989467e-01,-4.066866135109030722e-01,-2.934649924048048919e-01
3.119999999999999996e-01,3.482110847756609839e-01,-2.575065315069538507e-01,-2.090717574845729343e-01
3.130000000000000004e-01,-6.948874173584342062e-02,4.422888742106326210e-02,4.386762095419990959e-02
3.140000000000000013e-01,-4.510371090091170321e-01,3.300104056620715709e-01,2.789109886306890274e-01
3.150000000000000022e-01,-4.882908999377671422e-01,3.697058909930132642e-01,2.795496465869463099e-01
3.160000000000000031e-01,-1.130531763892064501e-01,5.553844728365509714e-02,8.099252408711088425e-02
3.170000000000000040e-01,3.284370201248065224e-01,-2.507344418885433246e-01,-1.589835782956166843e-01
3.180000000000000049e-01,4.804466678244005418e-01,-4.033086526103439873e-01,-3.159155205146969569e-01
3.190000000000000058e-01,2.924828777184330653e-01,-1.917723838656023860e-01,-1.831807705101361206e-01
3.200000000000000067e-01,-1.556255186046174299e-01,1.695308217921245864e-01,5.985221663736332853e-02
3.210000000000000075e-01,-4.592744882536482498e-01,3.995535269696371405e-01,2.490171379347484448e-01
3.220000000000000084e-01,-3.968140320122891529e-01,2.828107992298415363e-01,2.801884938971115346e-01
3.230000000000000093e-01,-1.178879512796567226e-02,-5.062681880506963300e-02,3.072279842217222334e-02
3.240000000000000102e-01,3.852929592986117924e-01,-3.355289212958754153e-01,-2.076413611578893925e-01
3.250000000000000111e-01,4.770778234441526156e-01,-3.755702267049797483e-01,-2.827789022647242967e-01
3.260000000000000120e-01,1.872675660383856799e-01,-7.362846693552727029e-02,-1.970992110542215403e-01
3.270000000000000129e-01,-2.485068616681403164e-01,2.441097316993044164e-01,8.504991551197445265e-02
3.280000000000000138e-01,-4.840270228919683060e-01,3.967890468845493013e-01,2.541565380371297311e-01
3.290000000000000147e-01,-3.500084660518930080e-01,2.436611458667732877e-01,2.680993049337034861e-01
3.300000000000000155e-01,6.324225311843544028e-02,-1.492443296358410276e-01,1.617683475917400943e-02
3.310000000000000164e-01,4.293976517743972043e-01,-3.467340705997231098e-01,-1.860029466556001321e-01
3.320000000000000173e-01,4.423931226928109472e-01,-3.092362194800877817e-01,-2.874918415131713090e-01
3.330000000000000182e-01,1.352025068646919292e-01,1.814447335932284008e-02,-1.351133044961219387e-01
3.340000000000000191e-01,-3.274202575925264647e-01,3.376467676290445530e-01,1.373795702693245413e-01
3.350000000000000200e-01,-4.866372248040450321e-01,3.876979096966464144e-01,2.935860817665768008e-01
3.360000000000000209e-01,-2.726520633555334361e-01,1.263006744549697580e-01,2.033464316666710736e-01
3.370000000000000218e-01,1.625255344506041366e-01,-2.311244909988095786e-01,-3.056230586554119569e-02
3.380000000000000226e-01,5.069716167689044539e-01,-4.256061719550445210e-01,-2.611244099194920398e-01
3.390000000000000235e-01,4.229893370088936844e-01,-2.494200180888402341e-01,-3.100543035307887774e-01
3.400000000000000244e-01,1.799175317193844881e-02,1.024283672795774508e-01,-9.375224156984812707e-02
3.410000000000000253e-01,-3.841374627936480768e-01,3.609929780324219184e-01,1.379797834051827432e-01
3.420000000000000262e-01,-4.755713331785909603e-01,3.557242462305424402e-01,3.091640065040737184e-01
3.430000000000000271e-01,-1.706858220729975673e-01,5.853605898606132479e-02,1.818349608353257152e-01
3.439999999999999725e-01,2.463869453799466813e-01,-3.128956609048582083e-01,-5.750578525573503408e-02
3.449999999999999734e-01,4.732299318089888129e-01,-3.884495264683654470e-01,-2.606973357989029183e-01
3.459999999999999742e-01,3.346914070789803186e-01,-1.782260801120282290e-01,-2.703318523191353684e-01
3.469999999999999751e-01,-7.880279943024041944e-02,1.803907082212498902e-01,-5.537550637448511448e-02
3.479999999999999760e-01,-4.281868273157153904e-01,4.005625264030121535e-01,1.679977466022956889e-01
3.489999999999999769e-01,-4.457079339586049183e-01,2.758525587248890631e-01,3.116981709075171136e-01
3.499999999999999778e-01,-1.075614422959353389e-01,-8.215766551991603162e-02,1.658876059783252199e-01
3.509999999999999787e-01,3.258051186243373643e-01,-3.709011186795857506e-01,-9.998704959713347606e-02
3.519999999999999796e-01,5.033658154474917046e-01,-3.665626297206768247e-01,-2.829505084531754311e-01
3.529999999999999805e-01,2.906647302608251771e-01,-7.451738415351101541e-02,-2.550764915801053689e-01
3.539999999999999813e-01,-1.923348733738516336e-01,3.019199184351996079e-01,-2.599719349848808592e-02
3.549999999999999822e-01,-4.704596613909304836e-01,4.187643173723991641e-01,2.335716877389411583e-01
3.559999999999999831e-01,-3.700150895939828266e-01,2.052273768578079527e-01,3.009372957792137981e-01
3.569999999999999840e-01,2.669571631937460183e-04,-1.801923499870612400e-01,1.536865940798423369e-01
3.579999999999999849e-01,3.929631972161375386e-01,-3.916520078510790648e-01,-1.278857290266872948e-01
3.589999999999999858e-01,4.649477434293157740e-01,-2.992152179713211679e-01,-3.255894751276215415e-01
3.599999999999999867e-01,1.754629806776633327e-01,2.775569576869927474e-02,-2.225634296353078967e-01
3.609999999999999876e-01,-2.407165361493052436e-01,3.735562239120179817e-01,1.801786200700513860e-02
3.619999999999999885e-01,-4.935839905547121376e-01,3.629504862867722892e-01,2.536202104104993138e-01
3.629999999999999893e-01,-3.237785697209324409e-01,1.044516838019558663e-01,3.099588821530169791e-01
3.639999999999999902e-01,1.216215776818414529e-01,-2.375458215153690988e-01,8.667938599492094887e-02
3.649999999999999911e-01,4.371044152777994185e-01,-3.904128384905519722e-01,-1.660207827238379952e-01
3.659999999999999920e-01,4.446353449174985095e-01,-2.063007899205485662e-01,-3.069260761016351924e-01
3.669999999999999929e-01,9.172726008061481140e-02,1.415236721160457734e-01,-1.860586168640274429e-01
3.679999999999999938e-01,-3.303931550670937689e-01,3.774685599507512368e-01,5.455644390425979512e-02
3.689999999999999947e-01,-5.328294081879074717e-01,3.255630206414119043e-01,2.805354299445552702e-01
3.699999999999999956e-01,-2.952454740219472296e-01,-2.142556987158032028e-02,2.679937887401897534e-01
3.709999999999999964e-01,1.759809868350876438e-01,-3.011812533067098063e-01,7.128409706071303642e-02
3.719999999999999973e-01,4.679941666546398316e-01,-3.744913456129114748e-01,-2.246677073242531464e-01
3.729999999999999982e-01,4.023313350272935685e-01,-1.507158478534359469e-01,-3.135814274184565709e-01
3.739999999999999991e-01,-1.513436373478296848e-02,2.105949082937624839e-01,-1.650048229399551092e-01
3.750000000000000000e-01,-3.856768956942998039e-01,3.688009220613071015e-01,1.090563325900286845e-01
3.760000000000000009e-01,-4.513845561199372192e-01,3.039213558851474040e-01,2.236375745319239272e-01
3.770000000000000018e-01,-1.872466097814113883e-01,-1.118159937035852480e-01,2.472195328226096944e-01
3.780000000000000027e-01,2.787344467701435291e-01,-3.589229112952010969e-01,4.488774673183021369e-02
3.790000000000000036e-01,4.910136956949900933e-01,-3.211432931661600265e-01,-2.499025625254822636e-01
3.800000000000000044e-01,3.450790550570344006e-01,-2.354410609297634058e-02,-2.843514534463694732e-01
3.810000000000000053e-01,-1.006728385955718702e-01,3.091909398646611740e-01,-1.355668945429344130e-01
3.820000000000000062e-01,-4.624217724761657267e-01,3.733488278893042356e-01,1.680163989082884557e-01
3.830000000000000071e-01,-4.334600144563071633e-01,1.865159886122944588e-01,2.940952778562740400e-01
3.840000000000000080e-01,-6.820781924325301782e-02,-2.123565687089182530e-01,2.185740789477255142e-01
3.850000000000000089e-01,3.469217701558911515e-01,-4.156196390740093394e-01,-2.467102676795930594e-02
3.860000000000000098e-01,5.066934954676545200e-01,-2.747675951150279072e-01,-2.487611642860946826e-01
3.870000000000000107e-01,2.513776612830436741e-01,9.538664425243503775e-02,-2.833656746717224673e-01
3.880000000000000115e-01,-1.743872531541501847e-01,3.668972742269653309e-01,-1.069928722213670802e-01
3.890000000000000124e-01,-4.907077736961705794e-01,3.565263930356247224e-01,1.600657921700592845e-01
3.900000000000000133e-01,-3.993649861560555903e-01,6.830264686710491029e-02,2.881857394878644119e-01
3.910000000000000142e-01,1.073700690822573540e-04,-2.866634530150513060e-01,1.773908589460249929e-01
3.920000000000000151e-01,4.120678244632674514e-01,-3.872651840267456458e-01,-3.360981907911272243e-02
3.930000000000000160e-01,4.528903585005457644e-01,-1.815095722232141773e-01,-2.500079228346447913e-01
3.940000000000000169e-01,1.756825533954832208e-01,1.652520127836333286e-01,-2.751424048060795990e-01
3.950000000000000178e-01,-2.615167799476235122e-01,4.073552279195855608e-01,-5.150965923999115126e-02
3.960000000000000187e-01,-4.978071879440318925e-01,3.257233984463365206e-01,1.952606292654671116e-01
3.970000000000000195e-01,-3.406409482874971362e-01,-3.231368523210065291e-02,3.045418217465187261e-01
3.980000000000000204e-01,9.013385403914808691e-02,-3.568022435766017852e-01,1.604555528804919307e-01
3.990000000000000213e-01,4.221709161925567000e-01,-3.733558499631202121e-01,-7.861047630395477659e-02
4.000000000000000222e-01,4.273208429904388761e-01,-1.220618611223117378e-01,-3.047154150963699015e-01
4.010000000000000231e-01,1.125346784421284579e-01,2.405068037693334215e-01,-2.546051948851171254e-01
4.020000000000000240e-01,-3.529031492221660904e-01,3.935060598488748229e-01,-4.753496923733667445e-02
4.030000000000000249e-01,-5.100120056416947989e-01,2.367048816994582472e-01,2.082427989062441143e-01
4.040000000000000258e-01,-2.500706719627250330e-01,-1.198735299916180858e-01,2.836150447954274290e-01
4.050000000000000266e-01,1.951524669066967421e-01,-3.889122754640870205e-01,1.701777255063489092e-01
4.060000000000000275e-01,5.218299092862148658e-01,-3.124663563140483435e-01,-1.217215211575998490e-01
4.069999999999999729e-01,3.618790378517512396e-01,-3.297206620733170862e-02,-2.848695888140295729e-01
4.079999999999999738e-01,-6.318808816150584158e-03,3.534622506490473492e-01,-2.420456581749771685e-01
4.089999999999999747e-01,-4.041440867501304712e-01,4.073960842993788467e-01,3.653155743219712714e-03
4.099999999999999756e-01,-4.750749350669916105e-01,1.232067225829545087e-01,2.259010784892408752e-01
4.109999999999999765e-01,-1.557763826728703616e-01,-1.922997720093110596e-01,2.718915354581014077e-01
4.119999999999999774e-01,2.978173138023164079e-01,-3.881012658700959128e-01,9.275392940318215318e-02
4.129999999999999782e-01,5.014604093651423566e-01,-2.540360174366963486e-01,-1.418949240233673692e-01
4.139999999999999791e-01,3.166299426579700094e-01,1.164626021316539362e-01,-2.846046954417296715e-01
4.149999999999999800e-01,-1.055710535714442649e-01,3.778478161500252730e-01,-2.180043139572669098e-01
4.159999999999999809e-01,-4.320972728984565081e-01,3.131099372375392709e-01,4.257091454818518611e-02
4.169999999999999818e-01,-4.406884728665752538e-01,1.859085488446788476e-02,2.379992473021415866e-01
4.179999999999999827e-01,-6.159424925095156877e-02,-3.057633790268041163e-01,2.836490654889932128e-01
4.189999999999999836e-01,3.775719108512260447e-01,-4.071012291478663947e-01,7.001436445955525056e-02
4.199999999999999845e-01,4.855289930740959714e-01,-1.507472401869579814e-01,-1.906653891404262169e-01
4.209999999999999853e-01,2.485380913305175188e-01,1.721690565062617695e-01,-2.885351410495755609e-01
4.219999999999999862e-01,-2.143200303085754654e-01,3.767249720687710357e-01,-2.075406415919349157e-01
4.229999999999999871e-01,-4.945515947428429926e-01,2.589546818993361255e-01,9.712883196475555203e-02
4.239999999999999880e-01,-3.715690684445735470e-01,-1.047529286968980622e-01,2.624193847422775505e-01
4.249999999999999889e-01,-3.796101932379326600e-03,-3.541063835406639271e-01,2.608787516309205579e-01
4.259999999999999898e-01,4.188525938300036722e-01,-3.751048346312244042e-01,3.820956670934168992e-02
4.269999999999999907e-01,4.811870769327969422e-01,-8.323801390308389891e-02,-1.978195974402629509e-01
4.279999999999999916e-01,1.644925352856120293e-01,2.503117378956374872e-01,-3.138733379967960646e-01
4.289999999999999925e-01,-2.805497954106088709e-01,4.085902866286362234e-01,-1.612401467133657840e-01
4.299999999999999933e-01,-4.917902972122339400e-01,2.048229867141146687e-01,1.280603105369854666e-01
4.309999999999999942e-01,-3.393534022590686261e-01,-1.618080535777744744e-01,2.942968411482480007e-01
4.319999999999999951e-01,1.255547549379224803e-01,-3.846952004763626309e-01,2.113700279597070519e-01
4.329999999999999960e-01,4.399582215925703088e-01,-2.830854907196844739e-01,-8.435953335964627153e-03
4.339999999999999969e-01,4.595730402326574371e-01,4.963970352678791914e-02,-2.258820635599915749e-01
4.349999999999999978e-01,6.489161675156232545e-02,3.581081001687658749e-01,-2.868893217876532509e-01
4.359999999999999987e-01,-3.479502309908568680e-01,3.636942666934678825e-01,-1.016825163906216190e-01
4.369999999999999996e-01,-4.949798845631684374e-01,1.133260507826680530e-01,1.685145242801475429e-01
4.380000000000000004e-01,-2.297874724096822530e-01,-2.605537794928153850e-01,2.979852375631864558e-01
4.390000000000000013e-01,2.057317538318836070e-01,-4.169316730224267298e-01,2.165161225848666049e-01
4.400000000000000022e-01,4.838390914409278487e-01,-2.377319834257230202e-01,-4.914905136907729566e-02
4.410000000000000031e-01,4.071035078209026548e-01,1.101126704820776930e-01,-2.615627881381706876e-01
4.420000000000000040e-01,-1.216780090445062495e-02,3.808704421534736539e-01,-2.942916350483762988e-01
4.430000000000000049e-01,-4.060050968343558719e-01,3.227230524260844557e-01,-6.801070268444536771e-02
4.440000000000000058e-01,-4.587514418049525866e-01,2.030651065493463761e-02,1.690660609602423481e-01
4.450000000000000067e-01,-1.851639581210236529e-01,-2.929410362591213235e-01,2.963510839470518410e-01
4.460000000000000075e-01,3.030214873096911954e-01,-3.734067541566259973e-01,1.884985197946078550e-01
4.470000000000000084e-01,5.143521510736429603e-01,-1.263893832080584256e-01,-3.328179798535730455e-02
4.480000000000000093e-01,3.210927134159061724e-01,2.020792113143482782e-01,-2.485464380893837866e-01
4.490000000000000102e-01,-1.167139853098577013e-01,4.133059929434671487e-01,-2.471258206211842390e-01
4.500000000000000111e-01,-4.591540422082879269e-01,2.492366701471536439e-01,-3.007827342144235583e-02
4.510000000000000120e-01,-4.496182110033286605e-01,-1.118012770596987643e-01,2.157341565153413909e-01
4.520000000000000129e-01,-8.306233406397539598e-02,-3.720500338992269729e-01,3.139454147551958840e-01
4.530000000000000138e-01,3.798661508430798417e-01,-3.245395192182395916e-01,1.406213891713381792e-01
4.540000000000000147e-01,4.997276139320502852e-01,-4.378344370349709219e-02,-6.438264254069267500e-02
4.550000000000000155e-01,2.556803936843896619e-01,2.892587680459920429e-01,-3.073561889807781555e-01
4.560000000000000164e-01,-1.988383306330246125e-01,3.940245869229411224e-01,-2.191098321381785563e-01
4.570000000000000173e-01,-4.684557239951834262e-01,1.672310628241564234e-01,9.435590678310351240e-03
4.580000000000000182e-01,-3.682794410129089924e-01,-1.826238511577459034e-01,2.106926641447401105e-01
4.590000000000000191e-01,4.236539518497037943e-02,-3.806853431747005412e-01,2.696614428710815137e-01
4.600000000000000200e-01,4.220548249159151721e-01,-2.944337178943310929e-01,1.148202795562063006e-01
4.610000000000000209e-01,4.574772400778569503e-01,9.095466337062474427e-02,-1.376309758097493396e-01
4.620000000000000218e-01,1.494572540422653972e-01,3.561210111039480597e-01,-2.820107102733772630e-01
4.630000000000000226e-01,-2.773572739489872374e-01,3.539615031875747997e-01,-1.941079507809326254e-01
4.640000000000000235e-01,-5.191573263887587775e-01,6.471060841749229353e-02,6.262494287215195077e-02
4.650000000000000244e-01,-2.945040837936410139e-01,-2.758133716872263053e-01,2.499042007930530052e-01
4.660000000000000253e-01,1.270621958903568327e-01,-4.132610916130465828e-01,2.763519037409588597e-01
4.670000000000000262e-01,4.689872341591753147e-01,-1.869948061586531596e-01,1.117793988579162817e-01
4.680000000000000271e-01,4.513258537722609764e-01,1.492917756772729754e-01,-1.957890563967663589e-01
4.689999999999999725e-01,5.734180155648817973e-02,3.943069795976191783e-01,-3.077762281275605027e-01
4.699999999999999734e-01,-3.916553339473857753e-01,2.943670477334711655e-01,-1.662549498700973405e-01
4.709999999999999742e-01,-4.931702682734264154e-01,-3.213899433690419610e-02,5.103361162760067238e-02
4.719999999999999751e-01,-2.527401090239184134e-01,-3.497739706795343628e-01,2.503106327068468917e-01
4.729999999999999760e-01,1.945232153041093481e-01,-3.765284411726216862e-01,2.786106740434957652e-01
4.739999999999999769e-01,4.704650288287180460e-01,-9.639376736065272122e-02,7.157722658250896541e-03
4.749999999999999778e-01,3.532763518381474843e-01,2.616049244889143699e-01,-2.113042234188133583e-01
4.759999999999999787e-01,-3.762617049424746979e-02,3.847190008605881895e-01,-3.061899009620764889e-01
4.769999999999999796e-01,-3.965414877824449680e-01,2.158413434745352077e-01,-1.879477965954580998e-01
4.779999999999999805e-01,-4.847181932858549147e-01,-1.054619877154322760e-01,1.053581835351647816e-01
4.789999999999999813e-01,-1.541111699561340531e-01,-4.055066874435506175e-01,3.043743229158616392e-01
4.799999999999999822e-01,2.634187551341599098e-01,-3.049301566478594960e-01,2.707698837510039147e-01
4.809999999999999831e-01,4.990310369689154868e-01,2.218754434934262429e-02,2.663184859719470651e-02
4.819999999999999840e-01,2.905193637080387692e-01,3.164578736870340414e-01,-2.104580453372182358e-01
4.829999999999999849e-01,-1.334340600670695376e-01,3.944518465366180782e-01,-2.895594616805001187e-01
4.839999999999999858e-01,-4.747232640377158641e-01,1.255770063143256399e-01,-1.210540635506203166e-01
4.849999999999999867e-01,-4.544681197609050649e-01,-2.344675354554278945e-01,1.257055448768787942e-01
4.859999999999999876e-01,-5.343315653619845618e-02,-3.554696505983662713e-01,3.022206719715797019e-01
4.869999999999999885e-01,3.845285803834904703e-01,-2.474610538302656482e-01,2.241531943550359451e-01
4.879999999999999893e-01,4.757327216133300229e-01,1.028654578003778686e-01,-6.509275997989432544e-03
4.889999999999999902e-01,2.253443007944094800e-01,3.443656074200615591e-01,-2.501645234608500523e-01
4.899999999999999911e-01,-2.231276185030222348e-01,3.714966379280851827e-01,-2.658418599630429369e-01
4.909999999999999920e-01,-5.008572393955447177e-01,-3.892634061677465503e-03,-8.405850794457202235e-02
4.919999999999999929e-01,-3.494161916381495203e-01,-2.728974449822716419e-01,1.518426826277032293e-01
4.929999999999999938e-01,1.161930972079124047e-02,-3.718447920600178036e-01,3.356659694844096320e-01
4.939999999999999947e-01,4.048393327371906381e-01,-1.741504472413626659e-01,1.982931645044620772e-01
4.949999999999999956e-01,4.366082647927483351e-01,1.889149034005674077e-01,-6.742398667482837893e-02
4.959999999999999964e-01,1.636286784185096432e-01,3.956141911814391454e-01,-2.655101505562653119e-01
4.969999999999999973e-01,-2.952623316040561274e-01,2.647346118712233243e-01,-2.619082440057735606e-01
4.979999999999999982e-01,-4.728360377228330025e-01,-6.689271026549999111e-02,-4.708736670287882314e-02
4.989999999999999991e-01,-2.914448992342006939e-01,-3.846488991561867188e-01,1.807592518922179758e-01
5.000000000000000000e-01,1.656990519054720168e-01,-3.467255661223418994e-01,2.860927505802349224e-01
5.010000000000000009e-01,4.354767141492339455e-01,-5.276806553914777098e-02,1.678905982232266059e-01
5.020000000000000018e-01,4.250548461330097005e-01,2.746799317190978806e-01,-1.046900975971951087e-01
5.030000000000000027e-01,3.933051232722963725e-02,4.181042699072763935e-01,-3.133695929747965514e-01
5.040000000000000036e-01,-3.935549642278088900e-01,1.684277589171019329e-01,-2.259720040965618737e-01
5.050000000000000044e-01,-4.922128061094548923e-01,-1.606196155587851226e-01,-2.827182348212030349e-02
5.060000000000000053e-01,-2.135055778327033527e-01,-3.904120927390593576e-01,2.099368191600117228e-01
5.070000000000000062e-01,2.300212076028438635e-01,-3.151083343756895805e-01,2.762195924388403112e-01
5.080000000000000071e-01,5.055322273572855352e-01,2.318642974313891991e-02,1.365060567470889608e-01
5.090000000000000080e-01,3.583225173750754222e-01,3.171944199353451954e-01,-1.351583718463212624e-01
5.100000000000000089e-01,-3.879380810635254390e-02,3.802242582637811452e-01,-2.972790661018455127e-01
5.110000000000000098e-01,-4.175933408979762840e-01,9.992164167801297070e-02,-2.459553360280909151e-01
5.120000000000000107e-01,-4.684637977238417794e-01,-2.282709712675444480e-01,1.952463485689415537e-03
5.130000000000000115e-01,-1.060018626649720658e-01,-3.990431920563110024e-01,2.532336588806916589e-01
5.140000000000000124e-01,3.124034934021334142e-01,-1.968949193358136007e-01,2.849856504958372394e-01
5.150000000000000133e-01,4.721263828604604362e-01,1.617964654250826639e-01,1.195948254806196570e-01
5.160000000000000142e-01,2.961346109267458115e-01,3.505444481359578646e-01,-1.715822931608251001e-01
5.170000000000000151e-01,-1.740806648016348379e-01,3.279250173154508730e-01,-3.206144384531136593e-01
5.180000000000000160e-01,-4.704899723560708735e-01,1.290917145934554131e-02,-1.850682406219113785e-01
5.190000000000000169e-01,-4.191134437858277662e-01,-3.204202761233581609e-01,6.903289771908477368e-02
5.200000000000000178e-01,-3.615413211260208592e-02,-3.649298418911876007e-01,2.627667363361564368e-01
5.210000000000000187e-01,3.656776712784466365e-01,-1.335777670109998538e-01,2.249346918645360738e-01
5.220000000000000195e-01,4.842033198341417766e-01,2.423706849871659907e-01,6.176910711348367056e-02
5.230000000000000204e-01,2.292930737943592312e-01,3.999291616209007527e-01,-1.664338459151957217e-01
5.240000000000000213e-01,-2.131299866170417445e-01,2.328914978822796134e-01,-3.168509247420600028e-01
5.250000000000000222e-01,-5.288042463949381711e-01,-9.854903719208144008e-02,-1.726892285143063199e-01
5.260000000000000231e-01,-3.714577343565907963e-01,-3.786881643722149193e-01,7.946030228233813553e-02
5.270000000000000240e-01,6.217969569717640005e-02,-3.603356351351460485e-01,2.679674968570144311e-01
5.280000000000000249e-01,4.267942851829044093e-01,-8.356576684407271416e-03,2.620136216721591360e-01
5.290000000000000258e-01,4.481068361693746893e-01,3.253978659616839630e-01,1.972188958852073501e-02
5.300000000000000266e-01,1.345067731394083976e-01,4.098170645159657233e-01,-2.069960607837259825e-01
5.310000000000000275e-01,-3.332959021037961156e-01,1.854098902073669231e-01,-2.953310796626406054e-01
5.320000000000000284e-01,-5.175898879986362555e-01,-2.046513262028580582e-01,-1.366115358526701073e-01
5.330000000000000293e-01,-2.927213544184948391e-01,-3.932490613491769760e-01,1.149366687137458459e-01
5.340000000000000302e-01,1.559078517359643590e-01,-2.788290047003423866e-01,2.664437966126534940e-01
5.350000000000000311e-01,4.537904088504764455e-01,7.158493176409660985e-02,2.191701401556133133e-01
5.360000000000000320e-01,4.232454649623867415e-01,3.323795704740428736e-01,-1.385027351838668055e-02
5.370000000000000329e-01,3.727412172476000929e-02,3.509222451904075446e-01,-2.498033182075720116e-01
5.380000000000000338e-01,-4.041307735666702095e-01,9.065104661356805649e-02,-3.118424490471576327e-01
5.390000000000000346e-01,-4.721893913371046358e-01,-2.677001464472672509e-01,-1.394703822241225577e-01
5.400000000000000355e-01,-2.013976015829363198e-01,-4.110460976331548055e-01,1.468014379606699671e-01
5.410000000000000364e-01,2.266480096973131353e-01,-1.904864480505920055e-01,2.804142904767002453e-01
5.420000000000000373e-01,4.968390996707986451e-01,1.578960864499673322e-01,2.144560828557079413e-01
5.430000000000000382e-01,3.303232618710781332e-01,4.209108873542953266e-01,-3.996604555279456572e-02
5.440000000000000391e-01,-8.028912628367079751e-02,3.001552558016337136e-01,-2.356274421258754970e-01
5.450000000000000400e-01,-4.385018216441345928e-01,-5.042550830656728628e-02,-2.575451203752692764e-01
5.460000000000000409e-01,-4.501845318236941118e-01,-3.431919950885605752e-01,-7.343518219143595205e-02
5.470000000000000417e-01,-1.265465651165269823e-01,-3.491170079509379187e-01,2.005531543182534349e-01
5.480000000000000426e-01,2.949180213673840423e-01,-8.463913521786006755e-02,3.078848327687009334e-01
5.490000000000000435e-01,5.120148227392748996e-01,2.707456351615752377e-01,1.721557605971784644e-01
5.500000000000000444e-01,3.213889981399277729e-01,3.980743468181998090e-01,-8.981292219263010967e-02
5.510000000000000453e-01,-1.583693650505522132e-01,2.456080816361176089e-01,-2.589174239791974252e-01
5.520000000000000462e-01,-4.968736189169947193e-01,-1.311866966002144252e-01,-2.738961893593922503e-01
5.530000000000000471e-01,-4.159110786744398269e-01,-3.898057654200808853e-01,-2.597466519729282886e-02
5.540000000000000480e-01,-4.287155059972740795e-02,-3.184000110125521643e-01,2.153686725736762009e-01
5.550000000000000488e-01,4.095204859538857378e-01,-2.258667712673358835e-02,2.857638124307920746e-01
5.560000000000000497e-01,4.842711241706646463e-01,3.288543306674489575e-01,1.318918771909285970e-01
5.570000000000000506e-01,2.414962853058909287e-01,3.262504233141314547e-01,-1.309157942968917077e-01
5.580000000000000515e-01,-2.333789990836236949e-01,1.504560093350276184e-01,-2.872105473356679206e-01
5.590000000000000524e-01,-5.047018282555113533e-01,-2.145682305378045218e-01,-2.335202156555753195e-01
5.600000000000000533e-01,-3.401946192859822693e-01,-4.112263646135843054e-01,-8.536072441029421767e-03
5.610000000000000542e-01,6.083940555456366500e-02,-2.490480272402834094e-01,2.417931337398852576e-01
5.620000000000000551e-01,4.763211248891894845e-01,1.434007230833352631e-01,2.910713153293630895e-01
5.629999999999999449e-01,4.295953455342466087e-01,3.706536744420471652e-01,1.108950005762977947e-01
5.639999999999999458e-01,1.288803302119577443e-01,3.464340636759413727e-01,-1.281123406303745216e-01
5.649999999999999467e-01,-3.263231726503789121e-01,6.573897117545940416e-02,-2.705846372940766131e-01
5.659999999999999476e-01,-4.736611573642124928e-01,-3.061161947354203439e-01,-2.059028083965879774e-01
5.669999999999999485e-01,-2.723441820691568371e-01,-3.949871948054279880e-01,5.569819581284669863e-02
5.679999999999999494e-01,1.510617636463982283e-01,-2.049975059023718682e-01,2.475810506926822974e-01
5.689999999999999503e-01,4.741439706641942253e-01,1.842463116029830483e-01,2.943878113276983677e-01
5.699999999999999512e-01,4.285990552532523701e-01,4.089343176895058329e-01,9.192753804789219330e-02
5.709999999999999520e-01,3.542781336795589736e-02,2.928583715744527138e-01,-1.721843634336905626e-01
5.719999999999999529e-01,-3.688221994774620316e-01,-6.754459626408473860e-02,-2.952831259824389987e-01
5.729999999999999538e-01,-4.940835491772692656e-01,-3.213761491513803525e-01,-1.768236096299809212e-01
5.739999999999999547e-01,-2.014797502923415806e-01,-3.288938474694736436e-01,7.733703480755689530e-02
5.749999999999999556e-01,2.268627547234391695e-01,-7.145608953644007333e-02,2.676703471049107219e-01
5.759999999999999565e-01,5.242063467520304831e-01,2.640655579698933386e-01,2.437804071582607979e-01
5.769999999999999574e-01,3.484301612168174134e-01,4.029099405875098960e-01,3.715558502708319472e-02
5.779999999999999583e-01,-6.160952345164982108e-02,1.901251302400540077e-01,-1.926072909645112075e-01
5.789999999999999591e-01,-4.649686405804381861e-01,-1.528173378796394699e-01,-3.013994189802508550e-01
5.799999999999999600e-01,-4.762807064761865328e-01,-4.107338830797260809e-01,-1.287721234002560111e-01
5.809999999999999609e-01,-1.232515213726043529e-01,-3.252797897068695487e-01,1.194459466801603975e-01
5.819999999999999618e-01,3.187818732065583194e-01,5.154883586819895835e-02,3.015502873794349004e-01
5.829999999999999627e-01,5.005745454259824534e-01,3.238612330051745536e-01,2.268150249906628613e-01
5.839999999999999636e-01,2.955967510456559144e-01,3.686366132860036116e-01,-1.784101476524438358e-03
5.849999999999999645e-01,-1.934298181352276658e-01,8.972670966960898109e-02,-2.065247968081718177e-01
5.859999999999999654e-01,-4.911346985762904405e-01,-2.456515665705431284e-01,-2.934970078847017327e-01
5.869999999999999662e-01,-4.098549952768919535e-01,-3.693734704772619337e-01,-1.139297373072820918e-01
5.879999999999999671e-01,-8.363034841823106108e-03,-2.265061137282602943e-01,1.389068146038384133e-01
5.889999999999999680e-01,3.627453150928807712e-01,1.140782873976898537e-01,2.771412687937605535e-01
5.899999999999999689e-01,4.684277449847982222e-01,4.003036360053257581e-01,1.927594786651891934e-01
5.909999999999999698e-01,2.234593433702549981e-01,3.182131995222024501e-01,-1.339285352607751632e-02
5.919999999999999707e-01,-2.564017736549323856e-01,-1.310035345465859584e-02,-2.788406656185653532e-01
5.929999999999999716e-01,-4.979926863288518524e-01,-2.908645136490030647e-01,-2.730541632731845469e-01
5.939999999999999725e-01,-3.293104443671753256e-01,-3.843232183595195472e-01,-8.330817840069715263e-02
5.949999999999999734e-01,8.101472732271013111e-02,-1.154970262471058939e-01,1.648587469414674322e-01
5.959999999999999742e-01,4.444017714131673902e-01,2.366043820337163095e-01,3.151438079326847608e-01
5.969999999999999751e-01,4.775727499725787584e-01,3.967766951446842771e-01,1.866515377222429106e-01
5.979999999999999760e-01,8.967208890004567390e-02,2.420578530663046735e-01,-6.867898440189505738e-02
5.989999999999999769e-01,-3.353030373151372201e-01,-9.497333577514205372e-02,-2.818371982289483157e-01
5.999999999999999778e-01,-4.898717186584087835e-01,-3.643570198031305107e-01,-2.491026619579997659e-01
6.009999999999999787e-01,-2.584549512245956637e-01,-3.487604470653292710e-01,-3.451123632955062359e-02
6.019999999999999796e-01,1.790156413478461439e-01,-2.226018297051022415e-02,2.028065233611462681e-01
6.029999999999999805e-01,4.711709967951069888e-01,3.224693401655759351e-01,3.149634773896764495e-01
6.039999999999999813e-01,4.075529329195229922e-01,3.769211178636323600e-01,1.494165961834232059e-01
6.049999999999999822e-01,2.404756240220351157e-02,1.627228107505836463e-01,-1.085624951976733310e-01
6.059999999999999831e-01,-3.964318125244130631e-01,-1.741666428821782853e-01,-3.009682417685219380e-01
6.069999999999999840e-01,-4.945275582430623817e-01,-4.152647902410958602e-01,-2.270626063553679019e-01
6.079999999999999849e-01,-1.800805498952660066e-01,-2.441329719347285487e-01,1.282536853293909408e-03
6.089999999999999858e-01,2.701898116283613094e-01,4.623010128382779721e-02,2.824318183853033459e-01
6.099999999999999867e-01,4.870650395823545309e-01,3.643335728406955631e-01,2.720984889871903567e-01
6.109999999999999876e-01,3.614158073948198768e-01,3.672781069155433009e-01,1.298357376419169151e-01
6.119999999999999885e-01,-7.536236601943924196e-02,5.706430993472109275e-02,-1.546922658345206703e-01
6.129999999999999893e-01,-4.257896493022520490e-01,-2.866848044402368623e-01,-2.790279557112514408e-01
6.139999999999999902e-01,-4.525521202198397597e-01,-3.835617368063187760e-01,-2.093375876170844030e-01
6.149999999999999911e-01,-8.270106456620644753e-02,-2.125406534571925299e-01,4.301000141934500503e-05
6.159999999999999920e-01,3.136175158936018170e-01,1.615466798087620559e-01,2.487818048331982002e-01
6.169999999999999929e-01,4.985645393536555781e-01,3.821958604324771636e-01,2.494666918453617710e-01
6.179999999999999938e-01,2.603966533111568560e-01,2.934515253625218922e-01,8.282609146134213562e-02
6.189999999999999947e-01,-2.054007674410579798e-01,-1.787681068251793098e-02,-1.672639223185450608e-01
6.199999999999999956e-01,-4.941910973694478293e-01,-3.403318749648652775e-01,-3.283319928335485249e-01
6.209999999999999964e-01,-4.226058923992643823e-01,-3.445443723389144397e-01,-2.151047177839688074e-01
6.219999999999999973e-01,-4.651577326157761011e-02,-1.043116748945390193e-01,8.550613585291867713e-02
6.229999999999999982e-01,3.773464758232683569e-01,2.502944885949643927e-01,2.468785836628171748e-01
6.239999999999999991e-01,4.974647186176638924e-01,4.038754058900067001e-01,2.511994941864553188e-01
6.250000000000000000e-01,1.953301807314261063e-01,2.323775556218802829e-01,4.852423418254940557e-02
6.260000000000000009e-01,-2.596828345190426157e-01,-1.445585578003536764e-01,-2.062532169269467031e-01
6.270000000000000018e-01,-4.785788766987342235e-01,-3.880684755276290754e-01,-3.247458768572485943e-01
6.280000000000000027e-01,-3.030935857521285248e-01,-3.185022060981332337e-01,-1.621995868411982566e-01
6.290000000000000036e-01,1.040351351748119019e-01,-5.559512514500198482e-03,1.018939844732954653e-01
6.300000000000000044e-01,4.306449232354134238e-01,3.020515957365824677e-01,2.939610623469469664e-01
6.310000000000000053e-01,4.348064571585272264e-01,3.907817949534409530e-01,2.221918017312724258e-01
6.320000000000000062e-01,9.266537092039398016e-02,1.235429144436895194e-01,3.244510359512101788e-02
6.330000000000000071e-01,-3.327282934467938880e-01,-2.344686128520956092e-01,-2.479086964538274873e-01
6.340000000000000080e-01,-4.885104717657456908e-01,-3.680125540414192487e-01,-2.890497333897930066e-01
6.350000000000000089e-01,-2.710150566511362324e-01,-2.414134421487516557e-01,-1.285796763520365149e-01
6.360000000000000098e-01,1.736966343917618338e-01,9.818394690128549873e-02,1.419521126044110682e-01
6.370000000000000107e-01,4.485056579998871751e-01,3.786315680901903846e-01,3.087738032827980206e-01
6.380000000000000115e-01,3.905722995465823466e-01,3.235095539002554310e-01,2.122107394155466342e-01
6.390000000000000124e-01,6.233527717468052842e-02,2.551631573544520248e-02,-2.200769459620652985e-02
6.400000000000000133e-01,-4.075428913303978384e-01,-2.896574075436519902e-01,-2.717338092698805552e-01
6.410000000000000142e-01,-4.744293419988767080e-01,-3.801143120361067940e-01,-2.734196771246752977e-01
6.420000000000000151e-01,-2.356823758196582852e-01,-1.533850578799234865e-01,-7.716827347055231490e-02
6.430000000000000160e-01,2.953580581218389067e-01,1.855923206615685273e-01,1.806677290367299515e-01
6.440000000000000169e-01,4.898194022052487773e-01,3.641879845802862836e-01,2.946690287891623461e-01
6.450000000000000178e-01,3.487377486175990970e-01,2.790241041028581614e-01,1.881852162140973117e-01
6.460000000000000187e-01,-1.205671486254345642e-01,-5.777332653300078918e-02,-6.312720654585211866e-02
6.470000000000000195e-01,-4.460208876961541113e-01,-3.412509370631567895e-01,-2.670112352751988216e-01
6.480000000000000204e-01,-4.572432202129559919e-01,-3.769212785750682970e-01,-2.823256404523708518e-01
6.490000000000000213e-01,-1.003383559707617528e-01,-7.103731229684193127e-02,-6.477485104662256132e-02
6.500000000000000222e-01,3.335628901086015174e-01,2.861327754049324823e-01,1.800594459683936832e-01
6.510000000000000231e-01,4.990357904203366335e-01,3.913059441457443777e-01,2.844256005799246645e-01
6.520000000000000240e-01,2.811341077691217882e-01,1.812230849876748928e-01,1.781629933790983000e-01
6.530000000000000249e-01,-1.927579885430058260e-01,-1.771835372274427334e-01,-7.811075554792558384e-02
6.540000000000000258e-01,-5.122092410585428190e-01,-3.878833269685430518e-01,-2.622088417498709134e-01
6.550000000000000266e-01,-4.060525166135088293e-01,-2.733235008443433145e-01,-2.534955376534235305e-01
6.560000000000000275e-01,9.020383752435171335e-03,4.867378999542735368e-02,-7.730220310117629813e-05
6.570000000000000284e-01,4.186789748259130972e-01,3.628769354869263442e-01,2.609992043519994143e-01
6.580000000000000293e-01,4.724323859217169352e-01,3.768035958150700027e-01,3.050445138746064599e-01
6.590000000000000302e-01,1.717627424283932058e-01,5.424228164113395478e-02,1.476692723875764612e-01
6.600000000000000311e-01,-2.870645133950663896e-01,-2.293716701740275421e-01,-1.195455031454338846e-01
6.610000000000000320e-01,-4.628803778443527639e-01,-3.915491928219040907e-01,-2.871582057499079688e-01
6.620000000000000329e-01,-3.231086785276651163e-01,-2.291769158989765687e-01,-2.288296186026562151e-01
6.630000000000000338e-01,1.032298287175135720e-01,1.270368502389313814e-01,2.997296286163589341e-02
6.640000000000000346e-01,4.461228843327132432e-01,3.847263788595026157e-01,2.707122123391006441e-01
6.650000000000000355e-01,4.467965329138655073e-01,3.289454554615707238e-01,2.671328730498812587e-01
6.660000000000000364e-01,6.312873692814575943e-02,8.246520503443233521e-03,1.196038167258607343e-01
6.670000000000000373e-01,-3.870111017498109041e-01,-3.073879805966149292e-01,-1.607044680463163289e-01
6.680000000000000382e-01,-5.028571466191222861e-01,-3.803676762043514681e-01,-2.884678603892764648e-01
6.690000000000000391e-01,-2.655277695698676776e-01,-1.036726875936354320e-01,-2.014368739425703159e-01
6.700000000000000400e-01,1.944728831848321349e-01,2.431588260602484119e-01,7.431965574522950146e-02
6.710000000000000409e-01,4.769823669256991749e-01,4.293795296748609269e-01,2.726475813787708202e-01
6.720000000000000417e-01,3.856153233301003458e-01,2.545028736719242568e-01,2.889406840710496138e-01
6.730000000000000426e-01,-2.097485013137711379e-02,-9.315225915024932801e-02,5.121817138471105452e-02
6.740000000000000435e-01,-4.138085843358325078e-01,-3.797261563790356176e-01,-1.977665672706656885e-01
6.750000000000000444e-01,-4.706673740047210841e-01,-3.549181333734119370e-01,-2.861419063334178503e-01
6.760000000000000453e-01,-1.800383740324201232e-01,-5.188298823706163215e-02,-1.826774123849652653e-01
6.770000000000000462e-01,2.854686603852351068e-01,3.200602091857306375e-01,9.746830842549246421e-02
6.780000000000000471e-01,4.978011176564032803e-01,3.789082149469893412e-01,2.935573837542898024e-01
6.790000000000000480e-01,3.216279280042808053e-01,1.690632397675332355e-01,2.597691117176680886e-01
6.800000000000000488e-01,-7.984955815489340469e-02,-1.957796556476096850e-01,-2.416483337881936058e-03
6.810000000000000497e-01,-4.339507638922951438e-01,-3.956375822697390521e-01,-2.142283216852891026e-01
6.820000000000000506e-01,-4.417241049002373909e-01,-2.893481598334852745e-01,-3.046963314789551402e-01
6.830000000000000515e-01,-5.666297676193707278e-02,7.978222245946176017e-02,-1.376168413094426557e-01
6.840000000000000524e-01,3.271458801865959609e-01,3.614503675307855213e-01,1.406176560880673942e-01
6.850000000000000533e-01,5.103104630230607119e-01,3.747357620427465563e-01,3.227772336634677774e-01
6.860000000000000542e-01,2.691105155475784216e-01,1.400937083499794941e-02,1.991086707511480758e-01
6.870000000000000551e-01,-2.001192638128208301e-01,-3.009585118278109150e-01,-2.076905597977130036e-02
6.879999999999999449e-01,-5.132314962227867428e-01,-4.251294797870310282e-01,-2.554591935908828715e-01
6.889999999999999458e-01,-4.011803815811365581e-01,-2.034702910677708421e-01,-3.073973771272082156e-01
6.899999999999999467e-01,1.333177009910677460e-02,1.646701891891833858e-01,-8.372513531293220013e-02
6.909999999999999476e-01,4.128182493324190072e-01,3.822479904599119238e-01,1.367458681483138816e-01
6.919999999999999485e-01,4.735110990578554890e-01,3.089679036173007542e-01,3.182451504459599678e-01
6.929999999999999494e-01,1.629319523067910835e-01,-3.591892086928633737e-02,1.874505154381152783e-01
6.939999999999999503e-01,-2.771625658858821728e-01,-3.389038718098573155e-01,-7.013733665180045540e-02
6.949999999999999512e-01,-4.986116466891397092e-01,-3.747849387992817638e-01,-2.788281456632835109e-01
6.959999999999999520e-01,-3.113376204478067177e-01,-9.028074644733405374e-02,-2.914916229484186827e-01
6.969999999999999529e-01,1.159940260259528927e-01,2.551959243913953790e-01,-6.461709742564861192e-02
6.979999999999999538e-01,4.789767067792939370e-01,3.727818475288490196e-01,2.041721485089959265e-01
6.989999999999999547e-01,4.325743291396046963e-01,2.432432025793916652e-01,3.107140405115803583e-01
6.999999999999999556e-01,4.800223718051426641e-02,-1.314350197464969616e-01,1.701667735979709717e-01
7.009999999999999565e-01,-3.548946934377162910e-01,-3.937682828890992637e-01,-1.033076673499294384e-01
7.019999999999999574e-01,-4.890815719392864747e-01,-3.334104237533744852e-01,-3.277774606333132001e-01
7.029999999999999583e-01,-2.005914311766045233e-01,-3.961444385649936194e-03,-2.493912151803445720e-01
7.039999999999999591e-01,1.852757570240275986e-01,3.254499279893951491e-01,-1.627899899138201753e-02
7.049999999999999600e-01,4.917764798383718050e-01,3.885587078996194932e-01,2.462524041373886086e-01
7.059999999999999609e-01,3.934790434386922775e-01,1.179928847933830460e-01,2.862226042157261507e-01
7.069999999999999618e-01,-1.210087613574492571e-02,-2.398855762035255190e-01,1.349208624385196675e-01
7.079999999999999627e-01,-3.979134781733603687e-01,-3.776501223386600770e-01,-1.071609879757695616e-01
7.089999999999999636e-01,-4.451991817519502792e-01,-2.528285682740082363e-01,-2.748033110987465055e-01
7.099999999999999645e-01,-1.452517726879246907e-01,8.557343483765124381e-02,-2.595120605664784641e-01
7.109999999999999654e-01,2.880207225963088979e-01,3.741977877698855481e-01,2.006997529838441818e-02
7.119999999999999662e-01,5.312602901864061922e-01,3.216140404529307384e-01,2.305950429605373164e-01
7.129999999999999671e-01,2.958987683835890281e-01,1.235907879189684401e-02,3.023799013225865195e-01
7.139999999999999680e-01,-1.522597576591798729e-01,-3.060853282987997526e-01,1.027533494220014970e-01
7.149999999999999689e-01,-4.348777864881436805e-01,-3.954784002238013185e-01,-1.495615880581660229e-01
7.159999999999999698e-01,-4.486539283497709141e-01,-1.706683067115616903e-01,-2.943036079758600820e-01
7.169999999999999707e-01,-6.791214488145437544e-02,2.057401323837451113e-01,-2.231322929329718763e-01
7.179999999999999716e-01,3.645249817993790886e-01,4.035680976551239696e-01,3.773440171362569401e-02
7.189999999999999725e-01,5.014588608606073139e-01,2.794378131433153389e-01,2.478430762342223315e-01
7.199999999999999734e-01,2.133883329986270283e-01,-7.961358099810238176e-02,2.867133968921330989e-01
7.209999999999999742e-01,-1.866788238359021468e-01,-3.621793869898473073e-01,8.602540402509341322e-02
7.219999999999999751e-01,-5.046406862034116259e-01,-3.417041661566808664e-01,-1.914361500093311186e-01
7.229999999999999760e-01,-3.763159853793933141e-01,-8.325170758290983963e-02,-2.878001261086250984e-01
7.239999999999999769e-01,2.591818817554412610e-02,2.800651551766541458e-01,-1.510237814233998943e-01
7.249999999999999778e-01,4.194629390929283108e-01,3.787541473520370516e-01,7.344689555211691978e-02
7.259999999999999787e-01,4.495739815178784182e-01,1.794764999800070870e-01,3.034366638099436075e-01
7.269999999999999796e-01,1.570498128173033192e-01,-1.540541098285250765e-01,2.621080911971213068e-01
7.279999999999999805e-01,-2.927023107698334403e-01,-3.780302272534071251e-01,7.089196441028890183e-02
7.289999999999999813e-01,-4.916760924862516591e-01,-3.209423494196637083e-01,-2.456774475731437757e-01
7.299999999999999822e-01,-3.124597998103017527e-01,2.474599771545950982e-02,-2.849061781817347483e-01
7.309999999999999831e-01,1.243342261948752192e-01,3.307692880799401047e-01,-1.731915515270084638e-01
7.319999999999999840e-01,4.687654915382682419e-01,3.536657307296802721e-01,1.031395048113138979e-01
7.329999999999999849e-01,4.538930844890433636e-01,6.845800608311043700e-02,2.787453543832058567e-01
7.339999999999999858e-01,6.008180769108564107e-02,-2.524352209520346890e-01,2.126528150135816031e-01
7.349999999999999867e-01,-3.387978264223365787e-01,-4.044854547957149049e-01,-1.346845009921938431e-02
7.359999999999999876e-01,-5.064352067232993360e-01,-2.334341700836917721e-01,-2.249941220406980746e-01
7.369999999999999885e-01,-2.282082622878258693e-01,1.326589574507100189e-01,-2.991080441902464471e-01
7.379999999999999893e-01,2.144269265971444627e-01,3.546136566094424403e-01,-1.255652910475028305e-01
7.389999999999999902e-01,4.844637109315375056e-01,3.587801148152409692e-01,1.437050440825982933e-01
7.399999999999999911e-01,3.926231013951709814e-01,2.504085467273362356e-02,2.781527478209638859e-01
7.409999999999999920e-01,-2.979315005949489253e-02,-3.090470197659544449e-01,2.048852531487553030e-01
7.419999999999999929e-01,-4.443228682030616605e-01,-3.854106027221761432e-01,-1.431534699382662652e-02
7.429999999999999938e-01,-4.856525390740192849e-01,-9.512441369914496903e-02,-2.525959953447128870e-01
7.439999999999999947e-01,-1.112175693491485318e-01,2.380661717067577565e-01,-2.753914600196993301e-01
7.449999999999999956e-01,2.820658220302367236e-01,3.881676893630153224e-01,-6.197267838068129531e-02
7.459999999999999964e-01,4.872578209419098361e-01,2.599406362655756753e-01,1.630324440987808987e-01
7.469999999999999973e-01,3.113516860688680943e-01,-9.341636881733862696e-02,2.829428115340621441e-01
7.479999999999999982e-01,-1.229062482283385521e-01,-3.472895386567877440e-01,1.654646530912444180e-01
7.489999999999999991e-01,-4.476542204436687045e-01,-3.317320158727041224e-01,-8.734080993643059121e-02
7.500000000000000000e-01,-4.370583391716507671e-01,-3.065322525369035961e-02,-2.744882354789707213e-01
7.510000000000000009e-01,-4.716169484392423311e-02,2.999822216089542137e-01,-2.797521893721241493e-01
7.520000000000000018e-01,3.439880191438352552e-01,3.895986580319648063e-01,-3.652025529983064095e-02
7.530000000000000027e-01,4.761609203191579098e-01,1.672471336485879256e-01,1.932749432014382041e-01
7.540000000000000036e-01,2.301450381815669799e-01,-1.834130473592985033e-01,3.098487175776930003e-01
7.550000000000000044e-01,-2.313394446248670799e-01,-3.676374610980305824e-01,1.482527001042887038e-01
7.560000000000000053e-01,-5.083546602737207820e-01,-2.770979855799100000e-01,-1.034886026257830216e-01
7.570000000000000062e-01,-3.621836193991184727e-01,5.389331465847155278e-02,-2.986037023124306078e-01
7.580000000000000071e-01,5.025936268637165583e-02,3.393542247150855284e-01,-2.394396556660242092e-01
7.590000000000000080e-01,3.933639428704470697e-01,3.449026238920104293e-01,-1.528210481765648714e-02
7.600000000000000089e-01,4.444698663756605495e-01,7.267608182835585962e-02,2.507724947791217240e-01
7.610000000000000098e-01,1.286691582970355130e-01,-2.201928161366649428e-01,2.963068086853849481e-01
7.620000000000000107e-01,-2.962713312287914014e-01,-3.817115386418492018e-01,1.325367618979407802e-01
7.630000000000000115e-01,-5.185048766343184345e-01,-2.461836218543835830e-01,-1.327070428869900065e-01
7.640000000000000124e-01,-2.785048167295429700e-01,1.659104249826889588e-01,-2.916034294427226614e-01
7.650000000000000133e-01,1.286886603889562386e-01,3.750145564280188415e-01,-2.131220984298319854e-01
7.660000000000000142e-01,4.737732382059021696e-01,3.174628246726168834e-01,4.487412364361163114e-02
7.670000000000000151e-01,4.157617940471103335e-01,-4.900101840880200649e-02,2.656844869510175400e-01
7.680000000000000160e-01,3.378625063785647281e-02,-3.646229667442725808e-01,2.858301341442376908e-01
7.690000000000000169e-01,-3.543513271676754228e-01,-3.665468852067498284e-01,9.873808751091882330e-02
7.700000000000000178e-01,-4.950960779975350778e-01,-1.200385478142763918e-01,-1.647789746331256300e-01
7.710000000000000187e-01,-2.176478017823621769e-01,2.787875143997157745e-01,-2.910034706319791775e-01
7.720000000000000195e-01,2.204699708183367191e-01,4.032798709167980666e-01,-1.893778845080614504e-01
7.730000000000000204e-01,5.435966427743312845e-01,2.564044823583197519e-01,6.918861270323536927e-02
7.740000000000000213e-01,3.758308208708436848e-01,-1.397682765070806243e-01,2.680634838166155443e-01
7.750000000000000222e-01,-4.269125163682403051e-02,-3.634378490832984032e-01,2.463964727473485217e-01
7.760000000000000231e-01,-3.985805995209559249e-01,-3.167525033667580869e-01,3.220370234971679096e-02
7.770000000000000240e-01,-4.686281652672917852e-01,1.443992067024848711e-02,-2.002789809942312760e-01
7.780000000000000249e-01,-1.401170031547707973e-01,3.379437982483571301e-01,-2.917420971655307893e-01
7.790000000000000258e-01,2.876456700825860691e-01,3.915372822818137810e-01,-1.739042367160501257e-01
7.800000000000000266e-01,4.931489854601728284e-01,1.396829820073645922e-01,8.946487045895508416e-02
7.810000000000000275e-01,3.328577350176699090e-01,-2.143917421553320213e-01,3.224919993940253415e-01
7.820000000000000284e-01,-1.266167122926972477e-01,-4.099724152096754226e-01,2.481769399431200396e-01
7.830000000000000293e-01,-4.561827632103724883e-01,-2.693408731859816552e-01,1.714725194086682419e-02
7.840000000000000302e-01,-4.375476894182049326e-01,8.108406652441345341e-02,-2.289406235323414585e-01
7.850000000000000311e-01,-3.595718421386168845e-02,3.604976704673408250e-01,-3.209639456712894967e-01
7.860000000000000320e-01,3.667560883059689525e-01,3.552518007455238158e-01,-1.401288156699080079e-01
7.870000000000000329e-01,5.027597206567232524e-01,2.551627381945451023e-02,1.358856533555114487e-01
7.880000000000000338e-01,2.327775436460964020e-01,-3.015016852020419580e-01,3.003197911196975323e-01
7.890000000000000346e-01,-2.186453530969053871e-01,-3.703329066706387840e-01,2.146640361451840895e-01
7.900000000000000355e-01,-4.924717981430694613e-01,-1.795541250387713839e-01,-5.323147142587809216e-02
7.910000000000000364e-01,-3.434855209608777549e-01,1.935364871332671544e-01,-2.512157975229377671e-01
7.920000000000000373e-01,5.994635194871475448e-02,3.980414052962548688e-01,-2.986773406576185286e-01
7.930000000000000382e-01,4.244654683654487948e-01,3.004780395882487576e-01,-9.966632313285202216e-02
7.940000000000000391e-01,4.538065619255024497e-01,-5.606558486645441680e-02,1.718459442963920780e-01
7.950000000000000400e-01,1.510120826804207672e-01,-3.475762375538936633e-01,3.063819240236425046e-01
7.960000000000000409e-01,-3.072378393972986510e-01,-3.320957001966278188e-01,1.635173912981885136e-01
7.970000000000000417e-01,-4.870340857705956483e-01,-6.967105906954655647e-02,-6.812412651961488597e-02
7.980000000000000426e-01,-3.010520319690993540e-01,2.948778677684858462e-01,-2.542165635725580630e-01
7.990000000000000435e-01,1.675689484640733584e-01,4.214689511713552439e-01,-2.642401906643666587e-01
8.000000000000000444e-01,4.614938279267141175e-01,1.896150329859081496e-01,-7.549725790380434030e-03
8.010000000000000453e-01,3.830997094855458918e-01,-1.740878076797389429e-01,2.173873032741369393e-01
8.020000000000000462e-01,4.999466050727729288e-02,-3.825954571533731752e-01,3.177575416410777231e-01
8.030000000000000471e-01,-3.851250821991512030e-01,-2.542626819404462668e-01,1.628178811277774807e-01
8.040000000000000480e-01,-4.870494612786257504e-01,1.224951269746299594e-02,-1.141094773888240155e-01
8.050000000000000488e-01,-1.910796545197363805e-01,3.253598948723931406e-01,-2.282020941280540616e-01
8.060000000000000497e-01,2.219807320914160553e-01,3.371329122365360198e-01,-2.254058565143519932e-01
8.070000000000000506e-01,4.988712413168799320e-01,1.090316504451760427e-01,-2.835147043752712925e-02
8.080000000000000515e-01,3.889603492614541747e-01,-2.169708331089717779e-01,2.637200278972243739e-01
8.090000000000000524e-01,-6.072487128500424908e-02,-3.961941510449172865e-01,3.072304757864189884e-01
8.100000000000000533e-01,-4.512820812452502106e-01,-2.274786533908020880e-01,1.403048207375796608e-01
8.110000000000000542e-01,-4.540512356782428482e-01,1.221054598270403663e-01,-1.490566834796379914e-01
8.120000000000000551e-01,-1.185554490281213597e-01,3.729169048083903482e-01,-2.756182086850304525e-01
8.129999999999999449e-01,3.148208218969060224e-01,3.336563587480155801e-01,-2.439563492053384575e-01
8.139999999999999458e-01,4.953737995184304133e-01,1.405885238766620138e-02,6.102799163617499134e-02
8.149999999999999467e-01,2.926422446055880755e-01,-3.453340477093427840e-01,2.432626119849584378e-01
8.159999999999999476e-01,-1.361580086789448141e-01,-3.647175037476869108e-01,2.832062106786474298e-01
8.169999999999999485e-01,-4.634860358960463111e-01,-1.395967811604847952e-01,1.092190060110400096e-01
8.179999999999999494e-01,-4.249558552884138418e-01,2.149533390433329139e-01,-1.746626172521704989e-01
8.189999999999999503e-01,-4.941970694471678471e-02,4.005611409500732245e-01,-2.877814830845915051e-01
8.199999999999999512e-01,3.719639689713147845e-01,2.435955143730680339e-01,-2.059365781293493181e-01
8.209999999999999520e-01,4.934016048621393535e-01,-9.545747152204941965e-02,6.209475284949615703e-02
8.219999999999999529e-01,1.993974260453469649e-01,-3.789238083124799594e-01,2.357675017174453713e-01
8.229999999999999538e-01,-2.296660243213842212e-01,-3.445701479844147097e-01,2.680457453861358474e-01
8.239999999999999547e-01,-4.867296438020832228e-01,-3.465332459828279754e-02,7.075736793734239971e-02
8.249999999999999556e-01,-3.251901555260331977e-01,2.828469526900878606e-01,-2.171291992669325543e-01
8.259999999999999565e-01,6.812265989664330335e-02,3.845505041690472359e-01,-2.846427890311747921e-01
8.269999999999999574e-01,4.575695186395186131e-01,1.762715664711540231e-01,-1.780401634129474275e-01
8.279999999999999583e-01,4.507897432877328581e-01,-1.764935846037423428e-01,1.260366870460417899e-01
8.289999999999999591e-01,1.151172571784326026e-01,-3.916503403371375258e-01,2.589813727077453498e-01
8.299999999999999600e-01,-3.152081705963737379e-01,-3.201857485052896912e-01,2.692397971650278277e-01
8.309999999999999609e-01,-4.850509821985153902e-01,5.559115195213831795e-02,4.579558077269595129e-02
8.319999999999999618e-01,-2.779136426780842162e-01,3.869968354768695828e-01,-2.149883305985604842e-01
8.329999999999999627e-01,1.744505036029489198e-01,3.737345029659661644e-01,-2.953652733866137248e-01
8.339999999999999636e-01,4.612174279090656137e-01,7.440245127712996620e-02,-1.571754253758886055e-01
8.349999999999999645e-01,4.267791616942785415e-01,-2.672684667509617196e-01,1.310330424515320225e-01
8.359999999999999654e-01,2.418649971667745716e-02,-3.732050335614376380e-01,2.934542380007954532e-01
8.369999999999999662e-01,-3.768003192833021542e-01,-2.193046829434514011e-01,1.874460909805072961e-01
8.379999999999999671e-01,-4.385988750834819982e-01,1.725609551237124728e-01,5.413546400101890838e-03
8.389999999999999680e-01,-2.123448192711309968e-01,3.632574851035663688e-01,-2.402500450490165085e-01
8.399999999999999689e-01,2.527609387003928454e-01,3.117882510563890763e-01,-2.575366743864040409e-01
8.409999999999999698e-01,5.231298116959026689e-01,-1.706786757028776885e-02,-9.240584093473677707e-02
8.419999999999999707e-01,3.181874007782911629e-01,-3.474814776829242002e-01,1.494481097101296729e-01
8.429999999999999716e-01,-7.483918490588163663e-02,-3.391763815236771840e-01,3.186990179898331332e-01
8.439999999999999725e-01,-4.544949886293140895e-01,-8.732496904895212242e-02,2.204751210856356058e-01
8.449999999999999734e-01,-4.560253067021172169e-01,2.549529828286081212e-01,-3.449348652606001875e-02
8.459999999999999742e-01,-1.269389557932583124e-01,4.311713891329679305e-01,-2.666854341167418374e-01
8.469999999999999751e-01,3.250126429263651695e-01,2.003736325677418217e-01,-2.771322721793099686e-01
8.479999999999999760e-01,4.964266666586011900e-01,-1.043878230263726309e-01,-5.195157062115465796e-02
8.489999999999999769e-01,2.639943342278475158e-01,-4.033920663486088576e-01,2.195200660204687237e-01
8.499999999999999778e-01,-1.805631710220556574e-01,-3.396359634437695063e-01,2.953527671445347336e-01
8.509999999999999787e-01,-4.751856939699550808e-01,3.002206202146552594e-02,1.695863497537521414e-01
8.519999999999999796e-01,-4.250108434624079168e-01,3.212348889596722823e-01,-8.907647905024163038e-02
8.529999999999999805e-01,-1.726818900407556950e-02,3.938358163033501280e-01,-2.870141230534358212e-01
8.539999999999999813e-01,4.100455100593271007e-01,1.330841489594719318e-01,-2.443198561140391412e-01
8.549999999999999822e-01,4.653088856636225512e-01,-2.295533251991101198e-01,-2.837931187003552361e-02
8.559999999999999831e-01,1.945801230445112773e-01,-3.899033755036999671e-01,2.374497742093497066e-01
8.569999999999999840e-01,-2.768640958041539424e-01,-2.655634543879846210e-01,2.577259262023431363e-01
8.579999999999999849e-01,-5.132829970128098829e-01,1.137373724976862704e-01,1.079055938002433934e-01
8.589999999999999858e-01,-3.186635682552976800e-01,3.545899041434166232e-01,-1.236603872880214505e-01
8.599999999999999867e-01,7.054638856322952012e-02,3.194691139067021846e-01,-2.801722555043716367e-01
8.609999999999999876e-01,4.427548424659531467e-01,1.944813667275243838e-02,-2.392348083964060124e-01
8.619999999999999885e-01,4.429152598904588234e-01,-2.834419821412124674e-01,1.148875770420751050e-02
8.629999999999999893e-01,9.338690924154084694e-02,-4.044351816241399389e-01,2.474227903321822575e-01
8.639999999999999902e-01,-3.325943940483897521e-01,-1.894268431262081387e-01,2.721091606240224614e-01
8.649999999999999911e-01,-4.820946597575394010e-01,1.715838488738757328e-01,1.204420778276092951e-01
8.659999999999999920e-01,-2.855520478080665336e-01,4.045222520441614789e-01,-1.681651845694595582e-01
8.669999999999999929e-01,1.441852170515700859e-01,2.714222129394697203e-01,-2.865499945506350676e-01
8.679999999999999938e-01,4.941038760315408784e-01,-7.930377207835453968e-02,-2.139812689292621417e-01
8.689999999999999947e-01,4.120268622022711380e-01,-3.271308116057651816e-01,3.967464996043915115e-02
8.699999999999999956e-01,1.891486359244519758e-02,-3.627317203085384523e-01,2.780498101544492395e-01
8.709999999999999964e-01,-4.147735494673004397e-01,-9.163117819978741641e-02,2.928121800732925162e-01
8.719999999999999973e-01,-4.620030030700493229e-01,2.638648594114559320e-01,6.845418049894241852e-02
8.729999999999999982e-01,-1.937384126605787571e-01,3.881382854166063878e-01,-2.069391937857121000e-01
8.739999999999999991e-01,2.651188063968746844e-01,1.812037783976608307e-01,-3.005279950911085574e-01
8.750000000000000000e-01,4.834485847760039423e-01,-1.897055073756722665e-01,-1.788000654875959716e-01
8.760000000000000009e-01,3.350510224859910569e-01,-3.678178362370289611e-01,8.929518096640436109e-02
8.770000000000000018e-01,-7.693621935797008426e-02,-2.858484366394707932e-01,2.921470808225168359e-01
8.780000000000000027e-01,-4.570649957893415660e-01,4.457941523911985310e-02,2.668013804281446077e-01
8.790000000000000036e-01,-4.688727672723967954e-01,3.560130358137909012e-01,3.043782343045044192e-02
8.800000000000000044e-01,-8.297179479693184145e-02,3.642935416527725012e-01,-2.161797923491724505e-01
8.810000000000000053e-01,3.433894500035452602e-01,9.460990062849131133e-02,-2.810439110630139070e-01
8.820000000000000062e-01,4.939983944773125857e-01,-2.455264104222530386e-01,-1.242136880000598020e-01
8.830000000000000071e-01,2.673825208143535970e-01,-3.792911366829876951e-01,1.313823196611945965e-01
8.840000000000000080e-01,-1.641136048870312225e-01,-1.948005100028461223e-01,2.964001669877895928e-01
8.850000000000000089e-01,-5.051506201831661436e-01,1.256978979837536647e-01,2.254888918315885171e-01
8.860000000000000098e-01,-3.838483034000260141e-01,3.972557873242112958e-01,3.188115716235127677e-03
8.870000000000000107e-01,-3.520755410382052364e-02,3.400807041857025204e-01,-2.305530105715570544e-01
8.880000000000000115e-01,3.980484739861734345e-01,-7.676792872895137239e-03,-2.693277095806209109e-01
8.890000000000000124e-01,5.165349929274166696e-01,-2.978530612300435143e-01,-1.201801568845190654e-01
8.900000000000000133e-01,1.651243757123942446e-01,-4.186074429213049730e-01,1.781492961719862711e-01
8.910000000000000142e-01,-2.355497899643826942e-01,-1.110719800781343886e-01,2.954691143984639057e-01
8.920000000000000151e-01,-4.915878851507655134e-01,2.074616566216141156e-01,2.022933326039345892e-01
8.930000000000000160e-01,-3.431574831556100103e-01,4.031421331020579313e-01,-3.774096725065607255e-02
8.940000000000000169e-01,1.035239551049837309e-01,2.598114485133109497e-01,-2.640633458548972690e-01
8.950000000000000178e-01,4.550214364628628050e-01,-1.081841950529188606e-01,-2.717349128391564617e-01
8.960000000000000187e-01,4.292053446326049015e-01,-3.606662437243414732e-01,-8.351010927919295945e-02
8.970000000000000195e-01,7.201962372198703055e-02,-3.256172917477725415e-01,1.789193238049786028e-01
8.980000000000000204e-01,-3.154208772239926462e-01,-6.537524892250140551e-02,3.151849009041112759e-01
8.990000000000000213e-01,-4.919575010528867698e-01,2.785869675021005465e-01,1.878007146054775645e-01
9.000000000000000222e-01,-2.550594880565432154e-01,4.025987660765609766e-01,-7.782166740062257393e-02
9.010000000000000231e-01,1.809534341756691145e-01,1.656652291016388889e-01,-2.758038927486573533e-01
9.020000000000000240e-01,4.693354398190338062e-01,-1.909116079776390085e-01,-2.377153032178847547e-01
9.030000000000000249e-01,4.025230351428272790e-01,-4.324528371950951966e-01,-3.651380410361566159e-02
9.040000000000000258e-01,-1.893799789539663079e-03,-2.758947104704275732e-01,2.294080896416122173e-01
9.050000000000000266e-01,-3.907115358496880964e-01,7.002247999113911381e-02,2.976110963797597986e-01
9.060000000000000275e-01,-4.647705023940034708e-01,3.498973971193223842e-01,1.475017344053781154e-01
9.070000000000000284e-01,-1.820683408275968751e-01,3.606298475803080272e-01,-1.165152779253200432e-01
9.080000000000000293e-01,2.425872215467191062e-01,8.484569284278764556e-02,-3.030270244276160319e-01
9.090000000000000302e-01,4.704254114324013525e-01,-2.653760955316734060e-01,-2.563145478531028698e-01
9.100000000000000311e-01,3.249541526685820747e-01,-4.211495312615234909e-01,4.785586879071491474e-03
9.110000000000000320e-01,-1.154175436952687150e-01,-1.868304185386771010e-01,2.157006557770485000e-01
9.120000000000000329e-01,-4.432988287383321513e-01,1.350170188678956884e-01,3.013708316191539005e-01
9.130000000000000338e-01,-4.522154421797693891e-01,4.084786917302380971e-01,1.021078311964155327e-01
9.140000000000000346e-01,-9.204278071272492534e-02,3.106470518537308156e-01,-1.484039869207809947e-01
9.150000000000000355e-01,3.606859574356009457e-01,-4.298355848376585880e-02,-3.380160629684824114e-01
9.160000000000000364e-01,4.831076035019457038e-01,-3.237821440977183829e-01,-2.169419265935052799e-01
9.170000000000000373e-01,2.333305292311960710e-01,-3.764685079029024828e-01,2.697344047253262891e-02
9.180000000000000382e-01,-1.831124973439652026e-01,-1.044250713830128796e-01,2.265770101764050526e-01
9.190000000000000391e-01,-4.898423702281879399e-01,2.567565529789274659e-01,2.622798458977274594e-01
9.200000000000000400e-01,-3.720953127108732050e-01,4.051459220213544099e-01,7.358489395443162939e-02
9.210000000000000409e-01,-5.360727420365741375e-03,2.175563607251069231e-01,-1.485648121008378286e-01
9.220000000000000417e-01,4.208639401260959034e-01,-1.279064792036220810e-01,-3.084364964302937495e-01
9.230000000000000426e-01,4.672008566957164821e-01,-3.836360822798615677e-01,-2.113672915336059777e-01
9.240000000000000435e-01,1.716589688897722787e-01,-3.142120476029814924e-01,9.065412957042762176e-02
9.250000000000000444e-01,-2.632825347854768072e-01,7.937064776739768610e-03,2.968969511967146091e-01
9.260000000000000453e-01,-5.220174741317110678e-01,3.294922646932016974e-01,2.859211991666871233e-01
9.270000000000000462e-01,-3.261714420380180113e-01,3.979539353441986504e-01,4.127230970702180229e-02
9.280000000000000471e-01,1.292712288518224062e-01,1.142724181947947781e-01,-2.379079255836819007e-01
9.290000000000000480e-01,4.493387787992155213e-01,-2.299496034087944174e-01,-2.705191090296586998e-01
9.300000000000000488e-01,4.301497289883485231e-01,-3.992066014435466381e-01,-1.710130983455976916e-01
9.310000000000000497e-01,6.590356060824491269e-02,-2.268955337890359025e-01,1.148711201687791783e-01
9.320000000000000506e-01,-3.394357295918292716e-01,9.013314432402604048e-02,2.647972490719873173e-01
9.330000000000000515e-01,-4.808483741635753983e-01,3.895178378940601371e-01,2.295350479515857745e-01
9.340000000000000524e-01,-2.486452761872313677e-01,3.598142609283033755e-01,3.623951463269176054e-02
9.350000000000000533e-01,2.180546741445274772e-01,3.436929056122061538e-02,-2.264673889972650955e-01
9.360000000000000542e-01,4.769586104276049010e-01,-3.259719866618034367e-01,-2.816189512033773767e-01
9.370000000000000551e-01,3.911573515376814969e-01,-3.967832467766312377e-01,-1.015839516629649802e-01
9.379999999999999449e-01,1.656443010642448532e-02,-2.065192705279075835e-01,1.453426181066757028e-01
9.389999999999999458e-01,-4.343236208215023875e-01,2.245196153360498326e-01,2.994709285434037915e-01
9.399999999999999467e-01,-4.717513433660442956e-01,3.941220142487396605e-01,2.063466989102591687e-01
9.409999999999999476e-01,-1.538081120697479542e-01,2.877570070557901039e-01,-4.622352059355607640e-02
9.419999999999999485e-01,2.691903332252840175e-01,-6.823880998943515630e-02,-2.701777470400148484e-01
9.429999999999999494e-01,5.153203389481725294e-01,-3.492467820877943052e-01,-2.805525512156536450e-01
9.439999999999999503e-01,3.314704765023439026e-01,-3.636643811522199954e-01,-9.104296620416887920e-02
9.449999999999999512e-01,-1.506505020260535399e-01,-9.480698491164357700e-02,1.729182985528719407e-01
9.459999999999999520e-01,-4.559089417104711939e-01,2.542520321469048383e-01,3.067107788595340168e-01
9.469999999999999529e-01,-4.338971511918790491e-01,4.103282342235606839e-01,2.095791990306642150e-01
9.479999999999999538e-01,-6.040131866423641832e-02,1.752008530404964015e-01,-4.290646412801969733e-02
9.489999999999999547e-01,3.141791246966653683e-01,-1.730647243428427851e-01,-2.532397575041553384e-01
9.499999999999999556e-01,5.009614486563072067e-01,-3.677995813437503481e-01,-2.434008738666709470e-01
9.509999999999999565e-01,2.216997561381114923e-01,-2.911931413973717353e-01,-5.493295023797301058e-02
9.519999999999999574e-01,-1.775206117489248614e-01,3.454269862611746011e-02,2.209490360479670901e-01
9.529999999999999583e-01,-4.869057579650648004e-01,3.409465346333170888e-01,2.701358456848689804e-01
9.539999999999999591e-01,-4.038445019681771164e-01,3.560790938347662693e-01,1.987304474377220576e-01
9.549999999999999600e-01,2.596750595718774063e-02,1.103198754433584866e-01,-1.033506672725342662e-01
9.559999999999999609e-01,4.071648123292183619e-01,-2.718036600183296736e-01,-2.727761294170877315e-01
9.569999999999999618e-01,4.816558927548464930e-01,-3.833566432303416316e-01,-2.549342856512846200e-01
9.579999999999999627e-01,1.458415143339766296e-01,-2.258779648647021299e-01,-3.077211376750008456e-02
9.589999999999999636e-01,-2.741497421730839101e-01,1.413842177150647639e-01,2.278699225970796938e-01
9.599999999999999645e-01,-5.356068110909006919e-01,3.976966458124436277e-01,2.907909032942141425e-01
9.609999999999999654e-01,-3.102425155800469514e-01,3.067710377929362964e-01,1.105416940896464945e-01
9.619999999999999662e-01,1.022383812822850735e-01,-2.880696855405242077e-02,-1.349912228279150639e-01
9.629999999999999671e-01,4.349691826318002885e-01,-3.385862354462980117e-01,-3.028407920703156675e-01
9.639999999999999680e-01,4.224520051315532876e-01,-3.866025694626538112e-01,-2.230170167958790417e-01
9.649999999999999689e-01,4.298406626388535934e-02,-1.193516675345206446e-01,1.000788065365903687e-02
9.659999999999999698e-01,-3.853262647859349577e-01,2.333672243945139613e-01,2.779319064543070428e-01
9.669999999999999707e-01,-4.985519502476427611e-01,3.933882399318603396e-01,2.845765117358815544e-01
9.679999999999999716e-01,-2.263910858264006343e-01,2.706311165878800828e-01,7.780218025344111388e-02
9.689999999999999725e-01,2.266587044573713794e-01,-6.712877292935702511e-02,-1.582112946169210443e-01
9.699999999999999734e-01,4.901646871030412300e-01,-3.701500723810634552e-01,-2.578131879833316931e-01
9.709999999999999742e-01,3.593882054761793343e-01,-3.461753698892641173e-01,-2.186953249085715756e-01
9.719999999999999751e-01,-6.822877270492813673e-02,-4.716236127627541908e-02,7.588013426659372118e-02
9.729999999999999760e-01,-4.065317152182239546e-01,2.846851449152694169e-01,2.868469181800297751e-01
9.739999999999999769e-01,-4.431763511835305480e-01,3.919543643421798951e-01,2.729467116986236119e-01
9.749999999999999778e-01,-1.630519588684819499e-01,1.627407794930234852e-01,4.939357204244108207e-02
9.759999999999999787e-01,2.891628426137163865e-01,-1.859686821351742292e-01,-2.265620292348685394e-01
9.769999999999999796e-01,5.041165332409425215e-01,-4.080392585710258535e-01,-3.017751477024168683e-01
9.779999999999999805e-01,2.991080895388763539e-01,-3.106489792619163692e-01,-1.973935752432946222e-01
9.789999999999999813e-01,-1.120686543132329016e-01,5.972064154197141012e-02,9.236660042142613714e-02
9.799999999999999822e-01,-4.461254228153921364e-01,3.372266173966244063e-01,3.050603280208696311e-01
9.809999999999999831e-01,-4.242423278273522169e-01,3.769504288182330409e-01,2.325565330598579894e-01
9.819999999999999840e-01,-8.366513053468435657e-02,9.366232518738350221e-02,1.810975816343489073e-02
9.829999999999999849e-01,3.814905826290057034e-01,-2.785510170866200008e-01,-2.149799290440070898e-01
9.839999999999999858e-01,4.972197124525791212e-01,-4.036781291624979007e-01,-2.758050282639780693e-01
9.849999999999999867e-01,2.460665456969305664e-01,-2.084483294073298798e-01,-1.485573574108558226e-01
9.859999999999999876e-01,-1.967642462089357891e-01,1.678217720305263116e-01,1.485415992173052258e-01
9.869999999999999885e-01,-4.914896032695593719e-01,4.411557945958192173e-01,3.128088681955827899e-01
9.879999999999999893e-01,-3.432399541340127036e-01,3.118798674827074069e-01,2.219599880811869985e-01
9.889999999999999902e-01,2.884639340342909017e-02,-4.366878087301372113e-02,-2.945142157975588065e-02
9.899999999999999911e-01,4.331560393990038782e-01,-3.298924949058849032e-01,-2.266277911254623301e-01
9.909999999999999920e-01,4.624307624359262348e-01,-3.689166085496047853e-01,-2.930398217580562070e-01
9.919999999999999929e-01,1.955085066153801621e-01,-1.118729757206059217e-01,-9.173034132017107711e-02
9.929999999999999938e-01,-2.928466729998034368e-01,2.269773437594621301e-01,1.586114990361134625e-01
9.939999999999999947e-01,-4.767200730746827819e-01,4.079715847508060822e-01,3.203674679353644694e-01
9.949999999999999956e-01,-2.908356510608630097e-01,2.195659803007465882e-01,1.891274950787038556e-01
9.959999999999999964e-01,1.269573007305012102e-01,-1.287673694963110127e-01,-3.814241737951033079e-02
9.969999999999999973e-01,4.566201034345492293e-01,-3.745433369235185994e-01,-2.833196713682020751e-01
9.979999999999999982e-01,4.095898535287573750e-01,-3.291786401655261152e-01,-2.864976386466540625e-01
9.989999999999999991e-01,6.172699392698490634e-02,-1.466373475824599495e-02,-7.006316076047451602e-02
1.000000000000000000e+00,-3.450567436507149255e-01,3.168191696793173917e-01,1.653581838640351687e-01
1.000999999999999890e+00,-5.285897063964248854e-01,3.795649345525842766e-01,3.087599625705779727e-01
1.002000000000000002e+00,-2.387468062668404445e-01,1.257967691118234421e-01,1.703270567948588776e-01
1.002999999999999892e+00,2.009123075892526311e-01,-2.056157368389124884e-01,-8.745388602592667204e-02
1.004000000000000004e+00,4.759324782247159602e-01,-3.680213680494506812e-01,-2.768373949159544378e-01
1.004999999999999893e+00,3.679015377612704918e-01,-2.511023486052491593e-01,-2.416994828307796050e-01
1.006000000000000005e+00,-3.370563654223923677e-02,1.051046307400855667e-01,-2.123922025798560473e-02
1.006999999999999895e+00,-4.069305001138357469e-01,3.673838856900816241e-01,1.940631740109166059e-01
1.008000000000000007e+00,-4.700885879642784926e-01,3.506782815130347064e-01,2.809028642960549882e-01
1.008999999999999897e+00,-1.594522517984825749e-01,4.267803208073922550e-02,1.460416645989003892e-01
1.010000000000000009e+00,2.831344171341195204e-01,-3.185541888126489085e-01,-1.393457583598647909e-01
1.010999999999999899e+00,5.291429533640858995e-01,-3.678366059297624724e-01,-2.898524888244183861e-01
1.012000000000000011e+00,2.887860424153085859e-01,-1.680271637647260119e-01,-2.166292560520210464e-01
1.012999999999999901e+00,-1.467708522606438748e-01,1.807752505855020064e-01,2.199512253177608734e-02
1.014000000000000012e+00,-4.370903180065162652e-01,3.877434332554942631e-01,2.423252622347920049e-01
1.014999999999999902e+00,-4.398897153036022134e-01,2.743277049214326024e-01,2.635938981546748217e-01
1.016000000000000014e+00,-3.383908379804730776e-02,-7.737811848033569750e-02,9.098212387335445628e-02
1.016999999999999904e+00,3.736328377087199670e-01,-3.274803674199613379e-01,-1.490168506231090428e-01
1.018000000000000016e+00,5.032604506920616005e-01,-3.513177430093759046e-01,-2.876029154076681360e-01
1.018999999999999906e+00,2.254659149081507108e-01,-7.141411388937138338e-02,-1.873857372271964805e-01
1.020000000000000018e+00,-2.112053366487279538e-01,2.667270144084238903e-01,1.479177878090170636e-02
1.020999999999999908e+00,-5.024545486213767287e-01,3.922159236015936856e-01,2.677228142425235879e-01
1.022000000000000020e+00,-3.543318496809446660e-01,2.031115246029580323e-01,2.783808920045358626e-01
1.022999999999999909e+00,4.851008747308679231e-02,-1.600398443509229718e-01,5.893417213995226500e-02
1.024000000000000021e+00,4.500745530128862915e-01,-3.993799856165793360e-01,-1.835193630876455761e-01
1.024999999999999911e+00,4.495715113275826069e-01,-3.075511450889460430e-01,-2.912132777834665065e-01
1.026000000000000023e+00,1.079899049888415757e-01,3.534521393812013745e-02,-1.588642342950231379e-01
1.026999999999999913e+00,-2.984748816028328089e-01,3.380422171218869787e-01,6.496247870397749147e-02
1.028000000000000025e+00,-5.242111398826797553e-01,3.463567846548860074e-01,2.778753880699726397e-01
1.028999999999999915e+00,-3.080545228223000032e-01,9.214723498692754811e-02,2.483863949864229537e-01
1.030000000000000027e+00,1.495550217048701169e-01,-2.497027920929853206e-01,2.958015497291180407e-02
1.030999999999999917e+00,4.377573572485370934e-01,-3.978605896187481505e-01,-2.290152682819945051e-01
1.032000000000000028e+00,4.022386714028733934e-01,-2.286970010892097893e-01,-2.532013441731881809e-01
1.032999999999999918e+00,2.339523175180053746e-02,1.396551563396613849e-01,-1.567569816150248541e-01
1.034000000000000030e+00,-3.696854454653913935e-01,3.691569911839603368e-01,1.391224173921478124e-01
1.034999999999999920e+00,-4.752077761524675092e-01,3.539945309979297128e-01,2.775235427508052632e-01
1.036000000000000032e+00,-2.082201043645517113e-01,1.133027584974943131e-02,2.363737649931653695e-01
1.036999999999999922e+00,2.241779230570354609e-01,-3.286975303194997200e-01,9.459632850986984809e-03
1.038000000000000034e+00,5.237489710639352536e-01,-3.676267762059372002e-01,-2.597540992525563253e-01
1.038999999999999924e+00,3.520257677741915336e-01,-1.646778695335090470e-01,-2.998762687352685141e-01
1.040000000000000036e+00,-6.922663063794140537e-02,1.880742825223834513e-01,-6.512714540259832707e-02
1.040999999999999925e+00,-4.250923167103403677e-01,4.139992756362678716e-01,1.697709929388220018e-01
1.042000000000000037e+00,-4.614698597606842201e-01,2.504012501007985003e-01,2.814008745756729213e-01
1.042999999999999927e+00,-1.187937279543796465e-01,-9.445659346598754558e-02,1.992593132906843034e-01
1.044000000000000039e+00,3.022036983211345840e-01,-3.887906562132868449e-01,-4.715451527233262274e-02
1.044999999999999929e+00,4.911116733763157827e-01,-3.531106254167839520e-01,-2.592648163260326544e-01
1.046000000000000041e+00,2.983735072211678441e-01,-2.811849460931593880e-02,-2.953248627070995114e-01
1.046999999999999931e+00,-1.307101680639079222e-01,3.058046148567462597e-01,-6.897883283512405705e-02
1.048000000000000043e+00,-4.705969901017623691e-01,4.006001185162762490e-01,1.902674329252651564e-01
1.048999999999999932e+00,-4.115146207195929939e-01,1.631141261349501603e-01,2.793430906924531665e-01
1.050000000000000044e+00,-2.120792824956830441e-02,-1.970628336710441575e-01,1.988249304311871801e-01
1.050999999999999934e+00,3.772604935326986375e-01,-3.932232258767131561e-01,-7.538650734402209397e-02
1.052000000000000046e+00,4.975418136292884541e-01,-2.976268710321644528e-01,-2.688250104131362228e-01
1.052999999999999936e+00,2.324986025992448191e-01,5.618087982249068274e-02,-2.566939418803533823e-01
1.054000000000000048e+00,-2.533292366580756072e-01,3.601878070908656748e-01,-9.862991905427257247e-03
1.054999999999999938e+00,-4.805526588486042083e-01,3.522333437040016668e-01,2.466916672346052275e-01
1.056000000000000050e+00,-3.625640225161720909e-01,7.864588000596332840e-02,2.990825735747004166e-01
1.056999999999999940e+00,5.170774101717202226e-02,-2.812236388886185101e-01,1.516769218937636665e-01
1.058000000000000052e+00,4.493481504384571057e-01,-3.604813823787587634e-01,-1.273847918851912508e-01
1.058999999999999941e+00,4.645760227829047739e-01,-1.621316759383524542e-01,-2.950816991276746237e-01
1.060000000000000053e+00,1.241289196134305467e-01,1.879241041562816072e-01,-2.617353500442887726e-01
1.060999999999999943e+00,-3.301789512794969794e-01,3.861303698077971358e-01,1.428687833249306718e-02
1.062000000000000055e+00,-4.742923586954220228e-01,2.831236563342126589e-01,2.182488772924397191e-01
1.062999999999999945e+00,-3.027903390410701112e-01,-3.684104489605875832e-02,3.016486335798567731e-01
1.064000000000000057e+00,1.586657984342949301e-01,-3.353395944185554312e-01,1.181307595217718082e-01
1.064999999999999947e+00,4.841417355115774090e-01,-3.810545832970661517e-01,-1.485542777993757446e-01
1.066000000000000059e+00,4.148110889675570845e-01,-1.002982813299331255e-01,-3.115994288266173418e-01
1.066999999999999948e+00,1.590031544248386025e-02,2.391636495948263608e-01,-2.009469660327173890e-01
1.068000000000000060e+00,-3.799010210638951723e-01,4.043997476541599800e-01,7.073697224803107871e-03
1.068999999999999950e+00,-4.990924996724435680e-01,2.401482254614082656e-01,2.698073513602685658e-01
1.070000000000000062e+00,-2.021891108162043038e-01,-1.265446200026185131e-01,2.841293907909299143e-01
1.070999999999999952e+00,2.384047894573574078e-01,-3.789690174294400027e-01,6.284332799724465235e-02
1.072000000000000064e+00,5.082251560781850808e-01,-3.127428437447228315e-01,-1.914946612067559562e-01
1.072999999999999954e+00,3.805400327751738421e-01,7.192116507937247735e-04,-2.967259604183404287e-01
1.074000000000000066e+00,-4.547493513287928502e-02,3.321266490098404578e-01,-1.942398742739085971e-01
1.074999999999999956e+00,-4.503405546957414129e-01,3.894880412399417957e-01,6.118195954906612694e-02
1.076000000000000068e+00,-4.232597526454525694e-01,1.617932430517387554e-01,2.896901341715784062e-01
1.076999999999999957e+00,-9.367623236800309838e-02,-2.277956836454082257e-01,2.305771738472573995e-01
1.078000000000000069e+00,3.252751977059075150e-01,-3.778572067879669150e-01,3.764975233704608709e-02
1.078999999999999959e+00,5.063826472392141120e-01,-2.395807786405548534e-01,-2.172125238537335468e-01
1.080000000000000071e+00,2.731744904647561145e-01,7.259299626006600337e-02,-2.737500281897539689e-01
1.080999999999999961e+00,-1.390084417526494254e-01,3.645064651235666031e-01,-1.673668473082881025e-01
1.082000000000000073e+00,-4.812361343666529678e-01,3.413295238925632136e-01,9.310928020015996065e-02
1.082999999999999963e+00,-4.196760869213664868e-01,4.063741604926819628e-02,2.816906825348785559e-01
1.084000000000000075e+00,-4.433152497132617637e-02,-3.078838091970394486e-01,2.319501510238519970e-01
1.084999999999999964e+00,3.550365251203176920e-01,-3.998828944849414646e-01,1.110843262472673530e-02
1.086000000000000076e+00,4.651587823417824841e-01,-1.831982488321411418e-01,-1.970651572521205097e-01
1.086999999999999966e+00,2.073796227209802057e-01,1.863596828132513539e-01,-2.970385466831201859e-01
1.088000000000000078e+00,-2.495258271977972009e-01,3.735033582626824389e-01,-1.402025838884993214e-01
1.088999999999999968e+00,-5.069844731844425079e-01,2.748226790739816128e-01,1.726941141828451654e-01
1.090000000000000080e+00,-3.476985382349325748e-01,-6.695041518362970789e-02,3.031002053471483215e-01
1.090999999999999970e+00,5.189541620022805612e-02,-3.396847016346599135e-01,2.191454825557792307e-01
1.092000000000000082e+00,4.402798785856225083e-01,-3.556652183207661966e-01,-2.017359185266855148e-02
1.092999999999999972e+00,4.624306311539139180e-01,-4.792763782024300062e-02,-2.430377723545407431e-01
1.094000000000000083e+00,1.084786226455203978e-01,2.534635094856846349e-01,-2.836520234416700093e-01
1.094999999999999973e+00,-3.418629440657017793e-01,4.064704276538360639e-01,-6.934814178115343564e-02
1.096000000000000085e+00,-4.836487989009928268e-01,2.030558673915932033e-01,1.818086100632226865e-01
1.096999999999999975e+00,-2.928497344217789178e-01,-1.769228853634762511e-01,3.179227247904622966e-01
1.098000000000000087e+00,1.660822630320860360e-01,-3.858268063196399478e-01,2.026476558487653734e-01
1.098999999999999977e+00,4.755772763928471925e-01,-3.279573047609172232e-01,-8.360461240261019000e-02
1.100000000000000089e+00,4.059553330909214108e-01,4.067606982150014788e-02,-2.837313622457069417e-01
1.100999999999999979e+00,3.587998756092362906e-02,3.444543770378759029e-01,-2.689898002857816772e-01
1.102000000000000091e+00,-4.190613456450185681e-01,3.857730068587770234e-01,-4.827191564158637288e-02
1.102999999999999980e+00,-4.910856979255342480e-01,1.032724287629761123e-01,2.093995353528950165e-01
1.104000000000000092e+00,-1.837657822850970457e-01,-2.484407725099385678e-01,2.688356813364602416e-01
1.104999999999999982e+00,2.682624288760647180e-01,-4.001121836703112611e-01,1.842688685276022142e-01
1.106000000000000094e+00,5.211845511823214316e-01,-2.118642353914826082e-01,-1.130118491505279071e-01
1.106999999999999984e+00,3.410842222899982401e-01,1.352947919986399461e-01,-2.785939793543145138e-01
1.108000000000000096e+00,-4.632776981605378486e-02,4.145846160408418468e-01,-2.380536693928104186e-01
1.108999999999999986e+00,-4.322348785854770448e-01,3.215174404274827036e-01,-1.720823738756150885e-03
1.110000000000000098e+00,-4.308487785084930133e-01,1.483710238546460773e-02,2.421502701315541572e-01
1.110999999999999988e+00,-1.083131309031573758e-01,-3.335750868300675354e-01,2.988306365661185793e-01
1.112000000000000099e+00,3.257850110470015825e-01,-3.809370144246190248e-01,1.568618700337325589e-01
1.112999999999999989e+00,5.095827601802130902e-01,-1.392943789972239943e-01,-1.361865601768099121e-01
1.114000000000000101e+00,2.874959292266708322e-01,2.390323032956685190e-01,-3.187523135913269967e-01
1.114999999999999991e+00,-1.565559156692755971e-01,3.875417995153929707e-01,-2.222824752678394244e-01
1.116000000000000103e+00,-4.465351136548882938e-01,2.502984136479500799e-01,2.211467823556425086e-02
1.116999999999999993e+00,-4.210108527201951167e-01,-7.916022506272515913e-02,2.360163291051165235e-01
1.118000000000000105e+00,-1.024793960530071511e-02,-3.807120981727351583e-01,2.987829875803196256e-01
1.118999999999999995e+00,4.069960233480823253e-01,-3.721344712226284934e-01,8.517911008657508276e-02
1.120000000000000107e+00,4.619790795605819844e-01,-5.518121994448687423e-02,-1.597631450384003338e-01
1.120999999999999996e+00,1.899163210635817778e-01,3.114661858378159343e-01,-3.039358972120991820e-01
1.122000000000000108e+00,-2.434397253429314012e-01,4.044840192014226843e-01,-1.960029249909230609e-01
1.122999999999999998e+00,-4.831957976022248080e-01,1.732869940642725037e-01,7.594694489991823949e-02
1.124000000000000110e+00,-3.240343431267194152e-01,-2.241104062129687935e-01,2.688823121344368627e-01
1.125000000000000000e+00,8.929396838214211096e-02,-4.103057418261502609e-01,2.618489976988354062e-01
1.125999999999999890e+00,4.832073786918328340e-01,-2.876441544772686543e-01,6.305327468837533533e-02
1.127000000000000002e+00,4.284691607771557442e-01,6.910397434752105217e-02,-2.238076270217386476e-01
1.127999999999999892e+00,1.159575755106219130e-01,3.820336288779923595e-01,-3.109615877195057165e-01
1.129000000000000004e+00,-3.270298414982426016e-01,3.280507952433979191e-01,-1.740194166152613242e-01
1.129999999999999893e+00,-4.970549906056723755e-01,1.118091435759493435e-01,1.041729607458637547e-01
1.131000000000000005e+00,-2.260173723131583268e-01,-2.543591766347238492e-01,3.089680695696433443e-01
1.131999999999999895e+00,1.945160030476643376e-01,-4.019176958393347876e-01,2.367142376314777530e-01
1.133000000000000007e+00,4.840752729780560260e-01,-1.831362667020243196e-01,2.475501756943157203e-02
1.133999999999999897e+00,3.986114292546244497e-01,1.402776552587018666e-01,-2.380172438211676789e-01
1.135000000000000009e+00,-9.575996307542235415e-04,3.944146183415305762e-01,-2.883804482921625834e-01
1.135999999999999899e+00,-4.204867426381998508e-01,3.217286272780965906e-01,-1.547512144665097455e-01
1.137000000000000011e+00,-4.491483635677748776e-01,-3.884318202114880186e-02,1.206284232709765591e-01
1.137999999999999901e+00,-1.649756974139323651e-01,-3.409459898597635985e-01,2.817422536010282252e-01
1.139000000000000012e+00,2.744467207851942203e-01,-3.660712357598544520e-01,2.281062348842367582e-01
1.139999999999999902e+00,4.517459299184455324e-01,-1.299569532708382269e-01,-6.819207755214941671e-03
1.141000000000000014e+00,3.271709642224996384e-01,2.347495996982195410e-01,-2.570180645413630560e-01
1.141999999999999904e+00,-1.072361580787071639e-01,3.992609646994296213e-01,-2.869334821640605049e-01
1.143000000000000016e+00,-4.569984868149585822e-01,2.248290303824098946e-01,-8.285768932616756344e-02
1.143999999999999906e+00,-4.469099341226778765e-01,-1.311870100712087261e-01,1.656887819338217771e-01
1.145000000000000018e+00,-8.051068047144083195e-02,-3.400369394397836920e-01,2.973348160764246462e-01
1.145999999999999908e+00,3.299451446603796079e-01,-3.420917442516174800e-01,2.131181806547516322e-01
1.147000000000000020e+00,5.220086566955212115e-01,1.840018192782639020e-02,-6.800807547772186323e-02
1.147999999999999909e+00,2.620042517531174231e-01,3.213876485191893839e-01,-2.741498585226151974e-01
1.149000000000000021e+00,-1.688686234758856597e-01,3.601070355415497692e-01,-2.790121730041924542e-01
1.149999999999999911e+00,-4.977565822312659538e-01,1.464229242759427507e-01,-5.334717333028327763e-02
1.151000000000000023e+00,-3.819328229296647947e-01,-2.217400845161922318e-01,1.878847556050801670e-01
1.151999999999999913e+00,-7.498535243078385294e-03,-3.939027713293669630e-01,2.857204122318683925e-01
1.153000000000000025e+00,4.225850695740189233e-01,-2.799388976350994374e-01,1.818325033117865197e-01
1.153999999999999915e+00,4.886609768184267955e-01,8.802960060535031106e-02,-8.304632465318931289e-02
1.155000000000000027e+00,1.785904206155411178e-01,3.511172000325614717e-01,-2.990812481883449170e-01
1.155999999999999917e+00,-2.759976082531387376e-01,3.381908455691764459e-01,-2.573485327765796526e-01
1.157000000000000028e+00,-5.240102736266843975e-01,3.013186311742165058e-02,-1.844666123395681881e-02
1.157999999999999918e+00,-3.435643638846078152e-01,-2.877937552487838113e-01,2.331802037004364336e-01
1.159000000000000030e+00,8.956424104852023227e-02,-3.965973283353348422e-01,3.229283234422997140e-01
1.159999999999999920e+00,4.386370224771970472e-01,-1.745540463549231369e-01,1.438130212177058942e-01
1.161000000000000032e+00,4.294094353470159220e-01,1.944635740577425609e-01,-1.578782884448473034e-01
1.161999999999999922e+00,1.160023868873924224e-01,3.979410428709385661e-01,-2.950885823348800563e-01
1.163000000000000034e+00,-3.158834815122389950e-01,2.694556661047602941e-01,-2.126049861003304897e-01
1.163999999999999924e+00,-4.784489388002112209e-01,-8.304082623862517332e-02,2.389728771283734440e-02
1.165000000000000036e+00,-2.379827498332743041e-01,-3.633067307560861603e-01,2.141033111582640591e-01
1.165999999999999925e+00,2.064815463185259437e-01,-3.390180271530912059e-01,2.685583332669336798e-01
1.167000000000000037e+00,4.820261732367664975e-01,-9.625458382881260655e-02,1.333851728363989741e-01
1.167999999999999927e+00,3.635614129628961799e-01,2.852110426367756579e-01,-1.822026103450652690e-01
1.169000000000000039e+00,1.921200042425250890e-03,3.942388933558520492e-01,-3.320559580142781186e-01
1.169999999999999929e+00,-4.211056715522952798e-01,1.912928395126481940e-01,-1.914939432428094390e-01
1.171000000000000041e+00,-4.773826136632656758e-01,-1.501906831014447052e-01,5.064470577429507764e-02
1.171999999999999931e+00,-1.613664262429544694e-01,-4.176833373334236099e-01,2.771192946656916289e-01
1.173000000000000043e+00,3.111269472294508343e-01,-2.901588726796826556e-01,2.348014154086449645e-01
1.173999999999999932e+00,4.834538558213543613e-01,4.019990147672095060e-02,5.629527423777090644e-02
1.175000000000000044e+00,3.304849178724219017e-01,3.421748043837123943e-01,-1.927751177076636457e-01
1.175999999999999934e+00,-8.508402845429646755e-02,3.819352471971669272e-01,-2.875722385064268805e-01
1.177000000000000046e+00,-4.618646242239018984e-01,9.925957306084763621e-02,-1.804731446901910730e-01
1.177999999999999936e+00,-4.666210488109663879e-01,-2.678346024840383421e-01,8.272745046424581639e-02
1.179000000000000048e+00,-9.487767023274537581e-02,-4.050495833764937159e-01,2.703221407788495290e-01
1.179999999999999938e+00,3.270042419274898915e-01,-2.187939745383934986e-01,2.333235515844094554e-01
1.181000000000000050e+00,5.083353723944870062e-01,1.236944569643925185e-01,5.635332038055733406e-02
