time,acc_x,acc_y,acc_z
0.000000000000000000e+00,-1.406713762923230970e-01,-8.745616749470140616e-02,-4.790701619471585820e-02
1.000000000000000021e-03,1.202635779636156976e-01,2.254741148522287630e-01,5.638975392213192543e-03
2.000000000000000042e-03,3.631471469751101355e-01,4.148346447265150450e-01,1.068430232057122758e-01
3.000000000000000062e-03,3.288518151933950695e-01,2.390773381486518689e-01,1.533855596456486503e-01
4.000000000000000083e-03,-2.277747163012934853e-02,-1.719619023058869822e-01,5.535343156973463602e-02
5.000000000000000104e-03,-4.454117150250063717e-01,-5.035768787941539149e-01,-1.470863558055881815e-01
6.000000000000000125e-03,-5.373842508163819698e-01,-4.193667292561659710e-01,-2.583200111429902468e-01
7.000000000000000146e-03,-1.677585284847169234e-01,4.250779431871747754e-02,-1.706808459499730701e-01
8.000000000000000167e-03,4.138539813633013709e-01,5.140713855903041862e-01,1.077582120237154106e-01
8.999999999999999320e-03,6.908963919102526496e-01,5.622592524770055888e-01,3.328265006169253692e-01
1.000000000000000021e-02,4.090984058371362475e-01,1.505158895525194607e-01,3.093107919753703139e-01
1.099999999999999936e-02,-2.632680073736208270e-01,-4.366027899530313672e-01,1.942607897663045646e-02
1.200000000000000025e-02,-7.560006116865533032e-01,-6.766060811164713584e-01,-3.244918232662684643e-01
1.299999999999999940e-02,-6.495693009964099707e-01,-3.541094800202997939e-01,-4.275815347209446227e-01
1.400000000000000029e-02,9.960154081330906128e-03,2.772628132079074659e-01,-1.748887525783559271e-01
1.499999999999999944e-02,6.941229362590931595e-01,6.769321089557275295e-01,2.498595142596422014e-01
1.600000000000000033e-02,8.102727639638608315e-01,5.133092741743369158e-01,4.847912907735585364e-01
1.700000000000000122e-02,2.670693995551031152e-01,-7.955465684701205908e-02,3.455393399181601044e-01
1.799999999999999864e-02,-5.028825991061850464e-01,-5.941603229991406776e-01,-9.056050911465576836e-02
1.899999999999999953e-02,-8.644420875603124887e-01,-6.027171314459167650e-01,-4.682162198878143111e-01
2.000000000000000042e-02,-5.113218204518099608e-01,-1.188208554880412771e-01,-4.663771660420876208e-01
2.100000000000000130e-02,2.443742872184393733e-01,4.337828223975536135e-01,-9.929843806685399732e-02
2.199999999999999872e-02,7.853050458885031393e-01,6.125471597163885118e-01,3.501533481163810468e-01
2.299999999999999961e-02,6.826913274679079491e-01,2.811619895540547476e-01,5.121895314787096032e-01
2.400000000000000050e-02,2.324139492840153476e-02,-2.487399369675926120e-01,2.570390629965272900e-01
2.500000000000000139e-02,-5.989354020759686259e-01,-5.286259319378008303e-01,-1.866309117473315127e-01
2.599999999999999881e-02,-7.087406772754365480e-01,-3.628910232274410452e-01,-4.862579264011885338e-01
2.699999999999999969e-02,-2.514387639797640017e-01,6.636647621283962850e-02,-3.621490725933649291e-01
2.800000000000000058e-02,3.603260734303040391e-01,3.837837557280683876e-01,1.624877615510979950e-02
2.900000000000000147e-02,6.385413080448447687e-01,3.585617915794223620e-01,3.698698030534107728e-01
2.999999999999999889e-02,3.779979135594603856e-01,5.081340190014860259e-02,4.044822831362351323e-01
3.099999999999999978e-02,-1.260632111116987697e-01,-2.213535511064923800e-01,1.317459714079391719e-01
3.200000000000000067e-02,-4.468066509866725489e-01,-2.587659906866190962e-01,-2.147903355270558423e-01
3.300000000000000155e-02,-3.668053060999841297e-01,-8.630678935225614967e-02,-3.469319347076481597e-01
3.400000000000000244e-02,-3.384084187791642356e-02,9.123625508425665942e-02,-2.046021853488772524e-01
3.500000000000000333e-02,2.487224676660002021e-01,1.247577793649022743e-01,7.526592963452036211e-02
3.599999999999999728e-02,2.585951156780770810e-01,3.498890147211868029e-02,2.418827061354577590e-01
3.699999999999999817e-02,7.451751849809060135e-02,-1.534489015899714350e-02,2.003132173740680977e-01
3.799999999999999906e-02,-8.737858507929922858e-02,1.645218783742069188e-02,1.524998295142220364e-02
3.899999999999999994e-02,-9.320666835663761474e-02,7.262098617355344787e-02,-1.316482137996874135e-01
4.000000000000000083e-02,-6.414890356749343089e-03,3.082032816371204145e-02,-1.171666900044264492e-01
4.100000000000000172e-02,1.816194831548315416e-02,-1.131081121141898349e-01,-3.407421992606380484e-02
4.200000000000000261e-02,-7.778058740443290209e-02,-2.096728446097610721e-01,2.419170571109176965e-02
4.299999999999999656e-02,-1.366759444969992410e-01,-1.289325825370333245e-01,1.731161485465712926e-02
4.399999999999999745e-02,-5.074430794647202120e-02,1.370797819981427745e-01,-1.815572971595185922e-02
4.499999999999999833e-02,1.742385977794526364e-01,3.488604689435891304e-01,-1.300910865641473173e-02
4.599999999999999922e-02,3.336401258622160304e-01,2.796021137590410932e-01,6.931041689497022262e-02
4.700000000000000011e-02,2.176705372100574964e-01,-6.874496042101352344e-02,1.128474001650454778e-01
4.800000000000000100e-02,-1.589918207723287069e-01,-4.173130009695143472e-01,5.674812537319066930e-02
4.900000000000000189e-02,-4.707890849295774394e-01,-4.547447452170439997e-01,-9.712241533641909064e-02
5.000000000000000278e-02,-4.206061749057654620e-01,-7.970946151118628309e-02,-2.302690403502792305e-01
5.099999999999999672e-02,1.856301491403530499e-02,4.001961670795242121e-01,-1.739943534298807604e-01
5.199999999999999761e-02,5.273809914841401936e-01,5.820807568243778762e-01,6.109834240212007328e-02
5.299999999999999850e-02,6.211940549992608362e-01,2.818191699149528162e-01,2.897440110573925032e-01
5.399999999999999939e-02,2.006943551092881806e-01,-3.025595190834958204e-01,2.922794632764755263e-01
5.500000000000000028e-02,-4.512494877948449723e-01,-6.576360535538017249e-01,4.908418101742499651e-02
5.600000000000000117e-02,-7.709258154598154222e-01,-4.627438109984537973e-01,-2.806025751538917534e-01
5.700000000000000205e-02,-4.558558589927075300e-01,1.288542436144060888e-01,-4.056672281000752167e-01
5.800000000000000294e-02,2.611974343109532137e-01,6.271599090377372177e-01,-2.107481212021604655e-01
5.899999999999999689e-02,7.992141742093556989e-01,6.100199663578801390e-01,2.007422281772113792e-01
5.999999999999999778e-02,6.778096148157819467e-01,7.484057568007526640e-02,4.530832729344450027e-01
6.099999999999999867e-02,-3.317040974984304929e-03,-5.100557590169314537e-01,3.680965229839729957e-01
6.199999999999999956e-02,-6.956875677062478447e-01,-6.741884970455755965e-01,-4.469451402701088427e-02
6.300000000000000044e-02,-8.299171233008398874e-01,-2.747812835238527263e-01,-4.374910839585020583e-01
6.400000000000000133e-02,-2.920254551122016817e-01,3.428962815362895933e-01,-4.818190683520325313e-01
6.500000000000000222e-02,4.874337277128338863e-01,6.473898916212453836e-01,-1.501077719556245249e-01
6.600000000000000311e-02,8.385522670264837775e-01,4.142476552124251254e-01,3.238700954039448465e-01
6.700000000000000400e-02,5.143797541531982542e-01,-1.343822580975101710e-01,5.190197740434205897e-01
6.800000000000000488e-02,-2.131867406599312620e-01,-5.327803870446963241e-01,3.008521250824359172e-01
6.900000000000000577e-02,-7.326920925596919210e-01,-4.607119997569065761e-01,-1.493346411283339170e-01
7.000000000000000666e-02,-6.379985342974855422e-01,-3.718346119874649941e-02,-4.703406028933821426e-01
7.099999999999999367e-02,-4.503394155935206561e-02,3.764247961242536133e-01,-4.073051782852132874e-01
7.199999999999999456e-02,5.338453449476378010e-01,4.234861895064949699e-01,-3.584312415112839156e-02
7.299999999999999545e-02,6.297432501047421916e-01,1.516676414325226208e-01,3.552379810871328925e-01
7.399999999999999634e-02,2.352626235224180851e-01,-1.963003720954242803e-01,4.432695275574697891e-01
7.499999999999999722e-02,-2.990874722959090404e-01,-3.227287526971432396e-01,1.653473575991607492e-01
7.599999999999999811e-02,-5.248733402640698431e-01,-1.751467886531644924e-01,-1.973657489454007374e-01
7.699999999999999900e-02,-3.027925501529664110e-01,5.878430038228950327e-02,-3.792355452132966098e-01
7.799999999999999989e-02,9.871060885607915725e-02,1.818407522722870762e-01,-2.535656625541283793e-01
7.900000000000000078e-02,3.459646795293346289e-01,1.088253145021985391e-01,4.965563984623760224e-02
8.000000000000000167e-02,2.672538517902938171e-01,-1.365524235603663870e-03,2.694482325636910480e-01
8.100000000000000255e-02,1.555377041318466332e-02,-4.217155328827582733e-02,2.371932728296709814e-01
8.200000000000000344e-02,-1.538419193574737109e-01,2.063177131128133418e-02,4.680393273789841546e-02
8.300000000000000433e-02,-1.333555029746115450e-01,3.340305063136392305e-02,-1.373442258511388681e-01
8.400000000000000522e-02,-2.145442474879705880e-02,-3.674040346422739745e-02,-1.762441897641655597e-01
8.500000000000000611e-02,1.801687925192718698e-02,-1.511670067342898161e-01,-6.661790472169726307e-02
8.599999999999999312e-02,-4.899184655594561455e-02,-1.335349874713888940e-01,4.128492765062503206e-02
8.699999999999999400e-02,-8.481870013040471168e-02,4.565932464037285310e-02,6.348077032739567194e-02
8.799999999999999489e-02,-9.526058528454032712e-03,2.784380619532263457e-01,1.425973153899246469e-02
8.899999999999999578e-02,1.922365396027498619e-01,3.017538529866327646e-01,-1.418289046585028725e-02
8.999999999999999667e-02,2.715032928870970141e-01,3.739821465265771860e-02,2.794001631367119126e-02
9.099999999999999756e-02,9.975981933190979090e-02,-3.324145051580967292e-01,8.414886181569872226e-02
9.199999999999999845e-02,-2.508435055779125733e-01,-4.524326958855238723e-01,4.874877022095225332e-02
9.299999999999999933e-02,-4.518008443055085421e-01,-1.802539027882020806e-01,-7.159186714481895197e-02
9.400000000000000022e-02,-2.804762076218078048e-01,2.853110848513693565e-01,-1.785717345604181105e-01
9.500000000000000111e-02,1.913434920371372416e-01,5.696070429855846218e-01,-1.566511349027770172e-01
9.600000000000000200e-02,5.743390156873747765e-01,3.693127856453565783e-01,3.562205909443088431e-02
9.700000000000000289e-02,5.109723670766403991e-01,-1.652055327912318738e-01,2.454862240059773881e-01
9.800000000000000377e-02,-8.953008209375529214e-03,-5.921515425030873248e-01,2.870355115696079373e-01
9.900000000000000466e-02,-5.830944529946114896e-01,-5.373621070563662228e-01,8.870062752693390340e-02
1.000000000000000056e-01,-7.101386400573814761e-01,-1.930165465225138280e-02,-2.347260133381895431e-01
1.010000000000000064e-01,-2.320337671400986845e-01,5.385254045673145695e-01,-3.977882858999365334e-01
1.019999999999999934e-01,4.766195018979411668e-01,6.611063037150409771e-01,-2.212836972355534393e-01
1.029999999999999943e-01,8.115224532185815187e-01,2.282044798658441898e-01,1.543230236925322851e-01
1.039999999999999952e-01,4.978725269600154935e-01,-3.992725003244225190e-01,4.288452678250738170e-01
1.049999999999999961e-01,-2.605863471873556825e-01,-7.027405174867082938e-01,3.837567646265864219e-01
1.059999999999999970e-01,-8.231106300722765834e-01,-4.112228985715234431e-01,9.521161331104590134e-03
1.069999999999999979e-01,-7.155490264157438052e-01,2.042822166459216660e-01,-3.935857406530875457e-01
1.079999999999999988e-01,-2.387586605304864787e-02,6.395533913813428173e-01,-4.943553313263037152e-01
1.089999999999999997e-01,6.790658334604037227e-01,5.284923069569186227e-01,-1.892221305418320398e-01
1.100000000000000006e-01,8.198759576743928079e-01,-9.141496768678611037e-03,2.684375442985162952e-01
1.110000000000000014e-01,3.000011482410480657e-01,-5.028678197297944408e-01,5.243392057338374102e-01
1.120000000000000023e-01,-4.569567536964980747e-01,-5.598279259103611238e-01,3.490673194042182570e-01
1.130000000000000032e-01,-8.119636670280740987e-01,-1.596707896599738052e-01,-9.700954062517704035e-02
1.140000000000000041e-01,-5.014475275428330603e-01,3.126707021961008803e-01,-4.612640689565604690e-01
1.150000000000000050e-01,1.847733999351719447e-01,4.880605422769434543e-01,-4.433907584723393858e-01
1.160000000000000059e-01,6.618546366066888620e-01,2.526340401870860730e-01,-8.006342504976979302e-02
1.170000000000000068e-01,5.792810825848341283e-01,-1.419153303837986380e-01,3.296054144475671355e-01
1.179999999999999938e-01,4.688133884661824929e-02,-3.713120855920649666e-01,4.621526078654542569e-01
1.189999999999999947e-01,-4.686306522673504005e-01,-2.598016404890444719e-01,2.292147060653323964e-01
1.199999999999999956e-01,-5.380459911450111710e-01,2.240294002568089804e-02,-1.714569913277471103e-01
1.209999999999999964e-01,-1.946373987817477114e-01,2.137554879107972650e-01,-3.973928954331301111e-01
1.219999999999999973e-01,2.323682273417265465e-01,1.849201097400793858e-01,-2.972483816461592432e-01
1.229999999999999982e-01,4.093397931654172983e-01,2.866571491615993450e-02,2.096056261539010895e-02
1.239999999999999991e-01,2.304562802200507687e-01,-6.951975473016848428e-02,2.685760969685357380e-01
1.250000000000000000e-01,-8.117069617426891925e-02,-4.961443456758417997e-02,2.788285503100653151e-01
1.260000000000000009e-01,-2.225779909728193562e-01,2.062293608658255506e-03,7.311544388432453245e-02
1.270000000000000018e-01,-1.460084749792422698e-01,-3.650020677825068123e-03,-1.427749204983645437e-01
1.280000000000000027e-01,-7.786584768842690074e-03,-9.146384059531526001e-02,-2.239639891131976202e-01
1.290000000000000036e-01,5.358857585374984106e-02,-1.232703498639795697e-01,-1.098707587117443568e-01
1.300000000000000044e-01,-1.759340666321128560e-03,-3.791774905245187330e-03,4.923887644351621767e-02
1.310000000000000053e-01,-4.641148191214495428e-02,1.898542373281976170e-01,9.351211230658137974e-02
1.320000000000000062e-01,3.195340505709717838e-02,2.682141525351311451e-01,6.656146779838550964e-02
1.330000000000000071e-01,1.767799831403416011e-01,1.086342927015112036e-01,4.147227299873119249e-03
1.340000000000000080e-01,1.932045167292744114e-01,-2.264854302913091588e-01,-1.823577646705274238e-03
1.350000000000000089e-01,-5.114241105873038908e-03,-4.029577629257438121e-01,3.719333892179909479e-02
1.360000000000000098e-01,-2.946454421838629600e-01,-2.546492692361789212e-01,5.030142348727201923e-02
1.370000000000000107e-01,-3.853904873992902158e-01,1.690048651322990092e-01,-3.124639543832849822e-02
1.380000000000000115e-01,-1.250255814136965460e-01,4.969550344620027316e-01,-1.434109919482823292e-01
1.390000000000000124e-01,3.181904736890765473e-01,4.413340520570290249e-01,-1.366530912125971109e-01
1.400000000000000133e-01,5.603266702446572101e-01,-2.889161403186663035e-02,2.341691079745068099e-03
1.409999999999999865e-01,3.495883963619896284e-01,-5.044404544754836905e-01,1.958501131542412232e-01
1.419999999999999873e-01,-2.180151645435042806e-01,-5.920924921182957323e-01,2.613496409620064131e-01
1.429999999999999882e-01,-6.650948240103193854e-01,-1.640644210380219903e-01,9.013571495983782600e-02
1.439999999999999891e-01,-5.839620856962682849e-01,4.176296372102303867e-01,-1.853991415504517015e-01
1.449999999999999900e-01,9.304899684363003923e-03,6.717681182092285486e-01,-3.646193500966021794e-01
1.459999999999999909e-01,6.399039855712622682e-01,3.622866260159419705e-01,-2.459038088263176824e-01
1.469999999999999918e-01,7.696326939239793719e-01,-2.622120527926908307e-01,9.566854714541220273e-02
1.479999999999999927e-01,2.504710718785302936e-01,-6.715856166204109412e-01,3.985030155465493218e-01
1.489999999999999936e-01,-4.953365362239345315e-01,-5.196746047328589801e-01,3.844413967412244060e-01
1.499999999999999944e-01,-8.593330382461538131e-01,6.557316493718655381e-02,5.947482691382327546e-02
1.509999999999999953e-01,-5.306307494423477822e-01,5.905817715897087039e-01,-3.539290385387279247e-01
1.519999999999999962e-01,2.448579366059934204e-01,6.143483464335049993e-01,-4.868306362813080157e-01
1.529999999999999971e-01,8.231980417881018530e-01,1.327912448963559644e-01,-2.363669284099515766e-01
1.539999999999999980e-01,7.177939361720423461e-01,-4.209581903461411811e-01,2.221447594031121797e-01
1.549999999999999989e-01,2.523889169855235079e-02,-6.159797135536940749e-01,5.208706998290659751e-01
1.559999999999999998e-01,-6.523193477441199262e-01,-2.865679644600949705e-01,3.946415939951083418e-01
1.570000000000000007e-01,-8.043261119277499427e-01,2.390193878430601770e-01,-5.424381990289362659e-02
1.580000000000000016e-01,-2.879922689554600401e-01,5.295793194060453013e-01,-4.354939233143556021e-01
1.590000000000000024e-01,4.135843612067636177e-01,3.701528160021141378e-01,-4.714900886512730649e-01
1.600000000000000033e-01,7.457870404566134814e-01,-6.475690099826587887e-02,-1.369313360022956505e-01
1.610000000000000042e-01,4.692488352341309676e-01,-3.793259705538041260e-01,3.143928004365460493e-01
1.620000000000000051e-01,-1.594713359286387133e-01,-3.384408215042286061e-01,4.836870613523064910e-01
1.630000000000000060e-01,-5.914793367699736626e-01,-6.289806906068803882e-02,2.798374420196105827e-01
1.640000000000000069e-01,-5.142403872026981571e-01,2.130049563893192388e-01,-1.311480676947454904e-01
1.650000000000000078e-01,-4.957277851038314337e-02,2.638707732850273380e-01,-4.207980078994313367e-01
1.660000000000000087e-01,3.807065097522830399e-01,8.782405283079637581e-02,-3.332610515404859086e-01
1.670000000000000095e-01,4.370113739218912108e-01,-6.814023331340354761e-02,-2.618634268781855345e-02
1.680000000000000104e-01,1.568162113823232118e-01,-1.187395490873516257e-01,2.795714203330023628e-01
1.690000000000000113e-01,-1.791877136655196101e-01,-4.800739534812033943e-02,3.341508000493292885e-01
1.700000000000000122e-01,-2.787008010423720483e-01,1.803899811741798212e-02,1.325864831242905273e-01
1.710000000000000131e-01,-1.422436221449842053e-01,-2.323167144175226212e-02,-1.408225927235348396e-01
1.719999999999999862e-01,3.880066082107257869e-02,-7.140537706387561911e-02,-2.468152745936506576e-01
1.729999999999999871e-01,1.056513137603363323e-01,-3.363234579830030879e-02,-1.495466572576920061e-01
1.739999999999999880e-01,2.534464733544129073e-02,1.164554208902874172e-01,2.973472482115573426e-02
1.749999999999999889e-01,-2.042101829327375509e-02,2.223949416146676905e-01,1.337854634720966329e-01
1.759999999999999898e-01,4.658090168650744212e-02,1.411945435225142320e-01,9.702269826922675644e-02
1.769999999999999907e-01,1.422977765333382216e-01,-1.234116013466963341e-01,6.493310206868966802e-03
1.779999999999999916e-01,1.152122177124692559e-01,-3.557916785424055095e-01,-3.744552552976352505e-02
1.789999999999999925e-01,-8.389530023298515105e-02,-3.030381496471179492e-01,-8.365527171418382299e-03
1.799999999999999933e-01,-2.992358329967509389e-01,5.783494972857439187e-02,2.500412286348169949e-02
1.809999999999999942e-01,-2.954351806447966799e-01,4.206016857298024436e-01,-1.203103315777040959e-02
1.819999999999999951e-01,2.053496726610166620e-02,4.656088811683989914e-01,-9.440839406984494198e-02
1.829999999999999960e-01,4.005695525349879382e-01,9.700978357889095127e-02,-1.252900514331016235e-01
1.839999999999999969e-01,4.972331032395306272e-01,-4.035491855753817192e-01,-3.100876731169801420e-02
1.849999999999999978e-01,1.616652279363233469e-01,-5.931134018691681664e-01,1.569870146032214253e-01
1.859999999999999987e-01,-3.748029859658688068e-01,-2.831552631413908339e-01,2.307566610220238568e-01
1.869999999999999996e-01,-6.604448878218595054e-01,2.911328871729932932e-01,1.206941407815391026e-01
1.880000000000000004e-01,-3.974618019411621517e-01,6.515671436965212449e-01,-1.400762314606335823e-01
1.890000000000000013e-01,2.322151473738018612e-01,4.713566895462183437e-01,-3.215244845684441799e-01
1.900000000000000022e-01,7.299312956053773949e-01,-1.088969543616590124e-01,-2.521588924226915718e-01
1.910000000000000031e-01,6.447963387124980850e-01,-6.074777873198458078e-01,5.586561072144442808e-02
1.920000000000000040e-01,4.271496248847417992e-03,-6.196004238441127354e-01,3.605878196918829159e-01
1.930000000000000049e-01,-6.637807150555072866e-01,-9.590616955532166310e-02,3.886024821374672311e-01
1.940000000000000058e-01,-8.034168543565248788e-01,4.974455682883595631e-01,9.552490365974497522e-02
1.950000000000000067e-01,-2.851726485871451389e-01,6.687146776561125883e-01,-3.076002541541566493e-01
1.960000000000000075e-01,4.926309048540633562e-01,2.861658192319740945e-01,-4.810156384368886595e-01
1.970000000000000084e-01,8.708171151700788704e-01,-3.195967127395105134e-01,-2.693412838579086754e-01
1.980000000000000093e-01,5.466747486205231210e-01,-6.340276021288476782e-01,1.786103500735468363e-01
1.990000000000000102e-01,-2.360628523265531631e-01,-4.159823730154488253e-01,4.906900240178214134e-01
2.000000000000000111e-01,-8.018465856625013322e-01,1.280928137972200676e-01,4.226658231965665369e-01
2.010000000000000120e-01,-6.925122107547520001e-01,5.215278929675014608e-01,8.929325122298316115e-04
2.020000000000000129e-01,-4.467688950451875057e-02,4.771977820185192565e-01,-4.088022598193382096e-01
2.030000000000000138e-01,6.121404613560886832e-01,4.689918236983717237e-02,-4.947683376725894866e-01
2.039999999999999869e-01,7.508807179670131671e-01,-3.572342530302377028e-01,-1.789572588924364105e-01
2.049999999999999878e-01,2.799490014097617552e-01,-4.215142085926445459e-01,2.698622830604728851e-01
2.059999999999999887e-01,-3.645485270602806249e-01,-1.554493458193596800e-01,4.974739685379239162e-01
2.069999999999999896e-01,-6.683509521758179694e-01,1.809454869384777564e-01,3.234683025271662959e-01
2.079999999999999905e-01,-4.147020312929253216e-01,3.181396499351200058e-01,-1.077082276612462419e-01
2.089999999999999913e-01,1.230986206429979662e-01,1.655093768646323793e-01,-4.117740161869992699e-01
2.099999999999999922e-01,4.879455485519635372e-01,-6.182935306825389915e-02,-3.831898122062262213e-01
2.109999999999999931e-01,4.273816630334422162e-01,-1.751901198251534786e-01,-5.413194439027871341e-02
2.119999999999999940e-01,2.717239920607777276e-02,-1.082434297218212160e-01,2.840991289534630093e-01
2.129999999999999949e-01,-2.752731708414898892e-01,8.799100459784553116e-03,3.620269060072103806e-01
2.139999999999999958e-01,-3.153883439156431878e-01,2.683692088842039997e-02,1.679500836857101553e-01
2.149999999999999967e-01,-1.137109986126824540e-01,-2.817111676899865941e-02,-1.306338493937462542e-01
2.159999999999999976e-01,1.122057563469252006e-01,-4.136056585050051915e-02,-2.766351702604264995e-01
2.169999999999999984e-01,1.509920127857822814e-01,4.919034039504785460e-02,-1.900616328866665816e-01
2.179999999999999993e-01,4.711356907442578595e-02,1.555693697328725533e-01,2.180676299056522743e-02
2.190000000000000002e-01,-2.287584828219771729e-02,1.504076793653774113e-01,1.585751014897301414e-01
2.200000000000000011e-01,2.633487740003175037e-02,-5.355974714952248250e-02,1.458808165731622919e-01
2.210000000000000020e-01,9.692490521308741447e-02,-2.711591543790436987e-01,2.441098633242490962e-02
2.220000000000000029e-01,5.219861904059189261e-02,-3.041112856480408522e-01,-5.481605812313532916e-02
2.230000000000000038e-01,-1.271401452928003495e-01,-3.481906840756504584e-02,-5.105918564023760597e-02
2.240000000000000047e-01,-2.747935400057975319e-01,3.255603873757247357e-01,-2.167474830129728159e-04
2.250000000000000056e-01,-1.783623442888849775e-01,4.536977211464701121e-01,7.043843298903234781e-03
2.260000000000000064e-01,1.330613305500520926e-01,1.867041381106035458e-01,-4.703208859407675274e-02
2.270000000000000073e-01,4.158864003667980258e-01,-2.725989139722779786e-01,-9.485650275903487194e-02
2.280000000000000082e-01,3.972135668824771648e-01,-5.516996089298525918e-01,-2.372065784342172398e-02
2.290000000000000091e-01,-2.089466342342022331e-02,-3.865081088742547410e-01,1.049545827577912510e-01
2.300000000000000100e-01,-4.840178760058239105e-01,1.545049758096843917e-01,1.992559261484853905e-01
2.310000000000000109e-01,-6.043525507704109456e-01,5.951645433919816597e-01,1.177898341455934500e-01
2.320000000000000118e-01,-1.975353515148535744e-01,5.470376023441522184e-01,-9.926216889519651199e-02
2.330000000000000127e-01,4.204567698846457535e-01,2.967312035459990921e-02,-2.856686649343835871e-01
2.340000000000000135e-01,7.465807609211171370e-01,-5.320176386063748541e-01,-2.437289403104653529e-01
2.349999999999999867e-01,4.564697451381827253e-01,-6.564826672767064553e-01,1.350186341553452803e-02
2.359999999999999876e-01,-2.452306940676010072e-01,-2.452067833697066102e-01,3.099653725006128457e-01
2.369999999999999885e-01,-7.716076883276629106e-01,3.774586983715799704e-01,3.790600109036992293e-01
2.379999999999999893e-01,-6.929900251151140944e-01,6.953097674605839273e-01,1.344215551315161572e-01
2.389999999999999902e-01,-1.008876509261657020e-02,4.139995012629504312e-01,-2.633691243165719453e-01
2.399999999999999911e-01,6.879072216614724455e-01,-1.945763390589451691e-01,-4.672836709835476166e-01
2.409999999999999920e-01,8.362342848071342427e-01,-6.304164540315687626e-01,-3.032668854873951103e-01
2.419999999999999929e-01,3.004236996518211411e-01,-5.258852692120813410e-01,1.213502911524880629e-01
2.429999999999999938e-01,-4.802743915783903583e-01,-9.824738533911806654e-03,4.655502202668721501e-01
2.439999999999999947e-01,-8.549846537820338099e-01,4.814774372041855099e-01,4.295840855062433294e-01
2.449999999999999956e-01,-5.376014781025096889e-01,5.506452238913577268e-01,4.827374878659963092e-02
2.459999999999999964e-01,2.079508919856049853e-01,1.737110163461739465e-01,-3.924817174778661433e-01
2.469999999999999973e-01,7.529184478069205211e-01,-3.028522791228245303e-01,-5.119179467324412869e-01
2.479999999999999982e-01,6.775038635136760856e-01,-4.952070069687382614e-01,-2.371626728655526206e-01
2.489999999999999991e-01,5.422323600409596073e-02,-2.623260500724478583e-01,2.316287479210704103e-01
2.500000000000000000e-01,-5.537754694347061246e-01,1.340760853669515085e-01,5.060653163831243528e-01
2.510000000000000009e-01,-6.742726611724008112e-01,3.647526326068309954e-01,3.656213979115691126e-01
2.520000000000000018e-01,-2.556348367672323652e-01,2.540915595997073617e-01,-4.860056063982635954e-02
2.530000000000000027e-01,3.031463094457497731e-01,-1.442547348239273976e-02,-4.083438331866323656e-01
2.540000000000000036e-01,5.623469096856642535e-01,-2.086459152048356080e-01,-4.306515980712694036e-01
2.550000000000000044e-01,3.445230769611331567e-01,-1.834250015197820549e-01,-1.095600891780416780e-01
2.560000000000000053e-01,-9.971758475891386031e-02,-2.933554227621403693e-02,2.665730295820737950e-01
2.570000000000000062e-01,-3.889127471420166238e-01,6.333912672362043694e-02,4.068740624806420070e-01
2.580000000000000071e-01,-3.105408253010159547e-01,4.380174800489522458e-02,2.147338114646995810e-01
2.590000000000000080e-01,-3.672433144848760017e-02,-1.104331173797884827e-02,-1.069228436671768034e-01
2.600000000000000089e-01,1.961250573304567646e-01,7.219835259502946877e-03,-2.983350609229193373e-01
2.610000000000000098e-01,1.806377552826343436e-01,8.814784288776436605e-02,-2.373512886533596100e-01
2.620000000000000107e-01,4.198104990681394283e-02,1.240056148706472627e-01,-4.804579792369976718e-03
2.630000000000000115e-01,-5.617782495577020030e-02,1.000149719561215997e-02,1.789603047682344628e-01
2.640000000000000124e-01,-7.437396043983687983e-03,-1.960541371489168683e-01,1.937259097475950709e-01
2.650000000000000133e-01,4.940522453211323300e-02,-2.869591511600252942e-01,5.667846463784750877e-02
2.660000000000000142e-01,1.487665261234187401e-02,-1.068420815281381220e-01,-7.091896374031550487e-02
2.670000000000000151e-01,-1.395764174061184526e-01,2.251884603896079362e-01,-8.716707479296127714e-02
2.680000000000000160e-01,-2.186314693555581889e-01,4.133607165629555880e-01,-3.514806857307348903e-02
2.690000000000000169e-01,-8.832322437637209200e-02,2.673324570049083748e-01,1.774741062543817860e-02
2.700000000000000178e-01,2.230052684753771886e-01,-1.601900411568608351e-01,-6.883845713257954850e-03
2.710000000000000187e-01,4.020834479530910333e-01,-4.953500445483973169e-01,-5.823308383368978186e-02
2.720000000000000195e-01,2.683247055125389524e-01,-4.426830712968052306e-01,-3.354134822439584079e-02
2.730000000000000204e-01,-1.693164303292936657e-01,1.698980702654180955e-02,6.898192145830496502e-02
2.740000000000000213e-01,-5.271447328452550929e-01,5.041408218034421074e-01,1.605056463012682344e-01
2.750000000000000222e-01,-4.788518732652881083e-01,5.931189218927810369e-01,1.055332070979380782e-01
2.760000000000000231e-01,9.760655678859990816e-03,1.717316391160010891e-01,-6.523704802706019323e-02
2.770000000000000240e-01,5.493806836236557745e-01,-4.048834233283011286e-01,-2.445681679144205978e-01
2.780000000000000249e-01,6.816687244255426048e-01,-6.751400002752664387e-01,-2.399764036399966993e-01
2.790000000000000258e-01,2.386065859302129444e-01,-3.754783890812566360e-01,-1.468335524383003465e-02
2.800000000000000266e-01,-4.634892353032474821e-01,2.459049122390445097e-01,2.625088050298647335e-01
2.810000000000000275e-01,-8.041422380158319561e-01,6.653549603480716224e-01,3.677363522236118953e-01
2.819999999999999729e-01,-4.932958954626336934e-01,5.353291604819517824e-01,1.617352913861418440e-01
2.829999999999999738e-01,2.417210285170698358e-01,-4.284972635070638525e-02,-2.008053786120168882e-01
2.839999999999999747e-01,8.043412766201756270e-01,-5.803227389243793555e-01,-4.386711981112569325e-01
2.849999999999999756e-01,7.149645757833861248e-01,-6.163743564162474931e-01,-3.251723167895915201e-01
2.859999999999999765e-01,3.258195785432210778e-02,-1.443694486436195301e-01,5.674986239466689453e-02
2.869999999999999774e-01,-6.784955635966082310e-01,4.130866170974022977e-01,4.331406269261095510e-01
2.879999999999999782e-01,-8.344641415484191915e-01,6.084992249835385891e-01,4.520053908402172915e-01
2.889999999999999791e-01,-3.043860874945100159e-01,3.070354045826455547e-01,1.024472915820049401e-01
2.899999999999999800e-01,4.557059958322147164e-01,-2.232182150149321365e-01,-3.480712219731541546e-01
2.909999999999999809e-01,8.268906082028121274e-01,-5.085568998606639912e-01,-5.229225988882573173e-01
2.919999999999999818e-01,5.213478361982631926e-01,-3.676883254272016455e-01,-2.736425836578106896e-01
2.929999999999999827e-01,-1.837588814333912801e-01,4.917298062147934523e-02,1.815100912547707723e-01
2.939999999999999836e-01,-6.862059483903175661e-01,3.659087031508029275e-01,4.907350040565625071e-01
2.949999999999999845e-01,-6.224364675348396103e-01,3.521287235129538784e-01,4.049422559980410119e-01
2.959999999999999853e-01,-6.481376585373087307e-02,5.243482280026121045e-02,-1.004760215868328622e-02
2.969999999999999862e-01,4.721109243584138970e-01,-2.130787222145195114e-01,-3.952512754802778860e-01
2.979999999999999871e-01,5.888641906083564859e-01,-2.544096628608867317e-01,-4.576622090567031842e-01
2.989999999999999880e-01,2.384061661319404890e-01,-8.981314121839800713e-02,-1.695064629337413586e-01
2.999999999999999889e-01,-2.521359351401343263e-01,7.776841235631218319e-02,2.373793976443107634e-01
3.009999999999999898e-01,-4.579839735546304413e-01,9.878001213198907282e-02,4.186701163443957152e-01
3.019999999999999907e-01,-2.673004448300755898e-01,4.028588505637296924e-02,2.666308182464054433e-01
3.029999999999999916e-01,7.720044313152844839e-02,-2.324759426738780277e-02,-8.307568500028375547e-02
3.039999999999999925e-01,2.657911470108536012e-01,3.042562216987478030e-02,-3.206765671902357950e-01
3.049999999999999933e-01,2.023200433568177192e-01,7.933723513808219052e-02,-2.850019994106884891e-01
3.059999999999999942e-01,8.760946785419066948e-03,3.760813615457669207e-02,-4.487995149092209590e-02
3.069999999999999951e-01,-8.534827417437998442e-02,-1.222124923913596034e-01,1.872973606576603112e-01
3.079999999999999960e-01,-4.145001525334522652e-02,-2.258186173606653580e-01,2.322414626928728243e-01
3.089999999999999969e-01,1.056807727434524308e-02,-1.454740169226810820e-01,8.230589009682649781e-02
3.099999999999999978e-01,-2.012012591238071524e-02,1.277178963301589532e-01,-7.072971570603361902e-02
3.109999999999999987e-01,-1.163244147400955691e-01,3.549050690620954573e-01,-1.280755329304089918e-01
3.119999999999999996e-01,-1.478734532653067646e-01,3.027956428705900205e-01,-7.539294787470794679e-02
3.130000000000000004e-01,1.604107401735466957e-03,-5.153186301221029247e-02,7.742559350491116585e-04
3.140000000000000013e-01,2.492250397699765918e-01,-4.150592357539713007e-01,2.937243497028630204e-02
3.150000000000000022e-01,3.421866922236143638e-01,-4.668972992953917545e-01,-8.735781518975161211e-03
3.160000000000000031e-01,1.224979155595618679e-01,-1.134672928293269101e-01,-2.610492459696685252e-02
3.170000000000000040e-01,-2.810097783112163738e-01,3.943859810077783856e-01,3.822373061279237677e-02
3.180000000000000049e-01,-5.121758941191705272e-01,5.973087844502270594e-01,1.154608629330900749e-01
3.190000000000000058e-01,-3.309999445482745828e-01,2.975080468898527175e-01,1.053351515709987501e-01
3.200000000000000067e-01,1.873399051345038813e-01,-2.779947867070233225e-01,-3.319959008278194901e-02
3.210000000000000075e-01,6.212096476972733816e-01,-6.550420521272591889e-01,-2.042703126261864732e-01
3.220000000000000084e-01,5.602325714165726778e-01,-4.861734044203854799e-01,-2.188239310389577530e-01
3.230000000000000093e-01,1.329594556803786153e-03,9.635867826809546566e-02,-4.542640570274883438e-02
3.240000000000000102e-01,-6.050335732196195915e-01,6.112482130885816822e-01,2.159348235497688395e-01
3.250000000000000111e-01,-7.478413058146966552e-01,6.163713840334296146e-01,3.400822955900076883e-01
3.260000000000000120e-01,-2.610743922560663788e-01,1.023114449737658471e-01,1.863404200821748014e-01
3.270000000000000129e-01,4.837997935906699909e-01,-4.993603216818442991e-01,-1.620912251222439981e-01
3.280000000000000138e-01,8.442157495539752698e-01,-6.734162945598931582e-01,-4.016153573917777830e-01
3.290000000000000147e-01,5.320081763824229260e-01,-2.987891628342924655e-01,-3.362842682108754810e-01
3.300000000000000155e-01,-2.356089929086956913e-01,3.076441740027770488e-01,3.062552180738888075e-02
3.310000000000000164e-01,-8.041422748723822123e-01,6.345128369787662592e-01,3.902557233040988005e-01
3.320000000000000173e-01,-7.333003737708534420e-01,4.236825236896140101e-01,4.553928826649993322e-01
3.330000000000000182e-01,-5.864471758287928549e-02,-1.094053819790383603e-01,1.583347024112992107e-01
3.340000000000000191e-01,6.591201571776930113e-01,-5.205766436247388773e-01,-3.018028268614864063e-01
3.350000000000000200e-01,8.187376151913243749e-01,-4.627298286704128460e-01,-5.188262921247895898e-01
3.360000000000000209e-01,3.097506093572921504e-01,-6.388006213473823580e-02,-3.232891022047837404e-01
3.370000000000000218e-01,-4.257673605674499040e-01,3.578839271274223965e-01,1.433761095185031309e-01
3.380000000000000226e-01,-7.693167717135989125e-01,4.188687454727021975e-01,4.815665187142608716e-01
3.390000000000000235e-01,-4.842501802232512254e-01,1.547634104054229631e-01,4.439423939997829138e-01
3.400000000000000244e-01,1.522956398342997508e-01,-1.819207227761444889e-01,4.602699257883719614e-02
3.410000000000000253e-01,6.214637707713051018e-01,-3.102180097430196626e-01,-3.742470887348979258e-01
3.420000000000000262e-01,5.556219828369406422e-01,-1.667411699673182757e-01,-4.785954037076309286e-01
3.430000000000000271e-01,6.668812428224606126e-02,5.294467674729726181e-02,-2.050639321872435028e-01
3.439999999999999725e-01,-4.092436466205735535e-01,1.591581070056956315e-01,2.150576833953901923e-01
3.449999999999999734e-01,-4.808863878421998361e-01,9.857243968852751059e-02,4.410160729826667070e-01
3.459999999999999742e-01,-1.856710717758051632e-01,-1.540869665215623650e-02,3.172553690381887948e-01
3.469999999999999751e-01,1.942762522805200065e-01,-3.418716458516134898e-02,-5.097388476289167747e-02
3.479999999999999760e-01,3.350091207684317007e-01,3.089296824592151908e-02,-3.336753239289791395e-01
3.489999999999999769e-01,1.799704175162784026e-01,4.525821500829484145e-02,-3.405814045993536543e-01
3.499999999999999778e-01,-5.263952104032559864e-02,-5.298274969854285810e-02,-7.259143357130226626e-02
3.509999999999999787e-01,-1.463986982839746154e-01,-1.700254202426618177e-01,2.072286053124672567e-01
3.519999999999999796e-01,-9.241121595877314909e-02,-1.534226312767796863e-01,2.667251901092955735e-01
3.529999999999999805e-01,1.773620102202503115e-02,4.901958174921122041e-02,1.392547256911975395e-01
3.539999999999999813e-01,-4.001078693420823942e-04,2.770589699121852600e-01,-7.548551044118952114e-02
3.549999999999999822e-01,-8.516238650784703490e-02,3.062546169151549313e-01,-1.612802908667612112e-01
3.559999999999999831e-01,-8.442311147477232769e-02,5.515083512170324692e-02,-1.044045588999266971e-01
3.569999999999999840e-01,7.507676274882792156e-02,-3.201567137704982580e-01,3.524162245759624845e-03
3.579999999999999849e-01,2.500487078861654000e-01,-4.618637443095766626e-01,5.820818673479291605e-02
3.589999999999999858e-01,2.510284473360076540e-01,-1.975642539117573315e-01,2.224489181845469912e-02
3.599999999999999867e-01,-1.541387788007576691e-02,2.729172681633386111e-01,-1.066598416071393683e-02
3.609999999999999876e-01,-3.521731664823665175e-01,5.588202756652094205e-01,7.626377080569263223e-03
3.619999999999999885e-01,-4.522245463364273910e-01,3.969404497400961240e-01,6.848931592908150123e-02
3.629999999999999893e-01,-1.564998412410262829e-01,-1.404914785858270287e-01,7.567700670692878440e-02
3.639999999999999902e-01,3.431255473837532821e-01,-5.920663337857705599e-01,-1.955782973395860797e-02
3.649999999999999911e-01,6.143747597744008138e-01,-5.619410499082683197e-01,-1.492955743483624087e-01
3.659999999999999920e-01,3.840515906213619601e-01,-4.192055640348535395e-02,-2.057683872163792727e-01
3.669999999999999929e-01,-2.200157922408508548e-01,5.206384986548118210e-01,-6.089470416666580010e-02
3.679999999999999938e-01,-7.014304730530571685e-01,6.642605786782880273e-01,1.739450024511116355e-01
3.689999999999999947e-01,-6.173011855706738160e-01,2.536572810861806859e-01,3.127697923963675963e-01
3.699999999999999956e-01,-8.946850251359298942e-03,-3.810825522791376763e-01,1.958551686832586403e-01
3.709999999999999964e-01,6.441438319045370564e-01,-6.908328112255055498e-01,-1.181961734395211433e-01
3.719999999999999973e-01,8.002327923897930573e-01,-4.267747308978332432e-01,-3.675301445866840377e-01
3.729999999999999982e-01,2.921450316468869324e-01,1.757623625625052699e-01,-3.372015015304425933e-01
3.739999999999999991e-01,-4.756331020498281714e-01,6.295300800621493886e-01,-2.011054290903696237e-02
3.750000000000000000e-01,-8.618683631631605113e-01,5.343840625445165360e-01,3.511893522488169217e-01
3.760000000000000009e-01,-5.439570680449220541e-01,1.526988093839297400e-02,4.579699854958829697e-01
3.770000000000000018e-01,2.250805871368881661e-01,-4.789402609703979907e-01,1.840686749415431922e-01
3.780000000000000027e-01,8.072497156970374066e-01,-5.478838255256682777e-01,-2.482514905316878240e-01
3.790000000000000036e-01,7.262759106930160025e-01,-1.745228646305173048e-01,-5.092322794604703384e-01
3.800000000000000044e-01,6.113687477404585596e-02,2.996301433462656982e-01,-3.592104702793389448e-01
3.810000000000000053e-01,-6.266171205094526186e-01,4.842749870517439881e-01,8.476634149626652293e-02
3.820000000000000062e-01,-7.719002828186674048e-01,2.628059401909351722e-01,4.619981323144258800e-01
3.830000000000000071e-01,-3.017544731182317808e-01,-1.244548214468038649e-01,4.660021500735263000e-01
3.840000000000000080e-01,3.867604580756522914e-01,-3.454040370895299916e-01,9.266082503719030861e-02
3.850000000000000089e-01,6.986602754733827192e-01,-2.638433845296804803e-01,-3.409309347796103951e-01
3.860000000000000098e-01,4.470487231537392803e-01,2.877046149414695127e-05,-5.056440069155138106e-01
3.870000000000000107e-01,-1.278110378548349413e-01,1.916579987543696462e-01,-2.625394862475053381e-01
3.880000000000000115e-01,-5.226918439722032517e-01,1.741651270796370221e-01,1.833790101007045370e-01
3.890000000000000124e-01,-4.701261284524752004e-01,2.128310725405563666e-02,4.542602852252238255e-01
3.900000000000000133e-01,-5.533255001317732846e-02,-5.834339458903058107e-02,3.661215806288417585e-01
3.910000000000000142e-01,3.086404401089326011e-01,-4.008082700644202689e-02,-1.272868474420235131e-02
3.920000000000000151e-01,3.598330004322299325e-01,2.165997041199953579e-02,-3.273260323601548949e-01
3.930000000000000160e-01,1.454308813026004843e-01,-1.078927159776708368e-02,-3.775948696308519259e-01
3.940000000000000169e-01,-1.263825467972575223e-01,-9.731846352360110086e-02,-1.209420762458197074e-01
3.950000000000000178e-01,-1.968116237853482775e-01,-1.354391445132602512e-01,1.862060535081391799e-01
3.960000000000000187e-01,-9.600193649163825393e-02,-1.430034358976853964e-02,3.072099009826100291e-01
3.970000000000000195e-01,2.643020393488473840e-02,1.963204776181671218e-01,1.818972167162149212e-01
3.980000000000000204e-01,3.290553893592174789e-02,2.819096477390681255e-01,-6.293486619523239178e-02
3.990000000000000213e-01,-3.538297331600884221e-02,1.245085828025010166e-01,-1.922747537021678166e-01
4.000000000000000222e-01,-3.354612848329231040e-02,-2.213229301172232322e-01,-1.494755092393466323e-01
4.010000000000000231e-01,9.188773185039902924e-02,-4.211274776872733216e-01,-6.629630026949592803e-03
4.020000000000000240e-01,2.129047878280755368e-01,-2.736758990127371449e-01,7.930774424857013616e-02
4.030000000000000249e-01,1.551657651811915173e-01,1.500027091024362380e-01,7.219048652677477473e-02
4.040000000000000258e-01,-9.459932840174486990e-02,5.016669316154778180e-01,1.097867988103349950e-02
4.050000000000000266e-01,-3.754303241295772753e-01,4.494075253241885948e-01,-1.422507965182836197e-02
4.060000000000000275e-01,-3.589799970386276518e-01,-1.898201591919128047e-03,2.989939460049847314e-02
4.069999999999999729e-01,1.413400949473296760e-02,-5.000971268516022361e-01,6.280918930977735792e-02
4.079999999999999738e-01,4.408253558424238827e-01,-5.955745325064009110e-01,1.931099706491672813e-02
4.089999999999999747e-01,5.706319040539395981e-01,-1.915593016255902892e-01,-1.154027572066379792e-01
4.099999999999999756e-01,1.967762675850641685e-01,4.074946970186187345e-01,-1.680457789819684022e-01
4.109999999999999765e-01,-3.910098255206393980e-01,6.805756850314489403e-01,-8.037614085288587173e-02
4.119999999999999774e-01,-7.158685875359210860e-01,3.794062041655559270e-01,1.279609646558053371e-01
4.129999999999999782e-01,-4.446314909461058229e-01,-2.414603525923050831e-01,2.718756890555046324e-01
4.139999999999999791e-01,2.211050279044202149e-01,-6.770842189670757127e-01,2.031153922036953718e-01
4.149999999999999800e-01,7.496189296210881148e-01,-5.411464248054256299e-01,-7.201734133255004167e-02
4.159999999999999809e-01,6.785306329612097453e-01,2.960279564777344372e-02,-3.284008113966219167e-01
4.169999999999999818e-01,1.900162473117301964e-02,5.642395867704643742e-01,-3.417481256328179229e-01
4.179999999999999827e-01,-6.781156442198061907e-01,6.215842580714865395e-01,-6.308138568374913047e-02
4.189999999999999836e-01,-8.329755600263789583e-01,1.555293905820552269e-01,2.975688509556019268e-01
4.199999999999999845e-01,-3.102543062273563357e-01,-3.998815778169449997e-01,4.337858983230500343e-01
4.209999999999999853e-01,4.624045361059058723e-01,-6.066633999792020449e-01,2.242409495486225868e-01
4.219999999999999862e-01,8.564561756598011444e-01,-3.148199579147656912e-01,-2.006676408088382824e-01
4.229999999999999871e-01,5.556811702313981804e-01,2.159649845702452664e-01,-4.808750530249587540e-01
4.239999999999999880e-01,-1.987876989778097903e-01,5.246075396468261598e-01,-3.770672530958014690e-01
4.249999999999999889e-01,-7.719518491077823619e-01,3.699113503187209662e-01,3.287812071426808591e-02
4.259999999999999898e-01,-6.908417866822416098e-01,-4.495871921686249439e-02,4.432515670224395632e-01
4.269999999999999907e-01,-7.151766442156498593e-02,-3.699563569461823964e-01,4.870840868765154985e-01
4.279999999999999916e-01,5.672214176252524664e-01,-3.432046469604747574e-01,1.485785110879305759e-01
4.289999999999999925e-01,7.175348868269370017e-01,-6.132899161626933354e-02,-3.057534784033242858e-01
4.299999999999999933e-01,2.877882520180466419e-01,2.095801618178883274e-01,-5.152733567741537568e-01
4.309999999999999942e-01,-3.273223768907593811e-01,2.356676619290284935e-01,-3.104216142510574095e-01
4.319999999999999951e-01,-6.076800451210337961e-01,9.776985343433899911e-02,1.309916778495588963e-01
4.329999999999999960e-01,-3.817173091659221695e-01,-7.875791877913707051e-02,4.569860159546891842e-01
4.339999999999999969e-01,8.934845629159134106e-02,-1.058381630316604649e-01,4.024645624835836988e-01
4.349999999999999978e-01,4.305466082886348911e-01,-3.142803880603876887e-02,3.768758376843358432e-02
4.359999999999999987e-01,3.627753985189042796e-01,2.034052032786072203e-02,-3.294750362878658967e-01
4.369999999999999996e-01,4.763026369748765004e-02,-2.368906302118477247e-02,-4.042939436403378828e-01
4.380000000000000004e-01,-2.273716055714519735e-01,-8.446167823890762816e-02,-1.748021547869566816e-01
4.390000000000000013e-01,-2.401595232584753381e-01,-5.678671259854820713e-02,1.700148336497662727e-01
4.400000000000000022e-01,-7.449449945229479064e-02,1.076343554601237734e-01,3.383929269494229675e-01
4.410000000000000031e-01,7.478575284483619801e-02,2.366851511067382396e-01,2.221958545624847514e-01
4.420000000000000040e-01,6.585503847888657392e-02,1.534977577212955913e-01,-3.447274918687216749e-02
4.430000000000000049e-01,-5.979835136716665951e-03,-1.301963681619104640e-01,-2.258983420103346795e-01
4.440000000000000058e-01,-1.225817700532541620e-03,-3.645669964070657465e-01,-2.006621416188153484e-01
4.450000000000000067e-01,8.445049735496021337e-02,-3.091671589503153239e-01,-3.649016521631076593e-02
4.460000000000000075e-01,1.664783297575251064e-01,4.088833015515860175e-02,1.011035299085260158e-01
4.470000000000000084e-01,7.567431583532094330e-02,4.157013501433076130e-01,1.233411275481308828e-01
4.480000000000000093e-01,-1.647479343276090358e-01,4.700055071412740926e-01,4.384108631860278438e-02
4.490000000000000102e-01,-3.528089238137561146e-01,1.248586941591214583e-01,-2.011037754775400407e-02
4.500000000000000111e-01,-2.412410361519550517e-01,-3.877522373249943644e-01,-1.022324859873265275e-02
4.510000000000000120e-01,1.430680326252694312e-01,-5.881741370829862703e-01,2.444899257874729587e-02
4.520000000000000129e-01,4.904117760316122343e-01,-2.957290930004295992e-01,2.064295809770465631e-02
4.530000000000000138e-01,4.498271366471968125e-01,2.700721565941490709e-01,-6.911137940826976578e-02
4.540000000000000147e-01,5.779432696316043165e-03,6.518112408153847737e-01,-1.242246303984533284e-01
4.550000000000000155e-01,-5.192723967972554533e-01,4.873311152791704459e-01,-8.106232968554455409e-02
4.560000000000000164e-01,-6.562593916485941481e-01,-9.336147200052581641e-02,8.627714616227979971e-02
4.570000000000000173e-01,-2.331511549279434992e-01,-6.108674744114485078e-01,2.267287733681061790e-01
4.580000000000000182e-01,4.318937899371534384e-01,-6.280526916478024191e-01,1.956843087015992799e-01
4.590000000000000191e-01,7.801111127619210217e-01,-1.238958774977097776e-01,-3.209658592244180736e-02
4.600000000000000200e-01,4.955812146017809505e-01,4.831180450784964830e-01,-2.861831787155460494e-01
4.610000000000000209e-01,-2.208081083395956046e-01,6.695461289659647708e-01,-3.237330345669146570e-01
4.620000000000000218e-01,-7.899549727708553570e-01,3.098827491078093299e-01,-8.901238421967332115e-02
4.630000000000000226e-01,-7.098273634019300893e-01,-2.986909709414932168e-01,2.394059230264654614e-01
4.640000000000000235e-01,-4.810218940114133895e-02,-6.230312030869563644e-01,4.262053476779626426e-01
4.650000000000000244e-01,6.609231677087118451e-01,-4.418848453776323404e-01,2.683068117853862344e-01
4.660000000000000253e-01,8.439212170938027446e-01,9.762354997502481480e-02,-1.544306784190327131e-01
4.670000000000000262e-01,3.279962136407325035e-01,5.053432139062140616e-01,-4.506186506897630895e-01
4.680000000000000271e-01,-4.527412600769588069e-01,4.777826676636967584e-01,-4.022869540126730592e-01
4.689999999999999725e-01,-8.490410277417295148e-01,6.195707815471049318e-02,-1.802434850358281687e-02
4.699999999999999734e-01,-5.543781170458045304e-01,-3.406213101087181006e-01,3.940901673981443420e-01
4.709999999999999742e-01,1.726109452422425472e-01,-4.185718200342033457e-01,4.975832749148548229e-01
4.719999999999999751e-01,7.192502101046438501e-01,-1.641769003974917207e-01,1.965515701552080219e-01
4.729999999999999760e-01,6.539187938742409001e-01,1.705907696675975083e-01,-2.683302973833807670e-01
4.739999999999999769e-01,7.501756055436147042e-02,3.079829516236449183e-01,-5.128727509713238986e-01
4.749999999999999778e-01,-5.027818622631734513e-01,1.737939954171394130e-01,-3.528122544296314889e-01
4.759999999999999787e-01,-6.356306920182421827e-01,-5.849851018964599692e-02,9.017646675030679959e-02
4.769999999999999796e-01,-2.622447205553378180e-01,-1.547238104919322621e-01,4.482180901674139850e-01
4.779999999999999805e-01,2.633233321550550454e-01,-9.259449114182861929e-02,4.481108558937287878e-01
4.789999999999999813e-01,5.001520848795663055e-01,3.178977495483187397e-04,8.308593138559486335e-02
4.799999999999999822e-01,3.178942259276221205e-01,2.603066503386083572e-02,-3.080405634384154601e-01
4.809999999999999831e-01,-6.131455711312339824e-02,-3.036231518667437818e-02,-4.424765776498546521e-01
4.819999999999999840e-01,-3.205694518994690601e-01,-5.509363589895008295e-02,-2.213569610872752891e-01
4.829999999999999849e-01,-2.569427885242047127e-01,5.103133972919821071e-02,1.538202829474284994e-01
4.839999999999999858e-01,-2.998161473707891891e-02,1.660298778611643544e-01,3.626559836427780681e-01
4.849999999999999867e-01,1.248837483975364787e-01,1.620330680308818827e-01,2.670121983914968133e-01
4.859999999999999876e-01,1.041843252472268583e-01,-3.968277743116297579e-02,-5.007920435121510777e-03
4.869999999999999885e-01,1.431840837364774938e-02,-2.812929343492651668e-01,-2.317193256116996392e-01
4.879999999999999893e-01,-9.669261197325329862e-03,-3.221770474757115754e-01,-2.389703237157797533e-01
4.889999999999999902e-01,6.059382348345054847e-02,-5.469594105043565357e-02,-7.035084296842816776e-02
4.899999999999999911e-01,1.064206215915230319e-01,3.086489116796212739e-01,1.149590754410664273e-01
4.909999999999999920e-01,7.061158733734829510e-03,4.739716592750641833e-01,1.600636253927802954e-01
4.919999999999999929e-01,-2.041034911577328526e-01,2.152293896761066361e-01,6.657662107592353384e-02
4.929999999999999938e-01,-2.955583202891653438e-01,-2.720617724299013718e-01,-2.565886681649579698e-02
4.939999999999999947e-01,-1.092273922101731493e-01,-5.727803059853164847e-01,-4.897611908683493359e-02
4.949999999999999956e-01,2.420234005446320891e-01,-4.068992980345344512e-01,-1.358040999983881753e-02
4.959999999999999964e-01,4.787684284379954969e-01,1.276232758115131705e-01,5.220483108587590897e-03
4.969999999999999973e-01,3.025340136042139472e-01,5.762929734492238110e-01,-3.061754016536126152e-02
4.979999999999999982e-01,-1.647164780342487700e-01,5.695251573919778432e-01,-9.520961844465138102e-02
4.989999999999999991e-01,-5.830447407178079855e-01,6.410720528865478107e-02,-7.121654024200967104e-02
5.000000000000000000e-01,-5.388546345876515931e-01,-5.129021137791510698e-01,6.335739939006343469e-02
5.010000000000000009e-01,-8.542475002982302668e-03,-6.596572764942804090e-01,1.828893523210080585e-01
5.020000000000000018e-01,5.839145534477790944e-01,-2.587356599986356809e-01,1.826575024458901575e-01
5.030000000000000027e-01,7.303322134921936826e-01,3.638364582975585626e-01,-3.615859871918127022e-03
5.040000000000000036e-01,2.624552086297920472e-01,6.852687144621102400e-01,-2.369637686445769387e-01
5.050000000000000044e-01,-4.501651697619375447e-01,4.328447462467052698e-01,-2.993851719091682462e-01
5.060000000000000053e-01,-8.333503404358494349e-01,-1.551569822530208254e-01,-1.156353131817865199e-01
5.070000000000000062e-01,-5.286836642025899424e-01,-6.137278124462427487e-01,2.015700855730619134e-01
5.080000000000000071e-01,2.246477883456193814e-01,-5.360304581775876542e-01,3.865939290306684151e-01
5.090000000000000080e-01,8.159567418954151163e-01,-3.438773236384273790e-02,2.695263238270234063e-01
5.100000000000000089e-01,7.350896606819530277e-01,4.631196086503903686e-01,-1.001715309575368085e-01
5.110000000000000098e-01,6.763462366697974015e-02,5.583345419822225431e-01,-4.259847957127774754e-01
5.120000000000000107e-01,-6.591981789971644856e-01,1.838513626765152509e-01,-4.065861122227442670e-01
5.130000000000000115e-01,-8.375987290820030573e-01,-2.877711548974581923e-01,-6.907026399682719697e-02
5.140000000000000124e-01,-3.330587594802955076e-01,-4.796884862382613246e-01,3.575886490867685730e-01
5.150000000000000133e-01,4.285822400709587976e-01,-2.560731203062266981e-01,5.064689786792789805e-01
5.160000000000000142e-01,7.955793626277206654e-01,1.233884607213962120e-01,2.395833450861755420e-01
5.170000000000000151e-01,5.157656537727515200e-01,3.369441938721695062e-01,-2.242244437331158691e-01
5.180000000000000160e-01,-1.511416844823541827e-01,2.509758148344168327e-01,-5.058785945353048152e-01
5.190000000000000169e-01,-6.453152187446951071e-01,-1.088766587107480727e-02,-3.829156939091268863e-01
5.200000000000000178e-01,-5.879825890255254706e-01,-1.817427860043296928e-01,3.204098487948713742e-02
5.210000000000000187e-01,-7.619445553180492769e-02,-1.661177383445408273e-01,4.261775532754839002e-01
5.220000000000000195e-01,4.247910948074107296e-01,-2.614394130366104463e-02,4.662698286610309495e-01
5.230000000000000204e-01,5.329099197143883915e-01,5.804366066437159632e-02,1.331092821350979005e-01
5.240000000000000213e-01,2.165506766600315269e-01,3.062880394982385110e-02,-2.937412056336645705e-01
5.250000000000000222e-01,-2.077796254180358515e-01,-2.319953420979274303e-02,-4.683687365434626715e-01
5.260000000000000231e-01,-3.755734912622813448e-01,2.055973509605036990e-03,-2.634905214876008817e-01
5.270000000000000240e-01,-2.348752200501305620e-01,1.024640356090019411e-01,1.216353488612769707e-01
5.280000000000000249e-01,5.078955235715932465e-02,1.490712459448571281e-01,3.788363786235729447e-01
5.290000000000000258e-01,1.966421079413668282e-01,2.303663332881515646e-02,3.116256574945481805e-01
5.300000000000000266e-01,1.413634253391295725e-01,-1.919677674053401617e-01,2.121034474905549375e-02
5.310000000000000275e-01,4.958780988574768359e-03,-2.940900042629883138e-01,-2.533266172384806558e-01
5.320000000000000284e-01,-3.779532217226987817e-02,-1.271912695301132823e-01,-2.818009156930195158e-01
5.330000000000000293e-01,3.454322696498693390e-02,2.197073207708608589e-01,-1.111548564409445272e-01
5.340000000000000302e-01,5.351938815568892116e-02,4.356477096990352682e-01,1.178077679820920959e-01
5.350000000000000311e-01,-3.272030476005242244e-02,2.884200256709638088e-01,1.926891138677016002e-01
5.360000000000000320e-01,-1.950295326927239392e-01,-1.441743152364738378e-01,1.093286858950286711e-01
5.370000000000000329e-01,-2.131927085207981909e-01,-4.987795659671391268e-01,-2.093904500810598798e-02
5.380000000000000338e-01,-3.034433743503835764e-03,-4.639565987626989574e-01,-9.333782268034156171e-02
5.390000000000000346e-01,3.078440602622372624e-01,-7.085308203683881624e-03,-5.149392516773682038e-02
5.400000000000000355e-01,4.205909515376771157e-01,4.997271249416276317e-01,2.382377742617276459e-03
5.410000000000000364e-01,1.479867893261880563e-01,6.074818576108846901e-01,2.212482023256110136e-03
5.420000000000000373e-01,-3.164617882479266453e-01,2.014751307678339376e-01,-5.409274842443237419e-02
5.430000000000000382e-01,-5.769334438325692815e-01,-3.936183846190933200e-01,-5.058095122820983891e-02
5.440000000000000391e-01,-3.729304271086960609e-01,-6.741336920785199194e-01,2.202872647695001615e-02
5.450000000000000400e-01,2.015743196781196456e-01,-3.969971714051179212e-01,1.429931259007671540e-01
5.460000000000000409e-01,6.701620241498987829e-01,2.199640262925926515e-01,1.643246713377026491e-01
5.470000000000000417e-01,6.083016690398747039e-01,6.677127172543569911e-01,2.749992478350020420e-02
5.480000000000000426e-01,3.317737185711387704e-02,5.490009027349045390e-01,-1.982318895318905816e-01
5.490000000000000435e-01,-6.177195923182905446e-01,-1.878684064317332966e-02,-2.869611803612379108e-01
5.500000000000000444e-01,-7.898211004847240924e-01,-5.653878247450726535e-01,-1.335709341193202226e-01
5.510000000000000453e-01,-2.992207536155799263e-01,-6.243898266425024213e-01,1.518796094988038303e-01
5.520000000000000462e-01,4.652860354134433218e-01,-1.792983374961753251e-01,3.679285187788739475e-01
5.530000000000000471e-01,8.545655087615297019e-01,3.972970601305340077e-01,2.768463224457428651e-01
5.540000000000000480e-01,5.565271175797672498e-01,6.040493789554879367e-01,-4.084964857509269104e-02
5.550000000000000488e-01,-2.048823810593805306e-01,3.313333351325109533e-01,-3.847092239767136990e-01
5.560000000000000497e-01,-8.049484804653534997e-01,-2.028959868020691337e-01,-4.157853444919557551e-01
5.570000000000000506e-01,-7.289292214654956581e-01,-5.045850289162027158e-01,-1.154028628789500743e-01
5.580000000000000515e-01,-7.595787281652761902e-02,-3.747229211196462240e-01,3.154158442126226425e-01
5.590000000000000524e-01,6.306122653061568828e-01,2.854328421009270922e-02,4.978062119021435250e-01
5.600000000000000533e-01,7.993797098859739547e-01,3.528429942430302835e-01,2.798036944854407904e-01
5.610000000000000542e-01,3.225418544486732264e-01,3.450463925469093862e-01,-1.666800344741986295e-01
5.620000000000000551e-01,-3.790275883351213460e-01,7.393298283372060076e-02,-4.888777309272702709e-01
5.629999999999999449e-01,-7.259310776522067687e-01,-1.842327041415335320e-01,-4.281195458935649345e-01
5.639999999999999458e-01,-4.773201673886721119e-01,-2.380391368861747847e-01,-8.196350402013037259e-03
5.649999999999999467e-01,1.214228420046828821e-01,-9.522011188763730705e-02,4.134787980366890214e-01
5.659999999999999476e-01,5.573821940738787895e-01,7.439352892487337277e-02,5.036937546569650870e-01
5.669999999999999485e-01,5.112071996262183005e-01,1.037259819265912708e-01,1.811259265018331510e-01
5.679999999999999494e-01,6.578278823114221130e-02,1.590441013899821995e-02,-2.573241609041580502e-01
5.689999999999999503e-01,-3.494162686456598332e-01,-1.520833312254375215e-02,-4.690828181064445879e-01
5.699999999999999512e-01,-4.293549498912127005e-01,3.148797542055374599e-02,-3.146835605788264045e-01
5.709999999999999520e-01,-1.652069594850956724e-01,1.011117709331846998e-01,8.096839089927124200e-02
5.719999999999999529e-01,1.553475146085988023e-01,5.012793417488970588e-02,3.781714700170543120e-01
5.729999999999999538e-01,2.504294222963163175e-01,-1.114403314328761413e-01,3.611269619280646492e-01
5.739999999999999547e-01,1.441538145688924244e-01,-2.431593203609200560e-01,6.398991690404445820e-02
5.749999999999999556e-01,-3.615188068286966788e-02,-1.617754565478513873e-01,-2.456874178827067878e-01
5.759999999999999565e-01,-7.870992530365983342e-02,1.073874413799298516e-01,-3.335089676511808210e-01
5.769999999999999574e-01,-1.653892096103825107e-02,3.574812426906616714e-01,-1.560141661009508407e-01
5.779999999999999583e-01,3.016097255100825408e-02,3.218583978353291020e-01,1.076590448619052509e-01
5.789999999999999591e-01,-4.973489549640576490e-02,-3.350551819480436511e-02,2.337149245290452704e-01
5.799999999999999600e-01,-1.593055420150314982e-01,-4.087051819048480028e-01,1.526931528176498354e-01
5.809999999999999609e-01,-1.438262313090138134e-01,-4.781105113225692649e-01,-2.041665847964400926e-02
5.819999999999999618e-01,8.198182570103759725e-02,-1.233498792414055023e-01,-1.283235898693882715e-01
5.829999999999999627e-01,3.174521902781421434e-01,3.815442186123637058e-01,-9.408947727687845541e-02
5.839999999999999636e-01,3.198980570957541403e-01,6.156343529785204272e-01,-8.074530294173107650e-03
5.849999999999999645e-01,1.609373446884734132e-02,3.091280222630632957e-01,2.068513917459632867e-02
5.859999999999999654e-01,-3.990741976350709597e-01,-2.532520492391817646e-01,-4.886861470565134757e-03
5.869999999999999662e-01,-5.201434249825633849e-01,-6.447323879053982187e-01,-4.388263985603970546e-02
5.879999999999999671e-01,-1.886485074805110684e-01,-4.959522236997045974e-01,3.873960842119727327e-03
5.889999999999999680e-01,3.620151503602083154e-01,7.386338762443270256e-02,1.006086727754518934e-01
5.899999999999999689e-01,6.726054684199517242e-01,6.036924216205984406e-01,1.400401675806075552e-01
5.909999999999999698e-01,4.373738596432706904e-01,6.291702933755068949e-01,3.808680249921837790e-02
5.919999999999999707e-01,-1.909270478943347893e-01,1.276514737689223300e-01,-1.485484178223158980e-01
5.929999999999999716e-01,-7.210887460308191832e-01,-4.767224662517975386e-01,-2.492192006337889121e-01
5.939999999999999725e-01,-6.819277139711749092e-01,-6.781555279151488813e-01,-1.462369977279630862e-01
5.949999999999999734e-01,-4.164381795886789445e-02,-3.187718606201207505e-01,1.187784423152123819e-01
5.959999999999999742e-01,6.507690565243116065e-01,2.877101595015376656e-01,3.286122890844782596e-01
5.969999999999999751e-01,8.292643996593158651e-01,6.224178242536653194e-01,2.823209874684906029e-01
5.979999999999999760e-01,3.275379732503355679e-01,4.416957304908867288e-01,-6.467508384982127191e-03
5.989999999999999769e-01,-4.615054348930382466e-01,-8.767278762231751899e-02,-3.356310444738058729e-01
5.999999999999999778e-01,-8.613945538411040825e-01,-4.992668817717635932e-01,-4.072420643314141886e-01
6.009999999999999787e-01,-5.676852008673014538e-01,-4.759507177755571417e-01,-1.433289144978163454e-01
6.019999999999999796e-01,1.851545349769157245e-01,-7.247968002037699642e-02,2.627404610647985916e-01
6.029999999999999805e-01,7.670617137820645581e-01,3.292264087969344888e-01,4.909103258849169538e-01
6.039999999999999813e-01,7.166205626921372529e-01,4.217279184253733826e-01,3.234278910209981150e-01
6.049999999999999822e-01,8.794801527996902457e-02,1.583931326833076525e-01,-1.171728621479023874e-01
6.059999999999999831e-01,-5.825650992606051792e-01,-1.670461363537016908e-01,-4.691457554892564663e-01
6.069999999999999840e-01,-7.466108384960178368e-01,-2.971104899762296858e-01,-4.503529248578886923e-01
6.079999999999999849e-01,-3.149739422228216568e-01,-1.705332827850638000e-01,-6.286591813548388086e-02
6.089999999999999858e-01,3.323083657121111423e-01,5.326365794775592827e-02,3.685993000519953711e-01
6.099999999999999867e-01,6.447868014738988851e-01,1.382612828780319103e-01,5.198600148132711540e-01
6.109999999999999876e-01,4.290031425390961051e-01,8.558596966926784733e-02,2.382574819580728087e-01
6.119999999999999885e-01,-9.212989906195907797e-02,-2.905831800562382657e-03,-2.206594138601769284e-01
6.129999999999999893e-01,-4.572167132367462306e-01,-1.912912168548720759e-02,-4.835162264405784560e-01
6.139999999999999902e-01,-4.154300348528210951e-01,3.218064626237152059e-02,-3.575844807152921412e-01
6.149999999999999911e-01,-6.456910552168981798e-02,6.429193679913976223e-02,4.863306692399999714e-02
6.159999999999999920e-01,2.550885895798140623e-01,-5.854294647302454857e-02,3.844781296268683923e-01
6.169999999999999929e-01,2.917093641344527533e-01,-1.747802823845499565e-01,4.049583290370027400e-01
6.179999999999999938e-01,1.020880321034826621e-01,-1.615769735840266175e-01,1.031322345111322508e-01
6.189999999999999947e-01,-9.005037810045371516e-02,3.695131357707588660e-02,-2.376041911099299464e-01
6.199999999999999956e-01,-1.191050745103818670e-01,2.847890168655617948e-01,-3.723144280656421889e-01
6.209999999999999964e-01,-4.412736432993630276e-02,3.207745761238149362e-01,-2.003642872093339411e-01
6.219999999999999973e-01,1.546400048276332095e-02,6.080004917736305664e-02,8.477723634478699644e-02
6.229999999999999982e-01,-4.004972608784394816e-02,-3.158313040892254397e-01,2.710666363996215855e-01
6.239999999999999991e-01,-1.207675695766611684e-01,-4.767404447831955494e-01,2.049421073658229397e-01
6.250000000000000000e-01,-7.365474271862811062e-02,-2.270113389794549130e-01,-6.918456635972233988e-03
6.260000000000000009e-01,1.195935024516319722e-01,2.508112957140317123e-01,-1.439940443926727709e-01
6.270000000000000018e-01,3.102766428898715567e-01,5.764707916019661260e-01,-1.291706308593138508e-01
6.280000000000000027e-01,2.156438028703563381e-01,4.102133147911019573e-01,-4.054451056277848936e-02
6.290000000000000036e-01,-1.138955899768264862e-01,-1.234837279734546656e-01,4.305767739620553619e-02
6.300000000000000044e-01,-4.383896628890891489e-01,-5.920796792946699805e-01,4.098888163340425050e-02
6.310000000000000053e-01,-4.114900245728089767e-01,-5.714325373330393365e-01,-4.646203656073040304e-03
6.320000000000000062e-01,-1.639600897043331368e-02,-7.519755955904909583e-02,-1.227927796192797814e-02
6.330000000000000071e-01,4.783074303920430426e-01,5.103566460778184988e-01,5.218723570553489288e-02
6.340000000000000080e-01,6.308110156559278980e-01,6.702217961297727289e-01,1.076403495974236763e-01
6.350000000000000089e-01,2.364445441098913248e-01,2.701925805940990633e-01,4.381731176697688246e-02
6.360000000000000098e-01,-3.939183746384535834e-01,-3.556206596090171757e-01,-1.105118764045847080e-01
6.370000000000000107e-01,-7.491907026844776274e-01,-6.960638742706006798e-01,-2.057569477316595341e-01
6.380000000000000115e-01,-4.978594254705827060e-01,-4.581641429380547970e-01,-1.560481923170871643e-01
6.390000000000000124e-01,2.001372328494351593e-01,1.645357201709979622e-01,7.394016591949692518e-02
6.400000000000000133e-01,7.664095376180404262e-01,6.087318735007438697e-01,2.901411955407749987e-01
6.410000000000000142e-01,7.110906147996179927e-01,5.440008006165027998e-01,2.838728632440890576e-01
6.420000000000000151e-01,5.852152745283679264e-02,4.131738123629444259e-02,1.780860698588057969e-02
6.430000000000000160e-01,-6.615989633642825885e-01,-4.480737892056554372e-01,-2.836262583650807079e-01
6.440000000000000169e-01,-8.478729039938052159e-01,-5.477877606941147226e-01,-4.084688603991059597e-01
6.450000000000000178e-01,-3.401564806790969842e-01,-2.003199055944986928e-01,-1.742918507891604296e-01
6.460000000000000187e-01,4.415179248823887237e-01,2.751007447761946167e-01,2.250303991822366345e-01
6.470000000000000195e-01,8.490486000662063049e-01,4.813035179432318955e-01,4.643841050261785508e-01
6.480000000000000204e-01,5.603713650317707629e-01,2.625632647946932186e-01,3.477278157148064319e-01
6.490000000000000213e-01,-1.641749136683779975e-01,-1.097009354008865456e-01,-6.378709285073409785e-02
6.500000000000000222e-01,-7.349595865334483946e-01,-3.289382252921485561e-01,-4.411404194678425483e-01
6.510000000000000231e-01,-6.715716770561074300e-01,-2.589827681727213116e-01,-4.659172167728144465e-01
6.520000000000000240e-01,-1.028594093209238558e-01,2.131438696032565173e-03,-1.040805258835148517e-01
6.530000000000000249e-01,5.140926520309123671e-01,1.774320890595141309e-01,3.424618077407749483e-01
6.540000000000000258e-01,6.648018966553206344e-01,1.561728252980985887e-01,5.195931910659831177e-01
6.550000000000000266e-01,2.792834589454098460e-01,3.078437148811982368e-02,2.810485980544082940e-01
6.560000000000000275e-01,-2.746154894440341332e-01,-5.287509253546161803e-02,-1.705461604213080740e-01
6.570000000000000284e-01,-5.415109773524561243e-01,-2.342723894367204629e-02,-4.862360210890244172e-01
6.580000000000000293e-01,-3.603981486033028814e-01,3.240341681386500056e-02,-4.037459075045717882e-01
6.590000000000000302e-01,7.101144714947953129e-02,-1.740665431724822739e-03,-2.479860030740259260e-03
6.600000000000000311e-01,3.548455357012924027e-01,-1.094730694398907828e-01,3.768201290457269814e-01
6.610000000000000320e-01,3.098884804881038013e-01,-1.548912331626998151e-01,4.317333981712333513e-01
6.620000000000000329e-01,5.025426484331284999e-02,-1.301930981407993515e-02,1.583616664494874315e-01
6.630000000000000338e-01,-1.601850326058365526e-01,1.981391831645456791e-01,-2.296027097033216946e-01
6.640000000000000346e-01,-1.629969571796312244e-01,3.068856402847476850e-01,-3.906355356515988642e-01
6.650000000000000355e-01,-4.437854835808042325e-02,1.336299773849613792e-01,-2.396249335666099101e-01
6.660000000000000364e-01,3.890920317234918685e-02,-2.112752180624398735e-01,6.746145843851736323e-02
6.670000000000000373e-01,1.316683146353144363e-03,-4.345649136481337660e-01,2.737280336489233412e-01
6.680000000000000382e-01,-6.803567124521654741e-02,-2.968869369715151918e-01,2.512718760873778323e-01
6.690000000000000391e-01,5.713974816390889923e-03,1.302114644363457086e-01,2.974583086328631831e-02
6.700000000000000400e-01,1.599487470113283849e-01,5.015022848287209456e-01,-1.483052597260791361e-01
6.710000000000000409e-01,2.478060601441793853e-01,4.707295552256307580e-01,-1.829723741058693343e-01
6.720000000000000417e-01,1.031900333036003814e-01,9.593045798720294462e-03,-6.605744780912618797e-02
6.730000000000000426e-01,-2.086109617307028985e-01,-4.795740167752673977e-01,5.737035767610763892e-02
6.740000000000000435e-01,-4.180615912714268911e-01,-6.105637130388008593e-01,7.648583253260922421e-02
6.750000000000000444e-01,-2.868758230525007558e-01,-2.174680949969783617e-01,1.457416760633338873e-02
6.760000000000000453e-01,1.448910679476049235e-01,3.972652480777200124e-01,-6.342773425435896048e-03
6.770000000000000462e-01,5.494938989633411097e-01,6.836491777699128525e-01,1.661651542426419506e-02
6.780000000000000471e-01,5.076089443841974580e-01,4.104295296272369442e-01,5.397097545277571018e-02
6.790000000000000480e-01,2.972295085676084775e-02,-2.186675617430886287e-01,4.278858887764835223e-02
6.800000000000000488e-01,-5.419947665635569400e-01,-6.646754113293268373e-01,-6.372292401718729349e-02
6.810000000000000497e-01,-6.988343927007394374e-01,-5.675038185250118605e-01,-1.724216092826515723e-01
6.820000000000000506e-01,-2.686270756904908796e-01,4.360885912775623423e-03,-1.392932626217122938e-01
6.830000000000000515e-01,4.284992428821643440e-01,5.476342807862085715e-01,4.262197332058953458e-02
6.840000000000000524e-01,8.081712769321437451e-01,6.241152879252367391e-01,2.465876393306800085e-01
6.850000000000000533e-01,5.287875601991062213e-01,1.871352451912119963e-01,2.678097465038592473e-01
6.860000000000000542e-01,-2.104763223214932699e-01,-3.794314644764221756e-01,5.631931760887928795e-02
6.870000000000000551e-01,-7.957946664250786784e-01,-5.989402247836120852e-01,-2.527126652660993122e-01
6.879999999999999449e-01,-7.435725003254616272e-01,-3.274649334306735105e-01,-3.755828010952937390e-01
6.889999999999999458e-01,-8.062132780335705406e-02,1.799685335864433244e-01,-2.046301040282579586e-01
6.899999999999999467e-01,6.543656927574512672e-01,4.981763831240664797e-01,1.700170125114707220e-01
6.909999999999999476e-01,8.446328854848226264e-01,3.754142533556465433e-01,4.334659365878260617e-01
6.919999999999999485e-01,3.454991497062839811e-01,-3.553616884942691068e-02,3.709865913695389317e-01
6.929999999999999494e-01,-4.041713122130638491e-01,-3.398828942415717536e-01,-1.857275710686797851e-02
6.939999999999999503e-01,-8.121902708081050193e-01,-3.351676114493757352e-01,-4.062859003109788869e-01
6.949999999999999512e-01,-5.306434614132949923e-01,-7.065218750516524815e-02,-4.811023228952855946e-01
6.959999999999999520e-01,1.426816489713347291e-01,1.818567184832197425e-01,-1.676925341355371413e-01
6.969999999999999529e-01,6.635403353527554726e-01,2.366548859061218535e-01,2.914774348688075056e-01
6.979999999999999538e-01,6.359227025689108137e-01,9.610804281448899478e-02,5.213773597771347301e-01
6.989999999999999547e-01,9.926145298915678428e-02,-6.070671602447363230e-02,3.232096375530744692e-01
6.999999999999999556e-01,-4.469248676197519754e-01,-8.992907596509817914e-02,-1.281869737142377341e-01
7.009999999999999565e-01,-5.744869492232319574e-01,-2.881308336815946794e-02,-4.738399779354333652e-01
7.019999999999999574e-01,-2.428258415771578360e-01,1.274329280900435291e-02,-4.384087741310828124e-01
7.029999999999999583e-01,2.224121423476609904e-01,-3.716640734484333991e-02,-6.605304238191600508e-02
7.039999999999999591e-01,4.367709867362423171e-01,-1.022101157541371319e-01,3.574845520098705598e-01
7.049999999999999600e-01,2.697466362750015612e-01,-5.291059591391616274e-02,4.741306572719983237e-01
7.059999999999999609e-01,-5.232578129155577434e-02,1.120800513877462934e-01,2.050238347234115410e-01
7.069999999999999618e-01,-2.484985441986866384e-01,2.433494822970438676e-01,-1.975768404267833900e-01
7.079999999999999627e-01,-1.949497847445050003e-01,1.679173646996204861e-01,-4.121800549395354119e-01
7.089999999999999636e-01,-2.097335910447072418e-02,-1.050310452662011340e-01,-2.918148756113007058e-01
7.099999999999999645e-01,7.994470521302363131e-02,-3.621978528780594453e-01,4.202072242466030338e-02
7.109999999999999654e-01,2.528326172773131403e-02,-3.273375156610945358e-01,2.982205535967580312e-01
7.119999999999999662e-01,-2.903003021623605864e-02,2.255384613676665248e-02,2.993752729488595166e-01
7.129999999999999671e-01,2.079283041841690355e-02,4.220075900658410983e-01,6.358659662807893131e-02
7.139999999999999680e-01,1.381431418726337401e-01,4.989816442474251379e-01,-1.623887451273538507e-01
7.149999999999999689e-01,1.789690083729803816e-01,1.405929915442951372e-01,-2.210219959088400021e-01
7.159999999999999698e-01,1.116221440733421687e-02,-3.707572560650596039e-01,-1.101539954972445556e-01
7.169999999999999707e-01,-2.613088576054722889e-01,-6.039348947091742748e-01,5.476125227008717122e-02
7.179999999999999716e-01,-3.645937762025186490e-01,-3.350650367874701274e-01,1.180087598606137794e-01
7.189999999999999725e-01,-1.505938048978442412e-01,2.602632437569976087e-01,6.645591896156556599e-02
7.199999999999999734e-01,2.670369553725105982e-01,6.561474268168651092e-01,1.674772496556996195e-03
7.209999999999999742e-01,5.329595837055416396e-01,5.175546074751660175e-01,-1.529439907910076259e-02
7.219999999999999751e-01,3.622141429074757779e-01,-5.984782869623447854e-02,2.794328781468123288e-02
7.229999999999999760e-01,-1.699539351251799224e-01,-5.938371732605743913e-01,4.238990620016565986e-02
7.239999999999999769e-01,-6.306831514870812061e-01,-6.473819774525896298e-01,-2.339943636929323056e-02
7.249999999999999778e-01,-5.857456401070080254e-01,-1.451384038148834932e-01,-1.312011908617099487e-01
7.259999999999999787e-01,-3.510061946437677272e-02,4.644096443986689970e-01,-1.223133950105621676e-01
7.269999999999999796e-01,6.003718818934367096e-01,6.634865214811994649e-01,1.711566259637512313e-02
7.279999999999999805e-01,7.737014633200673952e-01,3.251490836674224005e-01,1.902285783947425257e-01
7.289999999999999813e-01,3.020774657026085719e-01,-2.777253485071966010e-01,2.375288599875578499e-01
7.299999999999999822e-01,-4.394163055609041080e-01,-6.270047022600783171e-01,8.748192480060583420e-02
7.309999999999999831e-01,-8.426505305389802025e-01,-4.575727304738651524e-01,-1.955625877300257165e-01
7.319999999999999840e-01,-5.591032934123543185e-01,7.404417360712813034e-02,-3.589408039152889862e-01
7.329999999999999849e-01,1.936637212664664431e-01,4.922101718752390775e-01,-2.207117913278580090e-01
7.339999999999999858e-01,7.954972390799863735e-01,4.694603742976742877e-01,1.156956982146537249e-01
7.349999999999999867e-01,7.498392435046572491e-01,8.979563137494481206e-02,3.882058181754450277e-01
7.359999999999999876e-01,8.775721151632104311e-02,-3.272793000129068930e-01,3.748587803325494905e-01
7.369999999999999885e-01,-6.209304008593129476e-01,-4.206714354953157153e-01,2.401719724678868378e-02
7.379999999999999893e-01,-8.079889089912161149e-01,-1.738436061235509866e-01,-3.631704042482081229e-01
7.389999999999999902e-01,-3.518370966978427994e-01,1.502068256528756862e-01,-4.757899778526057388e-01
7.399999999999999911e-01,3.695744528241384219e-01,2.957545993724945421e-01,-2.104526635700754433e-01
7.409999999999999920e-01,7.558687331175643065e-01,1.629311316257243125e-01,2.399368606802161630e-01
7.419999999999999929e-01,5.038684653666358759e-01,-3.826503847972561462e-02,5.188117720502513075e-01
7.429999999999999938e-01,-1.225693606303555616e-01,-1.447206115446587893e-01,3.705623402118776166e-01
7.439999999999999947e-01,-5.852742596889218829e-01,-9.490766194813297918e-02,-7.451126296997084841e-02
7.449999999999999956e-01,-5.499059704330361287e-01,1.078722837332016238e-02,-4.543684511903769985e-01
7.459999999999999964e-01,-9.098004078093735458e-02,2.046952158221128359e-02,-4.664545815864196143e-01
7.469999999999999973e-01,3.676458958624201356e-01,-4.742978814949699168e-02,-1.042879901721872199e-01
7.479999999999999982e-01,4.673921666752202109e-01,-5.340627050355747918e-02,3.429466665629247735e-01
7.489999999999999991e-01,1.898767846302353846e-01,4.575988646692658035e-02,4.779007691117512224e-01
7.500000000000000000e-01,-1.674980865023613097e-01,1.899461183231290207e-01,2.576992960293882917e-01
7.510000000000000009e-01,-3.052755943634241631e-01,1.755200064565917428e-01,-1.574271788190932664e-01
7.520000000000000018e-01,-1.808055330104753611e-01,-2.852021600345391525e-02,-4.255497934318150377e-01
7.530000000000000027e-01,3.602716129522100241e-02,-2.740581946365374666e-01,-3.440555698543243390e-01
7.540000000000000036e-01,1.377078245301725790e-01,-3.272438760859488482e-01,1.109817208696411463e-02
7.550000000000000044e-01,6.294995137560019383e-02,-7.019463337518593027e-02,3.016969322769521011e-01
7.560000000000000053e-01,-1.191870594195124609e-02,3.137383057824039700e-01,3.397423467206645009e-01
7.570000000000000062e-01,6.088155586145035762e-03,4.928402901705992156e-01,1.192259079073229033e-01
7.580000000000000071e-01,1.034961393463627588e-01,2.344382930719484115e-01,-1.660286337176877236e-01
7.590000000000000080e-01,1.002979636661723989e-01,-2.556496379061977686e-01,-2.607952812071093751e-01
7.600000000000000089e-01,-5.814635375355892144e-02,-5.696655292776071633e-01,-1.502968724839374992e-01
7.610000000000000098e-01,-2.595341318690661536e-01,-4.217674252030383930e-01,5.113273942396862060e-02
7.620000000000000107e-01,-2.803885319320885139e-01,1.031332984453201818e-01,1.519987665675200661e-01
7.630000000000000115e-01,-1.191667270771024773e-02,5.685130178299487858e-01,1.060242426138631594e-01
7.640000000000000124e-01,3.602422799261207897e-01,5.839627427933695714e-01,-8.936168738554046672e-04
7.650000000000000133e-01,4.725951473231423949e-01,8.940390466774623957e-02,-4.655601408743186703e-02
7.660000000000000142e-01,1.963160917187990184e-01,-4.968858189837746520e-01,-1.342011381201214243e-02
7.670000000000000151e-01,-3.267648750709144512e-01,-6.738445457894676194e-01,6.714382447867057319e-03
7.680000000000000160e-01,-6.353856749396299408e-01,-2.943993342876694563e-01,-6.906580350331007097e-03
7.690000000000000169e-01,-4.284435467995652003e-01,3.443893156675733591e-01,-8.462604950575398910e-02
7.700000000000000178e-01,1.868043496026757233e-01,6.820856212620302061e-01,-1.063476889065212566e-01
7.710000000000000187e-01,6.967177171576603989e-01,4.676660574076899057e-01,-1.297798191784870457e-02
7.720000000000000195e-01,6.496792667821205125e-01,-1.332694410706234955e-01,1.479001286232908552e-01
7.730000000000000204e-01,6.134683475621002802e-02,-5.962111918601996630e-01,2.168847605563586078e-01
7.740000000000000213e-01,-6.201640536215544675e-01,-5.518336765478084605e-01,8.596537156986615302e-02
7.750000000000000222e-01,-8.079289807454819172e-01,-5.990102419609359685e-02,-1.579768237175612489e-01
7.760000000000000231e-01,-3.309332576987770724e-01,4.456453751118879536e-01,-3.189456460719873321e-01
7.770000000000000240e-01,4.437068873551177628e-01,5.538593790243492299e-01,-2.254651669138068026e-01
7.780000000000000249e-01,8.638445511125080190e-01,2.136568383875152299e-01,8.084597949969796193e-02
7.790000000000000258e-01,5.731991037728370042e-01,-2.657440621656504409e-01,3.634296019581190751e-01
7.800000000000000266e-01,-1.836607632031018456e-01,-4.765280811772325542e-01,3.743689501179967571e-01
7.810000000000000275e-01,-7.742637415620863273e-01,-2.792818879166709678e-01,7.358656240302972884e-02
7.820000000000000284e-01,-7.353368419426274949e-01,9.839189104552566179e-02,-3.170637278346532528e-01
7.830000000000000293e-01,-1.021334548250088098e-01,3.300768162959742402e-01,-4.630850491752432352e-01
7.840000000000000302e-01,5.919528019173433409e-01,2.454820922430525909e-01,-2.396244599388311358e-01
7.850000000000000311e-01,7.714154765656456858e-01,6.749473424383751856e-03,1.937066261752105056e-01
7.860000000000000320e-01,3.319224445369531318e-01,-1.688645963829523144e-01,4.920883323274593546e-01
7.870000000000000329e-01,-3.402313951462342945e-01,-1.509534307809998199e-01,3.995699454493814029e-01
7.880000000000000338e-01,-6.796958512980172396e-01,-2.495779788928338683e-02,-2.969020943236562807e-02
7.890000000000000346e-01,-4.581240057968449797e-01,4.367861518665287768e-02,-4.317894807338127916e-01
7.900000000000000355e-01,9.873906684662320243e-02,2.325396597377392058e-02,-4.888905532572943025e-01
7.910000000000000364e-01,4.964457603866063162e-01,-2.399323227070617251e-02,-1.613147616152992569e-01
7.920000000000000373e-01,4.588926252500283853e-01,1.058250612980617122e-02,2.876885539635735123e-01
7.930000000000000382e-01,8.341301421610033962e-02,1.074525155202221277e-01,5.079274132154533161e-01
7.940000000000000391e-01,-2.824020230244153051e-01,1.611203458593198079e-01,3.070047488751876941e-01
7.950000000000000400e-01,-3.504851495587493759e-01,2.550558951700921187e-02,-1.213933528909505455e-01
7.960000000000000409e-01,-1.331497652339319049e-01,-2.082066097105003677e-01,-4.368405148169602348e-01
7.970000000000000417e-01,1.228197552760384031e-01,-3.033214974737099001e-01,-3.819769093306132346e-01
7.980000000000000426e-01,1.731298492090448116e-01,-1.342145771004450150e-01,-4.609147114238896364e-02
7.990000000000000435e-01,7.821820326825178193e-02,2.019896220925324337e-01,2.966039619445579034e-01
8.000000000000000444e-01,-2.324018315557789885e-02,4.330753230928273134e-01,3.771016521096310359e-01
8.010000000000000453e-01,-9.931742440678540881e-03,3.020935029849630138e-01,1.644290843448222572e-01
8.020000000000000462e-01,6.325115655014186544e-02,-1.264282219523815420e-01,-1.632333699564378626e-01
8.030000000000000471e-01,4.838745438032418522e-02,-5.075122935584921446e-01,-2.972749912088559765e-01
8.040000000000000480e-01,-8.826409749397878812e-02,-4.724942821231054024e-01,-1.916636478788207032e-01
8.050000000000000488e-01,-2.401180010853296298e-01,-2.906234415584456332e-02,3.206186336144455085e-02
8.060000000000000497e-01,-1.863150631901958898e-01,4.786812778700222371e-01,1.863692138253230934e-01
8.070000000000000506e-01,1.068875008494345885e-01,6.045160981205048856e-01,1.533677545086229721e-01
8.080000000000000515e-01,3.862132586185271776e-01,2.230736883766383793e-01,2.028458747525350298e-02
8.090000000000000524e-01,3.847676415197692767e-01,-3.680430030259521645e-01,-7.121447477487805044e-02
8.100000000000000533e-01,2.257180068624112593e-02,-6.787276246409990055e-01,-6.739278230821339755e-02
8.110000000000000542e-01,-4.490562113842749836e-01,-4.233907193209197617e-01,5.528033755513039622e-04
8.120000000000000551e-01,-5.808027849535124520e-01,1.889452797515000504e-01,1.416064890755111246e-03
8.129999999999999449e-01,-2.384633522586682430e-01,6.559453448486968208e-01,-3.049281708334070431e-02
8.139999999999999458e-01,3.680513095447039973e-01,5.716281606497125578e-01,-7.300901441440887929e-02
8.149999999999999467e-01,7.156916430478282853e-01,-8.463820591433886611e-03,-3.448003715873913799e-02
8.159999999999999476e-01,4.931354421631327090e-01,-5.459162363702425580e-01,1.071036063753793843e-01
8.169999999999999485e-01,-1.910286760913070259e-01,-6.270547941168821415e-01,1.888545812908768995e-01
8.179999999999999494e-01,-7.499706520876602278e-01,-1.968969508139297442e-01,1.095698923929850077e-01
8.189999999999999503e-01,-7.055002445342200001e-01,3.703401219061845939e-01,-1.067058298727988769e-01
8.199999999999999512e-01,-7.436637945048278631e-02,5.966397257954729749e-01,-2.754763558085848718e-01
8.209999999999999520e-01,6.369072153879840048e-01,3.326915770671745598e-01,-2.269414322294521780e-01
8.219999999999999529e-01,8.469223816366246993e-01,-1.807978247199402422e-01,3.432945978200632048e-02
8.229999999999999538e-01,3.549709285919266932e-01,-4.915759096700040853e-01,3.104689704252511784e-01
8.239999999999999547e-01,-4.297694415569121018e-01,-3.810602274243625187e-01,3.673354386857292098e-01
8.249999999999999556e-01,-8.527327373161651680e-01,1.876881210913159195e-02,1.063987977510241767e-01
8.259999999999999565e-01,-5.806354732308744993e-01,3.340220582168184071e-01,-2.743228823835305863e-01
8.269999999999999574e-01,1.551634552487235752e-01,3.255227351244831535e-01,-4.465263724395842626e-01
8.279999999999999583e-01,7.360166615321315220e-01,8.180106763563214922e-02,-2.778021983713187537e-01
8.289999999999999591e-01,7.133809290290379357e-01,-1.718761572862213538e-01,1.461268999534877377e-01
8.299999999999999600e-01,1.082305012701768876e-01,-2.243081579497041844e-01,4.705245546038745452e-01
8.309999999999999609e-01,-5.382374277928615447e-01,-8.391220175230094946e-02,4.159243378948582759e-01
8.319999999999999618e-01,-7.051813085751837962e-01,5.657287617739611973e-02,2.731797456008669411e-02
8.329999999999999627e-01,-3.131993108108616086e-01,8.893673495961196274e-02,-4.048906930989379371e-01
8.339999999999999636e-01,2.900359969617494205e-01,2.346746228766713807e-02,-5.039692288736370429e-01
8.349999999999999645e-01,5.860475020890097975e-01,-1.612407278189560353e-02,-2.036619380272550461e-01
8.359999999999999654e-01,4.005393812161652245e-01,4.400297165433671165e-02,2.597214044133192012e-01
8.369999999999999662e-01,-6.691445854182116737e-02,9.707816308525069049e-02,4.997725317706881998e-01
8.379999999999999671e-01,-3.931045735662630491e-01,5.351374465196912650e-02,3.446744632551600462e-01
8.389999999999999680e-01,-3.558835622489390782e-01,-1.181676763510783046e-01,-7.116353380667680972e-02
8.399999999999999689e-01,-5.778232847395533417e-02,-2.552843378725314083e-01,-4.294277402059611948e-01
8.409999999999999698e-01,1.963435749256906282e-01,-1.778326256467922528e-01,-4.230073249060474216e-01
8.419999999999999707e-01,2.210351844215018013e-01,1.025569780760202249e-01,-8.817249688405560948e-02
8.429999999999999716e-01,7.147311733008111789e-02,3.657941678179311151e-01,2.860368513966506376e-01
8.439999999999999725e-01,-5.632326154050803363e-02,3.314505552749456019e-01,4.033824065334996045e-01
8.449999999999999734e-01,-4.861138636546039060e-02,-1.191054096355886535e-02,2.054314368300421412e-01
8.459999999999999742e-01,3.072430749898680952e-02,-4.141635813028885504e-01,-1.352285444391707891e-01
8.469999999999999751e-01,2.026738124673146263e-02,-4.920485406528782302e-01,-3.181826542397453994e-01
8.479999999999999760e-01,-1.033725599995618666e-01,-1.524652375661703085e-01,-2.402390673425145728e-01
8.489999999999999769e-01,-1.996986597817173859e-01,3.728526113824790489e-01,9.756502340832650527e-03
8.499999999999999778e-01,-9.415327232524896284e-02,6.155072275905432155e-01,2.032339266544609113e-01
8.509999999999999787e-01,1.652269958520153348e-01,3.450423718425594255e-01,1.992028029174943149e-01
8.519999999999999796e-01,3.857311848769023888e-01,-2.371703315995759564e-01,5.717926043050448187e-02
8.529999999999999805e-01,2.586173374332454422e-01,-6.428758838611973170e-01,-7.538673904402243275e-02
8.539999999999999813e-01,-1.217459992137382985e-01,-5.226733674871717472e-01,-1.057071915856455796e-01
8.549999999999999822e-01,-5.002520169584899756e-01,4.205402655107528392e-02,-3.842609029543622712e-02
8.559999999999999831e-01,-4.798280411431991022e-01,5.959086457695282890e-01,2.503571546746418547e-02
8.569999999999999840e-01,-3.196817516616427129e-02,6.396197151833759031e-01,1.163774263730608938e-02
8.579999999999999849e-01,5.165927971247955552e-01,1.608586566394965001e-01,-4.343332997330905804e-02
8.589999999999999858e-01,6.824353569894183735e-01,-4.525988526153835734e-01,-2.684202710943083339e-02
8.599999999999999867e-01,2.805293401532752973e-01,-6.690256338567733829e-01,6.900241753246029452e-02
8.609999999999999876e-01,-4.083603498998832348e-01,-3.435068475052563963e-01,1.494458716227095862e-01
8.619999999999999885e-01,-7.843235319980300657e-01,2.557103274267895632e-01,1.044119947009520544e-01
8.629999999999999893e-01,-5.385231903292985178e-01,6.258588869543422195e-01,-8.098277316679754201e-02
8.639999999999999902e-01,1.846140063449895341e-01,4.517028729652728392e-01,-2.346508629231379428e-01
8.649999999999999911e-01,7.782301760643069999e-01,-5.647212208294408869e-02,-2.168671416349220449e-01
8.659999999999999920e-01,7.426967790878480358e-01,-4.896844251578795770e-01,9.811177712433162730e-04
8.669999999999999929e-01,9.034236063915521142e-02,-4.730919159708620314e-01,2.598719584080516065e-01
8.679999999999999938e-01,-6.382362961303089666e-01,-8.806233538315502707e-02,3.572525712164020817e-01
8.689999999999999947e-01,-8.526905898702753506e-01,3.125474630086588768e-01,1.401943654402735551e-01
8.699999999999999956e-01,-3.610318320578021489e-01,4.105289665502101504e-01,-2.256778678771432789e-01
8.709999999999999964e-01,4.108282384894628159e-01,1.708005953773654995e-01,-4.359606823819898724e-01
8.719999999999999973e-01,8.302289321811565648e-01,-1.538112589929963858e-01,-2.961126973216949843e-01
8.729999999999999982e-01,5.771829167408238925e-01,-2.920386729518352764e-01,9.947360348046080381e-02
8.739999999999999991e-01,-1.416544265938929070e-01,-1.679190834227110296e-01,4.369515185031708771e-01
8.750000000000000000e-01,-6.885443478287504027e-01,3.006161244081161088e-02,4.379104987854958164e-01
8.760000000000000009e-01,-6.556432772541007648e-01,1.405468053204771417e-01,7.192246495010411189e-02
8.770000000000000018e-01,-1.161256092392594225e-01,7.938520881987651268e-02,-3.598427671743608114e-01
8.780000000000000027e-01,4.637262813870359768e-01,-1.429208064240825200e-02,-5.085810706841888962e-01
8.790000000000000036e-01,6.138769835864156255e-01,-1.173172435684247984e-02,-2.467878225080033516e-01
8.800000000000000044e-01,2.701911806862183352e-01,4.693971120752404164e-02,2.133069080838430054e-01
8.810000000000000053e-01,-2.379384729593816139e-01,6.279081150469839612e-02,5.208911338163376703e-01
8.820000000000000062e-01,-4.816173610414195561e-01,-4.814313065948260667e-02,3.870459600217976970e-01
8.830000000000000071e-01,-3.119813573592395417e-01,-1.928365904556154087e-01,-3.440981289469938198e-02
8.840000000000000080e-01,5.076208608178632564e-02,-1.912046775338308302e-01,-4.127406375055737708e-01
8.850000000000000089e-01,2.869389484166414150e-01,2.348850480096799712e-02,-4.657457425884983238e-01
8.860000000000000098e-01,2.446036840504454968e-01,2.800174150255106409e-01,-1.344005517905003944e-01
8.870000000000000107e-01,3.530090506124516914e-02,3.425766720499642815e-01,2.666728944171386506e-01
8.880000000000000115e-01,-1.137600217830365690e-01,7.208547629463854522e-02,4.276388977518523760e-01
8.890000000000000124e-01,-9.468114518796946766e-02,-3.091902360057062205e-01,2.583699407309130169e-01
8.900000000000000133e-01,-2.138484391081501776e-03,-4.843853213924640411e-01,-1.069291023902396026e-01
8.910000000000000142e-01,1.262722719178022666e-02,-2.443432536495338536e-01,-3.474099537474197308e-01
8.920000000000000151e-01,-8.029278464488019684e-02,2.413192970169256157e-01,-2.867470999841878476e-01
8.930000000000000160e-01,-1.334029206610110596e-01,5.713299448888841114e-01,-1.574063786125595027e-02
8.940000000000000169e-01,-2.099499754621978256e-02,4.295191266456627188e-01,2.157720894134847744e-01
8.950000000000000178e-01,2.129149249844256853e-01,-8.781441074008125569e-02,2.410792992216937713e-01
8.960000000000000187e-01,3.205853571701763327e-01,-5.763828915259063823e-01,9.112618272427236432e-02
8.970000000000000195e-01,1.290716800920219953e-01,-5.917603743279025164e-01,-8.675158023552832776e-02
8.980000000000000204e-01,-2.376390300999004224e-01,-9.545001750313697464e-02,-1.487616691965424065e-01
8.990000000000000213e-01,-4.846765231667625740e-01,4.913041371470415752e-01,-8.311861237257305024e-02
9.000000000000000222e-01,-3.354653205846116482e-01,6.885013166177210708e-01,1.837156190931003852e-02
9.010000000000000231e-01,1.462893779432605235e-01,3.042556569457833260e-01,4.185449561673905416e-02
9.020000000000000240e-01,5.832722080546245413e-01,-3.325614609454518589e-01,-2.075461119432360502e-03
9.030000000000000249e-01,5.743799359082966127e-01,-6.835361207339369916e-01,-2.336251151210511426e-02
9.040000000000000258e-01,5.278248501193637948e-02,-4.666316864021843314e-01,2.797491247952312715e-02
9.050000000000000266e-01,-5.642384127749031641e-01,1.333085096694826832e-01,1.042645049442929156e-01
9.060000000000000275e-01,-7.477567926377544083e-01,5.899851252401068225e-01,8.960224663274732326e-02
9.070000000000000284e-01,-3.126667007553768363e-01,5.622640972762105172e-01,-3.256311817916304058e-02
9.080000000000000293e-01,4.174919482549390715e-01,7.425560262465201455e-02,-1.945658382603690784e-01
9.090000000000000302e-01,8.442254791344082632e-01,-4.415248192665867100e-01,-2.028092420153511377e-01
9.100000000000000311e-01,5.668438946793755706e-01,-5.568371964910786565e-01,-3.047932682435335050e-02
9.110000000000000320e-01,-1.730904393115206830e-01,-2.158094236556420964e-01,2.126524912614071727e-01
9.120000000000000329e-01,-7.862043578690666168e-01,2.611632354319611826e-01,3.243396242285985220e-01
9.130000000000000338e-01,-7.583960457549653311e-01,4.647834704320393806e-01,1.590265565573974194e-01
9.140000000000000346e-01,-1.128165978551561449e-01,2.757298588178788701e-01,-1.686109500152933593e-01
9.150000000000000355e-01,6.198160104864849362e-01,-9.228042870804295528e-02,-4.016840754512651657e-01
9.160000000000000364e-01,8.361730303035036505e-01,-3.243063951914496035e-01,-3.111485338127628619e-01
9.170000000000000373e-01,3.689634647615802621e-01,-2.542987374154678792e-01,5.008836395355157484e-02
9.180000000000000382e-01,-3.793050191477481126e-01,-1.563210082706530807e-02,4.086760292188598709e-01
9.190000000000000391e-01,-7.878019071840748344e-01,1.763858767792726712e-01,4.412719502174022312e-01
9.200000000000000400e-01,-5.447347828379048851e-01,1.492457922980628127e-01,1.302763747993242460e-01
9.210000000000000409e-01,1.059300798294345453e-01,3.639720344459006218e-02,-3.130093729093697541e-01
9.220000000000000417e-01,6.185958495257933842e-01,-5.242075085921896194e-02,-5.094462599229652167e-01
9.230000000000000426e-01,5.839458493121975069e-01,-1.949952500903735786e-02,-2.963817849110367275e-01
9.240000000000000435e-01,1.142566273589056547e-01,3.436672495673419314e-02,1.701209905134411227e-01
9.250000000000000444e-01,-3.942106436461780827e-01,1.447685009783790519e-03,4.928364549319798060e-01
9.260000000000000453e-01,-5.183020452144800894e-01,-1.161203959616034787e-01,4.308388254617461777e-01
9.270000000000000462e-01,-2.255329727640183468e-01,-1.653631397824093519e-01,2.256849173251192567e-02
9.280000000000000471e-01,1.773698223440094979e-01,-3.882003838903422960e-02,-3.934964787848424517e-01
9.290000000000000480e-01,3.711582689731952045e-01,2.018500439444274319e-01,-4.801727908537322675e-01
9.300000000000000488e-01,2.287414108823887515e-01,3.143214819761681045e-01,-1.847906934407383128e-01
9.310000000000000497e-01,-3.262897867536249108e-02,1.394338635733397003e-01,2.310975787239588353e-01
9.320000000000000506e-01,-1.753659639941957393e-01,-1.962438447175060829e-01,4.597496713213989894e-01
9.330000000000000515e-01,-1.208630360792513764e-01,-4.381689624606003863e-01,3.068548526210214122e-01
9.340000000000000524e-01,-2.791653623048116848e-03,-3.192413534735534242e-01,-7.312955935490089709e-02
9.350000000000000533e-01,1.848113641032638615e-02,1.141549148853291257e-01,-3.495633353934863297e-01
9.360000000000000542e-01,-4.780155530036889894e-02,5.120846847092067611e-01,-3.360135207574676541e-01
9.370000000000000551e-01,-7.481342406987860627e-02,4.853435457450878676e-01,-6.171199285881345115e-02
9.379999999999999449e-01,3.940611945800140403e-02,4.169213390194344976e-02,2.261550219759671521e-01
9.389999999999999458e-01,2.117295828800043467e-01,-4.803984450949530527e-01,2.747532224029438641e-01
9.399999999999999467e-01,2.377078022650775946e-01,-6.212930492429243889e-01,1.316412093130456540e-01
9.409999999999999476e-01,2.221116744682163566e-02,-2.373846410761123182e-01,-8.589672176450507957e-02
9.419999999999999485e-01,-3.114507229929354692e-01,3.668766540823575339e-01,-1.842491956950249310e-01
9.429999999999999494e-01,-4.320279674482828680e-01,6.915443014314235359e-01,-1.153469703245591088e-01
9.439999999999999503e-01,-1.823585285964752223e-01,4.334070757144770081e-01,1.062951381826655710e-02
9.449999999999999512e-01,3.022116773971906811e-01,-1.899264254200103419e-01,7.463310648492056665e-02
9.459999999999999520e-01,5.936813654936418105e-01,-6.411162659633659056e-01,3.859523627323447476e-02
9.469999999999999529e-01,4.131579242704921384e-01,-5.761911193436215495e-01,-4.441336969455454003e-03
9.479999999999999538e-01,-1.588244165063854851e-01,-2.777098073377365015e-02,3.053463073918345587e-03
9.489999999999999547e-01,-6.631356419570658689e-01,5.292484163668603747e-01,5.641869832697299358e-02
9.499999999999999556e-01,-6.397708806912267843e-01,6.349716240240164122e-01,7.268044159065301102e-02
9.509999999999999565e-01,-7.854862301904931565e-02,2.058276236596622566e-01,-1.383157146638683450e-02
9.519999999999999574e-01,6.118776267278627223e-01,-3.564700396956022588e-01,-1.437651110929533960e-01
9.529999999999999583e-01,8.082149956896598209e-01,-5.992126812675933056e-01,-1.833315949878404350e-01
9.539999999999999591e-01,3.388029426978519387e-01,-3.361913751015968010e-01,-4.976423730001510587e-02
9.549999999999999600e-01,-4.248038640452748149e-01,1.643693891484918346e-01,1.816886764749252869e-01
9.559999999999999609e-01,-8.635331463503925775e-01,4.793675586411758061e-01,2.923091473403053864e-01
9.569999999999999618e-01,-5.972215147222207365e-01,3.832740326460449265e-01,1.790569237847280670e-01
9.579999999999999627e-01,1.608887938245883997e-01,-6.117970196131206247e-03,-1.201706809219783012e-01
9.589999999999999636e-01,7.814676238329146818e-01,-3.294865560412091887e-01,-3.685986698462083155e-01
9.599999999999999645e-01,7.591682692357151208e-01,-3.351783385652853386e-01,-3.162470002667410740e-01
9.609999999999999654e-01,1.185771903789762660e-01,-7.533071836781833619e-02,1.431647357619859375e-03
9.619999999999999662e-01,-5.862235269940099247e-01,1.738563054783038853e-01,3.641320891587508934e-01
9.629999999999999671e-01,-7.905927369050862463e-01,2.193637742908247645e-01,4.353515864803431112e-01
9.639999999999999680e-01,-3.544774403772800175e-01,8.604696319415666705e-02,1.626599232949578200e-01
9.649999999999999689e-01,3.386768233406212691e-01,-5.074284705713349997e-02,-2.656243890895381154e-01
9.659999999999999698e-01,7.060408438971074174e-01,-8.665113908864204018e-02,-5.127495433658093571e-01
9.669999999999999707e-01,4.974634754302678097e-01,-8.307772048296526227e-03,-3.292895248508995176e-01
9.679999999999999716e-01,-8.802070465239504593e-02,1.723796582421083592e-02,1.116501330827232991e-01
9.689999999999999725e-01,-5.296820019390741097e-01,-4.840998786156051892e-02,4.674573974703760126e-01
9.699999999999999734e-01,-5.079550415968010491e-01,-1.143209871569272756e-01,4.575630118947684455e-01
9.709999999999999742e-01,-9.897056143454584232e-02,-7.583142230161235564e-02,7.629811046484634429e-02
9.719999999999999751e-01,3.114933465957853143e-01,1.229425425524297982e-01,-3.654889936161811459e-01
9.729999999999999760e-01,4.025683879770186047e-01,2.591239805780718441e-01,-5.120872537994840545e-01
9.739999999999999769e-01,1.686529302439747635e-01,1.850617215558489903e-01,-2.380929861906438127e-01
9.749999999999999778e-01,-1.229263868600296850e-01,-9.807070068137575813e-02,2.002680812089737139e-01
9.759999999999999787e-01,-2.265737063250439498e-01,-3.562931460370942216e-01,4.683871049894501870e-01
9.769999999999999796e-01,-1.329297635181309334e-01,-3.477423599158316891e-01,3.461736411755916287e-01
9.779999999999999805e-01,2.275193554368110452e-02,7.398281848522697025e-03,-4.160725273662956719e-02
9.789999999999999813e-01,6.241767320740097130e-02,4.145310598203988395e-01,-3.606152287019893099e-01
9.799999999999999822e-01,-1.005366914684605560e-02,5.072325222269532530e-01,-3.762660801053110959e-01
9.809999999999999831e-01,-3.595708730824439397e-02,1.586205877707620449e-01,-1.005120479841232206e-01
9.819999999999999840e-01,6.121660154996268893e-02,-3.651454632340160322e-01,2.130407091347568949e-01
9.829999999999999849e-01,1.843940341106412029e-01,-6.161936325226253786e-01,3.368332411809501492e-01
9.839999999999999858e-01,1.541778459220646547e-01,-3.609084038130102590e-01,1.717421501067084300e-01
9.849999999999999867e-01,-7.187077166699563924e-02,2.315580390318347781e-01,-8.512448608450935705e-02
9.859999999999999876e-01,-3.300414111765712644e-01,6.453203669509907092e-01,-2.202475513529838780e-01
9.869999999999999885e-01,-3.577855450223425549e-01,5.328653710451388692e-01,-1.543715460526504102e-01
9.879999999999999893e-01,-2.926293528003211589e-02,-2.266797836132525279e-02,-7.518794871159838362e-03
9.889999999999999902e-01,3.970769305337343291e-01,-5.770442913711757438e-01,8.979777262255624060e-02
9.899999999999999911e-01,5.389284156765780098e-01,-6.443772161590526348e-01,8.091452079260202934e-02
9.909999999999999920e-01,2.261016736194927657e-01,-1.678798860538956716e-01,1.006276545145066287e-02
9.919999999999999929e-01,-3.440373333069504658e-01,4.399227911099636845e-01,-1.826458139307813797e-02
9.929999999999999938e-01,-6.893020551856556821e-01,6.711718666723658355e-01,2.072582705320986582e-02
9.939999999999999947e-01,-4.702384181642815242e-01,3.500987291321221440e-01,4.517481446432847214e-02
9.949999999999999956e-01,1.672411598316145276e-01,-2.446484520177319433e-01,9.721963688332254175e-03
9.959999999999999964e-01,7.222022909337462160e-01,-6.196362509716123457e-01,-1.018281266892124004e-01
9.969999999999999973e-01,6.925280859044737891e-01,-4.583318378755691924e-01,-1.529631551606656925e-01
9.979999999999999982e-01,9.093693761099963524e-02,5.849105208871306638e-02,-6.670560144697881833e-02
9.989999999999999991e-01,-6.216857194360458916e-01,4.729761673545337941e-01,1.300053398623898238e-01
1.000000000000000000e+00,-8.366872170323718105e-01,4.813436746424943347e-01,2.469820687572439888e-01
1.000999999999999890e+00,-3.653745496493747691e-01,1.014124663045439662e-01,1.744655479384401853e-01
1.002000000000000002e+00,4.165323121107898374e-01,-3.035855830648184761e-01,-9.156052458628702317e-02
1.002999999999999892e+00,8.715661404769591281e-01,-4.115968916503859876e-01,-3.267014385411859956e-01
1.004000000000000004e+00,6.011953615524192607e-01,-1.889460834243985865e-01,-3.142731577697416845e-01
1.004999999999999893e+00,-1.427250538329144502e-01,1.429060658558383157e-01,-3.777687594381116259e-02
1.006000000000000005e+00,-7.468743531481301101e-01,2.705608591162697585e-01,3.093987219329359384e-01
1.006999999999999895e+00,-7.348114891645073365e-01,1.690752281299045812e-01,4.307380184491034769e-01
1.008000000000000007e+00,-1.265205935952754268e-01,-2.823859532896840635e-02,2.012059703995536519e-01
1.008999999999999897e+00,5.452549270042607032e-01,-1.288567762289878071e-01,-2.226112314459423314e-01
1.010000000000000009e+00,7.411109975769615277e-01,-7.732610328557081025e-02,-4.776597033509538126e-01
1.010999999999999899e+00,3.349969345612975880e-01,7.209051601671420326e-03,-3.580444016664331430e-01
1.012000000000000011e+00,-2.900743257266129027e-01,3.322229781418229930e-03,6.281811526424393999e-02
1.012999999999999901e+00,-6.261338125978760383e-01,-6.079873783942933013e-02,4.473348981244072431e-01
1.014000000000000012e+00,-4.289425189489313173e-01,-6.476877143518482149e-02,4.811939586187349294e-01
1.014999999999999902e+00,6.204071636294703623e-02,4.379760436569232057e-02,1.182635697116066059e-01
1.016000000000000014e+00,4.327223495782500096e-01,1.940742685585123972e-01,-3.281002333114023672e-01
1.016999999999999904e+00,4.089862511210765605e-01,1.956845121882684058e-01,-5.211976936338442723e-01
1.018000000000000016e+00,8.395693338682108653e-02,-2.211499342282205113e-02,-2.854040744107620431e-01
1.018999999999999906e+00,-2.252123781250063017e-01,-2.918242118559459808e-01,1.544146589247873957e-01
1.020000000000000018e+00,-2.740911523778353232e-01,-3.457801216695308710e-01,4.645079448482012374e-01
1.020999999999999908e+00,-9.816027297361638870e-02,-9.726050683459072643e-02,4.067130422451777916e-01
1.022000000000000020e+00,7.678496029075054796e-02,3.032527404091976408e-01,1.822908331575093244e-02
1.022999999999999909e+00,1.077603942577291807e-01,4.862629241687839166e-01,-3.455668234168541852e-01
1.024000000000000021e+00,1.356615565277301955e-02,2.555175992574819088e-01,-4.185870856161325038e-01
1.024999999999999911e+00,-1.854139676307427556e-02,-2.336676396293676516e-01,-1.528095718405484693e-01
1.026000000000000023e+00,5.577065552641383150e-02,-5.774939118762217882e-01,1.996304956495668081e-01
1.026999999999999913e+00,1.478001397403574391e-01,-4.455382940612880871e-01,3.350823234463306544e-01
1.028000000000000025e+00,8.069489108894101204e-02,7.743558348247089884e-02,2.256180059792419479e-01
1.028999999999999915e+00,-1.331355985306891809e-01,5.729855896114396385e-01,-6.315146597417983787e-02
1.030000000000000027e+00,-3.197666448187427291e-01,5.994030940410332020e-01,-2.476709276885830369e-01
1.030999999999999917e+00,-2.362255221315401887e-01,1.123775108648160381e-01,-2.088508840349681261e-01
1.032000000000000028e+00,1.020204947113290683e-01,-4.745313678725489037e-01,-4.453652220675873019e-02
1.032999999999999918e+00,4.480054659652126792e-01,-6.899892701964035480e-01,1.129767954757992937e-01
1.034000000000000030e+00,4.422406349078887855e-01,-3.184938214157687075e-01,1.307346256565179443e-01
1.034999999999999920e+00,3.611592555657678477e-02,3.179075783865054072e-01,4.261335448490789768e-02
1.036000000000000032e+00,-4.740509135842325694e-01,6.767918907107202120e-01,-2.921793781439449220e-02
1.036999999999999922e+00,-6.381851871220436401e-01,4.795010868352336808e-01,-2.590163872025757000e-02
1.038000000000000034e+00,-2.758534669966012376e-01,-1.183444922420216622e-01,1.818980129536019660e-02
1.038999999999999924e+00,3.766933806239657900e-01,-5.845652837177823802e-01,1.376778272094122263e-02
1.040000000000000036e+00,7.671082089483678423e-01,-5.643455370364484081e-01,-5.698012893768941017e-02
1.040999999999999925e+00,5.243110106746444732e-01,-7.421217486346266823e-02,-1.193292315974265327e-01
1.042000000000000037e+00,-1.638894216141922322e-01,4.329422792176202406e-01,-6.171596928527470910e-02
1.042999999999999927e+00,-7.587338093981562670e-01,5.483349420689092035e-01,9.160380330633666190e-02
1.044000000000000039e+00,-7.491367670202069284e-01,2.253626255939708278e-01,2.209416282833032430e-01
1.044999999999999929e+00,-1.158202535749551787e-01,-2.410121582538758134e-01,1.781034100260139030e-01
1.046000000000000041e+00,6.268823804994295701e-01,-4.547477494569918677e-01,-4.335184397481190582e-02
1.046999999999999931e+00,8.575678858958662998e-01,-2.825513241659119990e-01,-2.716191161542306221e-01
1.048000000000000043e+00,3.788943202166509261e-01,8.249732614650270857e-02,-3.010782836629188886e-01
1.048999999999999932e+00,-4.061087412384364881e-01,3.219236074101551881e-01,-6.990136480789928275e-02
1.050000000000000044e+00,-8.465621016145358224e-01,2.497707200606816835e-01,2.551621358652067517e-01
1.050999999999999934e+00,-5.960830201758715585e-01,9.901536366453845411e-03,4.107387838148183201e-01
1.052000000000000046e+00,1.172053270619335813e-01,-1.568066239652924909e-01,2.184586490614338627e-01
1.052999999999999936e+00,7.063287414423330413e-01,-1.471243968011860803e-01,-1.795904997417850368e-01
1.054000000000000048e+00,6.899607201861150951e-01,-2.808118711743343848e-02,-4.538476010995852183e-01
1.054999999999999938e+00,1.346541264817143202e-01,3.448266352221813352e-02,-3.750366506738445072e-01
1.056000000000000050e+00,-4.836182784533996082e-01,1.231241322681531081e-02,1.223815680147573477e-02
1.056999999999999940e+00,-6.613303692458655236e-01,-3.834350687316617073e-02,4.233550926674793380e-01
1.058000000000000052e+00,-2.948598665757170556e-01,6.798046375007662373e-03,4.822880718667731381e-01
1.058999999999999941e+00,2.399106409487914426e-01,1.284138255368379167e-01,1.649701182911169073e-01
1.060000000000000053e+00,5.198949136809266625e-01,1.650457140629666419e-01,-2.953568232648276504e-01
1.060999999999999943e+00,3.530569914039724533e-01,3.597243160214500662e-02,-5.169197718350292403e-01
1.062000000000000055e+00,-4.915965292500872053e-02,-2.101382632577811771e-01,-3.297443837439754666e-01
1.062999999999999945e+00,-3.234318638785094180e-01,-3.219581702832973735e-01,1.166215154635511786e-01
1.064000000000000057e+00,-2.889447488602119862e-01,-1.473550075747876997e-01,4.677492876349220174e-01
1.064999999999999947e+00,-5.123077847947454105e-02,2.023350262303829639e-01,4.254547192660626531e-01
1.066000000000000059e+00,1.371851199216932438e-01,4.360506241836838992e-01,5.994043953492449173e-02
1.066999999999999948e+00,1.490855820578344537e-01,3.222080819154570785e-01,-3.314372181005549867e-01
1.068000000000000060e+00,2.925491692013429401e-02,-9.882255798920694390e-02,-4.510443383569513465e-01
1.068999999999999950e+00,-2.140022623888794551e-02,-4.933514992189550474e-01,-1.974528533149881027e-01
1.070000000000000062e+00,3.304176499737201261e-02,-5.042915256492594978e-01,1.662299642317244808e-01
1.070999999999999952e+00,8.603057941676545139e-02,-5.034846807881596803e-02,3.740289449673507849e-01
1.072000000000000064e+00,2.380679996916034921e-02,4.727355433382507965e-01,2.744012064978898491e-01
1.072999999999999954e+00,-1.595475577035648240e-01,6.323002983209381478e-01,-3.693565979915066494e-02
1.074000000000000066e+00,-2.620282950684860168e-01,2.486394806769615384e-01,-2.624358123375039042e-01
1.074999999999999956e+00,-1.232642391589129360e-01,-3.443245678751542527e-01,-2.471790031656942443e-01
1.076000000000000068e+00,2.105453963638085624e-01,-6.848018607640308231e-01,-6.228006837676315632e-02
1.076999999999999957e+00,4.349496967731723562e-01,-4.476037742567676725e-01,1.305103961075080865e-01
1.078000000000000069e+00,3.244991463064181292e-01,1.783120582082681205e-01,1.682427547446233018e-01
1.078999999999999959e+00,-1.250310061305592579e-01,6.424269374292108647e-01,7.921905040592384928e-02
1.080000000000000071e+00,-5.317016611213436494e-01,5.721559456423152001e-01,-3.416991132505466794e-02
1.080999999999999961e+00,-5.463585395193910621e-01,4.783760434876258710e-02,-6.027013238154622227e-02
1.082000000000000073e+00,-6.034079451222066487e-02,-5.269683269118812241e-01,-2.832432284464457897e-02
1.082999999999999963e+00,5.245644693832104410e-01,-6.364725344659372119e-01,8.338001303779582485e-03
1.084000000000000075e+00,7.209236381466774812e-01,-2.253843472660029268e-01,-2.503209190823871624e-02
1.084999999999999964e+00,3.055008423254780836e-01,3.502140569363683120e-01,-7.546818330638764560e-02
1.086000000000000076e+00,-3.978878493934280280e-01,6.013588471187005791e-01,-5.753991324396404150e-02
1.086999999999999966e+00,-8.128110083353662363e-01,3.408665852127206741e-01,4.881043456454970536e-02
1.088000000000000078e+00,-5.612863399997150005e-01,-1.606934089742283189e-01,1.783325637899892679e-01
1.088999999999999968e+00,1.581535298743913520e-01,-4.767165058746810624e-01,1.681638222480057177e-01
1.090000000000000080e+00,7.827123672376399277e-01,-3.734097264295732077e-01,-1.461415350669263355e-02
1.090999999999999970e+00,7.604679598993189238e-01,-1.340407552061150106e-03,-2.332550446582540016e-01
1.092000000000000082e+00,1.176974222361672068e-01,3.245799723760228184e-01,-2.825181593211969489e-01
1.092999999999999972e+00,-6.242183364457942751e-01,3.327589838121562393e-01,-9.642460145236934899e-02
1.094000000000000083e+00,-8.450437757364733793e-01,9.067635230419071601e-02,2.112291512260479898e-01
1.094999999999999973e+00,-3.781296407444789121e-01,-1.583453272326501016e-01,3.946673728594898845e-01
1.096000000000000085e+00,3.720197193555371817e-01,-2.135567611915567265e-01,2.461345641492173331e-01
1.096999999999999975e+00,7.956307586634586704e-01,-9.095761248903840024e-02,-1.252623930042329747e-01
1.098000000000000087e+00,5.667016584366456611e-01,5.701747821878585393e-02,-4.201277027648678275e-01
1.098999999999999977e+00,-1.007649025444156687e-01,7.956270145206244260e-02,-3.937036218658170883e-01
1.100000000000000089e+00,-6.412034902115398838e-01,1.329172523634162585e-02,-3.729593083385385893e-02
1.100999999999999979e+00,-6.299854451092870011e-01,-1.959301308884269996e-02,3.734530258040207329e-01
1.102000000000000091e+00,-1.180808116544260211e-01,4.426188253861518956e-02,4.942383056141543829e-01
1.102999999999999980e+00,4.236116770597127545e-01,1.224136281463778508e-01,2.250282457923263868e-01
1.104000000000000092e+00,5.616826822746390224e-01,6.530258480698371282e-02,-2.465324234078195564e-01
1.104999999999999982e+00,2.618736387941657529e-01,-1.256516365909148003e-01,-5.211473220628867198e-01
1.106000000000000094e+00,-1.890372604132070644e-01,-2.684489302089108076e-01,-3.646601122465831790e-01
1.106999999999999984e+00,-4.091280446156841388e-01,-1.976741233816123045e-01,7.459002207245417349e-02
1.108000000000000096e+00,-2.718932711298877591e-01,9.362568834260033557e-02,4.520286628222233150e-01
1.108999999999999986e+00,2.287679702856893621e-02,3.739351177614245736e-01,4.630925535086825584e-01
1.110000000000000098e+00,2.246979629006468360e-01,3.652193140547210781e-01,1.187336344936863186e-01
1.110999999999999988e+00,1.690603072500584114e-01,2.505095300436692603e-03,-3.150574509563195402e-01
1.112000000000000099e+00,1.738725975370144713e-02,-4.105883229654432864e-01,-4.677168396893331415e-01
1.112999999999999989e+00,-5.731057370194118233e-02,-5.202078831268526216e-01,-2.498847640365446376e-01
1.114000000000000101e+00,-9.909430661818763308e-03,-1.686627931079214271e-01,1.462247894693330108e-01
1.114999999999999991e+00,4.098595981523452808e-02,3.505785620188735519e-01,3.943114523906237623e-01
1.116000000000000103e+00,-9.627142528301983748e-03,6.190864889097524859e-01,3.131548609509488545e-01
1.116999999999999993e+00,-1.552453287461144360e-01,3.661903906313328516e-01,2.100295661362212244e-03
1.118000000000000105e+00,-2.094396366993807601e-01,-2.100757228102762553e-01,-2.715416182933012013e-01
1.118999999999999995e+00,-2.320388199019194839e-02,-6.439390689362152198e-01,-3.036611482295517028e-01
1.120000000000000107e+00,2.637294851454898836e-01,-5.390180213858080105e-01,-1.089070208836222520e-01
1.120999999999999996e+00,3.861111885339978955e-01,1.797645250141148912e-02,1.320548636200791215e-01
1.122000000000000108e+00,1.809928989907507446e-01,5.730627126989432663e-01,2.016886350496258640e-01
1.122999999999999998e+00,-2.688389755065070941e-01,6.450603151461760110e-01,1.134564571665351157e-01
1.124000000000000110e+00,-5.604298030923516860e-01,1.887064699888980068e-01,-3.299851814151289614e-02
1.125000000000000000e+00,-3.851639479496213880e-01,-4.257857406166579151e-01,-9.780269428377015573e-02
1.125999999999999890e+00,1.512840011953033303e-01,-6.711454051567746770e-01,-5.699695759274567980e-02
1.127000000000000002e+00,6.224499192248706958e-01,-3.494925848604751306e-01,1.378469518506876025e-02
1.127999999999999892e+00,6.302393282189324708e-01,2.245277351890485606e-01,6.592816296990247106e-03
1.129000000000000004e+00,7.883185769736980597e-02,5.997552871068828617e-01,-2.852438857992456792e-02
1.129999999999999893e+00,-5.720124730549255299e-01,4.674471166853534920e-01,-4.432610436554482169e-02
1.131000000000000005e+00,-7.882381826316172679e-01,-3.588925642357634893e-02,2.630499507660223613e-02
1.131999999999999895e+00,-3.409914246226983803e-01,-4.677219305342499300e-01,1.246367340694570780e-01
1.133000000000000007e+00,4.069184227169961865e-01,-4.661691219428394373e-01,1.490288799311476065e-01
1.133999999999999897e+00,8.462600712471166631e-01,-1.128337432231009962e-01,1.502301614703743793e-03
1.135000000000000009e+00,6.023904325657195580e-01,2.972979359967544699e-01,-1.829725038078942323e-01
1.135999999999999899e+00,-1.466043196750295707e-01,4.061900651689113739e-01,-2.725246326543551145e-01
1.137000000000000011e+00,-7.741129425450994361e-01,1.891308529524113879e-01,-1.197826461743980442e-01
1.137999999999999901e+00,-7.715444632867386465e-01,-1.346464139309613561e-01,1.701692575535296570e-01
1.139000000000000012e+00,-1.296975104429353709e-01,-2.756627826254846592e-01,3.550935629541006611e-01
1.139999999999999902e+00,5.921383841916348922e-01,-1.689047143304490406e-01,2.576367419693372796e-01
1.141000000000000014e+00,8.180584863885296265e-01,2.941417195972719639e-02,-7.111251998452809697e-02
1.141999999999999904e+00,3.818631067187257533e-01,1.223007474428497166e-01,-3.853724758416654517e-01
1.143000000000000016e+00,-3.292623760355827822e-01,7.487871463851468457e-02,-4.070153115780054121e-01
1.143999999999999906e+00,-7.402666131594586307e-01,-1.842923723864676533e-03,-8.397485006397285845e-02
1.145000000000000018e+00,-5.164296128088101678e-01,-8.689243077312442179e-03,3.204633906848696756e-01
1.145999999999999908e+00,7.370749148196401035e-02,6.223721018328297327e-02,4.973396162951483901e-01
1.147000000000000020e+00,5.530560340253618534e-01,7.276027385223123034e-02,2.600414827047219934e-01
1.147999999999999909e+00,5.434828823226459660e-01,-5.756057656666083849e-02,-1.966024639177998967e-01
1.149000000000000021e+00,1.188666700675420212e-01,-1.962673721827218887e-01,-5.037383757614378732e-01
1.149999999999999911e+00,-3.455753935905986340e-01,-2.115753879218163214e-01,-4.035620589664176139e-01
1.151000000000000023e+00,-4.527597696833666752e-01,1.916970857636457470e-02,2.374146697603241735e-02
1.151999999999999913e+00,-2.033566253456453032e-01,2.860035561028065887e-01,4.252837558547177821e-01
1.153000000000000025e+00,1.402437447725617681e-01,3.521966091235808616e-01,4.898273331903881256e-01
1.153999999999999915e+00,2.883019407603609752e-01,1.007191228161062463e-01,1.606058418901683826e-01
1.155000000000000027e+00,1.665700995451981914e-01,-3.093188579836048668e-01,-2.843955634299447088e-01
1.155999999999999917e+00,-2.000618911488914395e-02,-4.875588634431962110e-01,-4.857478267527973181e-01
1.157000000000000028e+00,-9.068133424087307382e-02,-2.617501834999823029e-01,-3.063547904926372523e-01
1.157999999999999918e+00,-5.392336555976647017e-02,2.303961070890074569e-01,1.060419802522503535e-01
1.159000000000000030e+00,1.794838143314337123e-02,5.736818305239487215e-01,4.020930926052058152e-01
1.159999999999999920e+00,-1.382408483078298618e-02,4.554685967257032786e-01,3.682462521388383814e-01
1.161000000000000032e+00,-1.257357868955338021e-01,-6.201425825139723208e-02,4.180349229838833253e-02
1.161999999999999922e+00,-1.286592909698922038e-01,-5.740487640489732035e-01,-2.613461976075177051e-01
1.163000000000000034e+00,5.668242370672213482e-02,-6.102501279689286351e-01,-3.384567638059622907e-01
1.163999999999999924e+00,2.796562656701461203e-01,-1.238037966397250167e-01,-1.301854704871843738e-01
1.165000000000000036e+00,3.095734604410043111e-01,4.690743213526837319e-01,1.266405084434213402e-01
1.165999999999999925e+00,4.230642623241671896e-02,6.931493776223930370e-01,2.552656930577784089e-01
1.167000000000000037e+00,-3.593267137643194609e-01,3.313448879158974458e-01,1.543384073117055610e-01
1.167999999999999927e+00,-5.136663629409788934e-01,-3.051261176187121671e-01,-2.859722608435454061e-02
1.169000000000000039e+00,-2.206223387929111823e-01,-6.774556079040667811e-01,-1.391519841862403351e-01
1.169999999999999929e+00,3.090873415481772968e-01,-4.895434328985065475e-01,-9.727793150121619159e-02
1.171000000000000041e+00,6.434931919785920051e-01,1.017600455888823807e-01,-2.236471321582005761e-02
1.171999999999999931e+00,4.596212229384385450e-01,5.737102633138226881e-01,3.529449962418478720e-02
1.173000000000000043e+00,-1.553283452681564203e-01,5.602679917115460650e-01,5.618776774793707296e-03
1.173999999999999932e+00,-6.982725096338510129e-01,8.500973454642281324e-02,-3.076177644886588652e-02
1.175000000000000044e+00,-6.850469191266767011e-01,-4.180007735694629134e-01,2.021834798132945716e-03
1.175999999999999934e+00,-1.051082893407893348e-01,-5.460316631701493950e-01,8.034120680930914582e-02
1.177000000000000046e+00,5.956476875626557366e-01,-2.326592322454838768e-01,1.236401320336752291e-01
1.177999999999999936e+00,8.369540374467392407e-01,2.269974174660374933e-01,2.290376276933655739e-02
1.179000000000000048e+00,3.722621351094005937e-01,4.533551062764247241e-01,-1.339832806962779066e-01
1.179999999999999938e+00,-4.030697327929899654e-01,2.815972534329880816e-01,-2.323725605829030094e-01
1.181000000000000050e+00,-8.513180124162346152e-01,-7.368084587252841933e-02,-1.221737929664278577e-01
