time,acc_x,acc_y,acc_z
0.000000000000000000e+00,8.429081989664170826e-02,7.019202711968118569e-02,2.023501777946303329e-02
1.000000000000000021e-03,4.120872451033869704e-02,4.581930468712629850e-02,4.434211856108007804e-02
2.000000000000000042e-03,-5.016846032099015612e-02,-5.150643585846105543e-02,-1.626569926641479452e-02
3.000000000000000062e-03,-6.868569098588439559e-02,-6.652817823711808243e-02,-4.941697517251934790e-02
4.000000000000000083e-03,-3.423663475475131890e-02,-4.396075459740277080e-02,-8.368966550938685550e-03
5.000000000000000104e-03,4.438600801412828645e-02,2.267187141313684734e-02,5.760455004394707257e-02
6.000000000000000125e-03,7.164399202324479854e-02,5.734718418167354670e-02,3.423323490568272454e-02
7.000000000000000146e-03,-2.337691271930477516e-02,-3.297095459215725055e-02,1.489491083369210529e-03
8.000000000000000167e-03,-9.003687315405033142e-02,-5.555063483662747714e-02,-3.823525184673604027e-02
8.999999999999999320e-03,-5.588390993822313357e-02,-1.776813547301549570e-02,-2.924008378040456047e-02
1.000000000000000021e-02,3.149591667488881724e-02,7.184235699221129534e-02,1.839856685611452811e-02
1.099999999999999936e-02,1.040512246646687206e-01,7.757747082921269410e-02,6.988728509844667480e-02
1.200000000000000025e-02,3.113310696543942005e-02,-4.271358530444517576e-03,-4.792187946684955957e-03
1.299999999999999940e-02,-9.207272503384945905e-02,-6.197631527399757173e-02,-3.000907435652249225e-02
1.400000000000000029e-02,-7.561566846796265173e-02,-5.269561426827802653e-02,-4.838396796092735153e-02
1.499999999999999944e-02,4.066937986694348084e-02,2.458643425726697584e-02,-1.105984910468718087e-02
1.600000000000000033e-02,9.965481575206355802e-02,5.965268312430240666e-02,6.852629442921281955e-02
1.700000000000000122e-02,5.469639523867964037e-02,-1.328881003088841842e-02,3.530180227332520293e-02
1.799999999999999864e-02,-4.483849652675118286e-02,-5.620579364048985255e-02,-5.074350259345700165e-02
1.899999999999999953e-02,-5.082986653930434556e-02,-3.132008086426667226e-02,-6.027372948731521407e-02
2.000000000000000042e-02,-4.042767050523882882e-03,4.553084579233301898e-02,-1.792917223602379789e-02
2.100000000000000130e-02,8.965210312548101135e-02,7.004498670731876264e-02,6.008101656133935098e-02
2.199999999999999872e-02,5.699951394355912138e-02,3.541045699452187445e-02,7.331976596778151667e-02
2.299999999999999961e-02,-9.898450064817114827e-03,-3.695671588197538271e-02,-2.055369023640257753e-03
2.400000000000000050e-02,-7.803735618517215755e-02,-7.712702520502567882e-02,-7.048190265752991845e-02
2.500000000000000139e-02,-9.466176976245709029e-03,1.707610644324427177e-03,-6.328073819429140545e-02
2.599999999999999881e-02,6.649052184713864777e-02,6.885338988212039157e-02,2.453437615562874263e-02
2.699999999999999969e-02,6.977996999835729686e-02,6.043138980058995746e-02,4.870105633570701031e-02
2.800000000000000058e-02,1.653073510731347751e-03,-2.108769346411903597e-02,-6.084602304928860526e-03
2.900000000000000147e-02,-7.242296762573019464e-02,-4.991448256342512213e-02,-2.499823212341386464e-02
2.999999999999999889e-02,-8.289596202098714617e-02,-2.876079576805206858e-02,-6.857710704950717440e-02
3.099999999999999978e-02,6.688268643436177940e-02,6.738778442134311930e-02,1.147844018642146455e-02
3.200000000000000067e-02,3.195300152317882836e-02,4.644880158153614352e-02,3.964031066027003981e-03
3.300000000000000155e-02,1.309334302223772416e-02,-1.898973564514837634e-02,4.918614804921850325e-02
3.400000000000000244e-02,-8.249552555510597518e-02,-6.465312496917008378e-02,-6.995618297040810674e-02
3.500000000000000333e-02,-4.289850231003937420e-02,-2.684038590490214066e-02,-7.528947699224970702e-02
3.599999999999999728e-02,3.771150559226073284e-02,8.081061821281533553e-02,2.538943769548380417e-03
3.699999999999999817e-02,7.568649742340410880e-02,5.041706394029132898e-02,4.351078140041594183e-02
3.799999999999999906e-02,7.423038814662440664e-03,-1.716321486565168877e-02,2.657239819632315619e-02
3.899999999999999994e-02,-4.911750088866081998e-02,-8.154699501933501682e-02,-2.768528437363264663e-02
4.000000000000000083e-02,-7.412886611974801865e-02,-3.429222264434602513e-02,-8.210584036675219743e-02
4.100000000000000172e-02,1.007126016439588261e-02,3.225507291880530536e-02,-2.972977659250542956e-02
4.200000000000000261e-02,1.023547752796252208e-01,8.561716906311260533e-02,4.333478389709388701e-02
4.299999999999999656e-02,5.345384157003965631e-02,5.149112217249782360e-03,4.187670031392341091e-02
4.399999999999999745e-02,-3.177122739968978038e-02,-9.927719769550978623e-02,3.171201048088389401e-02
4.499999999999999833e-02,-9.536095142739819952e-02,-4.878855712178228887e-02,-3.292734197431974180e-02
4.599999999999999922e-02,-1.141614116305046320e-02,3.103690228101019591e-02,-2.152290597810322878e-02
4.700000000000000011e-02,8.547927624838674854e-02,7.512931770865205472e-02,3.220131952331275332e-02
4.800000000000000100e-02,5.948660922213182267e-02,1.230744543446342550e-02,6.609351996486090286e-02
4.900000000000000189e-02,-1.959797194213519500e-03,-3.037035410904992058e-02,2.680224632224157549e-02
5.000000000000000278e-02,-8.138814061457343152e-02,-8.854231635914297516e-02,-2.978086576136041927e-02
5.099999999999999672e-02,-2.444475798393226998e-02,-3.649999165999803872e-03,-8.245945757539856202e-02
5.199999999999999761e-02,4.421131253408019934e-02,5.399312241699428389e-02,-3.212722657214036551e-03
5.299999999999999850e-02,7.050799663968455866e-02,5.903098465904928205e-02,3.517029111885558446e-02
5.399999999999999939e-02,9.614845130060101913e-03,-5.084478464663578362e-02,1.986607247519674158e-02
5.500000000000000028e-02,-8.649265359269486808e-02,-6.875470427879031010e-02,-2.796222319854279811e-02
5.600000000000000117e-02,-7.634119157036833858e-02,1.533400179522560226e-02,-3.563935766811341527e-02
5.700000000000000205e-02,2.864111620674342912e-02,6.284941131626525790e-02,1.576068037747488642e-03
5.800000000000000294e-02,8.691990390781827169e-02,6.050498423120631575e-02,3.028292091079110016e-02
5.899999999999999689e-02,6.518586281570637291e-03,-1.072100920258520305e-03,5.430368172053163384e-02
5.999999999999999778e-02,-6.328663032869888405e-02,-5.346508601119054349e-02,-3.994808233510615397e-02
6.099999999999999867e-02,-7.917415929091541071e-02,-1.108650977414847236e-02,-1.693035092194239769e-02
6.199999999999999956e-02,2.771439437754205388e-03,4.845365717341855449e-02,-2.316859308366989514e-02
6.300000000000000044e-02,8.228516018707419943e-02,5.044668997776063923e-02,-1.001565739732903498e-02
6.400000000000000133e-02,4.311632312417774948e-02,-3.042979497580086679e-02,2.877835598273133927e-02
6.500000000000000222e-02,-6.155919085821263265e-02,-6.600189556681528014e-02,-3.667592562525485728e-03
6.600000000000000311e-02,-9.847669730474455096e-02,-2.987362496938932022e-02,-1.925134779579365518e-02
6.700000000000000400e-02,-1.388823672454049356e-02,3.781993112205545710e-02,-5.559344041475734743e-02
6.800000000000000488e-02,6.798184938604692751e-02,7.191828293522423143e-02,1.163335578309989023e-02
6.900000000000000577e-02,4.292097892994079650e-02,-1.639264675683061237e-02,3.308092390294816582e-02
7.000000000000000666e-02,-3.050996592022580528e-02,-5.563106583221294477e-02,3.091423484066062669e-02
7.099999999999999367e-02,-1.104152553824317012e-01,-6.065900531213725549e-02,-5.312425989837428475e-02
7.199999999999999456e-02,-3.061635337945508781e-02,4.327226884770853099e-02,-3.432657239472221289e-02
7.299999999999999545e-02,5.193583351099668316e-02,6.779445841097013481e-02,-3.258096751205152852e-02
7.399999999999999634e-02,9.570599410827045073e-02,1.622914589692336235e-02,5.393650465496051261e-02
7.499999999999999722e-02,9.624959497464776609e-03,-3.259809692926975144e-02,5.208588146375786598e-02
7.599999999999999811e-02,-6.343095059689302095e-02,-7.392601435476792160e-02,-1.577204092333024709e-03
7.699999999999999900e-02,-4.387102036139291228e-02,1.335138677628444973e-02,-6.177417370483841846e-02
7.799999999999999989e-02,4.857265559277663264e-02,6.714972539310672117e-02,-2.796403880167875125e-02
7.900000000000000078e-02,5.608924783976890899e-02,1.171210569501922837e-02,4.517866450262578160e-02
8.000000000000000167e-02,2.403219102858665870e-02,-5.864931706590880561e-02,3.461114273483380938e-02
8.100000000000000255e-02,-6.580395369324928967e-02,-6.239377379378585609e-02,-1.296816901536439713e-02
8.200000000000000344e-02,-4.956069913986829029e-02,8.014187623874393859e-03,-3.774574784455078658e-02
8.300000000000000433e-02,5.242801832799789258e-03,1.018064082651767288e-01,-4.328357338249638753e-02
8.400000000000000522e-02,7.353420392001785988e-02,4.775049676134471982e-02,5.770395462003597917e-03
8.500000000000000611e-02,5.849608908659590517e-02,-4.160511947073941563e-02,5.838670619364534631e-02
8.599999999999999312e-02,-5.587307264489305841e-02,-4.470753494429993008e-02,2.534308166909842591e-02
8.699999999999999400e-02,-6.796005287597202404e-02,2.271480020681827458e-02,-3.233649295158029513e-02
8.799999999999999489e-02,7.105936343543885376e-03,6.807194265120371235e-02,-2.285628413912534421e-02
8.899999999999999578e-02,8.431640010152113840e-02,5.749992446319775879e-02,7.765288875359829292e-03
8.999999999999999667e-02,4.237050099038088685e-02,-4.439461243117168339e-03,5.486063055764763691e-02
9.099999999999999756e-02,-3.201686436922232537e-02,-4.844817990940059743e-02,6.469451695843761452e-02
9.199999999999999845e-02,-5.372873875450667747e-02,-1.312765121271908253e-02,-2.221113604590279136e-02
9.299999999999999933e-02,-3.091873992526094836e-02,3.244392916327615978e-02,-5.362241652877015874e-02
9.400000000000000022e-02,6.421796918740386995e-02,7.151183157182974814e-02,-3.160133002325839040e-03
9.500000000000000111e-02,1.136568487300341906e-01,-2.374180448030873899e-02,2.773811605398183652e-02
9.600000000000000200e-02,-2.975851589072476058e-02,-7.820942060254122696e-02,4.180167298447974578e-02
9.700000000000000289e-02,-9.993473151865449322e-02,-9.789725997448107606e-03,-2.304823313139212418e-02
9.800000000000000377e-02,-2.379170173524910656e-02,5.606143834346846710e-02,-4.859266388654388813e-02
9.900000000000000466e-02,5.344763480229893643e-02,6.319804907154340234e-02,-2.970661658978667949e-02
1.000000000000000056e-01,6.550367241150557851e-02,2.682856980294755916e-03,1.244059895962607368e-02
1.010000000000000064e-01,1.740473413341380934e-02,-4.173125726765186672e-02,5.448947720045918541e-02
1.019999999999999934e-01,-6.565672415516170257e-02,-3.770488705127270773e-02,1.394993535846718660e-02
1.029999999999999943e-01,-6.032237033299159973e-02,3.057848672951615429e-02,-4.436645350158217871e-02
1.039999999999999952e-01,2.990191103089127889e-02,8.819115291328588624e-02,-4.964050717541103330e-02
1.049999999999999961e-01,1.086920217947035944e-01,1.725282611406746269e-02,-9.740443489503416638e-03
1.059999999999999970e-01,3.847048695382668942e-02,-6.153789644797345859e-02,4.768113131382555048e-02
1.069999999999999979e-01,-3.678170906152800068e-02,-4.407298463301270730e-02,3.675266890410174014e-02
1.079999999999999988e-01,-6.115734675973245188e-02,1.246261735034352551e-02,-3.031676098249067031e-02
1.089999999999999997e-01,2.658368112200997987e-02,9.459170807537845005e-02,-6.288732381202954969e-02
1.100000000000000006e-01,9.472388577569634815e-02,2.439139709772102441e-02,-1.682030811880568357e-03
1.110000000000000014e-01,7.834490102813840284e-02,-4.403662234601534581e-02,4.388523475456399675e-02
1.120000000000000023e-01,-1.631426231401147953e-02,-6.485737739736868734e-02,4.447615864001701336e-02
1.130000000000000032e-01,-5.831241130380810517e-02,4.659224674080778179e-03,-1.459506993575011326e-02
1.140000000000000041e-01,-2.071567329057697610e-02,3.647201002813658249e-02,-6.185946264279242046e-02
1.150000000000000050e-01,8.700251972979858306e-02,6.022160354340082289e-02,-2.614574565599828843e-02
1.160000000000000059e-01,8.308431891809471559e-02,-1.423524884422405941e-02,2.350211979443147733e-02
1.170000000000000068e-01,-2.662639182657809949e-03,-6.486034217703111338e-02,5.803002824699860646e-02
1.179999999999999938e-01,-7.882421620961359288e-02,-2.738898794115782187e-02,-2.973395796218972036e-03
1.189999999999999947e-01,-3.690573345529907234e-02,5.289190840083254908e-02,-3.377651185386731925e-02
1.199999999999999956e-01,6.175372713475903164e-02,6.092611331778557265e-02,-2.712391490248439868e-02
1.209999999999999964e-01,8.147065113845554374e-02,-3.211978542316727865e-03,1.718533827463271380e-02
1.219999999999999973e-01,-3.110777873590122450e-03,-6.655592306186632057e-02,2.869835147577533274e-02
1.229999999999999982e-01,-7.656006529023376417e-02,-2.442338805935770005e-02,3.037430911274750789e-02
1.239999999999999991e-01,-5.771227560926252970e-02,4.889744488087219287e-02,-3.462977079005313125e-02
1.250000000000000000e-01,4.356215533666618622e-02,4.956570330899046084e-02,-3.586034426183326573e-02
1.260000000000000009e-01,5.224143141143358648e-02,-1.593070462907934803e-02,-1.590140443232737968e-02
1.270000000000000018e-01,-1.199607100299957679e-03,-5.331503965359830205e-02,4.070015247165718192e-02
1.280000000000000027e-01,-8.086627285680382526e-02,-1.346419417023340601e-02,4.907881499406840931e-02
1.290000000000000036e-01,-1.025154725909165343e-01,3.666772909083496762e-02,8.103421839104106919e-03
1.300000000000000044e-01,-2.342700467382657220e-02,6.316473613616495342e-02,-5.146398934302405526e-02
1.310000000000000053e-01,8.889139827570975705e-02,6.158069680745082222e-03,-4.650152107618271691e-02
1.320000000000000062e-01,5.991775060761585225e-02,-6.230265708946353814e-02,4.820150227290258271e-02
1.330000000000000071e-01,-5.217839268875978237e-02,-4.903844087855135925e-02,5.598216316538005832e-02
1.340000000000000080e-01,-8.425784266534980249e-02,9.451704999791157857e-03,-9.305116809015500853e-03
1.350000000000000089e-01,-7.135946454458612668e-04,6.437206018578078837e-02,-5.560776390569962396e-02
1.360000000000000098e-01,4.095982659116067376e-02,2.817419407397950964e-02,-2.186519025352698375e-02
1.370000000000000107e-01,5.932159379336990335e-02,-5.785825247161229673e-02,4.122130884971628162e-02
1.380000000000000115e-01,-8.579956298737862266e-03,-3.150026304731034371e-02,3.014758048188454984e-02
1.390000000000000124e-01,-7.631996352604615563e-02,1.291303730878998711e-02,8.858517077107028875e-03
1.400000000000000133e-01,-1.975335663705599099e-02,6.989933242290970183e-02,-4.278684864423955292e-02
1.409999999999999865e-01,4.341910485806456388e-02,4.516637069407995059e-02,-3.449397444334615509e-02
1.419999999999999873e-01,6.915443514947090808e-02,-4.042235495488613606e-02,-5.019456153874756084e-03
1.429999999999999882e-01,-1.998232383160977385e-02,-6.784303978991661210e-02,3.338287076705422768e-02
1.439999999999999891e-01,-6.629860641539006560e-02,-6.651009560767234992e-03,3.053440975478001473e-02
1.449999999999999900e-01,-5.367344157947370742e-02,5.719787562682736304e-02,-1.647245407893986949e-02
1.459999999999999909e-01,3.216332104588264656e-02,1.496116907519115177e-02,-4.396921729243902927e-02
1.469999999999999918e-01,8.640659985454501868e-02,-2.722499976711155109e-02,-1.585146270568141627e-02
1.479999999999999927e-01,2.523708280670765303e-02,-5.178995087674934800e-02,1.513823175779055105e-02
1.489999999999999936e-01,-6.230001523074778225e-02,-9.252945439255802138e-03,5.745258101551373869e-02
1.499999999999999944e-01,-8.737274370318152961e-02,5.866926870649998710e-02,-2.298951096335949407e-02
1.509999999999999953e-01,-2.465866184050932025e-02,7.021323388538718013e-02,-4.204050387684693524e-02
1.519999999999999962e-01,8.635982427488085589e-02,7.082986987343854832e-05,-2.939283949611544433e-02
1.529999999999999971e-01,5.338786797465647216e-02,-5.824124406509743890e-02,2.398211224530262531e-02
1.539999999999999980e-01,-5.278591315504762432e-02,-2.991534311477158162e-02,1.382506217879417125e-02
1.549999999999999989e-01,-1.005104489176735089e-01,9.131484412005464943e-03,1.327854780534923861e-02
1.559999999999999998e-01,-9.749653856936948970e-03,7.432835475601379249e-02,-4.423678394914162815e-02
1.570000000000000007e-01,7.656583034800887311e-02,1.028108944930923065e-02,-4.693869476157432052e-02
1.580000000000000016e-01,5.543910128418411132e-02,-5.187796419748657434e-02,1.050607406708537134e-03
1.590000000000000024e-01,-3.229225902225239808e-02,-3.321713832760710833e-02,3.470783353494950180e-02
1.600000000000000033e-01,-7.878459193743816980e-02,3.345559522792559276e-02,1.342780222208618188e-02
1.610000000000000042e-01,-3.685875625048349452e-02,8.673648666917833927e-02,-2.484619025053022220e-02
1.620000000000000051e-01,8.808901159804626013e-02,-7.345956319391649253e-03,-3.045637053669077512e-02
1.630000000000000060e-01,7.747147860587172419e-02,-3.499117774032362710e-02,1.260805645455836607e-03
1.640000000000000069e-01,-1.290717076193456485e-02,-4.042518726776962029e-02,7.783833053404917712e-02
1.650000000000000078e-01,-9.576965095894922342e-02,2.660655916951887995e-02,3.534333307389118245e-02
1.660000000000000087e-01,-4.610423887963082529e-02,3.182813545230983587e-02,-2.638979774008018073e-02
1.670000000000000095e-01,4.021265630265181967e-02,3.855390518899368124e-02,-5.015046512952706786e-02
1.680000000000000104e-01,1.037330188769915729e-01,-5.135559579414745307e-02,2.502346765506300620e-03
1.690000000000000113e-01,7.351136989494895177e-03,-7.133216287017046797e-02,2.523475871111963836e-02
1.700000000000000122e-01,-8.995378348994848006e-02,-1.569562794263973729e-02,8.010573467934112291e-02
1.710000000000000131e-01,-5.369263074435975253e-02,4.466115752796972344e-02,-1.290862693467688220e-02
1.719999999999999862e-01,-9.174636676117354714e-03,4.111748373471544454e-02,-2.751936771136896318e-02
1.729999999999999871e-01,7.761883602969163465e-02,-1.695982221181810412e-02,-2.019430493872943072e-02
1.739999999999999880e-01,4.579128244952195004e-02,-8.691430446054164427e-02,3.001917742227031699e-02
1.749999999999999889e-01,-6.476570812601172011e-02,-5.663977025181166775e-03,3.578669146036551896e-02
1.759999999999999898e-01,-9.157568680946938378e-02,6.133349801079560071e-02,2.174479799408573708e-02
1.769999999999999907e-01,1.190267154960965995e-02,4.177096602727099067e-02,-6.216832192097561383e-02
1.779999999999999916e-01,7.507241004208629886e-02,-1.574961501624888224e-02,-4.613544031444009874e-02
1.789999999999999925e-01,5.102655742275183370e-02,-5.518659818834076997e-02,1.716415475279215938e-02
1.799999999999999933e-01,-1.957852406841715034e-02,-1.785044688886679512e-02,6.333925385362332294e-02
1.809999999999999942e-01,-7.543032035530207458e-02,5.596644826920758181e-02,2.588630359846880863e-02
1.819999999999999951e-01,-2.758419463172176109e-02,3.556103629706000580e-02,-2.924721070234556283e-02
1.829999999999999960e-01,6.779511139484706295e-02,7.162306467374712077e-03,-3.325285294202757341e-02
1.839999999999999969e-01,7.651426893270313334e-02,-7.435089505523667652e-02,1.807450672086995114e-02
1.849999999999999978e-01,-2.431952286669049335e-02,-2.654990422855468823e-02,3.611942648127280941e-02
1.859999999999999987e-01,-7.819782998162662369e-02,-1.206388130099922580e-02,6.725205809053780293e-02
1.869999999999999996e-01,-1.573468743638192779e-02,7.722247298032385021e-02,-2.505376642907655715e-02
1.880000000000000004e-01,4.000079223881946450e-02,1.359811100214836088e-02,-6.782638202346304157e-02
1.890000000000000013e-01,7.721803523039720563e-02,-5.638857269791507781e-02,-1.119279324455940694e-02
1.900000000000000022e-01,-2.072013071624492775e-02,-3.357475123752124563e-02,3.374318957555348664e-02
1.910000000000000031e-01,-7.492508995967175900e-02,3.562100939960692603e-02,5.544642321553635428e-02
1.920000000000000040e-01,-4.906603772261209501e-02,7.291683853217086064e-02,9.198567817640609240e-03
1.930000000000000049e-01,2.183539655368057705e-02,5.930785123280710343e-03,-6.654133508896090121e-02
1.940000000000000058e-01,7.134253567374088112e-02,-5.836761012470597504e-02,-2.362850543513063048e-02
1.950000000000000067e-01,3.028569929842960667e-02,-4.915996585259594515e-02,1.710265627768522371e-03
1.960000000000000075e-01,-1.208883169229827831e-01,4.171529145414676820e-04,4.980002766543763920e-02
1.970000000000000084e-01,-6.020981337327156041e-02,5.979347995854810555e-02,3.446307155049542492e-02
1.980000000000000093e-01,-6.065414390212892255e-03,2.418960801270350625e-02,-4.205463822307850541e-02
1.990000000000000102e-01,6.686694861782552235e-02,-3.760916369910752288e-02,-5.853095042930613057e-02
2.000000000000000111e-01,4.543677720519302687e-02,-6.429022103469290983e-02,-7.248067224481507566e-03
2.010000000000000120e-01,-4.496789563267536427e-02,4.690100487763103343e-03,4.207759021458904597e-02
2.020000000000000129e-01,-5.655678878336201088e-02,5.076523750355201037e-02,2.046439332394233562e-02
2.030000000000000138e-01,-3.218088146776475894e-02,2.196778159523713261e-02,-2.173186973116944185e-02
2.039999999999999869e-01,8.885407773154198330e-02,-2.018673350945834194e-02,-4.032160203739208748e-02
2.049999999999999878e-01,7.887603922266875345e-02,-4.515948691325483155e-02,-2.512610919486926372e-02
2.059999999999999887e-01,5.594825784266248617e-03,-1.616377799164496823e-02,4.240715979337328356e-02
2.069999999999999896e-01,-1.012985127011324232e-01,6.017982015713091437e-02,4.152102657742223063e-02
2.079999999999999905e-01,-4.048056823951142608e-02,2.281511085609563144e-02,-2.987971172134899420e-02
2.089999999999999913e-01,6.664142181301971335e-02,8.036627060919737317e-03,-6.549059385410282985e-02
2.099999999999999922e-01,9.460889465314324676e-02,-7.792812904541311647e-02,-3.719674586487051182e-02
2.109999999999999931e-01,1.771308910731430458e-02,-4.065250570331468971e-02,4.512336190223939503e-02
2.119999999999999940e-01,-7.308493051401114549e-02,6.913174026064115851e-02,7.165633986096091312e-02
2.129999999999999949e-01,-2.919673153911953381e-02,5.756753007013384882e-02,2.230670713885770859e-02
2.139999999999999958e-01,4.389654605611842397e-02,1.807914366559530001e-03,-4.226695319825531788e-02
2.149999999999999967e-01,7.070634002525046091e-02,-5.254712441706372444e-02,-2.615733403991441983e-02
2.159999999999999976e-01,2.396551492770299455e-02,-4.307081204543351804e-02,-3.561015427172193617e-04
2.169999999999999984e-01,-4.470739480690144596e-02,8.513925951849436388e-03,2.701955903453993890e-02
2.179999999999999993e-01,-9.043110187673332467e-02,5.457476887874371935e-02,1.803096810073704509e-02
2.190000000000000002e-01,2.624108422333922604e-03,2.041781556651985421e-02,-3.053308808807406183e-02
2.200000000000000011e-01,8.589606078692216262e-02,-5.284508765504745964e-02,-5.348471621296087969e-02
2.210000000000000020e-01,4.354313837121248643e-02,-3.692890448072962128e-02,-3.053944814931330506e-02
2.220000000000000029e-01,-1.903577008737283860e-02,1.691757586178491493e-02,3.236939008181637795e-02
2.230000000000000038e-01,-9.150445080136790366e-02,4.768600449130533381e-02,2.233569198321936136e-02
2.240000000000000047e-01,-3.846020003674207113e-03,2.933254928438704980e-03,-8.955189700333005681e-03
2.250000000000000056e-01,7.807068436097402975e-02,-2.538868618997872431e-02,-1.995046720614624194e-02
2.260000000000000064e-01,6.845577147458668799e-02,-5.851094044206085060e-02,-3.828420191018210711e-02
2.270000000000000073e-01,-3.542833698222135758e-02,-1.309915731161293180e-02,2.182751386263290586e-02
2.280000000000000082e-01,-8.879364043094729875e-02,5.018290867774229808e-02,5.924878105785182092e-02
2.290000000000000091e-01,-5.711965042698575329e-02,6.263049047512075918e-02,1.711171699312944924e-02
2.300000000000000100e-01,4.388188245527783332e-02,-1.472659153260949538e-02,-5.632520420742571227e-02
2.310000000000000109e-01,6.028984647469314007e-02,-5.494602659445328718e-02,-3.534639381135947639e-02
2.320000000000000118e-01,7.131016024323410044e-03,-1.501554294767232754e-02,1.391280190334927974e-02
2.330000000000000127e-01,-8.846909922432917572e-02,7.946775103119833872e-02,5.274742185854327386e-02
2.340000000000000135e-01,-2.833532461337904748e-02,6.654901337635021896e-02,3.117629579485272154e-02
2.349999999999999867e-01,4.398929022086740803e-02,-4.234578593327294888e-02,-1.568087767062120719e-02
2.359999999999999876e-01,7.479705350503880468e-02,-6.885256539594734881e-02,-3.073956246234501102e-02
2.369999999999999885e-01,2.175474658440142844e-02,-2.114096701683654614e-02,-1.080779707402612470e-02
2.379999999999999893e-01,-7.664798397046485023e-02,4.061860521600402230e-02,2.945613423307254577e-02
2.389999999999999902e-01,-4.123088286693301491e-02,5.888004989000881345e-02,5.094541477925038087e-02
2.399999999999999911e-01,2.620665039212463632e-02,-1.812047452108539458e-02,-2.726298941931987185e-02
2.409999999999999920e-01,7.884692181316038662e-02,-5.173116486625058130e-02,-4.658637361930741128e-02
2.419999999999999929e-01,2.972774069609580155e-02,-6.913993064826723378e-02,-6.633469055836152452e-04
2.429999999999999938e-01,-4.794471682490959730e-02,2.671305897911532140e-02,1.989705387637447087e-02
2.439999999999999947e-01,-7.212354980688640005e-02,3.297226849330305715e-02,5.380303696272083214e-02
2.449999999999999956e-01,-4.835772553045281780e-03,4.490516617412655676e-03,4.583970862412410294e-03
2.459999999999999964e-01,7.306840852073040460e-02,-8.621489856512662420e-02,-3.891461206388659860e-02
2.469999999999999973e-01,6.444935366449344727e-02,-6.096534540460070428e-02,-1.633358277424168739e-02
2.479999999999999982e-01,-4.140584926446411879e-02,5.115652838910229178e-02,-7.148278175402174653e-03
2.489999999999999991e-01,-6.288744518374718429e-02,3.864786066485612764e-02,5.451783736248483336e-02
2.500000000000000000e-01,-2.943843171883048226e-02,-5.355913551995973576e-03,2.418535941012820052e-03
2.510000000000000009e-01,5.658083258436656660e-02,-4.838187898256157693e-02,-2.916200045681452413e-02
2.520000000000000018e-01,6.723778449465372953e-02,-5.458953348768182806e-02,-5.769896337705787692e-02
2.530000000000000027e-01,-1.538291973817405497e-02,1.278553786397448704e-02,2.750791263830060576e-02
2.540000000000000036e-01,-4.356903851223957458e-02,7.530525284540862119e-02,4.179169828084618871e-02
2.550000000000000044e-01,-5.083553022363720975e-02,5.188936596647655136e-02,4.873201812756657730e-02
2.560000000000000053e-01,3.588272721251611896e-02,-2.712756698507047537e-02,-2.216773779079449572e-02
2.570000000000000062e-01,1.058745391404114083e-01,-6.389633814178868887e-02,-5.565846720562409033e-02
2.580000000000000071e-01,5.441503412232170586e-03,-4.720718648086618709e-03,5.010720412886973500e-03
2.590000000000000080e-01,-8.516731553570694446e-02,5.785618253582936604e-02,6.043677706158823160e-02
2.600000000000000089e-01,-5.472382545838653384e-02,4.181087193090797516e-02,4.143968691694161627e-02
2.610000000000000098e-01,1.136235795454057160e-02,-2.829658672866507824e-02,-2.912206106235213157e-02
2.620000000000000107e-01,7.363218805407661938e-02,-5.459634193826530535e-02,-4.772286897439155517e-02
2.630000000000000115e-01,9.948660503847184255e-03,-2.232353492119893215e-02,-2.638570497190902489e-02
2.640000000000000124e-01,-5.283651967445807118e-02,4.433266261971400418e-02,2.467911948148024046e-02
2.650000000000000133e-01,-8.083912628324282923e-02,7.404567035317922985e-02,7.389087490963079652e-02
2.660000000000000142e-01,2.266937410075344893e-03,-2.166668017943268812e-02,2.761837963602102250e-03
2.670000000000000151e-01,8.719829146900899552e-02,-9.745735659627867420e-02,-5.066374152950992027e-02
2.680000000000000160e-01,5.635801968931681422e-02,-1.436276023051580308e-02,-1.752668235565633947e-02
2.690000000000000169e-01,-1.524277940247711904e-02,5.623211894406124345e-02,5.881983999949646873e-03
2.700000000000000178e-01,-6.243622472801883122e-02,7.898355599443225572e-02,5.170425262199637023e-02
2.710000000000000187e-01,2.924081548357281273e-03,-1.590816742336263398e-02,2.172600791419322316e-02
2.720000000000000195e-01,8.150820313720609500e-02,-6.525431371467117769e-02,-3.123154043915464875e-02
2.730000000000000204e-01,7.991192627449185404e-02,-4.667157822534738487e-02,-5.350314357651981406e-02
2.740000000000000213e-01,-1.761546572720515749e-02,5.423126217077216954e-02,-1.015067724997475301e-02
2.750000000000000222e-01,-4.886808190009356290e-02,8.368323783399921056e-02,2.934410157947784162e-02
2.760000000000000231e-01,6.144330072906113369e-03,4.391877343524291932e-02,4.171101150429699228e-02
2.770000000000000240e-01,5.589170603600510795e-02,-6.217253175051105224e-02,-7.879752264740896156e-03
2.780000000000000249e-01,6.273357899136151883e-02,-3.907115623637079371e-02,-4.101906143412244188e-02
2.790000000000000258e-01,-8.043692113253647635e-03,2.193850705408015647e-02,1.755852492634999915e-02
2.800000000000000266e-01,-6.278798472405185127e-02,8.346713516984477499e-02,6.044658296557930272e-02
2.810000000000000275e-01,-5.757165453491878276e-02,3.529845857386570279e-02,3.119926425497336273e-02
2.819999999999999729e-01,4.095863161028265309e-02,-3.894711392589678828e-02,-7.385215838013600015e-03
2.829999999999999738e-01,6.206019086049138073e-02,-4.190187452341617713e-02,-4.929014761458070520e-02
2.839999999999999747e-01,2.816417578821206469e-02,1.355658904130832565e-02,-6.719193402490354627e-02
2.849999999999999756e-01,-7.215563961762939960e-02,7.092952822854646511e-02,3.945590600482390409e-02
2.859999999999999765e-01,-7.275286450487400414e-02,5.162040246454006887e-02,5.251190937295732025e-02
2.869999999999999774e-01,2.601643637158891631e-02,-4.449415252875502103e-02,1.075221255840597308e-02
2.879999999999999782e-01,5.764244365425545691e-02,-9.402415065903034497e-02,-1.671459532800480957e-02
2.889999999999999791e-01,3.578260793626701630e-02,-6.324277534321684664e-03,-3.431798864833233986e-02
2.899999999999999800e-01,-2.430759415484675875e-02,5.575421225911579570e-02,4.808837195312701610e-03
2.909999999999999809e-01,-1.011061189678831573e-01,4.468333835031201157e-02,4.712309533618069812e-02
2.919999999999999818e-01,2.189615028934924993e-03,-5.024710512346935998e-02,4.234530820825445352e-02
2.929999999999999827e-01,8.224977870504421307e-02,-6.311141497861291749e-02,-3.352554871433455902e-02
2.939999999999999836e-01,8.918128873336049478e-02,-2.772100813493305269e-02,-3.737361208823859748e-02
2.949999999999999845e-01,-2.874116379115116207e-02,4.167382722972181458e-02,-3.497454322511606064e-03
2.959999999999999853e-01,-6.338014002010358694e-02,5.217737327938676284e-02,3.616715967485865241e-02
2.969999999999999862e-01,-1.255485374505986920e-02,-7.080456288732764857e-03,3.317305711181737365e-02
2.979999999999999871e-01,6.836276666377859301e-02,-4.578732562820915508e-02,-1.712016712356939294e-02
2.989999999999999880e-01,5.316489558883853023e-02,-5.993251273357795561e-02,-3.497374060397629575e-02
2.999999999999999889e-01,7.787927827079941905e-03,4.337054044409043713e-02,1.143727634600154091e-03
3.009999999999999898e-01,-7.575149559094897234e-02,5.773707032630789882e-02,1.902495313167333960e-02
3.019999999999999907e-01,-5.179420889039407228e-02,-5.245451561331691999e-03,7.033728344383678721e-02
3.029999999999999916e-01,3.012150769153325303e-02,-6.971071429497169292e-02,2.655629690895231626e-02
3.039999999999999925e-01,5.712907538119922635e-02,-5.536757405612748734e-02,-5.589337046970047074e-02
3.049999999999999933e-01,-1.855154715704842965e-03,3.146318353832349562e-02,-3.745282478687540773e-02
3.059999999999999942e-01,-6.354927913180444254e-02,2.250410465594336953e-02,2.875751731533383523e-03
3.069999999999999951e-01,-9.176138747255351003e-02,3.712332372228843019e-02,4.782142533104493526e-02
3.079999999999999960e-01,4.775935478089170932e-02,-4.965343477478301876e-02,1.172199429718965777e-02
3.089999999999999969e-01,6.202223995626393593e-02,-6.624907072428835864e-02,-4.041301189636579971e-02
3.099999999999999978e-01,3.489334478198884149e-02,-2.648790020068510567e-02,-5.259180591087461026e-02
3.109999999999999987e-01,-4.408172375887943473e-02,5.839919228949910085e-02,-3.692384457435893361e-03
3.119999999999999996e-01,-9.479331531332561844e-02,3.993994589126079880e-02,3.091968874359258060e-02
3.130000000000000004e-01,6.175004878195563575e-03,-6.696395990418672894e-02,3.914649927928769840e-02
3.140000000000000013e-01,7.400939845919145277e-02,-4.641552473983732302e-02,-3.595273708108592120e-02
3.150000000000000022e-01,3.723961601308727054e-02,-4.792657814444528826e-03,-5.215602150120001584e-02
3.160000000000000031e-01,-3.242977163547312164e-02,7.988865229038852322e-02,-4.209258556611505248e-02
3.170000000000000040e-01,-9.438010412750566513e-02,2.417033285247868063e-02,5.754009303051100394e-02
3.180000000000000049e-01,-1.980241364493072476e-02,-2.711433514010586077e-02,3.721604976479245264e-02
3.190000000000000058e-01,4.405271474475341148e-02,-7.312017058651823498e-02,-1.715256372011460338e-03
3.200000000000000067e-01,5.646920280284548066e-02,-3.304336060857419877e-02,-5.186843857755397275e-02
3.210000000000000075e-01,-1.195042815880373484e-02,4.262777590366342156e-02,-3.612229341879640704e-02
3.220000000000000084e-01,-6.164570856479920091e-02,3.880716152659939577e-02,1.846055168604623237e-02
3.230000000000000093e-01,-5.239563133059015054e-02,-2.991023058594624237e-02,3.004034602345431390e-02
3.240000000000000102e-01,3.418113904670162101e-02,-9.843308117696716875e-02,1.058748737642771932e-03
3.250000000000000111e-01,8.476037434069523535e-02,-2.771327677470535392e-02,-4.254939312051390921e-02
3.260000000000000120e-01,6.879259002338006940e-03,1.206745403077432929e-02,-6.274529647665814946e-02
3.270000000000000129e-01,-7.759510598765535783e-02,7.891747335882640102e-02,2.259059877292365903e-02
3.280000000000000138e-01,-5.669873733899673252e-02,2.553641779011304319e-02,4.735981859466709132e-02
3.290000000000000147e-01,3.927456298414772756e-02,-7.192140953145718940e-02,2.788028655799171945e-02
3.300000000000000155e-01,4.257878462877119630e-02,-8.786049664252228164e-02,-1.619933200218319491e-02
3.310000000000000164e-01,2.177736434926940204e-02,4.973459799366457962e-02,-4.846476493872175356e-02
3.320000000000000173e-01,-4.992949285449319041e-02,8.484196293776721798e-02,1.124060500460988916e-03
3.330000000000000182e-01,-1.033644549016948799e-01,-3.471162818590311930e-04,2.785021430099690956e-02
3.340000000000000191e-01,-2.892031186261141695e-03,-6.378390261212116275e-02,2.898142257551095113e-02
3.350000000000000200e-01,6.105591370763760461e-02,-4.548931034988402261e-02,-1.374186344411496875e-02
3.360000000000000209e-01,5.710604709845257254e-02,-1.283864170806164016e-02,-3.872035000816887590e-02
3.370000000000000218e-01,-4.515895492260178085e-02,5.003697282355513282e-02,9.159478886283985849e-03
3.380000000000000226e-01,-6.801174182928811096e-02,-4.709362456075035300e-03,4.836379474887769758e-02
3.390000000000000235e-01,-1.377772417783770104e-02,-4.593827740800608683e-02,2.332895285310893074e-02
3.400000000000000244e-01,1.094410008380614086e-01,-6.696211529033263554e-02,2.627758567478239576e-02
3.410000000000000253e-01,6.470327639493160532e-02,3.085779530682804749e-04,-3.894470273885254630e-02
3.420000000000000262e-01,-4.096632155251070384e-02,7.719658950342274395e-02,-6.781279969205922242e-02
3.430000000000000271e-01,-1.053178686124988245e-01,4.216441513960157705e-02,2.832725338772531035e-02
3.439999999999999725e-01,-3.402005329272488748e-02,-1.687440135775340050e-02,4.297494721015348434e-02
3.449999999999999734e-01,5.479171030543648208e-02,-2.372669552792091782e-02,1.177553977027462513e-02
3.459999999999999742e-01,8.394199629103030191e-02,1.050842601005734338e-02,-3.611222799620875806e-02
3.469999999999999751e-01,2.181485969332456684e-02,3.778712691827818687e-02,-3.619465267571658762e-02
3.479999999999999760e-01,-1.004536406811151750e-01,5.083358765699420856e-02,-1.833527066956314872e-02
3.489999999999999769e-01,-4.018056197565136878e-02,1.767535082995485467e-03,2.643035149149997390e-02
3.499999999999999778e-01,2.256166115522592261e-02,-4.483454090956096733e-02,2.198848120611255480e-02
3.509999999999999787e-01,1.033049960620731206e-01,-1.068145673806281462e-02,-1.200419434329936044e-02
3.519999999999999796e-01,1.817530646657076684e-02,3.289743006739075798e-02,-1.762723830582757500e-02
3.529999999999999805e-01,-6.425094112358298304e-02,4.623873505822129887e-02,-2.879323718926051975e-02
3.539999999999999813e-01,-9.362969944847979176e-02,-1.450328734833153041e-02,4.355835681103609192e-02
3.549999999999999822e-01,9.965330647765101649e-03,-4.260131420586536766e-02,5.517826889092262294e-02
3.559999999999999831e-01,1.026897959383206993e-01,-5.245321934572982209e-02,-1.853084352726743281e-02
3.569999999999999840e-01,5.188921172436167240e-02,5.061724416819204930e-02,-3.964168746267905663e-02
3.579999999999999849e-01,-2.815833118981659819e-02,4.933456655332094098e-02,-2.918861799512531205e-02
3.589999999999999858e-01,-8.195782813246864362e-02,2.504154959903868646e-02,-1.114221861736525501e-02
3.599999999999999867e-01,-1.802879295605975749e-02,-5.799356008964872550e-02,4.462158631766650202e-02
3.609999999999999876e-01,7.883759252186149646e-02,-5.170517669340363859e-02,4.873186234292729846e-02
3.619999999999999885e-01,8.226936869329498636e-02,2.899162482867939303e-02,-3.192300912014688075e-02
3.629999999999999893e-01,-2.221250982776415764e-02,5.220501569366712419e-02,-5.408380890020320075e-02
3.639999999999999902e-01,-8.335378989868837130e-02,2.165919706274332945e-02,-4.640098273604792954e-03
3.649999999999999911e-01,-1.333455717287662309e-02,-4.657158641020697765e-02,3.284436650371401478e-02
3.659999999999999920e-01,8.429125892797495467e-02,-5.980528875754985429e-02,3.602290440352462486e-02
3.669999999999999929e-01,1.084580779670547140e-01,-2.808934226470531474e-04,-2.261008423342934781e-02
3.679999999999999938e-01,3.438240994672375067e-02,4.469054435807233439e-02,-5.248706432014638157e-02
3.689999999999999947e-01,-9.994661895371308169e-02,2.172851299028524807e-02,-1.304860347688080631e-02
3.699999999999999956e-01,-6.905588448443249205e-02,-7.049834523556050558e-02,4.924658438511360370e-02
3.709999999999999964e-01,3.997587430971526190e-02,-6.361794208818218055e-02,4.721252177003059519e-02
3.719999999999999973e-01,6.002248310386786023e-02,-1.871842655802967567e-03,1.793264548697128327e-02
3.729999999999999982e-01,2.043665277228649824e-02,6.091496063202332667e-02,-2.517479750668459582e-02
3.739999999999999991e-01,-8.645129755552434514e-02,7.360851658151136567e-02,-2.670323727010092893e-02
3.750000000000000000e-01,-5.946219796918723183e-02,-2.642466793891717555e-02,3.800038663424500779e-02
3.760000000000000009e-01,2.042083534334087486e-02,-4.635907673345624619e-02,8.248119684455448852e-02
3.770000000000000018e-01,9.302079165043913855e-02,-2.908741098868098535e-02,1.397579693323641216e-02
3.780000000000000027e-01,1.458673172505435718e-02,2.147331128211493051e-02,-3.792209797011696776e-02
3.790000000000000036e-01,-5.577854986370044815e-02,7.411889374311175782e-02,-1.631660062420204130e-02
3.800000000000000044e-01,-5.133496555585208981e-02,-2.390917098913540942e-02,3.036834026090072178e-02
3.810000000000000053e-01,1.148765702923515951e-02,-6.332051248858000525e-02,2.145366907733622236e-02
3.820000000000000062e-01,9.347352069139401587e-02,-2.771635515936666030e-02,4.493954878827524299e-03
3.830000000000000071e-01,3.311094086572211048e-02,4.000380446681373048e-02,5.650117930891285570e-03
3.840000000000000080e-01,-5.396847414640323221e-02,7.241016894001063575e-02,-2.488905309552532155e-02
3.850000000000000089e-01,-1.061347505023627485e-01,1.572444227487764315e-02,7.266165882694239526e-03
3.860000000000000098e-01,-3.316222390747461390e-02,-4.195571815838177593e-02,3.144912555572429436e-02
3.870000000000000107e-01,4.612585746942521325e-02,-4.241058862943225538e-02,9.263240611341433915e-04
3.880000000000000115e-01,6.909775673811906216e-02,3.106263954452228096e-02,-3.037569750459942486e-02
3.890000000000000124e-01,-2.208986351758441755e-02,4.353218039111154958e-02,-5.264236937597148447e-02
3.900000000000000133e-01,-5.858669463693945423e-02,2.441582668403042070e-02,-5.236211292957233809e-02
3.910000000000000142e-01,-5.669951500584859833e-02,-3.201241080006504702e-02,1.397332680443790116e-02
3.920000000000000151e-01,1.109304247463265523e-02,-4.803099089217294226e-02,2.437728679001656407e-02
3.930000000000000160e-01,7.856653812617253596e-02,5.789749015405131621e-02,-5.847942239914472908e-03
3.940000000000000169e-01,1.456457416674394705e-02,7.072236901085685035e-02,-5.442234973447141605e-02
3.950000000000000178e-01,-7.133365391330501182e-02,2.482806858689361879e-02,-2.884370900686580516e-02
3.960000000000000187e-01,-6.410887423017967712e-02,-3.621557369609917920e-02,2.729300613679140272e-02
3.970000000000000195e-01,2.075505495161200295e-02,-2.180191222333931547e-02,4.753720528289361730e-02
3.980000000000000204e-01,7.206807855311275768e-02,1.653105548419698048e-02,4.443862120600893667e-02
3.990000000000000213e-01,4.738539637352501277e-02,6.134038081643983231e-02,-4.698918251486682712e-02
4.000000000000000222e-01,-7.126411570181542809e-02,2.300134249999971278e-02,-5.085057556780914895e-02
4.010000000000000231e-01,-9.896036823540761695e-02,-2.020100820040294717e-02,2.114768268906618703e-02
4.020000000000000240e-01,-9.927154100232354200e-03,-7.530454444505550737e-02,3.654760177735942583e-02
4.030000000000000249e-01,9.354412167018978652e-02,-3.250046307682238900e-02,3.072293519668876580e-02
4.040000000000000258e-01,6.953217777192424731e-02,5.138195467561644525e-02,-3.408073691996080928e-02
4.050000000000000266e-01,-3.300723923450386149e-02,5.481461000375785486e-02,-3.879943164716419951e-02
4.060000000000000275e-01,-7.944967969982946743e-02,-2.563283744132452240e-03,-1.922745347142241351e-02
4.069999999999999729e-01,-3.916005377969038886e-02,-7.178315274914078004e-02,3.823814619654122837e-02
4.079999999999999738e-01,7.794135616451246251e-02,-1.718023233691002780e-02,4.924923347361315207e-02
4.089999999999999747e-01,7.152737998777579376e-02,4.518360643768909446e-02,-2.340070752743830113e-02
4.099999999999999756e-01,-1.261646861477461190e-02,8.361336344575348578e-02,-5.365343138756756974e-02
4.109999999999999765e-01,-7.930716580780286518e-02,1.226698280726657049e-02,1.283540018107338573e-02
4.119999999999999774e-01,-4.785219414963360479e-02,-5.468427164599364704e-02,5.391589614330887653e-02
4.129999999999999782e-01,6.503567167283666461e-02,-3.721908306982104481e-02,3.323301151339409787e-02
4.139999999999999791e-01,7.543906969583871747e-02,5.645413062736261839e-02,1.031020690027207101e-02
4.149999999999999800e-01,-1.212500926624224262e-02,8.249267708290912438e-02,-6.211066552107613603e-02
4.159999999999999809e-01,-1.046690803469192271e-01,1.688035345902381620e-02,-2.829630784239988567e-02
4.169999999999999818e-01,-5.616336926816471731e-02,-7.803574736841481507e-02,2.200123115246181010e-02
4.179999999999999827e-01,1.638034245277898010e-02,-6.134595934011791152e-02,6.668081687989778350e-02
4.189999999999999836e-01,9.984238530834803338e-02,3.925316401955023654e-02,2.922694152445396570e-02
4.199999999999999845e-01,2.382668375477724892e-02,7.405567029051153549e-02,-3.446365758639553106e-02
4.209999999999999853e-01,-4.647306825981400991e-02,1.503577745669571440e-02,-2.204410198931118850e-02
4.219999999999999862e-01,-7.032070772900607392e-02,-6.042049985696883868e-02,-4.371949692285455498e-03
4.229999999999999871e-01,-2.078966453475933340e-02,-6.712227105417375994e-02,4.610905092491866808e-02
4.239999999999999880e-01,6.473646811809440071e-02,1.734706635778748493e-02,2.703140384240110272e-02
4.249999999999999889e-01,5.865452386323986161e-02,6.537505477222052552e-02,-1.540533686763971913e-02
4.259999999999999898e-01,-3.023039539409492354e-02,4.270620776612940594e-02,-7.862445938708059745e-02
4.269999999999999907e-01,-9.968751481497384326e-02,-4.242757023901526370e-02,-2.270177343534551806e-02
4.279999999999999916e-01,-9.901962388319477532e-03,-5.785926207436371815e-02,3.597036381223635976e-02
4.289999999999999925e-01,6.832766735238879341e-02,8.275852362804494988e-03,4.179668805161310813e-02
4.299999999999999933e-01,6.701135957474479987e-02,4.337419332994053855e-02,-4.112393182963494653e-02
4.309999999999999942e-01,-3.395823704567835916e-02,3.148323403883609983e-02,-2.897512513688221131e-02
4.319999999999999951e-01,-7.697272561580523198e-02,-4.647252130872338294e-02,-2.032666581196463599e-03
4.329999999999999960e-01,-3.806540977067307541e-02,-7.172810505720994545e-02,4.674908176156693240e-02
4.339999999999999969e-01,5.071106848604374495e-02,-3.768324268934099969e-02,4.074694250478409774e-02
4.349999999999999978e-01,8.995574142931812844e-02,2.988206036065185409e-02,-2.469285496296577502e-03
4.359999999999999987e-01,-9.280099224305804820e-03,4.360101494133467731e-02,-5.141919504315503597e-02
4.369999999999999996e-01,-4.132567869691244206e-02,-3.778913599786611760e-02,-5.012609476271301379e-02
4.380000000000000004e-01,-5.500863373609810036e-02,-6.624674174006824068e-02,2.909732398219324820e-02
4.390000000000000013e-01,1.879760607739178885e-02,-5.306941720781188643e-02,4.510795024597353403e-02
4.400000000000000022e-01,8.105710426440068672e-02,3.778972280673877776e-02,1.080522561031805120e-02
4.410000000000000031e-01,4.246739480928340277e-02,6.801080487589801493e-02,-2.753800203320942719e-02
4.420000000000000040e-01,-4.731578290608658838e-02,2.286464754922421308e-02,-5.287768392660473910e-02
4.430000000000000049e-01,-1.001914767133119805e-01,-6.791553257119796461e-02,-1.850796277430443587e-02
4.440000000000000058e-01,2.209881355355394761e-02,-3.818634912445867391e-02,6.629751921103899104e-02
4.450000000000000067e-01,9.354517713117731226e-02,5.570655885838349253e-02,3.508494450348217941e-02
4.460000000000000075e-01,2.120530046052451420e-02,4.978997895713935945e-02,-3.783542809245152294e-02
4.470000000000000084e-01,-6.568663691848626585e-02,-1.966319158635725713e-04,-1.798295990488385163e-02
4.480000000000000093e-01,-8.197139172026746134e-02,-6.976011729719622245e-02,-1.686032751133982252e-02
4.490000000000000102e-01,-4.829662131219068788e-03,-7.484749193950490653e-02,6.658430390522192613e-03
4.500000000000000111e-01,9.961917475253821708e-02,6.428005801348252168e-02,2.744442326864008491e-02
4.510000000000000120e-01,8.674939096199689448e-02,8.181839926279457775e-02,-1.610088395737065831e-02
4.520000000000000129e-01,1.778077509248403082e-03,2.932167963189043908e-02,-3.597702100552990084e-02
4.530000000000000138e-01,-9.861644313049924837e-02,-5.586945514053175132e-02,-3.464134734623620232e-02
4.540000000000000147e-01,-4.711514654360134807e-02,-7.974584103302437277e-02,1.461362868171864858e-02
4.550000000000000155e-01,3.487038471367019665e-02,7.027373703570733961e-04,3.097561190331300437e-02
4.560000000000000164e-01,8.357685005732652661e-02,6.425705505737711043e-02,3.527343092373596244e-03
4.570000000000000173e-01,-1.565945690962241080e-02,3.600580290889291574e-02,-5.326206508204091306e-02
4.580000000000000182e-01,-8.438533875456655231e-02,-4.728707009969936037e-02,-3.064524502909928352e-02
4.590000000000000191e-01,-7.674282421641888396e-02,-6.137983504355384173e-02,1.095708276753396861e-02
4.600000000000000200e-01,5.493790297415993701e-02,-1.301920728248168874e-02,1.785442263354895115e-02
4.610000000000000209e-01,9.619431749951282140e-02,4.113144655805908712e-02,3.744043067131519464e-02
4.620000000000000218e-01,2.695492262990780569e-02,5.647221898831900760e-02,-4.123515306978624284e-03
4.630000000000000226e-01,-7.141655757602780041e-02,-3.216715397404560500e-02,-7.314879225090686887e-02
4.640000000000000235e-01,-7.010081122472495985e-02,-2.343330592123903794e-02,-2.563133358064515269e-02
4.650000000000000244e-01,3.617059826962188557e-02,-1.445236303012008630e-02,2.863371674571227668e-02
4.660000000000000253e-01,6.530377489601929542e-02,4.416688813597392099e-02,5.651881907129994997e-02
4.670000000000000262e-01,5.456625809226919518e-03,3.006582884637060832e-02,4.927344551017552067e-03
4.680000000000000271e-01,-5.151903663820659590e-02,-8.537097958705525125e-03,-5.122197335440820121e-02
4.689999999999999725e-01,-1.108001233458631302e-01,-4.759123590322050790e-02,-4.641429296910665886e-02
4.699999999999999734e-01,-5.710336857872345961e-03,-3.566022227167173209e-02,1.382387224598030651e-02
4.709999999999999742e-01,4.923360175842378395e-02,5.026622995992544723e-02,2.243302392198610537e-02
4.719999999999999751e-01,1.014566905500699778e-01,4.090734235554340653e-02,1.654309411212834258e-02
4.729999999999999760e-01,-4.806232849288872427e-02,-2.766271620878822148e-03,-3.390984688383603951e-02
4.739999999999999769e-01,-9.120043800921741328e-02,-5.825735356611615873e-02,-4.975284448975431095e-02
4.749999999999999778e-01,-6.922816331603004643e-03,-5.566190144733700745e-02,1.659166617287848380e-02
4.759999999999999787e-01,5.263164867391825069e-02,3.854784489857137481e-02,4.355453665695411397e-02
4.769999999999999796e-01,8.538967607506416091e-02,9.101364740934275721e-02,4.489349466580844217e-02
4.779999999999999805e-01,-1.180834648062007233e-02,9.664853760430146962e-03,-1.602691751560793992e-02
4.789999999999999813e-01,-9.095213741819363484e-02,-4.354452080293361865e-02,-5.381535851403787540e-02
4.799999999999999822e-01,-2.071616758862298083e-02,-8.569628693078574708e-03,-1.075368403990463809e-02
4.809999999999999831e-01,4.011783229129746442e-02,1.494584736668796640e-02,1.847053635330334065e-02
4.819999999999999840e-01,8.009508170339772748e-02,5.493318245055305027e-02,3.680040370396027438e-02
4.829999999999999849e-01,2.583076253613604545e-02,1.947707160729517800e-02,1.035989944749510358e-03
4.839999999999999858e-01,-6.733458697341249133e-02,-4.544631720428130711e-02,-3.349353246473400769e-02
4.849999999999999867e-01,-6.000964973836203642e-02,-7.433052813423943195e-02,-6.716588603186992440e-03
4.859999999999999876e-01,3.462013749794881634e-02,-2.967286679194861346e-03,1.448283201369882436e-02
4.869999999999999885e-01,6.433515998573541284e-02,1.028315236865376542e-01,5.837681782066739267e-02
4.879999999999999893e-01,2.092844277840568215e-02,6.467790927495623010e-02,2.862901912495451409e-02
4.889999999999999902e-01,-4.318009042605033820e-02,-3.197745396170333099e-02,-3.448681453426053617e-02
4.899999999999999911e-01,-7.245801781854235846e-02,-7.700588988538374646e-02,-4.390581036902516110e-02
4.909999999999999920e-01,1.628893391550313013e-02,-2.465292295650392887e-02,1.052709532348826242e-02
4.919999999999999929e-01,8.746388442612106073e-02,4.973655720351888992e-02,7.571504014998761689e-02
4.929999999999999938e-01,5.934038060861403230e-02,5.224089173115886026e-02,2.462846385902431844e-03
4.939999999999999947e-01,-4.620362719626430054e-02,-1.450044682962007073e-02,-4.746677502509231289e-02
4.949999999999999956e-01,-7.309089641342023103e-02,-8.601293207893641324e-02,-6.396512620560505791e-02
4.959999999999999964e-01,-1.714161460180083085e-02,-2.352614733408388281e-02,4.950057316902463367e-03
4.969999999999999973e-01,9.237545269108086987e-02,6.302391210895488816e-02,5.657827221703248116e-02
4.979999999999999982e-01,5.422991222345063811e-02,3.731444466688652040e-02,-6.734980749089243546e-03
4.989999999999999991e-01,-2.530647109833067745e-02,-4.341898608797168518e-02,-1.190036211229276997e-02
5.000000000000000000e-01,-9.540243626899909402e-02,-9.075599529370199925e-02,-3.318187668836795889e-02
5.010000000000000009e-01,-2.736551970404955958e-02,-4.363087236040564393e-02,-4.013169643714711160e-02
5.020000000000000018e-01,3.232028991478087115e-02,-7.884236414859548603e-04,8.908063790858612024e-03
5.030000000000000027e-01,9.038273866510430909e-02,7.300312934839875423e-02,3.311510698370587202e-02
5.040000000000000036e-01,1.833828201040232225e-02,1.557322016615840521e-02,2.496815657050433044e-03
5.050000000000000044e-01,-9.737854676920496000e-02,-4.502266222379860960e-02,-3.998248760619672187e-02
5.060000000000000053e-01,-5.558709521054040065e-02,-6.898165690864517530e-02,-4.439082039451457129e-02
5.070000000000000062e-01,6.015357591722115399e-02,-4.069913179671626299e-04,1.499112597716683150e-03
5.080000000000000071e-01,8.205575651976082519e-02,4.590924568907475689e-02,4.234113922070569663e-02
5.090000000000000080e-01,5.007984282927875619e-02,2.793896979037156780e-02,2.063555646499222809e-02
5.100000000000000089e-01,-4.258481813239718694e-02,-5.257925189609172212e-02,-3.612091438803981952e-02
5.110000000000000098e-01,-8.092351812965982438e-02,-6.583305185639544421e-02,-4.853174632597375554e-02
5.120000000000000107e-01,9.136364353014694850e-03,-4.639519885045254033e-03,-1.077688002796744517e-02
5.130000000000000115e-01,7.314424431458758924e-02,3.468509712912742904e-02,5.204512463422601015e-02
5.140000000000000124e-01,5.930671702332600270e-02,4.070969585880516300e-02,2.275526230259185961e-02
5.150000000000000133e-01,-2.875845097712884449e-02,-3.498286377990234008e-02,-2.681304339494227154e-02
5.160000000000000142e-01,-8.198856374652056800e-02,-5.320767416194418370e-02,-6.766804489110682386e-02
5.170000000000000151e-01,-3.543480296702249122e-02,2.254974874667643302e-03,9.654422874038936023e-04
5.180000000000000160e-01,6.400706057296461082e-02,8.318930645518955724e-02,2.253978251414230985e-02
5.190000000000000169e-01,5.606062103944548652e-02,8.140801930438092138e-02,5.146518581133514847e-02
5.200000000000000178e-01,-9.648077959143316548e-03,-5.607562516965797217e-02,-9.332180606679597867e-03
5.210000000000000187e-01,-7.913428644422440539e-02,-6.462208613758788078e-02,-6.926464671352416946e-02
5.220000000000000195e-01,-5.394895108756318780e-02,-3.189962532093137959e-02,-2.150016450514725258e-02
5.230000000000000204e-01,8.316356483917509979e-02,3.560600863810391148e-02,5.219938211119055926e-02
5.240000000000000213e-01,6.253582164080738470e-02,6.827887587127830227e-02,6.601788827189684905e-02
5.250000000000000222e-01,-2.649503498042559899e-02,-2.037967654108870097e-02,9.227434915720571056e-04
5.260000000000000231e-01,-6.914708976069737500e-02,-7.713646514227072426e-02,-4.975921754518281004e-02
5.270000000000000240e-01,-3.988168926424190408e-02,-4.482683868234205171e-02,-2.378222962036579194e-02
5.280000000000000249e-01,4.661949938682845296e-02,2.479876228256022719e-02,1.788002146180662534e-03
5.290000000000000258e-01,7.391269121712965018e-02,3.400287951978299417e-02,7.609898203813370010e-02
5.300000000000000266e-01,1.782040008917539289e-02,3.132591504271692220e-03,1.121868557939500154e-02
5.310000000000000275e-01,-5.630154377400666682e-02,-5.970428306553949432e-02,-1.970166576735900288e-02
5.320000000000000284e-01,-5.707103128972396827e-02,-3.138423007168364420e-02,-3.534135237109964356e-02
5.330000000000000293e-01,3.714804489099791940e-02,3.960232777306963575e-02,1.421607377274086877e-02
5.340000000000000302e-01,6.763792241333561883e-02,6.362183317167653673e-02,6.477565388780386069e-02
5.350000000000000311e-01,5.090034919406068170e-02,3.899812632315647482e-02,4.334279078085268716e-02
5.360000000000000320e-01,-7.678266855243986999e-02,-3.521576678182851416e-02,2.254956707427407687e-03
5.370000000000000329e-01,-8.238335477737522561e-02,-7.508182097029221513e-02,-3.503832014308407711e-02
5.380000000000000338e-01,-1.585945904124058670e-02,3.074045360961056433e-02,-2.723171693642415653e-02
5.390000000000000346e-01,9.538735257090280584e-02,5.104144043189089847e-02,2.322525095010594121e-02
5.400000000000000355e-01,6.481775308563619831e-02,1.279096102258355308e-02,4.554243088138275330e-02
5.410000000000000364e-01,-3.445928977968222562e-02,-4.334145112976936498e-02,4.249485506303590787e-02
5.420000000000000373e-01,-8.125239019491245496e-02,-9.636381647310590659e-02,-5.960532348203434472e-02
5.430000000000000382e-01,-9.190443132561593176e-03,3.829025376898711574e-04,-4.623113977411282688e-02
5.440000000000000391e-01,5.801307584440108800e-02,5.853834958772833469e-02,3.557222921853164105e-02
5.450000000000000400e-01,8.947061250376141250e-02,4.465299164967356099e-02,3.550652420139804866e-02
5.460000000000000409e-01,-2.810007296683385541e-03,-7.070039008761858090e-02,-4.583139573639636623e-03
5.470000000000000417e-01,-4.099066026281587838e-02,-8.064450612535332963e-02,-1.370155430112281192e-02
5.480000000000000426e-01,-1.883383678322430102e-02,-1.136320949387372575e-02,-4.966150971787144236e-02
5.490000000000000435e-01,2.979521077330363199e-02,4.659468035741772679e-02,4.288251273740654144e-03
5.500000000000000444e-01,8.603574034242869595e-02,9.110440157131065309e-02,4.592982048167495307e-02
5.510000000000000453e-01,1.464929687131416754e-02,-2.234638679634470132e-02,6.014177742530597837e-02
5.520000000000000462e-01,-6.991955132285890273e-02,-6.076278966127549724e-02,-1.774847859268730010e-02
5.530000000000000471e-01,-7.178886709254123089e-02,-2.022294261151399292e-02,-5.822318623999984261e-02
5.540000000000000480e-01,2.090677379660548646e-02,3.561284447021010463e-02,3.844670061840310335e-03
5.550000000000000488e-01,5.399149013003880226e-02,6.268398002375827338e-02,3.062185847754312143e-02
5.560000000000000497e-01,2.400075097891392339e-02,-5.045946053242231742e-03,1.883372620701581276e-02
5.570000000000000506e-01,-9.620278413910708648e-02,-1.033286520276626430e-01,-1.783940323690768465e-02
5.580000000000000515e-01,-6.572313857323698605e-02,-4.384015334978098172e-02,-5.957165362446666113e-02
5.590000000000000524e-01,-2.275161020583211721e-03,3.239815293000618268e-02,-4.271737671903579059e-02
5.600000000000000533e-01,6.781420081949751655e-02,7.090715935483701826e-02,2.879917018438354209e-02
5.610000000000000542e-01,6.502321072014159709e-02,-1.053476098270319378e-02,4.961910206162740977e-02
5.620000000000000551e-01,-3.857992036297239885e-02,-7.740785688934391506e-02,3.134706517634578121e-03
5.629999999999999449e-01,-5.072565293887630611e-02,-6.339328420809506315e-02,-5.421662553946283991e-02
5.639999999999999458e-01,-2.892424141711561619e-02,1.067043438110949760e-02,-1.730063715112762149e-02
5.649999999999999467e-01,4.012991469380965820e-02,8.859363573825218552e-02,1.882208321484311539e-02
5.659999999999999476e-01,9.484440475561979611e-02,4.956412720165131319e-02,5.203321716563619193e-02
5.669999999999999485e-01,1.209638721985088761e-02,-5.214963639603509282e-02,-1.649223058561816266e-04
5.679999999999999494e-01,-5.050670661049154464e-02,-5.903645681875762524e-02,-3.107517861341447737e-02
5.689999999999999503e-01,-2.688645233258820169e-02,-8.717091096151572543e-03,-5.509933209534727955e-02
5.699999999999999512e-01,8.470603320083025523e-02,6.081156080619520843e-02,7.088361883532562704e-03
5.709999999999999520e-01,7.576425475189861591e-02,3.057739133714483873e-02,2.298760762579918349e-02
5.719999999999999529e-01,-1.204842449427842403e-02,-2.866328920935514238e-02,1.862762159289598624e-02
5.729999999999999538e-01,-7.554348560809885649e-02,-7.123001452491294072e-02,-1.858530924155484335e-02
5.739999999999999547e-01,-5.268012390443404386e-02,-5.809494661327591764e-03,-7.470927618803047121e-02
5.749999999999999556e-01,3.662835372856895755e-02,5.391149166937905801e-02,-3.534849547340978421e-02
5.759999999999999565e-01,8.011367399280946988e-02,3.697870370865766892e-02,3.897500750231014388e-02
5.769999999999999574e-01,2.632126877509115628e-02,-9.054703040567347108e-03,6.383420789921705196e-02
5.779999999999999583e-01,-2.683337009174293145e-02,-7.066418492025666742e-02,-1.807909198612276877e-02
5.789999999999999591e-01,-7.657661968476282832e-02,-5.400400539240145237e-02,-6.014377153356764705e-02
5.799999999999999600e-01,-8.643464712467380240e-03,2.979596538044428089e-02,-2.057271215451740923e-02
5.809999999999999609e-01,9.798599069293507935e-02,6.496412961363137728e-02,2.639779025007244970e-02
5.819999999999999618e-01,3.714484891636448544e-02,-1.167985864157708616e-02,5.040041347411687578e-02
5.829999999999999627e-01,-1.898611364577325669e-02,-5.788808689218943870e-02,1.167384602338655993e-02
5.839999999999999636e-01,-9.224447790953770043e-02,-4.057671805871101295e-02,-5.779417696403771343e-02
5.849999999999999645e-01,9.986167073767217815e-04,5.080072135558719865e-02,-2.471263335558950003e-02
5.859999999999999654e-01,6.189838450026795280e-02,7.074514088268057943e-02,-2.543808994564219009e-02
5.869999999999999662e-01,6.916390738840476338e-02,6.604786236868642399e-03,4.856897300001461470e-02
5.879999999999999671e-01,-1.809306020664655165e-02,-4.390134172462611950e-02,1.363284910924915209e-02
5.889999999999999680e-01,-7.063730637638609977e-02,-4.864690000913951540e-02,-1.524887202484737601e-02
5.899999999999999689e-01,-5.426039779349899755e-02,8.263375847673169391e-03,-4.710386803102230291e-02
5.909999999999999698e-01,3.694194324355138531e-02,8.360747756735417702e-02,-2.149253079613983736e-02
5.919999999999999707e-01,7.860560112675682443e-02,-9.469633646971169216e-03,3.150824249924867593e-02
5.929999999999999716e-01,2.277889866842182365e-02,-6.416501296259397025e-02,4.021777776135624510e-02
5.939999999999999725e-01,-4.101937708774964358e-02,-4.329384466318618452e-02,-5.266420226473410293e-03
5.949999999999999734e-01,-5.509961701506108783e-02,2.214862374377598794e-02,-5.830450511810708614e-02
5.959999999999999742e-01,2.236950836783512669e-02,6.749720110065174361e-02,-1.143378379549308058e-02
5.969999999999999751e-01,5.508575317744771743e-02,2.802227639320278157e-02,1.410164596334802581e-02
5.979999999999999760e-01,1.591650960709901225e-02,-4.667511519664149094e-02,1.044803375198995535e-02
5.989999999999999769e-01,-7.525629163521786735e-02,-4.853573171426223826e-02,2.330949118495332859e-02
5.999999999999999778e-01,-7.190095801832541156e-02,-1.040773748795429179e-02,-5.184714126907150056e-02
6.009999999999999787e-01,7.103925466314824945e-03,6.377287550352117584e-02,-5.050783128284709600e-02
6.019999999999999796e-01,7.443666678537133596e-02,6.388046263389467183e-02,2.913333265264540436e-02
6.029999999999999805e-01,6.814489795650138793e-02,-2.211860119672233796e-02,5.021626559881211399e-02
6.039999999999999813e-01,-4.446820301615688614e-02,-5.234559710877174921e-02,3.241440859404496472e-02
6.049999999999999822e-01,-8.715548809531720176e-02,-1.996091416282697300e-03,-1.329654902051834522e-02
6.059999999999999831e-01,1.338766669999703895e-02,5.806615922693385973e-02,-6.937043236279274994e-02
6.069999999999999840e-01,7.962971755803911755e-02,6.051247817846466814e-02,-1.013520387219177428e-02
6.079999999999999849e-01,7.508276353844144102e-02,-2.623044116802605505e-02,5.562843370751817396e-02
6.089999999999999858e-01,-2.680438312134066428e-02,-3.847448723061392545e-02,1.667889200644437700e-02
6.099999999999999867e-01,-7.999164842562576927e-02,-5.311323319817284894e-02,-1.631915404064940983e-02
6.109999999999999876e-01,-9.912892956690859750e-03,3.855918437665307313e-02,-5.485318712415322706e-02
6.119999999999999885e-01,5.829083315676374111e-02,5.540687602492029573e-02,-2.274436047965580632e-02
6.129999999999999893e-01,8.425496158950061820e-02,-2.355602807732149959e-02,2.462007121341582699e-02
6.139999999999999902e-01,-4.227982214704537750e-02,-4.397404124661476177e-02,2.172367033288155960e-02
6.149999999999999911e-01,-1.024911361702783436e-01,-2.479106012204630380e-02,-7.411321507020045100e-03
6.159999999999999920e-01,-7.696359984769848839e-02,3.295893963831526136e-02,-5.411578093999652034e-02
6.169999999999999929e-01,2.381043561659099833e-02,1.141674152291800165e-01,-3.422101921742794900e-02
6.179999999999999938e-01,1.089573627122687044e-01,2.379561682121377267e-02,4.365184746784008668e-02
6.189999999999999947e-01,3.925679307828493225e-02,-6.556553952130894647e-02,4.067030488884354478e-02
6.199999999999999956e-01,-7.305815753857310135e-02,-5.046246468742076469e-02,1.741595671967643630e-02
6.209999999999999964e-01,-9.380931698278069386e-02,2.819141475789110896e-02,-2.416662344681099264e-02
6.219999999999999973e-01,2.379716201154210772e-02,6.888462800335533320e-02,-3.888972522080546418e-02
6.229999999999999982e-01,6.678029925601650096e-02,2.619428097319979800e-03,-1.111692284777693850e-02
6.239999999999999991e-01,4.811091887596406075e-02,-5.216123340037248646e-02,5.712952022358788740e-02
6.250000000000000000e-01,-5.083441125232585761e-02,-7.491542878167241348e-02,2.952548396876216938e-02
6.260000000000000009e-01,-6.455706323063289953e-02,-1.345219621656418632e-02,-4.693228274830618663e-02
6.270000000000000018e-01,-1.019360072801182328e-02,6.685891882607747361e-02,-5.168966399478345380e-02
6.280000000000000027e-01,6.495966692451327074e-02,6.554392705664449648e-02,-3.423336867171537096e-02
6.290000000000000036e-01,4.246590547639051555e-02,-2.805220895510388696e-02,5.624814706396071007e-02
6.300000000000000044e-01,-3.489814558958598961e-02,-3.280640963153654693e-02,7.281575449950471179e-02
6.310000000000000053e-01,-1.045492716857790438e-01,-4.173660423830790494e-04,-1.964321816604621546e-02
6.320000000000000062e-01,-4.025708511969560560e-02,5.009460432597969554e-02,-3.752597525387443150e-02
6.330000000000000071e-01,7.479665601814189380e-02,2.234786139583649217e-02,-4.811275536809337533e-02
6.340000000000000080e-01,8.833857185482699159e-02,-2.153339761029405414e-02,3.111791028936164091e-02
6.350000000000000089e-01,-7.670351966542506353e-03,-5.172544870945917916e-02,3.742003772809859158e-02
6.360000000000000098e-01,-5.339687637502731760e-02,-2.054636258617217534e-02,9.866945626582827519e-03
6.370000000000000107e-01,-6.757922730530083189e-02,2.398387818075515057e-02,-6.561065780181161988e-02
6.380000000000000115e-01,5.249180447932470100e-02,9.006666408080431230e-02,-5.311829224962934248e-02
6.390000000000000124e-01,1.019297127893591809e-01,-4.237336839976855313e-02,1.317791838435452417e-02
6.400000000000000133e-01,1.920609984283733499e-03,-7.300414770873797643e-02,7.612748449234721382e-02
6.410000000000000142e-01,-7.056347604552237751e-02,-2.964699752358540552e-02,6.478611791028449085e-02
6.420000000000000151e-01,-7.242678362615925791e-02,2.456187596003705717e-02,-1.650918319711511262e-02
6.430000000000000160e-01,4.354761567803233646e-02,8.694920436554184895e-02,-5.074406904340315189e-02
6.440000000000000169e-01,1.056027602439551655e-01,-6.669649229072874101e-03,1.536059757306124443e-02
6.450000000000000178e-01,1.858121730120059628e-02,-6.494777328453783805e-02,5.899106972868817245e-02
6.460000000000000187e-01,-6.054809076245393218e-02,-6.021020732345899740e-02,2.700464677879520908e-02
6.470000000000000195e-01,-6.857984596805487276e-02,2.585759028815610983e-02,-3.318297268676389513e-04
6.480000000000000204e-01,-1.006182512102608579e-03,8.038683500023811879e-02,-4.637741759577095751e-02
6.490000000000000213e-01,7.947041252739769912e-02,1.804941743072553326e-02,-2.412441376644037724e-02
6.500000000000000222e-01,5.783580954744113600e-02,-6.155818994356695301e-02,1.398333728080541731e-02
6.510000000000000231e-01,-2.115387102604376901e-02,-4.700588625533744930e-02,4.250359496463664011e-02
6.520000000000000240e-01,-9.171648580503150017e-02,-5.215322338414154005e-03,-5.774912116481054070e-03
6.530000000000000249e-01,-8.277369095114528799e-03,4.994397460775158032e-02,-4.229314372138663625e-02
6.540000000000000258e-01,7.233679282185855042e-02,3.840331690407614018e-02,-1.267952369977313684e-02
6.550000000000000266e-01,8.873138344541445233e-02,-3.916102910549516813e-02,3.704565891125341103e-04
6.560000000000000275e-01,-1.894332740630599865e-02,-4.812005985284528720e-02,2.306824898484521533e-02
6.570000000000000284e-01,-6.732789024979168868e-02,1.774657896125707984e-02,-2.352362512993789578e-03
6.580000000000000293e-01,-5.027614719207230271e-02,4.877540193360734716e-02,-3.381254631657443915e-02
6.590000000000000302e-01,5.558505795849014164e-02,5.187776550938312525e-02,-5.992934674427568414e-02
6.600000000000000311e-01,6.638471467274757731e-02,-2.785448765404652943e-02,-1.311650690838817718e-02
6.610000000000000320e-01,3.474377540784708961e-03,-7.330608301170975227e-02,6.175960324089598691e-02
6.620000000000000329e-01,-5.819547861303055875e-02,-5.318317648088540656e-03,2.502542427358107544e-02
6.630000000000000338e-01,-7.215716196012827988e-02,4.024037492132197941e-02,-2.334814321588359054e-02
6.640000000000000346e-01,5.060745501884821723e-02,3.076805499259659127e-02,-2.572156880533739767e-02
6.650000000000000355e-01,1.026443478825851824e-01,-1.946940522267342003e-02,-2.132313595850501495e-02
6.660000000000000364e-01,2.854304123373029370e-02,-6.277933684418171567e-02,4.827821345358122851e-02
6.670000000000000373e-01,-4.330322476794699893e-02,-7.194992971630840770e-03,3.112379589513538866e-02
6.680000000000000382e-01,-7.031429706886450914e-02,4.528211317785758167e-02,1.522717021666584319e-02
6.690000000000000391e-01,1.319640286954468743e-02,5.274908597921732639e-02,-2.796516526074788525e-02
6.700000000000000400e-01,1.008768522609391899e-01,6.842410084645159964e-03,-9.577660856546644369e-03
6.710000000000000409e-01,3.226336466705101436e-02,-7.483178406296263352e-02,1.583300452136430017e-02
6.720000000000000417e-01,-2.005978763015780694e-02,-4.391498541484020746e-02,5.582101668690022528e-02
6.730000000000000426e-01,-7.044469174612394413e-02,7.848483992321278468e-02,-4.155246412828585839e-02
6.740000000000000435e-01,-2.115447982405788824e-02,8.770067352740491817e-02,-2.451213962502521437e-02
6.750000000000000444e-01,5.711596003040562974e-02,3.655772111497843091e-02,-6.054699948403900744e-02
6.760000000000000453e-01,4.200103371426452958e-02,-8.279115381421836561e-02,2.079766369513348298e-02
6.770000000000000462e-01,-3.550698484948634076e-02,-7.257923689987526294e-02,5.317548892613385009e-02
6.780000000000000471e-01,-9.194236568204573745e-02,1.311555375886301611e-02,6.119157602572865978e-02
6.790000000000000480e-01,-5.859155401222371218e-02,6.021613616101964550e-02,-2.668859356130568947e-02
6.800000000000000488e-01,7.841579152918916329e-02,6.840004275992951632e-02,-5.227814454852627857e-02
6.810000000000000497e-01,8.108953907753739532e-02,-5.307210233811582301e-02,4.022779843115087059e-03
6.820000000000000506e-01,9.187258754038449965e-03,-6.167613439323436919e-02,4.319571478836226053e-02
6.830000000000000515e-01,-7.907432741378771224e-02,-2.354825635776523936e-03,3.635120875335877411e-02
6.840000000000000524e-01,-6.506461808477931319e-02,4.066919007831505672e-02,-2.763250447633738144e-02
6.850000000000000533e-01,3.711454145597804094e-02,3.905413440374718576e-02,-7.612562444555331931e-02
6.860000000000000542e-01,6.857613493300145080e-02,-3.603216545081543848e-02,-3.299223656311400105e-02
6.870000000000000551e-01,5.035092538386264083e-03,-6.724941337386652895e-02,2.156369000204136702e-02
6.879999999999999449e-01,-3.886872592709397084e-02,-1.753001927858490253e-02,3.665204221821695418e-02
6.889999999999999458e-01,-6.509513756024361275e-02,5.461041781590863370e-02,-1.288007329142805066e-02
6.899999999999999467e-01,1.726320565371953358e-02,3.112627638619590298e-02,-3.417112550401243259e-02
6.909999999999999476e-01,6.425966137594420202e-02,-2.764474752650874362e-02,-2.450270730559097124e-02
6.919999999999999485e-01,6.281641795710392329e-02,-7.574138901960462966e-02,2.651608236480391609e-02
6.929999999999999494e-01,-6.422354029195709302e-02,-1.322268585938723637e-02,6.944270799027298102e-02
6.939999999999999503e-01,-9.001613366186639320e-02,5.570686092476091755e-02,1.505084516941272710e-02
6.949999999999999512e-01,-1.260088547350352722e-02,5.205729585293781408e-02,-3.038573732730253524e-02
6.959999999999999520e-01,7.629021861986810815e-02,-8.740158647972957884e-03,-6.947076693790578406e-02
6.969999999999999529e-01,5.582880052649234065e-02,-8.272400047009877133e-02,2.234617462345905858e-02
6.979999999999999538e-01,-4.470975154467255602e-02,-4.605804619215966844e-02,7.633295031913908679e-02
6.989999999999999547e-01,-8.762827630517008859e-02,3.696655695531234076e-02,4.699347899177658272e-02
6.999999999999999556e-01,-5.156810785332013869e-02,8.341896258684758370e-02,-5.192532284764456163e-02
7.009999999999999565e-01,5.283789036402730677e-02,-7.377193103030223013e-03,-3.964194203636604852e-02
7.019999999999999574e-01,7.037431199115759539e-02,-6.943602321347570883e-02,-2.239745152826634611e-02
7.029999999999999583e-01,2.490348012599101751e-03,-3.147230331212593629e-02,2.380627364685851746e-02
7.039999999999999591e-01,-1.188675434137324433e-01,1.281048913150361832e-02,3.357046126032118410e-02
7.049999999999999600e-01,-8.182681858359495963e-02,4.178426087472337375e-02,1.764258873658436019e-02
7.059999999999999609e-01,6.210714846523444216e-02,3.679695490335011671e-02,-5.187390057737482213e-02
7.069999999999999618e-01,9.629217269791083555e-02,-5.400964358185607328e-02,-5.199584536121281547e-02
7.079999999999999627e-01,-2.018027893090628723e-03,-5.193033589511419218e-02,3.901174449308872361e-02
7.089999999999999636e-01,-7.450352010584182505e-02,3.806165745931239242e-02,5.738043329579960855e-02
7.099999999999999645e-01,-8.508783412099825416e-02,5.783840700703173771e-02,5.087068061317936117e-03
7.109999999999999654e-01,4.886167428674548924e-02,3.901387295737843847e-02,-6.309667405002970797e-02
7.119999999999999662e-01,9.581233714518744282e-02,-3.367026093510487594e-02,-2.869809451414345042e-02
7.129999999999999671e-01,5.861938986335556850e-02,-4.868631815799617096e-02,1.926626446269473839e-02
7.139999999999999680e-01,-5.078620298664959787e-02,6.139369618994248642e-03,3.677531946319848033e-02
7.149999999999999689e-01,-9.374651798134372993e-02,5.251711086188712990e-02,2.346505133470618270e-03
7.159999999999999698e-01,2.705483721802087130e-03,1.776782535357842446e-02,-7.786947812348216091e-02
7.169999999999999707e-01,1.031364251391387321e-01,-4.467071169811259734e-02,-6.675776771370967033e-02
7.179999999999999716e-01,3.883455898169300285e-02,-8.307584331644655984e-02,1.257782452175184792e-02
7.189999999999999725e-01,-1.628889468173137095e-02,-3.850743691316946271e-02,3.633542225290369021e-02
7.199999999999999734e-01,-8.008880750043083363e-02,6.215778896325360736e-02,1.516910507567508642e-02
7.209999999999999742e-01,-4.681620639598362693e-02,3.935673211288496370e-02,-2.633615746499885953e-03
7.219999999999999751e-01,6.644603535225626634e-02,-1.852409586856962678e-02,-7.256733986776379985e-02
7.229999999999999760e-01,9.291239884858865095e-02,-6.594765251788912985e-02,-1.854923662492566697e-02
7.239999999999999769e-01,-2.399953589223507641e-02,-3.609999224711361171e-02,4.585291277520307102e-02
7.249999999999999778e-01,-4.870292161204189257e-02,3.486952088118649984e-02,6.015257710308785644e-02
7.259999999999999787e-01,-3.951779725840461055e-02,1.289802729521204346e-02,1.616970999410716897e-02
7.269999999999999796e-01,3.033575910916842117e-02,3.423982158240659619e-03,-4.476183440083442849e-02
7.279999999999999805e-01,6.001897198491516067e-02,-7.219568648835905655e-02,-4.038879902511764014e-02
7.289999999999999813e-01,3.593014374560305618e-02,-3.822282321039876390e-02,1.902935916429980209e-02
7.299999999999999822e-01,-9.248853236340957851e-02,7.424092660325514945e-03,6.737995150431280722e-02
7.309999999999999831e-01,-2.986681274275840986e-02,6.729757179725001648e-02,1.437306630423864501e-02
7.319999999999999840e-01,4.459281148773008852e-02,3.094975273947458971e-02,-6.692506100358569521e-02
7.329999999999999849e-01,7.812646403151531083e-02,-4.467143390736591502e-02,-3.115668258278248698e-02
7.339999999999999858e-01,2.566564123522652521e-02,-4.533457372519407447e-02,-2.663298277775564757e-02
7.349999999999999867e-01,-4.667334560579949193e-02,2.458719466115848531e-02,2.822781663228425553e-02
7.359999999999999876e-01,-6.232410118949369832e-02,7.691892156999859120e-02,2.176855893453282995e-02
7.369999999999999885e-01,3.237120721954277885e-02,4.550027317841911535e-03,-1.187210890610130090e-02
7.379999999999999893e-01,6.077328696826008597e-02,-4.576339835084149155e-02,-6.203102857242241697e-02
7.389999999999999902e-01,4.864516613274266765e-02,-5.608864577162051002e-02,-3.481920602372680362e-02
7.399999999999999911e-01,-1.809985088440490067e-02,1.560022749101218006e-02,5.566862756543503737e-02
7.409999999999999920e-01,-6.969216928786581278e-02,2.608505736856879531e-02,3.081585806814072723e-02
7.419999999999999929e-01,-4.876775361846751727e-02,3.306290832758244230e-02,-1.485635696352466915e-02
7.429999999999999938e-01,7.360452109197047899e-02,-2.691754795100304368e-02,6.053664467286562142e-03
7.439999999999999947e-01,7.958445131122496297e-02,-7.234692571929081384e-02,-5.204356750175042484e-02
7.449999999999999956e-01,-2.675819895191399941e-02,-3.086869818967611853e-02,2.012019955516980430e-02
7.459999999999999964e-01,-9.043462804250095022e-02,4.550439136054606343e-02,5.206514679319817346e-02
7.469999999999999973e-01,-3.453802066104959267e-02,3.015852670962033272e-02,-1.317570768892906662e-02
7.479999999999999982e-01,3.882719404687706016e-02,4.733645066063114915e-03,-6.362335789687222076e-02
7.489999999999999991e-01,7.104372260674532424e-02,-7.926305274601355699e-02,-4.180160210254017794e-02
7.500000000000000000e-01,5.562925163372392685e-03,-2.995488863013224742e-02,-2.336518611179881546e-03
7.510000000000000009e-01,-7.599002103936944308e-02,3.744429607039754387e-02,4.309982609457830433e-02
7.520000000000000018e-01,-4.057657741652839073e-02,4.534099257651956483e-02,-2.109438067254243085e-02
7.530000000000000027e-01,4.256590426226439239e-02,-2.936261115029825328e-02,-6.616610172000496337e-02
7.540000000000000036e-01,7.508020044886806743e-02,-4.608091911415496816e-02,-5.565889165991008691e-02
7.550000000000000044e-01,1.828746089036098130e-02,-3.995462707665602131e-02,-2.452033104350950093e-02
7.560000000000000053e-01,-4.661486182604496903e-02,4.218837207287608887e-02,6.238823252926537638e-02
7.570000000000000062e-01,-8.704855496166231943e-02,6.411858894955725641e-02,5.860652388792996631e-02
7.580000000000000071e-01,4.740891656378795616e-02,-1.151335742758031848e-02,1.170699395908724252e-02
7.590000000000000080e-01,5.578185565677007407e-02,-6.742990445250460207e-02,-4.052886585031965916e-02
7.600000000000000089e-01,6.121720611791879596e-02,-4.715532155540831660e-02,-2.295836789912889669e-02
7.610000000000000098e-01,-4.086221160269506991e-02,4.025230607388665532e-02,5.842989544428608267e-02
7.620000000000000107e-01,-8.045160631300772580e-02,5.471656327553010152e-02,2.332043908084760128e-02
7.630000000000000115e-01,-1.085568638292810049e-02,1.159106606139959951e-02,4.749141428697363325e-03
7.640000000000000124e-01,9.041197580745556628e-02,-3.590844102422163786e-02,-8.897575142664492648e-03
7.650000000000000133e-01,4.521330980802809596e-02,-5.713383387431559407e-02,-2.432152187468128099e-02
7.660000000000000142e-01,7.241461478620430867e-03,3.135005824344714448e-02,2.844776851363804010e-02
7.670000000000000151e-01,-1.066602441000916723e-01,6.162621847721595075e-02,3.907418471841828805e-02
7.680000000000000160e-01,-1.702926175565956960e-03,4.637041431346757697e-02,3.007907918209506287e-02
7.690000000000000169e-01,6.061016500547920099e-02,-5.693045618755225579e-02,-9.681299858753558696e-03
7.700000000000000178e-01,6.104737030561666056e-02,-5.387633464388480453e-02,-2.842625056889119123e-02
7.710000000000000187e-01,-1.437614719428587963e-02,-2.320635908081837302e-03,-1.133733623577953299e-02
7.720000000000000195e-01,-7.527002024084286647e-02,5.035737423332975471e-02,2.431092877410522685e-02
7.730000000000000204e-01,-2.140344662645034951e-02,4.872240613556679673e-02,5.534529478358567178e-02
7.740000000000000213e-01,3.241297811999429429e-02,-1.047949838123155529e-02,-4.900690431337088870e-02
7.750000000000000222e-01,6.534485463506882474e-02,-6.680004466167446808e-02,-1.662591266702516044e-02
7.760000000000000231e-01,2.679663138037073969e-02,-1.616592303180554302e-02,-3.311909521990884144e-03
7.770000000000000240e-01,-8.334498765030888545e-02,6.307870661993637829e-02,3.283260303350628295e-02
7.780000000000000249e-01,-6.160986197343624321e-02,5.699427186008396151e-02,3.873700075102991247e-02
7.790000000000000258e-01,1.255951417143362676e-02,2.032099830581224776e-03,-2.287450523809056793e-02
7.800000000000000266e-01,8.089288764438726242e-02,-7.492767676692267675e-02,-3.983482758952041486e-02
7.810000000000000275e-01,3.914796263430416617e-02,-3.045312368468290620e-02,-1.786892486601771024e-02
7.820000000000000284e-01,-3.942147992742923296e-02,3.701795709802820078e-02,3.912401497176510451e-02
7.830000000000000293e-01,-1.015735155931952044e-01,7.431747381969296129e-02,5.110935470022589383e-02
7.840000000000000302e-01,-3.431686562884630597e-03,-8.932836587195687461e-03,2.139636888379698940e-02
7.850000000000000311e-01,8.930076858170697685e-02,-7.873696657860283776e-02,-2.558762390964908900e-02
7.860000000000000320e-01,6.389911364300920882e-02,-4.843010478691586046e-02,-5.907808608760366231e-02
7.870000000000000329e-01,-3.447847102951263204e-02,4.601651114806899062e-02,6.526353821632973826e-03
7.880000000000000338e-01,-7.448176442061615887e-02,5.143093581954817639e-02,4.404400700178690703e-02
7.890000000000000346e-01,-1.181106447089809615e-02,4.152148006822677095e-02,2.319940219755091751e-02
7.900000000000000355e-01,7.340962193584241180e-02,-5.029245764072173136e-02,-4.483770209598630235e-02
7.910000000000000364e-01,7.674847010636196010e-02,-4.460139124391201276e-02,-3.168999517845035724e-02
7.920000000000000373e-01,-2.149972888149089684e-02,7.802404566490636281e-03,2.619339879567790172e-02
7.930000000000000382e-01,-1.034487102429356986e-01,6.515102497912116097e-02,4.544994149606355893e-02
7.940000000000000391e-01,-5.151558398914725390e-02,4.780603910559951680e-02,4.764973819331731753e-02
7.950000000000000400e-01,2.042069045165625582e-02,-5.871007464809387122e-02,-8.114917920349049713e-03
7.960000000000000409e-01,8.257338265546683431e-02,-7.860327580385763346e-02,-3.373537161305076998e-02
7.970000000000000417e-01,4.656921690893867788e-04,-2.835798239841370513e-02,-2.706204508438738929e-02
7.980000000000000426e-01,-7.096512068024825315e-02,7.051139812488907421e-02,1.505828623256274743e-02
7.990000000000000435e-01,-8.061836728670332408e-02,3.873574929264258365e-02,3.582619046440734673e-02
8.000000000000000444e-01,1.394853615429705353e-02,-3.151640643607582504e-02,-3.626314085231241175e-03
8.010000000000000453e-01,6.850741109492781977e-02,-2.302646514827540181e-02,-1.154225825601805887e-02
8.020000000000000462e-01,5.021989595828450954e-03,-1.764495530121876210e-02,-3.302994277792771494e-02
8.030000000000000471e-01,-4.126947528963726547e-02,4.854088609635766327e-02,4.339218169058634000e-02
8.040000000000000480e-01,-8.700638445335534543e-02,5.196704255778480247e-02,6.136677110831465637e-02
8.050000000000000488e-01,-1.174272053928638324e-03,-3.977609454042103226e-02,1.219983815359785770e-03
8.060000000000000497e-01,1.011593342056582301e-01,-4.844645671893459127e-02,-3.707612749440574590e-02
8.070000000000000506e-01,6.964180928149406313e-02,-3.104246474311527643e-02,-2.684578853514696037e-02
8.080000000000000515e-01,-2.218227807748325911e-02,2.348702370197177508e-02,-9.601347345681320034e-03
8.090000000000000524e-01,-9.030796215300106178e-02,7.382953216241450178e-02,6.384363848751352377e-02
8.100000000000000533e-01,-2.850628149325334232e-02,8.440023782547691200e-03,3.979585560662899507e-02
8.110000000000000542e-01,6.081734148760636893e-02,-7.118812105452448913e-02,-1.604944346944717215e-02
8.120000000000000551e-01,6.434697819244383776e-02,-2.261823753352001920e-02,-4.898727250060622845e-02
8.129999999999999449e-01,-1.537345176398685620e-02,2.959969984628265521e-02,1.511990147679020090e-02
8.139999999999999458e-01,-1.076602395919700472e-01,6.122185015259749841e-02,6.508578142666594790e-02
8.149999999999999467e-01,-1.662124306480750047e-02,1.982269067350865902e-02,5.479404039871221127e-02
8.159999999999999476e-01,3.360937816645320070e-02,-8.838958413217544441e-02,-2.720956162331654438e-02
8.169999999999999485e-01,1.010200752988976575e-01,-4.892962321364532907e-02,-3.294859738614786676e-02
8.179999999999999494e-01,-3.963539522450651399e-04,4.554614655043325022e-02,-1.764541041519733294e-04
8.189999999999999503e-01,-8.209891109439526602e-02,3.373827083126839516e-02,2.410135526766685188e-02
8.199999999999999512e-01,-8.680295758113033833e-02,4.040733841384226005e-02,7.206848397670111150e-02
8.209999999999999520e-01,1.456440369141823177e-02,-5.740364075950699779e-02,-2.174361801341444592e-02
8.219999999999999529e-01,8.602124769927127490e-02,-7.051620899176891388e-02,-4.528408867871572263e-02
8.229999999999999538e-01,2.349759923240832618e-02,1.478078461415482069e-02,-2.869343990217022508e-02
8.239999999999999547e-01,-7.685186421588502403e-02,3.250342738316527175e-02,4.151464981236357293e-02
8.249999999999999556e-01,-7.702145946478500260e-02,3.918329816874127625e-02,4.145839660811767580e-02
8.259999999999999565e-01,-6.505360340921311976e-03,-2.835332505256021179e-02,2.082970355726803183e-02
8.269999999999999574e-01,8.289281567348588675e-02,-6.099713983581300097e-02,-2.819546126543523434e-02
8.279999999999999583e-01,3.642017710923581286e-02,2.148973469573869737e-04,-6.044783326062105888e-02
8.289999999999999591e-01,-5.059134678286211773e-02,1.103429291591994238e-01,1.570451020534282399e-02
8.299999999999999600e-01,-1.059856194779160710e-01,3.820082102805252844e-02,2.907240029197558431e-02
8.309999999999999609e-01,-1.119977443132730635e-02,-1.508873562636357107e-02,4.620367344013538366e-03
8.319999999999999618e-01,7.200675546964857565e-02,-5.312484022341293355e-02,-9.566991823264502093e-03
8.329999999999999627e-01,7.060576217970769564e-02,-3.128133676367765570e-02,-3.221518372602582420e-02
8.339999999999999636e-01,-1.727144973806186978e-02,5.570080001538844916e-02,-1.286244315178578825e-02
8.349999999999999645e-01,-6.323897271370301776e-02,6.523761616893083981e-02,3.022750601785042721e-02
8.359999999999999654e-01,-1.325149888392063331e-02,-1.005357341450005375e-02,4.447928101169360687e-02
8.369999999999999662e-01,4.323948137825226606e-02,-6.634374806117003531e-02,-3.093585166593004841e-03
8.379999999999999671e-01,6.912104638391629308e-02,-5.742281351232846748e-02,-6.692588581747245524e-02
8.389999999999999680e-01,-9.638018184266407620e-03,3.304690550121618803e-02,-2.924226694051110936e-02
8.399999999999999689e-01,-9.008550429195297249e-02,7.289468476204648273e-02,8.006424407175112903e-03
8.409999999999999698e-01,-5.883841599771894720e-02,2.078954758767112207e-02,4.216734024702455813e-02
8.419999999999999707e-01,3.366808158109806104e-02,-7.543674548536670466e-02,7.123511396447581266e-03
8.429999999999999716e-01,1.050930647748918034e-01,-4.003049646278397655e-02,-5.197737103802653122e-03
8.439999999999999725e-01,1.251178719945421694e-02,3.036767823349625570e-02,-4.626061318239896997e-02
8.449999999999999734e-01,-3.929589067839392436e-02,6.921867276781960843e-02,2.250715727046782855e-02
8.459999999999999742e-01,-8.807734626016763824e-02,7.520020668521433180e-03,7.883519362340205006e-02
8.469999999999999751e-01,1.122160947341471413e-02,-7.297392410061719070e-02,3.397444688738051471e-02
8.479999999999999760e-01,5.611608461544241588e-02,-4.139356379195607838e-02,-2.569314615620399422e-02
8.489999999999999769e-01,6.417656326900021690e-02,-1.407259144311032422e-03,-6.216775872994776547e-02
8.499999999999999778e-01,-5.806367653873511364e-02,4.028392135067278279e-02,-1.358201526325792004e-02
8.509999999999999787e-01,-9.599622198623311564e-02,4.168739746441546545e-02,2.367721997402597381e-02
8.519999999999999796e-01,1.622065455307634962e-02,-3.433548245517700770e-02,4.202995470054671223e-02
8.529999999999999805e-01,7.978227020550407445e-02,-3.677168994886037545e-02,-1.767489239531053191e-02
8.539999999999999813e-01,7.281524843761774668e-02,-8.679351210087928037e-03,-5.194787562114682594e-02
8.549999999999999822e-01,-1.615618448518297027e-03,4.887539290465740816e-02,-1.679865506109539872e-02
8.559999999999999831e-01,-9.519931102999057426e-02,7.907467135624172971e-03,1.263639637048006442e-02
8.569999999999999840e-01,-2.197616106536281338e-02,-5.369876934035280880e-02,1.187274917737992166e-02
8.579999999999999849e-01,5.549132937209428490e-02,-4.798336558703807792e-02,3.966561298760998971e-02
8.589999999999999858e-01,8.994962041850025625e-02,-2.350161044564033977e-02,-4.224630278738412265e-02
8.599999999999999867e-01,-1.378736382140132236e-03,4.565717085910595691e-02,-2.840306158674404599e-02
8.609999999999999876e-01,-8.456662489676762540e-02,3.167254149548860698e-02,-6.423370848027990139e-03
8.619999999999999885e-01,-5.115610966843883028e-02,-2.593666260844417620e-02,4.940511577851753461e-02
8.629999999999999893e-01,4.560649820934349619e-02,-5.740920231978082627e-02,1.414452599192805686e-02
8.639999999999999902e-01,1.021898031348554836e-01,-1.600530796776937839e-02,-1.849042681862413454e-02
8.649999999999999911e-01,7.749964576201337323e-03,7.586171186346286899e-02,-2.524823878950203243e-02
8.659999999999999920e-01,-6.360969834292726222e-02,7.337115271310407083e-02,-2.904094157615154728e-02
8.669999999999999929e-01,-7.717447278065069083e-02,1.904478002734981109e-03,4.408965135474737784e-02
8.679999999999999938e-01,2.693031954979339601e-02,-7.655304568343565541e-02,2.327031143805212074e-02
8.689999999999999947e-01,8.486941380941109836e-02,-2.997594006299737768e-02,-3.319375889390657058e-02
8.699999999999999956e-01,6.802203417285813264e-03,2.659935680792307328e-02,-6.355804545765993130e-02
8.709999999999999964e-01,-5.950846013227110987e-02,3.168902143507050517e-02,-2.384889881098659417e-02
8.719999999999999973e-01,-7.225770527322758485e-02,-4.824511093707568692e-03,3.955372302837345533e-02
8.729999999999999982e-01,-1.748147150139791814e-02,-8.964280406149865987e-02,2.400376322567614878e-02
8.739999999999999991e-01,8.216741272427131870e-02,-4.843041724378862461e-02,-3.709848113720489154e-03
8.750000000000000000e-01,2.712201224005109448e-02,1.842309389881101669e-02,-2.982155469232086742e-02
8.760000000000000009e-01,-1.991570256296192748e-02,6.244068369691872789e-02,-3.685565392781767202e-02
8.770000000000000018e-01,-9.947489027308344112e-02,2.386534129573478213e-02,3.879406324399521655e-02
8.780000000000000027e-01,-4.665046191490782035e-02,-4.918102990995364132e-02,8.318085293298783933e-02
8.790000000000000036e-01,2.938394776677703477e-02,-5.257305751388248460e-02,1.667550414954165061e-02
8.800000000000000044e-01,7.292699332536929646e-02,7.148844305229573939e-03,-3.893886553233238956e-02
8.810000000000000053e-01,-1.704019870182545485e-02,4.234635490773462629e-02,-1.576393554901154778e-02
8.820000000000000062e-01,-8.660714873904236388e-02,2.099890122885841870e-02,-6.628603495228309155e-03
8.830000000000000071e-01,-4.077897170979736391e-02,-2.652799498010312979e-02,6.513910312604043185e-02
8.840000000000000080e-01,1.666602366563685322e-02,-8.782127131011968624e-02,4.576362692349045941e-02
8.850000000000000089e-01,7.163275009221804768e-02,3.090287723617853727e-03,-4.017427981744636084e-02
8.860000000000000098e-01,1.682176655316824920e-02,7.534969991930987043e-02,-3.880945971651472703e-02
8.870000000000000107e-01,-5.977640466362979521e-02,1.210374714320650545e-02,-3.056077712850436071e-02
8.880000000000000115e-01,-5.407940680783077103e-02,-3.162029417830258121e-02,3.659069887328100096e-02
8.890000000000000124e-01,5.140360725139567905e-02,-7.188521694157469499e-02,3.143901200044370292e-02
8.900000000000000133e-01,5.419407711285139512e-02,1.592270260572699325e-02,1.338404117298363886e-02
8.910000000000000142e-01,3.435268356108058668e-02,4.706152247985445625e-02,-4.246637039629437560e-02
8.920000000000000151e-01,-6.138685971682955600e-02,6.675318354036957613e-02,-2.270334683269898714e-03
8.930000000000000160e-01,-7.805444513094436654e-02,-4.651180461983341063e-02,3.657424810759343781e-02
8.940000000000000169e-01,7.399949681124465273e-03,-9.265309968210287683e-02,6.115705196784687603e-02
8.950000000000000178e-01,6.086667937672664980e-02,-1.237447394368882542e-02,1.974078048078121636e-02
8.960000000000000187e-01,5.271162186495866042e-02,3.597137993002806622e-02,-3.538217574816859834e-02
8.970000000000000195e-01,-4.211412230218111036e-02,4.154822881396258438e-02,-3.837582383241312789e-02
8.980000000000000204e-01,-5.832864960332359572e-02,-1.523090627830958176e-03,3.458779388142928929e-02
8.990000000000000213e-01,-9.009696058901410856e-03,-6.135345615447702905e-02,7.147215726727060292e-02
9.000000000000000222e-01,6.843626467674975011e-02,-5.428939469452437327e-02,3.404106730559555184e-03
9.010000000000000231e-01,4.271788494204539766e-02,-2.313866202778223392e-03,-3.026797839771971227e-02
9.020000000000000240e-01,-1.667428819234973228e-02,4.183564251692403063e-02,-6.254293626029480690e-02
9.030000000000000249e-01,-7.542543872458797038e-02,-9.000979068203673709e-04,3.075352815182712078e-03
9.040000000000000258e-01,-5.371781195328875769e-02,-5.695193165797202139e-02,5.556703208580969500e-02
9.050000000000000266e-01,5.495138908526349397e-02,-6.533437085453097648e-02,5.856341774199366745e-02
9.060000000000000275e-01,4.776534964185737142e-02,4.648280641200341207e-02,-1.966764620364919516e-02
9.070000000000000284e-01,-9.481400228625331411e-03,3.562100081672197466e-02,-2.025310772434836190e-02
9.080000000000000293e-01,-6.760469846090026713e-02,2.302691354567967114e-02,-3.999597561284955714e-03
9.090000000000000302e-01,-5.157555426640509505e-02,-7.033082648285969574e-02,3.328750907622216731e-02
9.100000000000000311e-01,3.620053138546566740e-02,-2.616302245019672471e-02,3.666004059531156878e-02
9.110000000000000320e-01,1.021722762868864931e-01,-1.629255065964286750e-02,-4.080445512978225905e-04
9.120000000000000329e-01,1.703721914988062455e-02,4.635458336250232458e-02,-6.248443703700930912e-02
9.130000000000000338e-01,-6.025510980658616705e-02,2.257334699660613550e-02,-1.559602862969129006e-02
9.140000000000000346e-01,-7.601828558092375843e-02,-2.236801358376298843e-02,2.006886445152281789e-02
9.150000000000000355e-01,-5.744501458037307683e-03,-6.778133241694460354e-02,4.526539914098080819e-02
9.160000000000000364e-01,8.768747354137509942e-02,2.923894830393225855e-02,9.487036428878914060e-03
9.170000000000000373e-01,6.001941678684306197e-02,5.560927251039633756e-02,-2.965265209904306698e-02
9.180000000000000382e-01,-4.689813785208879482e-02,5.219027642107150478e-02,-5.194718103615532379e-02
9.190000000000000391e-01,-1.033460810962373438e-01,-2.641169880142115595e-02,-2.044819231248875754e-02
9.200000000000000400e-01,-9.630260835181495005e-03,-4.415178157556742811e-02,5.444153105401566828e-02
9.210000000000000409e-01,7.340653354062368074e-02,-4.523052198690352688e-02,2.735338117692627871e-02
9.220000000000000417e-01,9.881344637329469993e-02,4.104356445345527793e-02,-4.677080521556740977e-02
9.230000000000000426e-01,-2.819860662450380390e-02,5.272648117149115327e-02,-5.220048349572249669e-02
9.240000000000000435e-01,-8.939066607170091661e-02,-2.366419978973873309e-02,-5.482647011407337963e-03
9.250000000000000444e-01,-3.374737010160223233e-02,-6.990537239511951384e-02,3.009809290009791624e-02
9.260000000000000453e-01,6.103596826855884477e-02,-6.273398899701089493e-02,4.798478077943203052e-02
9.270000000000000462e-01,6.361113442881012603e-02,3.913393003080739563e-02,5.727372751218162000e-03
9.280000000000000471e-01,-2.325187494332094183e-03,6.765183290871309985e-02,-3.226572038087199140e-02
9.290000000000000480e-01,-7.270638908153785607e-02,8.940321855831200601e-04,-1.742541913296928591e-02
9.300000000000000488e-01,-5.502649692657865521e-02,-5.615894121361983404e-02,6.001826886104682721e-03
9.310000000000000497e-01,2.683684210634358636e-02,-4.227932220312586448e-02,5.871546296642538021e-02
9.320000000000000506e-01,5.936421927392884074e-02,4.161398521839548836e-02,-2.987331022353285209e-03
9.330000000000000515e-01,1.499528877372801119e-02,7.296186811068894329e-02,-4.867770863065559728e-02
9.340000000000000524e-01,-7.743443570399875797e-02,1.429790780561456844e-02,-3.121239829055246634e-02
9.350000000000000533e-01,-6.289241391018672578e-02,-5.627983193641277609e-02,2.563834835949665644e-02
9.360000000000000542e-01,5.063047791102571679e-04,-4.185691906014146757e-02,6.209496003606478770e-02
9.370000000000000551e-01,7.954358681726916847e-02,1.543657214156119936e-02,2.615567143993265814e-02
9.379999999999999449e-01,4.129701233752801348e-02,9.742424570116867133e-02,-3.342571986641670878e-02
9.389999999999999458e-01,-4.360424965014635806e-02,4.856561544793887297e-02,-2.819454097324482211e-02
9.399999999999999467e-01,-7.432747693067215389e-02,-7.163232083398102246e-02,1.871029121177314892e-03
9.409999999999999476e-01,-1.847496206187801415e-02,-5.191601363051316642e-02,5.045857878012686981e-02
9.419999999999999485e-01,6.687079747464580448e-02,-5.094745682420126834e-03,3.938350006516214141e-02
9.429999999999999494e-01,5.642931550890342013e-02,6.166104776569741180e-02,-4.853113754371417808e-03
9.439999999999999503e-01,-1.611602001478013024e-02,3.320688116013983254e-02,-4.432029977873868515e-02
9.449999999999999512e-01,-1.099662091214415188e-01,-4.470402617853455607e-02,-3.567258005208334692e-02
9.459999999999999520e-01,-1.607548626628634361e-02,-5.570421681005946479e-02,2.656260164344568381e-02
9.469999999999999529e-01,6.204286707409877727e-02,-3.391940277849742752e-03,6.450209093595843379e-02
9.479999999999999538e-01,7.041603930101976438e-02,4.544613885690134553e-02,-3.780294379511672971e-03
9.489999999999999547e-01,1.363335314310164421e-02,3.523647255605485279e-02,-4.835498254374977906e-02
9.499999999999999556e-01,-8.142934883723694506e-02,-3.000580242789165596e-03,-4.490036690154841637e-02
9.509999999999999565e-01,-3.324172467352053129e-02,-4.953712348755043293e-02,-3.233703946824024989e-04
9.519999999999999574e-01,1.307162391828416668e-02,-4.371862085112927787e-02,3.944930573522101303e-02
9.529999999999999583e-01,8.252948482942008834e-02,4.543525994505877297e-02,3.138671679475561749e-02
9.539999999999999591e-01,1.771299361901106355e-03,4.780947234504877297e-02,-5.662010227978164084e-02
9.549999999999999600e-01,-6.682098856708582058e-02,1.174064398419891186e-02,-6.049396852020219595e-02
9.559999999999999609e-01,-5.895792334280249014e-02,-6.026214235933298469e-02,1.018839795341009227e-02
9.569999999999999618e-01,1.135456085691236884e-02,-4.512537502292510161e-02,2.584614613988981194e-02
9.579999999999999627e-01,9.962844540958487594e-02,2.573405883880133457e-02,3.653257779832949637e-02
9.589999999999999636e-01,1.662522675947644343e-02,6.848550105563978863e-02,-1.046510023121916336e-02
9.599999999999999645e-01,-4.790316504933403441e-02,9.975229721004905473e-03,-4.811827546125971994e-02
9.609999999999999654e-01,-6.215683183790596256e-02,-3.644865353801840513e-02,-1.309860912013545084e-02
9.619999999999999662e-01,-2.012902057257780555e-02,-4.225369472319129294e-02,4.240477554041357372e-02
9.629999999999999671e-01,7.386228765851535205e-02,1.448739275864301124e-02,3.267490464717801024e-02
9.639999999999999680e-01,6.263756661537513148e-02,6.431079783237129976e-02,-1.284007393379820242e-02
9.649999999999999689e-01,-4.061320174070769812e-02,2.610544501556450944e-02,-4.387453119831673243e-02
9.659999999999999698e-01,-3.881783150655446213e-02,-3.871318291843545145e-02,-1.286511579714020659e-03
9.669999999999999707e-01,-3.104371603279004743e-02,-5.552873213912237760e-02,2.489000633761311379e-02
9.679999999999999716e-01,6.650000796065791420e-02,1.660189794853396406e-02,2.559081670105787382e-02
9.689999999999999725e-01,7.196789854626352290e-02,9.111981711390187977e-02,1.493201573888496394e-03
9.699999999999999734e-01,-1.923516100837565843e-02,1.123818196275596336e-02,-3.368910583788831820e-02
9.709999999999999742e-01,-8.892088057795036193e-02,-5.658143206077536486e-02,-5.419573980271916863e-02
9.719999999999999751e-01,-6.950327147361032298e-02,-4.524166464536994586e-02,4.858020239327812823e-02
9.729999999999999760e-01,3.448364912769202872e-02,-2.406290448877437121e-02,3.217743355523471765e-02
9.739999999999999769e-01,9.092636092273738424e-02,7.387010773897767502e-02,2.068953681454938423e-02
9.749999999999999778e-01,1.623512272456564473e-02,7.222688145595164422e-02,-4.522309296201196954e-02
9.759999999999999787e-01,-1.008716016791129932e-01,-3.910454346322820435e-02,-6.321606906335451581e-02
9.769999999999999796e-01,-6.958829211532299719e-02,-5.531883138288336277e-02,1.906728716077489560e-02
9.779999999999999805e-01,4.036832362335410207e-02,-5.231536546093346063e-03,4.347673730310731149e-02
9.789999999999999813e-01,7.968275274237736350e-02,6.034653103432999904e-02,5.484357406507071528e-03
9.799999999999999822e-01,3.694817587822094018e-02,4.626201446009158696e-02,-3.512673751702646840e-02
9.809999999999999831e-01,-8.333269223913571111e-02,2.444965975328928370e-02,-4.614540632506503731e-02
9.819999999999999840e-01,-8.263627524113281719e-02,-3.236086921635780711e-02,-2.539238173833167564e-02
9.829999999999999849e-01,5.638370533458937801e-03,-3.629593502658743503e-02,5.237384727666120898e-02
9.839999999999999858e-01,8.266942697933957196e-02,2.109005025722286361e-02,2.394288961538341975e-02
9.849999999999999867e-01,6.021021685261369188e-02,8.713872282179317696e-02,1.542196952317509417e-02
9.859999999999999876e-01,-5.085228193350387060e-02,2.578283080231863044e-03,-2.761816128521371247e-02
9.869999999999999885e-01,-8.103235000288151746e-02,-6.095269690323093514e-02,-2.051971672587390647e-02
9.879999999999999893e-01,-4.290433540804608481e-02,-2.625853637102894614e-02,3.078153927185000097e-02
9.889999999999999902e-01,7.731305342411581849e-02,2.442626687380687611e-02,3.502865514470436537e-02
9.899999999999999911e-01,1.001824521970219872e-01,5.280091321446635927e-02,6.017323092613357724e-03
9.909999999999999920e-01,-4.739416000435555873e-03,8.988882892203026859e-03,-3.999947278983405352e-02
9.919999999999999929e-01,-9.588061418601009911e-02,-5.050145407755583099e-02,-3.979127233365958166e-02
9.929999999999999938e-01,-5.494609880897000781e-02,-6.413823323078808591e-02,2.057450442381851541e-02
9.939999999999999947e-01,2.445094663127566834e-02,1.588577306267402803e-02,6.600916086611209599e-03
9.949999999999999956e-01,5.551353574091683757e-02,6.246643517252900568e-02,3.412617763072668675e-02
9.959999999999999964e-01,-8.909407661620946661e-03,3.969274209083639010e-02,-1.046917017193384203e-02
9.969999999999999973e-01,-7.408706952245333599e-02,-4.972619086788254011e-02,-3.637441278582031340e-02
9.979999999999999982e-01,-6.388521555965913368e-02,-4.095128358895262083e-02,-2.302637867992643819e-02
9.989999999999999991e-01,1.995367335684354593e-02,5.729784408141733003e-03,3.383415860664198971e-02
1.000000000000000000e+00,9.021516523191065728e-02,5.382776216010468073e-02,4.048273532305237538e-02
1.000999999999999890e+00,2.213989695149226958e-02,4.827104600688410241e-02,-4.156112933659667809e-03
1.002000000000000002e+00,-5.482978988758095001e-02,-2.301975640975000362e-02,-5.603574381663551512e-02
1.002999999999999892e+00,-5.834441603465731485e-02,-8.512613586662445830e-02,-2.507639326560953674e-02
1.004000000000000004e+00,1.376626008645843481e-02,5.334514845824524405e-03,2.458829370916686477e-02
1.004999999999999893e+00,3.394805700262909509e-02,7.049236427029022256e-02,4.269199471260083645e-02
1.006000000000000005e+00,2.875073323447935314e-02,3.993917860611681525e-02,1.120520299810624267e-02
1.006999999999999895e+00,-6.610218660672821656e-02,-1.270280742235942867e-02,-6.035901922975502043e-02
1.008000000000000007e+00,-8.342494668581323936e-02,-5.654701467201071058e-02,-3.612691871927804083e-02
1.008999999999999897e+00,6.392279660420769130e-03,-6.534883160368128510e-03,3.700222648902116301e-02
1.010000000000000009e+00,6.296580020175533698e-02,4.723478800864366889e-02,6.605100823194819115e-02
1.010999999999999899e+00,5.375533770876868289e-02,7.676145785428423185e-02,1.174149717938036304e-02
1.012000000000000011e+00,-2.666254645795373274e-02,1.237103173742376853e-03,-2.620847678337561229e-02
1.012999999999999901e+00,-5.319048316981468683e-02,-6.842757366862209367e-02,-9.495032588580747113e-03
1.014000000000000012e+00,-4.733567104227004441e-02,-2.285919967513795614e-02,-2.297695675630101117e-02
1.014999999999999902e+00,8.365297517619012246e-02,4.022662444877338206e-02,3.678660379665994046e-02
1.016000000000000014e+00,6.043722995971006345e-02,6.452835875873874638e-02,6.445737859992307917e-02
1.016999999999999904e+00,-3.606278806757436117e-02,3.303143271812177678e-02,1.922260884624458609e-03
1.018000000000000016e+00,-8.112504561476846510e-02,-5.358056884023043587e-02,-4.995334450476608679e-02
1.018999999999999906e+00,-5.385656938316423642e-02,-5.060763146451246336e-02,-2.713582054522522755e-02
1.020000000000000018e+00,1.749522379623872845e-02,1.242574993503839939e-03,1.325105387444181285e-02
1.020999999999999908e+00,8.817491300569041401e-02,8.129307536752292118e-02,2.323303339554748034e-02
1.022000000000000020e+00,1.914821637423297016e-02,4.548322818963553699e-02,-7.121783238091833161e-03
1.022999999999999909e+00,-9.200966455568647395e-02,-5.191940196079455200e-02,-8.478584339298129990e-02
1.024000000000000021e+00,-2.467559330689438751e-02,-8.883183992954533925e-02,-1.950105497280989197e-02
1.024999999999999911e+00,-1.587088564330015744e-02,3.187073797137904632e-04,3.516727750925426749e-02
1.026000000000000023e+00,8.811983438039891481e-02,9.357870730974228446e-02,6.041446505739911377e-02
1.026999999999999913e+00,-4.328690193883073280e-03,6.690411409258463504e-02,1.687871869944503403e-02
1.028000000000000025e+00,-4.954786370700831749e-02,1.242298967853462145e-02,-1.739352468706474239e-02
1.028999999999999915e+00,-8.206096343174153207e-02,-4.766017637105696148e-02,-6.602829453869027421e-02
1.030000000000000027e+00,-1.409513394892696753e-02,-1.380612403422592192e-02,1.012391304138745077e-02
1.030999999999999917e+00,9.564063836225995818e-02,6.373215068289085627e-02,1.386615036896460783e-02
1.032000000000000028e+00,4.949665886408949333e-02,5.935430805956825456e-02,3.659930610407694657e-02
1.032999999999999918e+00,-3.755485321324471271e-02,-3.811381835690839937e-02,-2.929618351931067080e-02
1.034000000000000030e+00,-5.462156018381610079e-02,-4.876294161824091394e-02,-5.343094687632343742e-02
1.034999999999999920e+00,-1.398153768471263603e-02,-2.737285534771804335e-02,-1.657781615548435325e-02
1.036000000000000032e+00,4.284953912193074921e-02,5.487024113900908912e-02,4.199324617173723351e-02
1.036999999999999922e+00,6.088129981522664991e-02,6.247638847784661720e-02,5.186562196981666512e-02
1.038000000000000034e+00,2.024093570501488831e-02,-5.878502376155012379e-03,-2.791613473121019179e-02
1.038999999999999924e+00,-7.195622805668333566e-02,-6.774615592736651926e-02,-6.724704294357695955e-02
1.040000000000000036e+00,-3.232484360013554436e-02,-2.421685144622913108e-02,-4.288521338887448658e-02
1.040999999999999925e+00,4.684282882941281922e-02,4.378132084685008169e-02,5.239885244553144344e-04
1.042000000000000037e+00,7.589164613919657798e-02,5.675998054586720715e-02,6.829037806204056593e-02
1.042999999999999927e+00,2.589195470775270888e-02,-2.914140100421624621e-02,2.415303346439045054e-02
1.044000000000000039e+00,-5.080228649018125181e-02,-7.880469738537788926e-02,-9.715448518246598206e-03
1.044999999999999929e+00,-8.438280301434959718e-02,-5.801548507284431250e-02,-2.372224025660556526e-02
1.046000000000000041e+00,5.054952974154124784e-02,-2.238203855801986376e-03,-8.559497611937126951e-03
1.046999999999999931e+00,9.240259349224780316e-02,3.943777336950905071e-02,4.385142545583230883e-02
1.048000000000000043e+00,5.043683257417708871e-02,1.170388878039733613e-02,1.713928876120119488e-02
1.048999999999999932e+00,-2.430937395530380352e-02,-3.227199919551404506e-02,-1.629667267834040631e-02
1.050000000000000044e+00,-5.052087661725163104e-02,-5.413214297692182930e-02,-5.756601432620538777e-02
1.050999999999999934e+00,7.242018906208907633e-03,1.131062127374049021e-02,-1.283133047402344219e-02
1.052000000000000046e+00,7.814160783067217175e-02,7.421734265665504149e-02,4.697887025538895200e-02
1.052999999999999936e+00,5.746327087800247313e-02,5.043056918720139649e-03,2.665382926501724120e-02
1.054000000000000048e+00,-3.285688219358339629e-02,-2.353814802583821877e-02,1.094001812003235312e-02
1.054999999999999938e+00,-9.469055437449280799e-02,-6.448601301879514081e-02,-3.468832853516389675e-02
1.056000000000000050e+00,-3.677295199944107668e-02,2.605072159098479126e-02,-5.642603592127294621e-02
1.056999999999999940e+00,6.235864037202853982e-02,6.833852328088904637e-02,3.643758401497217830e-02
1.058000000000000052e+00,5.839181278070648684e-02,4.087362762531671773e-02,6.233405333722418645e-02
1.058999999999999941e+00,-4.557557695056218411e-02,-1.673794523105556417e-02,3.667200314375330689e-03
1.060000000000000053e+00,-8.831819710996730022e-02,-7.680160765470066264e-02,-7.311509769700184902e-02
1.060999999999999943e+00,-4.489237181976304253e-02,-2.140580889812200224e-02,-2.635061936661546589e-02
1.062000000000000055e+00,4.559139857641510141e-02,3.343277671571410342e-02,1.381523159147291999e-02
1.062999999999999945e+00,7.291988497799885283e-02,5.635373965113051747e-02,3.226580162162715620e-02
1.064000000000000057e+00,2.739561609536730891e-02,-5.683401108616066479e-04,1.903039335514392083e-02
1.064999999999999947e+00,-5.670280209853215819e-02,-1.063256740561000363e-01,-6.560796747461543343e-02
1.066000000000000059e+00,-4.453958516168299991e-02,-5.693505067934640645e-02,-3.546054992188409083e-02
1.066999999999999948e+00,3.728727480961639262e-03,3.110164527399632284e-02,1.479159614191765358e-02
1.068000000000000060e+00,9.310829143314151846e-02,2.122085933770283608e-02,6.471953114459924605e-02
1.068999999999999950e+00,3.644290523713392127e-02,3.444721014662494724e-02,2.508789302346818226e-02
1.070000000000000062e+00,-3.879492083340742303e-02,-6.373176803804674051e-02,-2.386006752266011180e-02
1.070999999999999952e+00,-8.846210654177959209e-02,-4.517555568347254163e-02,-6.496084354772334313e-02
1.072000000000000064e+00,1.603375968775686694e-02,2.806756392004893311e-02,-2.708099222160801744e-03
1.072999999999999954e+00,8.945767960764848536e-02,6.115166138044486610e-02,1.830255210691859175e-02
1.074000000000000066e+00,4.471973730636602529e-02,3.244355076738991706e-02,6.564342187279563479e-02
1.074999999999999956e+00,-4.399050009795647115e-02,-5.130993715078665390e-02,-4.183782724472383599e-03
1.076000000000000068e+00,-8.210818401925032428e-02,-4.021138437020057438e-02,-1.883528099575207740e-02
1.076999999999999957e+00,-5.011947757871391615e-03,-1.214409629233718056e-02,-4.366070504014136350e-02
1.078000000000000069e+00,7.144908511920837479e-02,8.635850257553248643e-02,5.254891198672367175e-02
1.078999999999999959e+00,6.063128064800840655e-02,3.387224870280493294e-02,6.267124814248664633e-02
1.080000000000000071e+00,-4.601198619317973561e-03,-5.661859379394712510e-02,3.463385173478645759e-03
1.080999999999999961e+00,-8.665306631991291642e-02,-5.669807430864463177e-02,-1.812648353928305450e-02
1.082000000000000073e+00,-3.065213149439673795e-02,3.167727802773028650e-02,-3.741560890873871920e-02
1.082999999999999963e+00,6.287496469165144986e-02,4.550338680045769302e-02,-7.577231287093132497e-03
1.084000000000000075e+00,7.720267476571768261e-02,4.195955613839065859e-03,6.508178019526722480e-02
1.084999999999999964e+00,8.306749395261879207e-03,-5.361605187975149178e-02,1.971515231267463933e-02
1.086000000000000076e+00,-8.281913089022040209e-02,-7.101600032137152241e-02,-4.916675336370693317e-02
1.086999999999999966e+00,-2.424308669043565706e-02,3.155285472856795247e-03,-2.744547285633541431e-02
1.088000000000000078e+00,5.003176473317058615e-02,3.411103601874833358e-02,-2.628729085595390633e-02
1.088999999999999968e+00,7.458714027098607702e-02,3.684034630875174937e-02,2.041148446467621821e-02
1.090000000000000080e+00,4.013703233786421187e-02,-3.964141425958186277e-02,3.101150970385815192e-02
1.090999999999999970e+00,-5.465979630190082733e-02,-7.487345025944462662e-02,-2.627597037806318758e-02
1.092000000000000082e+00,-7.545570182264657588e-02,-1.467625320414931052e-02,-5.075124956238408896e-02
1.092999999999999972e+00,3.483772230939762710e-02,8.137684865771385723e-02,-1.527992893795893266e-02
1.094000000000000083e+00,7.766975947136792180e-02,5.657438618074987768e-02,6.451710095098958653e-02
1.094999999999999973e+00,6.303291524003956647e-02,-2.477702608354900513e-02,6.126603063906740226e-02
1.096000000000000085e+00,-5.020264848423029724e-02,-7.964716762874823885e-02,9.041988106438997308e-03
1.096999999999999975e+00,-5.192623382941854299e-02,-2.396184805902106321e-02,-5.359088521270691935e-02
1.098000000000000087e+00,-3.349969624982954836e-02,1.707492995198612099e-02,-3.026949793171821931e-02
1.098999999999999977e+00,6.000615493387957688e-02,6.096973890940706603e-02,-1.286622589730402298e-02
1.100000000000000089e+00,6.462124635832862396e-02,-2.323610166349584973e-03,6.414172523921193858e-02
1.100999999999999979e+00,-4.181696890682584655e-02,-6.403013324257478267e-02,-4.480490234763817060e-03
1.102000000000000091e+00,-8.003806141663129259e-02,-5.083125518645313645e-02,-5.227291319861825797e-02
1.102999999999999980e+00,-3.755495264824601498e-02,1.352568060626238231e-02,-4.367956540748998973e-02
1.104000000000000092e+00,6.300455705761977276e-02,7.075444932105263984e-02,-3.966814165479184973e-02
1.104999999999999982e+00,7.826570770778006059e-02,1.595300426035798150e-02,4.310815977484060146e-02
1.106000000000000094e+00,-2.339794431495341789e-02,-5.113752326815414195e-02,3.816612565945499275e-02
1.106999999999999984e+00,-7.838422835355679519e-02,-4.853825673841677402e-02,-3.243176122195500638e-02
1.108000000000000096e+00,-6.790839524895476986e-02,2.379377730799795559e-02,-3.433551642293137390e-02
1.108999999999999986e+00,5.465763029035117238e-02,6.018239735354372760e-02,-4.047043524775354416e-03
1.110000000000000098e+00,5.908240434554419551e-02,1.140652764039077477e-02,2.310472483036761504e-02
1.110999999999999988e+00,4.041602638724034642e-03,-3.090084627027495090e-02,2.770296276828412146e-02
1.112000000000000099e+00,-5.145419527317349195e-02,-6.372389323311970777e-02,1.376601755058789317e-02
1.112999999999999989e+00,-5.208643937710211169e-02,2.103167845231780284e-02,-5.797872230047244890e-02
1.114000000000000101e+00,2.388672252335187832e-02,5.985433312085239321e-02,-2.803128091944373512e-02
1.114999999999999991e+00,8.546337057342907884e-02,2.872358355665285273e-02,3.047125344359246117e-04
1.116000000000000103e+00,2.464915196411729403e-02,-4.207271881084401893e-02,4.506441535036592033e-02
1.116999999999999993e+00,-6.483453412126287396e-02,-5.501013269822926932e-02,-6.299105054277337988e-03
1.118000000000000105e+00,-6.991936833580261745e-02,-1.955562685759543520e-02,-2.660063001493523718e-02
1.118999999999999995e+00,1.972673677578302975e-02,4.972961519466203434e-02,-4.029757814193495047e-02
1.120000000000000107e+00,1.069776303733768752e-01,4.067081954048466091e-02,1.480533076076701558e-02
1.120999999999999996e+00,2.595517880923097973e-02,-1.599384052378085425e-02,5.262288943934909785e-02
1.122000000000000108e+00,-2.367587683707908508e-02,-3.978336159820986678e-02,2.574904967747649459e-02
1.122999999999999998e+00,-8.219617655887331842e-02,1.222619242548806003e-02,-1.769131784340668631e-02
1.124000000000000110e+00,-2.608950516876040304e-03,3.767087036989551913e-02,-4.345618099173578081e-02
1.125000000000000000e+00,7.462251603208651385e-02,8.515740359895007661e-02,-2.991912198422663066e-02
1.125999999999999890e+00,6.109589214788441885e-02,-2.984696540225913880e-02,6.482028069225660716e-02
1.127000000000000002e+00,-4.059055888258403938e-02,-5.491892006106706414e-02,4.344318084869066426e-02
1.127999999999999892e+00,-9.034456085962845606e-02,-1.842273625455601374e-02,-1.681231509562654616e-02
1.129000000000000004e+00,-5.154615543636714703e-02,2.930578662044569863e-02,-7.064649296590885807e-02
1.129999999999999893e+00,8.846818233982914337e-02,8.727949359009772035e-02,-1.987169188432118608e-02
1.131000000000000005e+00,5.359781962478978035e-02,1.443843846119015860e-02,4.645713827974431998e-02
1.131999999999999895e+00,-1.890327337936453800e-03,-4.067110913899110031e-02,3.024882861026787287e-02
1.133000000000000007e+00,-8.418569313066773252e-02,-5.622817926238793396e-02,4.275908204008301602e-04
1.133999999999999897e+00,-2.825699386486042047e-02,3.602823064140501380e-02,-2.000796423896913229e-02
1.135000000000000009e+00,4.214190017855863613e-02,6.873867612765637014e-02,-1.278085710952234916e-02
1.135999999999999899e+00,6.840710947368278116e-02,1.557685788991375331e-02,2.187249538482081285e-02
1.137000000000000011e+00,4.641288077927149119e-02,-3.417617588752400182e-02,5.874647454900155941e-02
1.137999999999999901e+00,-6.355457421246490934e-02,-3.167915488762675091e-02,-3.276440760662609891e-02
1.139000000000000012e+00,-7.115244737334200376e-02,4.163054254659613075e-03,-1.741733390936501397e-02
1.139999999999999902e+00,2.427892820704883811e-02,8.112385041975582467e-02,-5.888977402373881537e-02
1.141000000000000014e+00,8.878631803311812232e-02,4.133447988792010586e-02,-1.001555406998452455e-02
1.141999999999999904e+00,6.187799703223965941e-02,-3.091439695462640941e-02,4.388345286504835574e-02
1.143000000000000016e+00,-3.182934560696976112e-02,-9.194997046983761912e-02,4.682642111660657858e-02
1.143999999999999906e+00,-7.865839348111565432e-02,1.134387981623864901e-02,-2.209638605812891399e-02
1.145000000000000018e+00,1.922009277262448981e-02,5.986144278796137752e-02,-5.612283028706480797e-02
1.145999999999999908e+00,6.136641800099924826e-02,4.468595558533085960e-02,-9.135887613125007883e-03
1.147000000000000020e+00,4.656521918153136430e-02,-3.486805719894461864e-02,6.343176007254158755e-02
1.147999999999999909e+00,-2.896334446969307114e-02,-8.724745739215410134e-02,1.814574012410725967e-02
1.149000000000000021e+00,-7.016366969243099938e-02,-2.421774999877088566e-02,-2.284662768963426419e-02
1.149999999999999911e+00,-4.134440965759021702e-02,7.121644844328996367e-03,-2.339591235122948087e-02
1.151000000000000023e+00,6.850773674556794035e-02,6.686361322271697216e-02,-9.151411506196784063e-03
1.151999999999999913e+00,6.552144320980479719e-02,-1.162172690348515711e-02,2.162428928647439075e-02
1.153000000000000025e+00,-6.709270008758428695e-03,-6.548008195675399101e-02,5.517028603755941979e-02
1.153999999999999915e+00,-8.680624543173381946e-02,1.835968739417916649e-05,7.276887016068661271e-03
1.155000000000000027e+00,-5.893945766751465531e-02,4.337171972464248793e-02,-4.119443961961122974e-02
1.155999999999999917e+00,7.619293072500699093e-02,8.679029025789866680e-02,-6.367148344101386526e-02
1.157000000000000028e+00,7.552890541856950579e-02,-2.490526700561955520e-03,5.904960370395433839e-03
1.157999999999999918e+00,4.154453135061907110e-02,-5.320207410288296801e-02,7.535189800433217400e-02
1.159000000000000030e+00,-6.458048410665125083e-02,-3.411018553636732675e-02,3.549732773213506304e-02
1.159999999999999920e+00,-6.571090378352988093e-02,3.550672647054977510e-02,-3.340695844486914895e-02
1.161000000000000032e+00,3.216100700874566232e-02,8.705175166238936224e-02,-3.167829445796833260e-02
1.161999999999999922e+00,6.366739189000314436e-02,1.317276206891659571e-02,4.684966068302123116e-03
1.163000000000000034e+00,1.004004350288474796e-02,-9.568028115855774229e-02,4.116161985854527999e-02
1.163999999999999924e+00,-5.314431868117153873e-02,-3.492149198523731429e-02,1.416815316920866721e-02
1.165000000000000036e+00,-5.898206091748342539e-02,1.507529611809029467e-02,2.785700301261283176e-03
1.165999999999999925e+00,-1.802582400341875418e-02,4.872634321848306332e-02,-4.296443386768754313e-02
1.167000000000000037e+00,8.525910795987175217e-02,4.200558880653432192e-02,-7.119508651358764928e-02
1.167999999999999927e+00,6.075378641804219521e-02,-5.187288412645207208e-02,3.184295012142026454e-02
1.169000000000000039e+00,-5.551245738142328301e-03,-6.402975180463257865e-02,4.844688522989712420e-02
1.169999999999999929e+00,-6.385093906945538134e-02,-3.106592662928325550e-03,-2.501581601730009860e-02
1.171000000000000041e+00,-7.953554403591011138e-03,5.749342187486827793e-02,-7.043317905907359178e-02
1.171999999999999931e+00,7.058094453688631975e-02,3.944436929241184470e-02,-4.198448717734205166e-02
1.173000000000000043e+00,6.935736430089131654e-02,-2.372528103194460405e-02,4.378542851245866702e-02
1.173999999999999932e+00,-3.334301905454475955e-04,-5.267246595860344827e-02,7.018848942215193121e-02
1.175000000000000044e+00,-8.035645001234961726e-02,-3.642173828975867511e-04,1.516035154053600904e-02
1.175999999999999934e+00,-5.273580094337938784e-02,6.851688906130606882e-02,-4.553241056264515155e-03
1.177000000000000046e+00,1.399972836269646435e-02,3.937110110194370211e-02,-4.346095986455938281e-02
1.177999999999999936e+00,8.265905766431715096e-02,-4.045438058888311400e-02,-2.661948816526982925e-02
1.179000000000000048e+00,-6.508371164523353916e-03,-6.253451874168416968e-02,4.699055022848783875e-02
1.179999999999999938e+00,-6.513329519742197538e-02,-2.490401363121722694e-02,2.396518817039041890e-02
