time,acc_x,acc_y,acc_z
0.000000000000000000e+00,5.399270469446319776e-02,-1.579883529107635742e-01,1.781545580285052444e-01
1.000000000000000021e-03,-4.363279855436385524e-01,-4.471487771005792089e-01,-1.647332568894958327e-01
2.000000000000000042e-03,-3.593538356565891267e-01,-2.671547299912211959e-01,-2.293209791502386630e-01
3.000000000000000062e-03,1.570481232548159578e-01,1.738524105423432942e-01,4.576281793322971997e-02
4.000000000000000083e-03,4.799916643717518361e-01,2.797892456519348592e-01,3.414343681783873485e-01
5.000000000000000104e-03,1.945699161430601842e-01,-8.180811922558151039e-02,2.658925251694500558e-01
6.000000000000000125e-03,-4.569873419172230111e-01,-5.352547489987500295e-01,-9.281439711703023954e-02
7.000000000000000146e-03,-6.867509484514818796e-01,-5.381351173273231092e-01,-3.683011413454332916e-01
8.000000000000000167e-03,-2.857858863183848630e-01,-8.915452721619206156e-02,-2.444847215004648522e-01
8.999999999999999320e-03,2.954893821092368644e-01,2.444472133782242262e-01,1.258675886185080806e-01
1.000000000000000021e-02,3.178005295103401018e-01,3.860203068226842477e-02,2.898765249715886116e-01
1.099999999999999936e-02,-3.030571222048826785e-01,-5.102912116002789045e-01,1.962286561164185150e-02
1.200000000000000025e-02,-8.359591457054318386e-01,-7.153156458142341245e-01,-3.586637447843745719e-01
1.299999999999999940e-02,-6.747943810849158508e-01,-3.806074419367170836e-01,-4.641459597467175180e-01
1.400000000000000029e-02,-2.732137020553975990e-02,1.213861154267035780e-01,-1.564123563643501913e-01
1.499999999999999944e-02,3.182064819448534587e-01,1.744118327979776728e-01,1.830591012240266047e-01
1.600000000000000033e-02,-6.044051744873878140e-02,-3.222530307490859003e-01,1.509839576471002087e-01
1.700000000000000122e-02,-7.432912655886415587e-01,-7.373773192854810032e-01,-2.451344843153444586e-01
1.799999999999999864e-02,-9.294692571290781302e-01,-6.126638777329074248e-01,-5.453073578360876361e-01
1.899999999999999953e-02,-4.149155013021646465e-01,-7.993300401630780427e-02,-4.225253742641221777e-01
2.000000000000000042e-02,1.820811242012448650e-01,2.378682708217688679e-01,-9.451504129261783030e-03
2.100000000000000130e-02,1.779913198925115736e-01,-6.322917181439327572e-02,1.954490984708946166e-01
2.199999999999999872e-02,-4.692482966985347392e-01,-6.132887671015287978e-01,-5.054963341916762776e-02
2.299999999999999961e-02,-9.658885721122146828e-01,-7.226839194532264088e-01,-4.403567064890353544e-01
2.400000000000000050e-02,-7.258395554280187012e-01,-2.816006305687988598e-01,-5.684550371755716647e-01
2.500000000000000139e-02,-5.014833265662742290e-02,2.045405353080134159e-01,-2.468022140766216732e-01
2.599999999999999881e-02,2.841400361369607053e-01,1.792849898306823897e-01,9.617597295845872751e-02
2.699999999999999969e-02,-1.094364409944405675e-01,-3.253746683671043805e-01,1.077778809061644555e-01
2.800000000000000058e-02,-7.189779161208221803e-01,-6.732138647059918712e-01,-2.506585600671714098e-01
2.900000000000000147e-02,-8.404079198326894762e-01,-4.180657534961941257e-01,-5.204823586347657738e-01
2.999999999999999889e-02,-2.960413076291220080e-01,1.307024120174341830e-01,-4.191263896864061422e-01
3.099999999999999978e-02,2.576462564993579618e-01,3.544195757430469995e-01,-3.442138907870273545e-02
3.200000000000000067e-02,2.254638354756511032e-01,-8.312407031354728665e-03,1.635841484873277185e-01
3.300000000000000155e-02,-3.533344828777599811e-01,-4.542248502116143505e-01,-3.397069137690645474e-02
3.400000000000000244e-02,-7.174122627630241666e-01,-4.449386176228034007e-01,-3.571315381259139166e-01
3.500000000000000333e-02,-4.608297533551465319e-01,2.043351977305206055e-02,-4.602681033867936367e-01
3.599999999999999728e-02,1.518637176541896561e-01,4.047321047744461553e-01,-1.874446621538138624e-01
3.699999999999999817e-02,4.241857310195464859e-01,2.738153201026723438e-01,1.355707466511670012e-01
3.799999999999999906e-02,5.922120231758152414e-02,-1.613104898808425947e-01,1.430682171497479893e-01
3.899999999999999994e-02,-4.177952628090019216e-01,-3.605425998355948347e-01,-1.129135217010621001e-01
4.000000000000000083e-02,-4.671926837894013751e-01,-6.168718677256272015e-02,-3.500755820281388764e-01
4.100000000000000172e-02,3.703612748356036044e-02,3.874059903370290492e-01,-2.334724442459486515e-01
4.200000000000000261e-02,4.519879751925416356e-01,4.708247720658663149e-01,5.960479625144737836e-02
4.299999999999999656e-02,3.844511434670797589e-01,1.223042071078322413e-01,2.245648864164719039e-01
4.399999999999999745e-02,-3.828871950232669297e-02,-1.712674154758749012e-01,8.693046904096388139e-02
4.499999999999999833e-02,-2.932967960044660649e-01,-6.304535715881784408e-02,-1.442663662669934899e-01
4.599999999999999922e-02,-4.587815145121382915e-02,3.035020865969581538e-01,-1.918170630795071330e-01
4.700000000000000011e-02,3.846042909000209620e-01,5.187764922569482184e-01,-5.833974688839973360e-03
4.800000000000000100e-02,5.468965515433036328e-01,3.518490731706268027e-01,2.064867033129473839e-01
4.900000000000000189e-02,2.718149404883572484e-01,4.333891223425704459e-02,2.409489472351572792e-01
5.000000000000000278e-02,-2.862813166060148087e-02,-1.471178463422061211e-02,6.716436007027137833e-02
5.099999999999999672e-02,5.618584072045337829e-03,2.226261087768919289e-01,-6.414204360332650956e-02
5.199999999999999761e-02,3.254554123561531065e-01,4.854213167183644151e-01,9.563950054965447006e-03
5.299999999999999850e-02,5.540165404647485747e-01,4.602115024265655552e-01,1.820333238131987552e-01
5.399999999999999939e-02,4.696353193765628320e-01,2.133215138166086322e-01,2.827582216415149841e-01
5.500000000000000028e-02,1.898824892363760730e-01,7.808449612306496423e-02,1.994524465456092577e-01
5.600000000000000117e-02,1.068421975917683148e-01,1.978140381015691118e-01,8.116751693920909450e-02
5.700000000000000205e-02,2.953669664843035503e-01,3.843452499688354562e-01,8.131572510714653312e-02
5.800000000000000294e-02,4.768251115486591418e-01,4.332312681778731078e-01,1.773116807619190272e-01
5.899999999999999689e-02,4.763633158668714729e-01,2.843644191956599121e-01,2.762134726528201467e-01
5.999999999999999778e-02,3.071139506125913354e-01,1.461875392763695991e-01,2.419380905864506048e-01
6.099999999999999867e-02,2.333831090328565006e-01,1.660539187504948555e-01,1.623510337518698221e-01
6.199999999999999956e-02,2.979946360531025573e-01,2.934758872831260690e-01,1.607370962583060947e-01
6.300000000000000044e-02,4.035850100716133482e-01,3.061227443936353487e-01,2.100005519212699845e-01
6.400000000000000133e-02,3.704341667239910985e-01,2.275197595388381289e-01,2.474202297706422915e-01
6.500000000000000222e-02,2.802966467941183093e-01,1.337404937502325863e-01,2.143186029183717090e-01
6.600000000000000311e-02,2.426676661593512307e-01,1.607343162524390301e-01,1.537255331316655094e-01
6.700000000000000400e-02,2.975327654761298346e-01,2.292814645370137017e-01,1.720586079770552168e-01
6.800000000000000488e-02,3.713813115249083308e-01,1.873924017048076429e-01,2.379194152354305036e-01
6.900000000000000577e-02,2.818643530813585985e-01,8.153468067520990015e-02,2.643723311755817318e-01
7.000000000000000666e-02,1.257524507437053352e-01,2.397772391958522681e-02,1.908024232433403744e-01
7.099999999999999367e-02,1.100933494160768744e-01,1.013985261747403915e-01,8.909745933906983162e-02
7.199999999999999456e-02,2.533071081793480395e-01,1.689013217855559745e-01,1.040027420293299365e-01
7.299999999999999545e-02,3.455960562175439121e-01,9.589722469052071319e-02,1.923840155026212972e-01
7.399999999999999634e-02,2.146428968115247360e-01,-7.470382162860615682e-02,2.821938947873824932e-01
7.499999999999999722e-02,-2.532623167654042898e-02,-1.389465398122281536e-01,1.713795406036435764e-01
7.599999999999999811e-02,-1.289105182903522717e-01,-2.899991199075338880e-02,-9.229274306938288139e-03
7.699999999999999900e-02,5.933696267210342851e-02,1.124126458613477209e-01,-4.884830278967994960e-02
7.799999999999999989e-02,2.828983405355285363e-01,6.291922065824885613e-02,7.982368802152170484e-02
7.900000000000000078e-02,2.148336382750234697e-01,-1.768989334321500739e-01,2.487068491456252417e-01
8.000000000000000167e-02,-1.166400595011219815e-01,-3.382261744231145895e-01,2.054302956815400594e-01
8.100000000000000255e-02,-3.573624740201631900e-01,-2.376918651005958116e-01,-9.081505799836525269e-03
8.200000000000000344e-02,-2.082151153292096657e-01,3.429665646533320428e-02,-1.869850833988284944e-01
8.300000000000000433e-02,1.284722424782834826e-01,9.185731908191170636e-02,-1.015687707335805184e-01
8.400000000000000522e-02,2.251399706521997057e-01,-1.937574270437958102e-01,1.162860931792200209e-01
8.500000000000000611e-02,-9.512096861058710884e-02,-4.799996471100270723e-01,2.257708863564052981e-01
8.599999999999999312e-02,-5.305780490247471448e-01,-4.548709392186854328e-01,2.736521481005540699e-02
8.699999999999999400e-02,-5.492104937968963485e-01,-1.364324534004173750e-01,-2.684989901823722769e-01
8.799999999999999489e-02,-1.491017391720302621e-01,9.835162013662820946e-02,-3.330091714881908693e-01
8.899999999999999578e-02,1.942067090716746991e-01,-1.098756376438712185e-01,-9.289777380667638140e-02
8.999999999999999667e-02,1.108066430870407668e-02,-5.061033265060224107e-01,1.582851234670843432e-01
9.099999999999999756e-02,-5.111173378980848891e-01,-6.229371305583571994e-01,1.262684615900433183e-01
9.199999999999999845e-02,-7.984505761591554895e-01,-3.166202311649441437e-01,-2.145700742292549756e-01
9.299999999999999933e-02,-4.805414995691970614e-01,7.669168289515343462e-02,-4.453903088396010124e-01
9.400000000000000022e-02,7.436694392715838264e-02,5.424220299289152919e-02,-3.336372002828024153e-01
9.500000000000000111e-02,1.588059281354903263e-01,-3.772716440421334805e-01,4.420141811007997565e-03
9.600000000000000200e-02,-3.186907984626854429e-01,-6.888664861146703844e-01,1.605964505957382660e-01
9.700000000000000289e-02,-8.334629468849147349e-01,-5.065279056586742268e-01,-7.166380502972229116e-02
9.800000000000000377e-02,-7.848318404603469300e-01,-1.816107619717238081e-02,-4.556847540936908025e-01
9.900000000000000466e-02,-2.009347401064169591e-01,1.916525934764648220e-01,-5.205228918741545696e-01
1.000000000000000056e-01,2.358414230761411989e-01,-1.146417524781549041e-01,-2.159912322063033963e-01
1.010000000000000064e-01,-7.302479424800044708e-03,-5.951638837082492417e-01,1.111670107655190892e-01
1.019999999999999934e-01,-6.502615091504262423e-01,-6.319379300724169424e-01,9.407114711978281640e-02
1.029999999999999943e-01,-9.115855227729757759e-01,-1.653501297581655705e-01,-2.727695248192495980e-01
1.039999999999999952e-01,-4.792272025380664435e-01,2.737137578591947729e-01,-5.597222625473545765e-01
1.049999999999999961e-01,1.820096100165684572e-01,1.644699916787755734e-01,-4.153311236762644021e-01
1.059999999999999970e-01,2.768176693236127917e-01,-3.679910634388345314e-01,-2.469515999214844104e-02
1.069999999999999979e-01,-2.983619062341893446e-01,-6.241369335852795519e-01,1.841589225106288197e-01
1.079999999999999988e-01,-8.390716341660122701e-01,-3.080325604971747011e-01,-5.699365058450182875e-02
1.089999999999999997e-01,-6.734402809097990161e-01,2.527540874464060949e-01,-4.401112975621997436e-01
1.100000000000000006e-01,1.631791991969865421e-02,4.185551351151592936e-01,-5.403026706389035816e-01
1.110000000000000014e-01,4.453334165242964771e-01,-6.982663886529873881e-03,-2.151932373402828946e-01
1.120000000000000023e-01,1.707424029653958342e-01,-4.769715302144135194e-01,1.738143500107127148e-01
1.130000000000000032e-01,-5.027703910743455129e-01,-3.907234358137701702e-01,1.716829891625262505e-01
1.140000000000000041e-01,-7.247943693564281586e-01,1.522680483314928779e-01,-1.868909763507602129e-01
1.150000000000000050e-01,-2.106185080127936926e-01,5.424755335403433909e-01,-4.807577178411924224e-01
1.160000000000000059e-01,4.560522334185833637e-01,3.233041123878741541e-01,-3.548917017565533794e-01
1.170000000000000068e-01,5.092333353767759530e-01,-2.070823242207583681e-01,6.966692062207173464e-02
1.179999999999999938e-01,-5.071730768668773759e-02,-3.582249357085459107e-01,3.102838978898218025e-01
1.189999999999999947e-01,-5.504493145231570406e-01,2.347593668260140529e-02,7.236372102336013912e-02
1.199999999999999956e-01,-3.404552278004553401e-01,5.432824756416458900e-01,-2.722730024260364701e-01
1.209999999999999964e-01,3.268668571273717904e-01,5.856363445923451483e-01,-3.665595023404032982e-01
1.219999999999999973e-01,7.220893610287459907e-01,1.179811818736198753e-01,-6.473743065634800231e-02
1.229999999999999982e-01,3.882514272619432827e-01,-2.463311680450992469e-01,2.913236269676222623e-01
1.239999999999999991e-01,-1.922686043174799408e-01,-6.914606573895670794e-02,3.100064628531992161e-01
1.250000000000000000e-01,-3.513934361587642274e-01,4.438790227244993059e-01,1.347289858551991085e-02
1.260000000000000009e-01,1.481572891459905505e-01,6.884978811052269165e-01,-2.454347106006757595e-01
1.270000000000000018e-01,6.970324389907338603e-01,4.096348887212957757e-01,-1.492445514433125564e-01
1.280000000000000027e-01,6.815381412587641075e-01,-5.191907672039831195e-02,2.134370084949843427e-01
1.290000000000000036e-01,1.875643447247120066e-01,-1.295539215402443933e-01,4.018988617615120718e-01
1.300000000000000044e-01,-2.034162719063140889e-01,2.647525823131720579e-01,2.622102233542367711e-01
1.310000000000000053e-01,-2.573420090868263743e-04,6.504387218449629859e-01,-4.663743418150293613e-02
1.320000000000000062e-01,5.391591735903193960e-01,5.656168262445002703e-01,-1.375508226497997033e-01
1.330000000000000071e-01,7.957416796383145474e-01,1.456620197457304533e-01,9.421532349524014416e-02
1.340000000000000080e-01,5.102388225407261668e-01,-1.027913332250732920e-01,3.764679321184910554e-01
1.350000000000000089e-01,1.917288143626480479e-02,9.803120771325464500e-02,4.136311185097128473e-01
1.360000000000000098e-01,-5.010287516326056984e-02,4.752287567774508559e-01,1.647340498927689911e-01
1.370000000000000107e-01,3.300509688545587017e-01,5.763490513548397143e-01,-1.731988009530688669e-02
1.380000000000000115e-01,7.052119148974032026e-01,2.863863458032334108e-01,2.188466071719531378e-02
1.390000000000000124e-01,6.277938585139599681e-01,-3.908437602365726765e-02,2.790710211370120986e-01
1.400000000000000133e-01,2.331307328620942643e-01,-1.403510202624562789e-02,4.059762949509033159e-01
1.409999999999999865e-01,-2.325630094947445797e-02,2.697746953661687153e-01,3.087707545121017305e-01
1.419999999999999873e-01,1.411134869717722284e-01,4.674995869388009484e-01,8.675236477428852067e-02
1.429999999999999882e-01,4.853213412821729134e-01,3.124071846269781405e-01,3.049396214962465240e-02
1.439999999999999891e-01,5.774695642109226590e-01,2.060047727038297888e-02,1.777910231006152308e-01
1.449999999999999900e-01,3.359484471761937652e-01,-8.113060024473853216e-02,3.419770475848614155e-01
1.459999999999999909e-01,4.911360184673926876e-02,8.287811651886957398e-02,3.153823918811026750e-01
1.469999999999999918e-01,2.557018824656482822e-02,2.568811711634721995e-01,1.693489683689669567e-01
1.479999999999999927e-01,2.564553589190093352e-01,2.156951196335034626e-01,5.627618495906588220e-02
1.489999999999999936e-01,3.913080874288412114e-01,1.080166205038302074e-02,9.745525268954668974e-02
1.499999999999999944e-01,2.681057604095465341e-01,-1.324586559148331344e-01,2.162751533707782947e-01
1.509999999999999953e-01,4.669086524463331861e-02,-7.047074845493994655e-02,2.492593839172592973e-01
1.519999999999999962e-01,-2.689623343047767637e-02,5.657184693989782132e-02,1.676711170095284698e-01
1.529999999999999971e-01,7.526327251413009178e-02,6.343984419526170482e-02,7.046251330314615147e-02
1.539999999999999980e-01,1.655944547141226797e-01,-7.200946271106069274e-02,5.950653569095975398e-02
1.549999999999999989e-01,7.949554760594723657e-02,-1.740650436456862293e-01,1.293463739020182246e-01
1.559999999999999998e-01,-4.187324723442593932e-02,-1.366479628210130748e-01,1.251436330055146762e-01
1.570000000000000007e-01,-1.000234055282945705e-01,-8.814294785104523355e-02,6.861935505606160668e-02
1.580000000000000016e-01,-2.802377424127090733e-02,-1.200685046238877118e-01,1.753985824754581910e-02
1.590000000000000024e-01,8.093539190362996488e-03,-2.127044702242733842e-01,1.630988198204779902e-02
1.600000000000000033e-01,-1.079411145096754038e-01,-2.514544633011379648e-01,7.538114720898700383e-02
1.610000000000000042e-01,-2.217132474405246190e-01,-1.831548938190429021e-01,4.234375733699716898e-02
1.620000000000000051e-01,-2.116489873464658111e-01,-1.276410238213165904e-01,-4.823454928021593535e-02
1.630000000000000060e-01,-9.560566873985089364e-02,-2.022008468542677295e-01,-1.102237704418555786e-01
1.640000000000000069e-01,-6.549362469629124717e-02,-3.322054375176403673e-01,-6.498895454407400962e-02
1.650000000000000078e-01,-2.350891499204631752e-01,-3.562596015014418138e-01,3.143814894746618793e-02
1.660000000000000087e-01,-4.311007082549158653e-01,-2.138291096332329833e-01,9.766660250820178787e-03
1.670000000000000095e-01,-3.923753279501158153e-01,-1.007040557074191239e-01,-1.041616659600029665e-01
1.680000000000000104e-01,-1.869880421264367987e-01,-1.873429049931187029e-01,-2.417254454122357010e-01
1.690000000000000113e-01,-4.617829999325030743e-02,-4.030729867983738335e-01,-1.989685619506309511e-01
1.700000000000000122e-01,-2.316272183098773974e-01,-4.719335590652640744e-01,-5.672898987489102124e-02
1.710000000000000131e-01,-5.291963351419970429e-01,-2.925623559608496183e-01,2.230122044348364918e-02
1.719999999999999862e-01,-6.170504999410716396e-01,-7.249660233618077099e-02,-1.021011246788923882e-01
1.729999999999999871e-01,-3.388301292831989442e-01,-7.952886922612439902e-02,-3.188499022431389163e-01
1.739999999999999880e-01,-4.715723128081820981e-02,-3.300496439386551573e-01,-3.680573492942549318e-01
1.749999999999999889e-01,-7.784055972041337146e-02,-5.367643944482969331e-01,-1.814263110963008629e-01
1.759999999999999898e-01,-4.552885103311877235e-01,-3.862047649142584249e-01,1.351806317643453569e-02
1.769999999999999907e-01,-7.310317221384547981e-01,-4.702090359018488291e-02,-1.367530719004386242e-03
1.779999999999999916e-01,-5.409704383165289121e-01,7.805309742766484982e-02,-2.724700243884876083e-01
1.789999999999999925e-01,-8.782063149833226057e-02,-1.704531963546217221e-01,-4.460869339136340761e-01
1.799999999999999933e-01,9.778797401556750535e-02,-4.940072508648244431e-01,-3.537158033911602106e-01
1.809999999999999942e-01,-2.223579238547175874e-01,-4.657482467114567593e-01,-8.119398760534106418e-02
1.819999999999999951e-01,-6.765398178812064289e-01,-6.260988864761034278e-02,7.278136496763677743e-02
1.829999999999999960e-01,-6.925281900425402926e-01,2.387157942792355880e-01,-1.185995763946925269e-01
1.839999999999999969e-01,-2.177789027173503145e-01,9.242094376313178539e-02,-4.188024108688401803e-01
1.849999999999999978e-01,2.368424559413728758e-01,-3.051119193976792876e-01,-4.801540931411453772e-01
1.859999999999999987e-01,1.101315999507973820e-01,-4.877598417993470603e-01,-1.957667071018299731e-01
1.869999999999999996e-01,-4.134772896169191525e-01,-1.515123891571514558e-01,9.886244796795783107e-02
1.880000000000000004e-01,-7.193830639098888202e-01,3.135942350789849842e-01,8.849688726239811343e-02
1.890000000000000013e-01,-3.844768142514544684e-01,3.880210233260343866e-01,-2.400796872814103811e-01
1.900000000000000022e-01,2.418878083832531889e-01,-2.853035668881436643e-02,-4.791937347466290742e-01
1.910000000000000031e-01,4.335323979540419703e-01,-3.712737760981925095e-01,-3.546011961376704935e-01
1.920000000000000040e-01,-1.196759078904627988e-02,-2.543507941638147307e-01,3.780076973100690574e-02
1.930000000000000049e-01,-5.476979160024403326e-01,2.764790183492297770e-01,2.304958061477605513e-01
1.940000000000000058e-01,-4.948935081632481192e-01,5.946741112611308999e-01,2.527703412263947527e-02
1.950000000000000067e-01,1.165008458467490793e-01,3.180789146010946644e-01,-3.425513143647364034e-01
1.960000000000000075e-01,6.346913385644376016e-01,-1.915765657636864794e-01,-4.169918243708905514e-01
1.970000000000000084e-01,4.279091996559866717e-01,-3.028846109818614796e-01,-7.577237362455312153e-02
1.980000000000000093e-01,-2.028893743580776066e-01,1.476403292944097057e-01,2.837517264049085886e-01
1.990000000000000102e-01,-4.963541940500533767e-01,6.379653593085852226e-01,2.848025957206813952e-01
2.000000000000000111e-01,-7.179695522910475858e-02,6.180748999564058543e-01,-8.078499468289414287e-02
2.010000000000000120e-01,6.062990559269235691e-01,8.348914263830596594e-02,-3.550569328036805028e-01
2.020000000000000129e-01,7.792435573760774226e-01,-2.540251892774421094e-01,-2.141449499080378682e-01
2.030000000000000138e-01,2.469988793181828735e-01,-1.073154964996510252e-02,2.243928502424918092e-01
2.039999999999999869e-01,-3.278700228284144869e-01,5.574988322490245229e-01,4.546664364399582436e-01
2.049999999999999878e-01,-2.414163279530375239e-01,7.403425599635750087e-01,2.306383232328275690e-01
2.059999999999999887e-01,4.351889233287365988e-01,3.750199995755211790e-01,-1.664693236950213207e-01
2.069999999999999896e-01,9.031138859473836211e-01,-1.389491403316125973e-01,-2.481456242073046548e-01
2.079999999999999905e-01,6.459087591627433733e-01,-1.522757323427908482e-01,5.468396427708505092e-02
2.089999999999999913e-01,-1.441336561423888461e-02,3.366475027396916286e-01,4.500709345838622699e-01
2.099999999999999922e-01,-2.874849451835938541e-01,7.506364611411079357e-01,4.588794229519462808e-01
2.109999999999999931e-01,1.605311946505446341e-01,5.811134844724245019e-01,1.236019854032128773e-01
2.119999999999999940e-01,7.956006541931789355e-01,2.534945247989846620e-02,-1.757050412631284697e-01
2.129999999999999949e-01,8.834334144266977606e-01,-2.223646715677110031e-01,-7.008094412511234328e-02
2.139999999999999958e-01,3.269472024803535271e-01,9.398758642680453412e-02,3.103940437416337073e-01
2.149999999999999967e-01,-1.949774753581961784e-01,5.815043324669594282e-01,5.512212146204321650e-01
2.159999999999999976e-01,-8.747314217274188008e-02,6.551905063765135484e-01,3.648419158622653313e-01
2.169999999999999984e-01,5.261962650502779448e-01,2.081839814089279095e-01,-4.653935052717729157e-03
2.179999999999999993e-01,8.866142635825373652e-01,-2.078295116228747186e-01,-1.329466955672417849e-01
2.190000000000000002e-01,5.910348372984477461e-01,-1.418508070950280364e-01,1.183300826090812052e-01
2.200000000000000011e-01,-9.097258620157977482e-03,2.973764662179497753e-01,4.515854149285348784e-01
2.210000000000000020e-01,-2.225509086734987485e-01,5.705135102104819111e-01,4.902825286690153939e-01
2.220000000000000029e-01,1.710536968937148294e-01,3.045161679889661355e-01,1.982079246037446729e-01
2.230000000000000038e-01,6.643914122151940438e-01,-1.667119881719199559e-01,-7.772353718870249339e-02
2.240000000000000047e-01,6.640536079632476385e-01,-2.927996819529178896e-01,-2.800907955390288459e-02
2.250000000000000056e-01,1.809623728021475531e-01,-1.638653681411935455e-03,2.720988158555708303e-01
2.260000000000000064e-01,-2.396304803714315868e-01,3.374453250012464101e-01,4.618803427482881530e-01
2.270000000000000073e-01,-1.357461233567175407e-01,3.004697724003579928e-01,3.102829538029731049e-01
2.280000000000000082e-01,3.134471418425308631e-01,-8.831090903633430356e-02,1.857585347378039667e-02
2.290000000000000091e-01,5.392687928566516353e-01,-3.692593008618448858e-01,-7.342519393079285916e-02
2.300000000000000100e-01,2.555527650563195752e-01,-2.486309748157142230e-01,8.866576297413863994e-02
2.310000000000000109e-01,-1.749407905449533729e-01,7.327962420688020895e-02,3.203659501458902548e-01
2.320000000000000118e-01,-3.098566495579542779e-01,1.753329987085685271e-01,3.042249183077815333e-01
2.330000000000000127e-01,-2.264624962139016873e-02,-5.506905916741858253e-02,9.164797304173645520e-02
2.340000000000000135e-01,2.619647161513055655e-01,-3.487301577093180893e-01,-1.046293273854073530e-01
2.349999999999999867e-01,2.017034118745550386e-01,-3.667837597462298982e-01,-8.311460823033861578e-02
2.359999999999999876e-01,-1.453032380268619306e-01,-1.597338706469654257e-01,1.123003699612721146e-01
2.369999999999999885e-01,-3.742831469902488939e-01,1.319669406380716455e-02,2.105714237689500501e-01
2.379999999999999893e-01,-2.843344732880890291e-01,-8.991417408797992838e-02,1.097043148390202116e-01
2.389999999999999902e-01,-1.036588718876394789e-02,-3.231585701191767579e-01,-8.575850724253102075e-02
2.399999999999999911e-01,4.645801058243424070e-02,-4.049979352811209909e-01,-1.325111500097230222e-01
2.409999999999999920e-01,-1.713684938274172287e-01,-2.970231577523105293e-01,-4.922034883299759161e-02
2.419999999999999929e-01,-3.787763630757238764e-01,-1.358771412702176606e-01,5.677378615830217662e-02
2.429999999999999938e-01,-3.836466471947380108e-01,-1.722730536840417215e-01,1.692693436506124277e-02
2.439999999999999947e-01,-2.341504047097165975e-01,-2.947822011845694923e-01,-9.278598750956137953e-02
2.449999999999999956e-01,-1.496967682952837775e-01,-3.697810440188442627e-01,-1.793324646353625651e-01
2.459999999999999964e-01,-2.498913523615500232e-01,-3.182041904663061027e-01,-1.421876578813594527e-01
2.469999999999999973e-01,-3.898668206645416467e-01,-2.120557130731111628e-01,-6.833448874523084804e-02
2.479999999999999982e-01,-3.950007796381604375e-01,-2.325160118836165635e-01,-7.521425818177282507e-02
2.489999999999999991e-01,-3.053682082137962328e-01,-3.071087300116582819e-01,-1.710674148038081321e-01
2.500000000000000000e-01,-2.598171430349031086e-01,-3.169974325327654663e-01,-1.957615347338966527e-01
2.510000000000000009e-01,-3.528078348626202954e-01,-2.388416158553111346e-01,-1.637822697386807635e-01
2.520000000000000018e-01,-4.259469104365287695e-01,-1.795151252613102766e-01,-1.295981003160471823e-01
2.530000000000000027e-01,-3.564230188967110746e-01,-2.352611402536186058e-01,-1.622673840141509449e-01
2.540000000000000036e-01,-2.555112170431774188e-01,-3.147295444254279984e-01,-2.407419770517405799e-01
2.550000000000000044e-01,-2.478356747696715823e-01,-2.882999217465166963e-01,-2.359020588320562828e-01
2.560000000000000053e-01,-3.851347362947631914e-01,-1.217603604144810586e-01,-1.816798702818857580e-01
2.570000000000000062e-01,-4.799201723520469254e-01,-4.478388226052804760e-02,-1.094492658640710131e-01
2.580000000000000071e-01,-3.734802114113225935e-01,-1.337084262936028278e-01,-1.527751382835243477e-01
2.590000000000000080e-01,-1.429790072823546587e-01,-2.767188146966559348e-01,-2.673788287542741005e-01
2.600000000000000089e-01,-8.181445255466546218e-02,-2.632539206431417367e-01,-3.219893266286928957e-01
2.610000000000000098e-01,-2.806215221899461820e-01,-3.704797758435194460e-02,-2.167551720767399437e-01
2.620000000000000107e-01,-4.895174963339370966e-01,1.439201118933433610e-01,-7.705134003404262577e-02
2.630000000000000115e-01,-4.203725653397271667e-01,5.411916038417218661e-02,-7.470751446993204037e-02
2.640000000000000124e-01,-8.576738367029761168e-02,-1.909405456653573141e-01,-2.202420894864791368e-01
2.650000000000000133e-01,1.271617561366617521e-01,-2.689132912838398948e-01,-3.562243737855843029e-01
2.660000000000000142e-01,-3.397578823098666018e-02,-2.650690315630148397e-02,-3.000401127710873861e-01
2.670000000000000151e-01,-3.683251136730608111e-01,2.726372623264592954e-01,-5.977412061887969752e-02
2.680000000000000160e-01,-4.433297984091152388e-01,3.026882724188243445e-01,7.346309546764998033e-02
2.690000000000000169e-01,-1.098860813564657840e-01,1.493201851688053493e-02,-7.456910017908909005e-02
2.700000000000000178e-01,3.098644209864429011e-01,-2.155570252674333387e-01,-2.885717096963396622e-01
2.710000000000000187e-01,2.990517246021323627e-01,-8.031157608106534451e-02,-3.448719018612941833e-01
2.720000000000000195e-01,-1.039542091670870999e-01,3.329314570159923603e-01,-1.106691701197330263e-01
2.730000000000000204e-01,-4.056912203435240616e-01,5.074364944237192976e-01,1.424196110409526594e-01
2.740000000000000213e-01,-1.851512202495785575e-01,2.873092865004472363e-01,1.521857502044513255e-01
2.750000000000000222e-01,3.412596459411934569e-01,-1.097985337306155024e-01,-1.082841839628241182e-01
2.760000000000000231e-01,6.080178620577978421e-01,-1.486148031116718005e-01,-3.226000755664481523e-01
2.770000000000000240e-01,2.714676533786876678e-01,2.528781080483190058e-01,-1.932530692004215123e-01
2.780000000000000249e-01,-2.406279779555165477e-01,6.438443655056335091e-01,1.492421520778761945e-01
2.790000000000000258e-01,-2.769543114125198047e-01,5.509445000960286887e-01,3.234246920351336319e-01
2.800000000000000266e-01,2.292520431124783209e-01,8.484301120447909628e-02,1.326858916329502480e-01
2.810000000000000275e-01,7.341959718821269298e-01,-1.814443153207898618e-01,-1.855986758567467199e-01
2.819999999999999729e-01,6.579634796650367656e-01,9.254986272501465605e-02,-2.568869700250392407e-01
2.829999999999999738e-01,9.289904192487459522e-02,5.841177749610616532e-01,5.328902907142327172e-02
2.839999999999999747e-01,-2.910508102492784799e-01,6.966103589771913684e-01,3.666672865376762736e-01
2.849999999999999756e-01,1.265107437053752254e-02,2.963712832177937129e-01,3.866028628752774532e-01
2.859999999999999765e-01,6.599878741028724072e-01,-1.578093846076605300e-01,7.240686000315711690e-02
2.869999999999999774e-01,9.124481150278880293e-01,-9.267667470166654486e-02,-1.980721350827131522e-01
2.879999999999999782e-01,4.554583698734598896e-01,4.046551785725535644e-01,-8.003360531847390769e-02
2.889999999999999791e-01,-1.505082666786290158e-01,7.473812636559132860e-01,3.246548492219179516e-01
2.899999999999999800e-01,-1.837572117587671361e-01,5.103023982533209102e-01,5.421064636240306989e-01
2.909999999999999809e-01,4.121400811825824961e-01,-5.518683250164478638e-02,3.231574573403974693e-01
2.919999999999999818e-01,9.276787882806549757e-01,-2.548962022284230189e-01,-6.146388392978587023e-02
2.929999999999999827e-01,7.631351309939189420e-01,1.176297220490090251e-01,-1.601516474261654721e-01
2.939999999999999836e-01,8.970895370126186208e-02,6.146256895823331012e-01,1.455402476139324164e-01
2.949999999999999845e-01,-2.973472946508152193e-01,6.184693805435464986e-01,5.088432266696523154e-01
2.959999999999999853e-01,6.641948455672268270e-02,1.049795420674891899e-01,5.320354221186076593e-01
2.969999999999999862e-01,7.126069953686560154e-01,-3.405201495648789156e-01,1.644774081970398483e-01
2.979999999999999871e-01,8.910574920100849949e-01,-1.856305196418828185e-01,-1.521197132025891852e-01
2.989999999999999880e-01,3.525811128728662536e-01,3.229387634995439238e-01,-4.692882435203344499e-02
2.999999999999999889e-01,-2.833719650264214240e-01,5.945126176217817582e-01,3.467426748084763699e-01
3.009999999999999898e-01,-2.693200220806222234e-01,2.284497640092623960e-01,5.855979564911448776e-01
3.019999999999999907e-01,3.231346611810493874e-01,-3.155179409878366981e-01,3.772133252295613581e-01
3.029999999999999916e-01,7.905209350311437344e-01,-4.311242180445798988e-01,-4.089708781265381093e-02
3.039999999999999925e-01,5.473608943323248210e-01,-2.447607137219846157e-02,-1.685974568830363729e-01
3.049999999999999933e-01,-1.249302998495447625e-01,3.968321235499317479e-01,8.705471491823150998e-02
3.059999999999999942e-01,-4.739760942493690399e-01,2.964104376177993383e-01,4.499850558449098314e-01
3.069999999999999951e-01,-1.189693803192854032e-01,-2.245097623397948328e-01,4.644223118706413689e-01
3.079999999999999960e-01,4.947349471670687837e-01,-5.542474117261206867e-01,1.116481894299370392e-01
3.089999999999999969e-01,5.683951884085901574e-01,-3.320001970024565319e-01,-1.978166727687729332e-01
3.099999999999999978e-01,5.055198033457729972e-02,1.337213171565165837e-01,-1.340541751954047456e-01
3.109999999999999987e-01,-4.960780536071192626e-01,2.615600313825707790e-01,2.191446404961837624e-01
3.119999999999999996e-01,-4.830342034380489813e-01,-9.888586719244597811e-02,4.126833580778085375e-01
3.130000000000000004e-01,4.813605957019247844e-02,-5.506201110709278979e-01,2.444966462277285146e-01
3.140000000000000013e-01,4.021427518579820393e-01,-5.405447794742637146e-01,-1.201133678278382688e-01
3.150000000000000022e-01,1.552025321160670213e-01,-1.401243844825760532e-01,-2.740931076856961135e-01
3.160000000000000031e-01,-4.133596758656922221e-01,1.425158269294346802e-01,-6.068126773418882486e-02
3.170000000000000040e-01,-6.565870332777089535e-01,-2.584749674453721072e-02,2.222300644226228861e-01
3.180000000000000049e-01,-3.332041297964035143e-01,-4.477507616092668563e-01,2.416382066471124412e-01
3.190000000000000058e-01,1.159945483241075909e-01,-6.142722490827584592e-01,-2.908861326930753735e-02
3.200000000000000067e-01,1.410931171775567095e-01,-3.717955224586158569e-01,-2.995934033949929631e-01
3.210000000000000075e-01,-2.708989530419077529e-01,-3.332399654692270313e-02,-2.726646107782987327e-01
3.220000000000000084e-01,-6.571726307120464572e-01,-6.968826537239012839e-03,6.345057035079322560e-03
3.230000000000000093e-01,-5.785184985360961596e-01,-3.035246550643352914e-01,1.443411761791507930e-01
3.240000000000000102e-01,-1.877464376724123085e-01,-5.357386135336830169e-01,1.518035418649187583e-02
3.250000000000000111e-01,4.430828115451001387e-02,-4.577789904341701410e-01,-2.549304498890676007e-01
3.260000000000000120e-01,-1.750579501219939049e-01,-1.602704074048949545e-01,-3.449492980703217637e-01
3.270000000000000129e-01,-5.410160697778434447e-01,-1.897552691283676402e-02,-2.050064549484464371e-01
3.280000000000000138e-01,-6.355903250906284052e-01,-1.784502162666469216e-01,-6.536055866178048374e-03
3.290000000000000147e-01,-3.684309420459903617e-01,-3.946901504680621620e-01,-6.848276366077342414e-03
3.300000000000000155e-01,-1.350904415655128643e-01,-4.033370337975487607e-01,-2.007043280955216058e-01
3.310000000000000164e-01,-1.341717110308039973e-01,-2.135241479433298839e-01,-3.454099158470211317e-01
3.320000000000000173e-01,-3.757356871137159660e-01,-4.797819141522498970e-02,-3.046974565740617202e-01
3.330000000000000182e-01,-5.311515804346671477e-01,-8.471958313312108468e-02,-1.591074515775385279e-01
3.340000000000000191e-01,-4.240354748729890377e-01,-2.241175819882538500e-01,-6.683777936415567777e-02
3.350000000000000200e-01,-2.068048844757016669e-01,-2.565210586270007531e-01,-1.530156601369826730e-01
3.360000000000000209e-01,-1.591492381373088294e-01,-1.466561271249801068e-01,-2.926781265440260293e-01
3.370000000000000218e-01,-2.729546538472643613e-01,-3.754001888542504717e-02,-3.043075046505148706e-01
3.380000000000000226e-01,-3.760976802738900115e-01,-3.049291083831248000e-02,-2.030686984116481242e-01
3.390000000000000235e-01,-3.194900470682774385e-01,-1.121454532083806382e-01,-1.241160264709307987e-01
3.400000000000000244e-01,-1.838439998081570492e-01,-9.364176001530444271e-02,-1.677900463377837992e-01
3.410000000000000253e-01,-1.325500709156212931e-01,-3.342568416781540892e-03,-2.191489527973733975e-01
3.420000000000000262e-01,-1.967056288331655578e-01,6.190112390129489522e-02,-2.312855574462958641e-01
3.430000000000000271e-01,-2.303835395948178322e-01,3.247693779627297550e-02,-1.739983415359762919e-01
3.439999999999999725e-01,-1.493857912243997943e-01,-2.820882211082581872e-02,-1.385638856335181801e-01
3.449999999999999734e-01,-2.124131443124436386e-02,2.712984620878633110e-02,-1.429973538945003564e-01
3.459999999999999742e-01,-1.703676532381750292e-02,1.659108190712835218e-01,-1.960951635196308274e-01
3.469999999999999751e-01,-1.382426955283774794e-01,2.233470770494319357e-01,-1.736972308810383614e-01
3.479999999999999760e-01,-1.484029447169876725e-01,1.187195070401466240e-01,-9.558321112238547801e-02
3.489999999999999769e-01,4.766722465710763502e-03,-5.671055345899515994e-03,-3.545963397944301709e-02
3.499999999999999778e-01,2.055129840443666589e-01,7.387573114146994691e-02,-8.114879927966911488e-02
3.509999999999999787e-01,1.895763061338351374e-01,2.845093627015182203e-01,-1.689530609167577968e-01
3.519999999999999796e-01,-2.448460425966501527e-02,3.945511555795330749e-01,-1.381708762370222332e-01
3.529999999999999805e-01,-1.125040790928710788e-01,2.556322153882142345e-01,-8.887124459780963021e-03
3.539999999999999813e-01,8.739540506899487471e-02,6.330282366286811568e-02,1.028196832190133719e-01
3.549999999999999822e-01,3.725721533395874863e-01,3.806981334421030011e-02,5.286107182378815134e-02
3.559999999999999831e-01,4.415566037473445671e-01,3.025563918001340502e-01,-1.017365533426703300e-01
3.569999999999999840e-01,1.936372103798129907e-01,5.150327390539135575e-01,-1.486032706582906260e-01
3.579999999999999849e-01,-5.905903451899320589e-02,4.245554809671578944e-01,1.892302109423789347e-02
3.589999999999999858e-01,3.415042375629326332e-02,1.206895290929588110e-01,2.132416666284421836e-01
3.599999999999999867e-01,4.088670839886608954e-01,-3.579921030162483420e-02,2.260512620570030440e-01
3.609999999999999876e-01,6.578215239673859127e-01,1.890560426236699842e-01,3.835109570158171111e-02
3.619999999999999885e-01,4.695392924510032873e-01,5.253482174712126307e-01,-1.163327324167238580e-01
3.629999999999999893e-01,5.128950964832629938e-02,5.776995692399430338e-01,-2.028800652618205705e-02
3.639999999999999902e-01,-8.073235168872379408e-02,2.333117037088502377e-01,2.385498954289471396e-01
3.649999999999999911e-01,2.796892667412604339e-01,-9.577352870270454399e-02,3.778657849957239856e-01
3.659999999999999920e-01,7.315165321956503819e-01,-9.391126281583271965e-03,2.443122912949994008e-01
3.669999999999999929e-01,7.247150004383293709e-01,3.993111606653100831e-01,-1.428528489964539863e-02
3.679999999999999938e-01,2.642116027693661162e-01,6.441238222144225478e-01,-8.721195609925903869e-02
3.689999999999999947e-01,-1.393207446149683504e-01,3.767414626297466151e-01,1.539656369467109209e-01
3.699999999999999956e-01,2.938229246831032537e-02,-9.573061682417421947e-02,4.481720754117581862e-01
3.709999999999999964e-01,5.911211867773173978e-01,-2.249309787812775463e-01,4.425964333991256328e-01
3.719999999999999973e-01,8.511718689901521806e-01,1.530512326512234456e-01,1.265253450167433680e-01
3.729999999999999982e-01,5.037804952407628489e-01,5.529075407262058484e-01,-8.798324922231180734e-02
3.739999999999999991e-01,-9.785257489937967956e-02,4.713740167670899539e-01,1.288912169662780570e-02
3.750000000000000000e-01,-2.362952269834141805e-01,-3.096051793644215983e-02,3.438807960731109503e-01
3.760000000000000009e-01,2.326992331591316576e-01,-3.750719690815881857e-01,5.400026052540679578e-01
3.770000000000000018e-01,7.756460056608992515e-01,-1.750776355937248563e-01,3.401271829876389430e-01
3.780000000000000027e-01,6.947503154897083366e-01,3.232160144363334653e-01,-2.605648654232069206e-02
3.790000000000000036e-01,5.350916545923765921e-02,4.991818273469602607e-01,-1.401560078911076590e-01
3.800000000000000044e-01,-4.121708098892699623e-01,9.010534206753274822e-02,1.549699722780900069e-01
3.810000000000000053e-01,-1.463981293289036700e-01,-4.212213583240961845e-01,4.996991070078120600e-01
3.820000000000000062e-01,4.744963693582558983e-01,-4.717256136120998589e-01,4.853843937762866156e-01
3.830000000000000071e-01,7.400184939818866825e-01,3.890646488244635902e-03,1.088161803565480812e-01
3.840000000000000080e-01,2.533244810010391035e-01,4.071212698377619787e-01,-1.874990774677974537e-01
3.850000000000000089e-01,-4.063612963442390646e-01,1.950826501117355616e-01,-9.856200689388457115e-02
3.860000000000000098e-01,-5.372286527206865392e-01,-3.836777753177978978e-01,2.892023995003124015e-01
3.870000000000000107e-01,2.696368955383818267e-02,-6.626157870742402922e-01,5.045728858616261858e-01
3.880000000000000115e-01,5.659841441452488908e-01,-3.455238251669557892e-01,2.844531700520613882e-01
3.890000000000000124e-01,4.049474106759166081e-01,1.745130144390680260e-01,-1.423631073814720094e-01
3.900000000000000133e-01,-2.720876673070735663e-01,2.556704788004942608e-01,-2.856866555360717541e-01
3.910000000000000142e-01,-7.142756413340473065e-01,-2.151393667357087702e-01,-2.048167633883705985e-02
3.920000000000000151e-01,-4.380250022178339142e-01,-6.840343242524472567e-01,3.622412988047350457e-01
3.930000000000000160e-01,2.239190212859832330e-01,-5.940268061972071578e-01,3.556711270581363604e-01
3.940000000000000169e-01,4.400229355666979147e-01,-8.871290699422415549e-02,-2.119002321141568237e-02
3.950000000000000178e-01,-7.648930277337215311e-02,2.184980557454151984e-01,-3.572409107755918911e-01
3.960000000000000187e-01,-7.214471577984835626e-01,-4.822135768084667012e-02,-2.772847135105603877e-01
3.970000000000000195e-01,-7.807745911233822111e-01,-5.514798431406803259e-01,7.895858413969801537e-02
3.980000000000000204e-01,-2.096140156505318652e-01,-7.231769545453643477e-01,3.196174568332695864e-01
3.990000000000000213e-01,2.708986686587096515e-01,-3.466742753636509744e-01,1.262003082434052792e-01
4.000000000000000222e-01,1.083853815765204454e-01,1.115042613583180908e-01,-2.992886652494558541e-01
4.010000000000000231e-01,-5.248234712593654594e-01,9.548510493849216019e-02,-4.425811361773507868e-01
4.020000000000000240e-01,-8.840406331666482709e-01,-3.538756738821610126e-01,-2.068011043787570669e-01
4.030000000000000249e-01,-5.798433234165020211e-01,-6.822541594370082896e-01,1.449626641164681318e-01
4.040000000000000258e-01,6.899952600092846937e-03,-4.919657663494363398e-01,1.637901271488110544e-01
4.050000000000000266e-01,1.681677924569487115e-01,-4.592443082669545734e-02,-1.508605742899154500e-01
4.060000000000000275e-01,-2.677653994725005537e-01,1.706721791616221395e-01,-4.536489316568811936e-01
4.069999999999999729e-01,-7.863914072496740459e-01,-1.125541737375381490e-01,-3.942937017815414946e-01
4.079999999999999738e-01,-7.601594172104304548e-01,-4.850677900727236036e-01,-9.213103408397355087e-02
4.089999999999999747e-01,-2.608370541786069197e-01,-5.090712407223123570e-01,1.167728455966340478e-01
4.099999999999999756e-01,1.204027217737303895e-01,-1.394404720955831622e-01,-3.617240461964659620e-02
4.109999999999999765e-01,-3.396836174135201697e-02,1.749916921490921318e-01,-3.589525386315333133e-01
4.119999999999999774e-01,-5.171081693784215227e-01,9.483030566817968188e-02,-4.913773086683161373e-01
4.129999999999999782e-01,-7.202544483839840028e-01,-2.399337082100242713e-01,-2.966272109834755533e-01
4.139999999999999791e-01,-4.119338259699230065e-01,-4.035642955662983589e-01,-2.230909126527855224e-02
4.149999999999999800e-01,1.845080318060786026e-02,-1.720024673972256057e-01,3.460939983417313237e-02
4.159999999999999809e-01,1.127107292105097303e-01,1.479777970839361578e-01,-1.937562202649247278e-01
4.169999999999999818e-01,-2.093643534566966280e-01,2.171912656565712363e-01,-4.134622266042453087e-01
4.179999999999999827e-01,-5.220781245360793799e-01,-9.171350448961234497e-03,-3.850193666560267625e-01
4.189999999999999836e-01,-4.402651397337495887e-01,-1.892635056719487452e-01,-1.246029401223332778e-01
4.199999999999999845e-01,-5.323124032260158345e-02,-1.099416005038252458e-01,1.848589071278125204e-02
4.209999999999999853e-01,1.417592329091205972e-01,1.501773415084763641e-01,-6.593539006451648588e-02
4.219999999999999862e-01,2.123229987330380042e-02,2.834569753362999878e-01,-2.752357254281061483e-01
4.229999999999999871e-01,-2.312659041435949359e-01,1.800214889060349488e-01,-3.257720207364100395e-01
4.239999999999999880e-01,-2.769469802441903994e-01,2.402760831081876547e-02,-1.799753307139128344e-01
4.249999999999999889e-01,-5.251429309550482288e-02,1.782316843207085860e-02,-1.885549284554963873e-02
4.259999999999999898e-01,1.828309598672371306e-01,1.787082808303562809e-01,-7.846507783496206243e-03
4.269999999999999907e-01,1.684524835252029229e-01,2.810632555220453077e-01,-1.145658064512433405e-01
4.279999999999999916e-01,2.993963432689070517e-02,2.518490596742629650e-01,-1.909766183847692034e-01
4.289999999999999925e-01,-5.859134579177720931e-02,1.647767786878692187e-01,-1.628471193882797818e-01
4.299999999999999933e-01,5.240691210864888844e-02,1.604761031063605126e-01,-4.400981031719463504e-02
4.309999999999999942e-01,2.417041671865900465e-01,2.646443277331077537e-01,3.348683438989175087e-02
4.319999999999999951e-01,2.309125848016538030e-01,3.056456905307975980e-01,-7.378730545088038086e-03
4.329999999999999960e-01,1.611368833406607026e-01,2.595631563186454605e-01,-8.726904475533545091e-02
4.339999999999999969e-01,1.428980123785944245e-01,2.032636523695996178e-01,-3.982361864763130782e-02
4.349999999999999978e-01,2.332000817038591689e-01,2.631257348272847962e-01,3.513177416953658372e-02
4.359999999999999987e-01,3.321645999684466055e-01,3.506063021703723082e-01,7.576115543356470861e-02
4.369999999999999996e-01,2.865565970144132169e-01,3.605733136182036613e-01,6.537924264124801710e-02
4.380000000000000004e-01,2.027525061652263039e-01,2.318571970336735233e-01,1.608520774297532777e-02
4.390000000000000013e-01,2.174573663347024455e-01,1.469091092494593520e-01,7.493892248397517053e-02
4.400000000000000022e-01,3.679761239234526360e-01,2.149466207656275107e-01,1.442727925540620293e-01
4.410000000000000031e-01,4.669067649126429909e-01,3.884817040400740384e-01,1.504604020615110116e-01
4.420000000000000040e-01,3.854330248445660967e-01,4.109322670564419244e-01,9.144816724831833499e-02
4.430000000000000049e-01,1.764523015167552278e-01,2.045342477259930736e-01,5.774623614162013863e-02
4.440000000000000058e-01,1.588928746860498731e-01,3.891263486921627685e-02,1.220414339617818533e-01
4.450000000000000067e-01,3.826914025628084248e-01,8.938905331882829319e-02,2.520906095334966013e-01
4.460000000000000075e-01,5.784864710269076449e-01,3.307260392230501611e-01,2.857713202418084575e-01
4.470000000000000084e-01,5.055565231301224483e-01,4.433388859269219440e-01,1.717370708300861859e-01
4.480000000000000093e-01,2.017172601994107195e-01,2.506562947849603207e-01,6.349780513040328978e-02
4.490000000000000102e-01,2.059319475937992569e-02,-6.571365380859039984e-02,1.021213934826211978e-01
4.500000000000000111e-01,2.185058295053239064e-01,-1.182977074905254000e-01,2.617962387448954376e-01
4.510000000000000120e-01,5.526961397437060164e-01,1.305242109656981897e-01,3.941033416166036529e-01
4.520000000000000129e-01,6.147380618006571540e-01,4.020189405484399514e-01,2.923224612674433232e-01
4.530000000000000138e-01,2.715416762786641014e-01,2.947356091589510285e-01,7.217109526840168043e-02
4.540000000000000147e-01,-9.052228550686867992e-02,-8.441166336753339050e-02,1.511681377827019980e-02
4.550000000000000155e-01,-5.550794942817720290e-02,-3.310478049506982434e-01,1.812726571953202359e-01
4.560000000000000164e-01,3.591659530693241398e-01,-1.344827005082290805e-01,3.964886504882916829e-01
4.570000000000000173e-01,6.327705385436318553e-01,2.460841418737379493e-01,3.946990910549614817e-01
4.580000000000000182e-01,3.864602007509473358e-01,3.165275935134702068e-01,1.553808758744898988e-01
4.590000000000000191e-01,-1.391239092295514235e-01,-4.002257772276090336e-02,-6.330961117622566081e-02
4.600000000000000200e-01,-3.462853285850868157e-01,-4.519633149001168748e-01,1.192328292727448062e-03
4.610000000000000209e-01,-1.340093182253901567e-02,-4.331922165792000401e-01,2.736149167170484620e-01
4.620000000000000218e-01,4.643009927104990719e-01,-3.632278016753206096e-03,4.345544934367983614e-01
4.630000000000000226e-01,4.769235709827104319e-01,2.980324513369493888e-01,2.696830821202269579e-01
4.640000000000000235e-01,-3.951132131249348450e-02,5.608106736396212960e-02,-5.703496566957479141e-02
4.650000000000000244e-01,-5.326789212724662992e-01,-4.518230135416855253e-01,-1.808109479699046007e-01
4.660000000000000253e-01,-4.193207906552114395e-01,-6.489810221573013571e-01,5.384838110831885460e-02
4.670000000000000262e-01,1.562466944887779263e-01,-3.038419503142988365e-01,3.578970141985036713e-01
4.680000000000000271e-01,4.609857897160142826e-01,1.673528441255191235e-01,3.572783230176700409e-01
4.689999999999999725e-01,1.133218644164440680e-01,1.607431653301394925e-01,1.096372751820061213e-02
4.699999999999999734e-01,-5.397646335983131705e-01,-3.312808751542776764e-01,-2.884223331869418261e-01
4.709999999999999742e-01,-7.474596743366765939e-01,-7.354677663442402702e-01,-1.953962063212030809e-01
4.719999999999999751e-01,-2.662593764757688053e-01,-5.757827176391241419e-01,1.610729375872925750e-01
4.729999999999999760e-01,3.147153135711093785e-01,-3.258874190577402269e-02,3.396365591832000153e-01
4.739999999999999769e-01,2.626637464355549012e-01,2.346164561746948152e-01,1.478138232232327487e-01
4.749999999999999778e-01,-3.796367519139080549e-01,-1.219972867360917257e-01,-2.606943088905757655e-01
4.759999999999999787e-01,-8.880264971017529652e-01,-6.508315357840461779e-01,-4.153400294400735326e-01
4.769999999999999796e-01,-6.745000565102301504e-01,-7.315233792017364900e-01,-1.259349124142279397e-01
4.779999999999999805e-01,-1.913019434838567762e-02,-2.665741532760408372e-01,2.166886894063281277e-01
4.789999999999999813e-01,3.086092713291551659e-01,1.860268533079477427e-01,2.276814665514952651e-01
4.799999999999999822e-01,-1.177543954713774627e-01,1.179205836721168715e-01,-1.543270399576371910e-01
4.809999999999999831e-01,-7.839778190527205703e-01,-4.241513390743980039e-01,-4.852640871553521862e-01
4.819999999999999840e-01,-9.340941171815675403e-01,-7.382109379575301222e-01,-3.961196875068791479e-01
4.829999999999999849e-01,-3.883138695593041367e-01,-4.483963282838944742e-01,-2.211467838656479626e-02
4.839999999999999858e-01,2.041111433381844475e-01,1.011610662943277644e-01,2.211782070796312616e-01
4.849999999999999867e-01,1.353074867624238231e-01,2.819864404175380646e-01,9.227165306744975620e-03
4.859999999999999876e-01,-4.762708929002654190e-01,-9.991311261101107344e-02,-4.073452731857368225e-01
4.869999999999999885e-01,-9.404387183031096553e-01,-5.740529373386790146e-01,-5.625419911949354201e-01
4.879999999999999893e-01,-6.820298648967944022e-01,-5.377985363379801376e-01,-2.966712538870373006e-01
4.889999999999999902e-01,-2.825100694111190927e-03,-2.421173777860365084e-02,9.886440171159910362e-02
4.899999999999999911e-01,2.975697454191522651e-01,3.556796441776797213e-01,1.371748305925968581e-01
4.909999999999999920e-01,-1.032473655514632715e-01,1.940792794917949315e-01,-2.127717442155127314e-01
4.919999999999999929e-01,-7.026779431557570454e-01,-2.984390898031053507e-01,-5.423090143948399167e-01
4.929999999999999938e-01,-7.666363774869926484e-01,-4.687229228415076832e-01,-4.753309295693253222e-01
4.939999999999999947e-01,-2.319269738819513260e-01,-1.315874559338747196e-01,-1.121521987352311761e-01
4.949999999999999956e-01,3.078811058955113755e-01,3.366154244615318647e-01,1.492572288223853183e-01
4.959999999999999964e-01,2.342373511887519411e-01,4.078530497165406277e-01,-1.563734675429202803e-02
4.969999999999999973e-01,-3.037284917359444614e-01,3.345070339085310512e-02,-3.652024551554409748e-01
4.979999999999999982e-01,-6.668919137662876473e-01,-2.777584469020895619e-01,-5.243153074080597609e-01
4.989999999999999991e-01,-3.754254217868035481e-01,-1.570092576490933478e-01,-2.733023721954632723e-01
5.000000000000000000e-01,2.174042183792456728e-01,2.708621648001608428e-01,7.361919239977794682e-02
5.010000000000000009e-01,4.285592907660621953e-01,5.037343972927305069e-01,1.359104377326309787e-01
5.020000000000000018e-01,7.839252435805271757e-02,3.173569311419877637e-01,-1.479177529287393489e-01
5.030000000000000027e-01,-3.541834965036547711e-01,-4.529440265106707275e-02,-4.010001212535401760e-01
5.040000000000000036e-01,-3.591282190448201184e-01,-7.788097944960116481e-02,-3.374369342585407661e-01
5.050000000000000044e-01,1.007181258602155710e-01,2.171022589518544765e-01,-3.194051697059441253e-02
5.060000000000000053e-01,4.895361580433472692e-01,4.945367638706565372e-01,1.812625880349183483e-01
5.070000000000000062e-01,3.855410401417443955e-01,4.488223980603406882e-01,7.917893623141733506e-02
5.080000000000000071e-01,-1.193123098205526797e-02,1.727298676293656521e-01,-1.930551404082756772e-01
5.090000000000000080e-01,-1.977387059864725016e-01,-5.586033385408334601e-04,-2.881663367028510225e-01
5.100000000000000089e-01,3.585026841587320157e-02,1.545356049215268479e-01,-1.040206187979415553e-01
5.110000000000000098e-01,4.481044045665724673e-01,4.002600113599282250e-01,1.395912614808337004e-01
5.120000000000000107e-01,5.352708310756445487e-01,4.735379761873011462e-01,2.051527363177397534e-01
5.130000000000000115e-01,2.759492195121766023e-01,2.976544743451671193e-01,3.908600912165297037e-02
5.140000000000000124e-01,1.801388421602179157e-02,1.273517094392610793e-01,-1.391353363572476742e-01
5.150000000000000133e-01,9.468552704940030873e-02,1.648492929890103542e-01,-9.214177956057201246e-02
5.160000000000000142e-01,3.725807740251833033e-01,3.151691163166272514e-01,1.153864749779704990e-01
5.170000000000000151e-01,5.367380647713613229e-01,3.822932685839687261e-01,2.538830157110577579e-01
5.180000000000000160e-01,4.236487162832683895e-01,2.961316187622173302e-01,1.803381213526409066e-01
5.190000000000000169e-01,2.194264566704233199e-01,1.717658754547831956e-01,3.930823490606945997e-02
5.200000000000000178e-01,1.715088056576810349e-01,1.642345212951230871e-01,-1.254943328583739415e-02
5.210000000000000187e-01,3.366878224951437848e-01,2.418000569252249099e-01,1.194545943331942611e-01
5.220000000000000195e-01,4.687096079064868581e-01,2.741736092280472326e-01,2.499377123762417940e-01
5.230000000000000204e-01,4.270054434691964995e-01,1.943070789415580202e-01,2.469961977989745538e-01
5.240000000000000213e-01,2.878940982523849890e-01,1.118189521235618544e-01,1.642493654150099236e-01
5.250000000000000222e-01,2.526610922735120779e-01,1.441758946092435434e-01,9.211596330325345916e-02
5.260000000000000231e-01,3.385066158694360894e-01,1.927102973198888958e-01,1.474164821209297815e-01
5.270000000000000240e-01,3.861831679875915024e-01,1.692280963311644515e-01,2.485918305895618297e-01
5.280000000000000249e-01,3.134938473874959719e-01,3.847691637321441066e-02,2.550473660806735765e-01
5.290000000000000258e-01,2.257651704625904532e-01,-3.113015019442224446e-02,1.945851249459507049e-01
5.300000000000000266e-01,2.234049379969826332e-01,4.479351809620438912e-02,1.649638699165750788e-01
5.310000000000000275e-01,3.280668775142270288e-01,1.420322767679278453e-01,2.106615456228547734e-01
5.320000000000000284e-01,3.604258471186689849e-01,1.042365808119246340e-01,2.457541673182752073e-01
5.330000000000000293e-01,2.126853281972977128e-01,-7.958922790488398569e-02,2.258970991238997694e-01
5.340000000000000302e-01,4.390539577131154225e-02,-2.252003102651966016e-01,1.527358850977730831e-01
5.350000000000000311e-01,5.820887478911222074e-02,-1.182642809775745901e-01,1.452297961404269977e-01
5.360000000000000320e-01,2.621278241505755613e-01,7.112637171421662408e-02,1.994647952092572507e-01
5.370000000000000329e-01,3.365168234846723228e-01,1.028891842559206682e-01,2.670733248818381034e-01
5.380000000000000338e-01,1.566899529277686609e-01,-1.244303722740744550e-01,2.218982818427624737e-01
5.390000000000000346e-01,-1.518483328623952411e-01,-3.847076130081378276e-01,1.082945356549260274e-01
5.400000000000000355e-01,-2.050547237449535931e-01,-3.491717375906520093e-01,2.364603719632941276e-02
5.410000000000000364e-01,5.245615551251200243e-02,-5.729775331528395854e-02,1.149323788205642294e-01
5.420000000000000373e-01,2.909330391146937589e-01,9.862585408924942620e-02,2.622981365658266228e-01
5.430000000000000382e-01,1.646942692705407330e-01,-8.997968268444241080e-02,2.518617309302069729e-01
5.440000000000000391e-01,-2.320179816723407784e-01,-4.659440934306604554e-01,7.824445181370254243e-02
5.450000000000000400e-01,-4.669240057674426403e-01,-5.585524037350186877e-01,-8.815209591320323501e-02
5.460000000000000409e-01,-2.650796972264733986e-01,-2.662124801559905829e-01,-4.830787929586588536e-02
5.470000000000000417e-01,1.298623811113742699e-01,6.767629427878403547e-02,1.469989508905676923e-01
5.480000000000000426e-01,2.122051785121681078e-01,2.418417452354356886e-02,2.438047550628016091e-01
5.490000000000000435e-01,-1.856158142464873484e-01,-3.847653431976754690e-01,1.136169381955999813e-01
5.500000000000000444e-01,-6.176051651733561743e-01,-6.483772627892995244e-01,-1.473258411634467413e-01
5.510000000000000453e-01,-6.172998809853718072e-01,-4.864044067675475369e-01,-2.322192447258042969e-01
5.520000000000000462e-01,-1.478911300787039695e-01,-3.304690462640282739e-02,-5.169613764033494097e-02
5.530000000000000471e-01,2.044408255246665806e-01,1.421766548745845293e-01,1.772360072216630777e-01
5.540000000000000480e-01,-4.308649818549105566e-03,-1.897990538072257538e-01,1.841694470115941840e-01
5.550000000000000488e-01,-5.707290719469849671e-01,-6.389382729047761167e-01,-1.262643774264198271e-01
5.560000000000000497e-01,-8.390362121231290660e-01,-6.416312136765283114e-01,-3.587636444806373559e-01
5.570000000000000506e-01,-4.849669486865949009e-01,-1.878044001147957109e-01,-3.042550958755265156e-01
5.580000000000000515e-01,7.394909540875421738e-02,2.063023279009204014e-01,9.234223136706579821e-03
5.590000000000000524e-01,1.575848108174849327e-01,6.095264229397771849e-02,1.723587329328950535e-01
5.600000000000000533e-01,-3.519138624882791611e-01,-4.341042378590355688e-01,-1.159154042564420999e-02
5.610000000000000542e-01,-8.735035738583228904e-01,-6.776428720551265217e-01,-3.769743636646806784e-01
5.620000000000000551e-01,-7.618876813965267392e-01,-3.374060652950400807e-01,-4.930098778093551237e-01
5.629999999999999449e-01,-1.332691630799968663e-01,2.037668482187323660e-01,-2.147868624583678110e-01
5.639999999999999458e-01,2.752704862117357765e-01,3.155774297031881392e-01,1.091674830848225336e-01
5.649999999999999467e-01,-2.667341934980590329e-02,-1.335011681799782579e-01,9.990575320976084750e-02
5.659999999999999476e-01,-6.731121694557347102e-01,-5.476019103194926796e-01,-2.361728323751828285e-01
5.669999999999999485e-01,-9.146528246587156685e-01,-4.446834319116025336e-01,-5.352516779869558317e-01
5.679999999999999494e-01,-4.202483594234731057e-01,1.189591185704378246e-01,-4.568584293942566377e-01
5.689999999999999503e-01,2.317135308072094391e-01,4.766900242193972126e-01,-7.195976824090316581e-02
5.699999999999999512e-01,2.883676811407063223e-01,2.057436674811536914e-01,1.559308477929772785e-01
5.709999999999999520e-01,-2.937782300840463545e-01,-3.074441403627078961e-01,-2.972977262125833103e-02
5.719999999999999529e-01,-8.087206479856043906e-01,-4.397828819572696113e-01,-4.456086201232673516e-01
5.729999999999999538e-01,-6.001078665922843225e-01,-8.136611697123661072e-03,-5.758214138566299933e-01
5.739999999999999547e-01,9.596529725112451503e-02,4.980675476568706128e-01,-2.923853746452929059e-01
5.749999999999999556e-01,4.904306223888383331e-01,4.991394721929587330e-01,1.045200495648669348e-01
5.759999999999999565e-01,1.572998768181886886e-01,8.710386767961127499e-03,1.580097388665699099e-01
5.769999999999999574e-01,-4.923928802472463673e-01,-3.364275127550447331e-01,-1.965500774930279138e-01
5.779999999999999583e-01,-6.484818481323071371e-01,-1.124974606916489678e-01,-5.181315726128945531e-01
5.789999999999999591e-01,-1.210804520345208773e-01,4.256794461157454856e-01,-4.303284849542052259e-01
5.799999999999999600e-01,5.154881262806216835e-01,6.583323944569041686e-01,-2.292836451789927871e-02
5.809999999999999609e-01,5.492558644577300031e-01,3.445220827784951645e-01,2.387252109572379211e-01
5.819999999999999618e-01,-4.793275049541547567e-02,-1.361844721766050925e-01,8.611290039559718612e-02
5.829999999999999627e-01,-4.997251062054406945e-01,-1.713362906615873149e-01,-3.044486038422515306e-01
5.839999999999999636e-01,-2.637842115127965736e-01,2.742721527871210818e-01,-4.511886752826634317e-01
5.849999999999999645e-01,3.846235656975183770e-01,6.575788856825340867e-01,-1.816984326478420508e-01
5.859999999999999654e-01,7.450576333253369210e-01,5.539092598835475556e-01,2.177860711256329462e-01
5.869999999999999662e-01,3.803294777236933544e-01,9.059141341702502126e-02,2.792592569051530749e-01
5.879999999999999671e-01,-1.858693567886273712e-01,-1.358142113347611257e-01,-3.027972933884076276e-02
5.889999999999999680e-01,-2.815268125624197926e-01,1.222750367995859982e-01,-3.143205632824069840e-01
5.899999999999999689e-01,2.049855157758949664e-01,5.273570617588225762e-01,-2.501384825490735597e-01
5.909999999999999698e-01,7.303018340923855822e-01,6.302187570993180721e-01,1.174188489746637587e-01
5.919999999999999707e-01,6.804775936429061645e-01,2.900072986390936358e-01,3.678347353876733616e-01
5.929999999999999716e-01,1.783660978141368147e-01,-2.957329475778590691e-02,2.407942776688267728e-01
5.939999999999999725e-01,-1.507129635233116771e-01,-3.471332292748319334e-04,-8.984138041810267594e-02
5.949999999999999734e-01,5.846287290930326369e-02,3.402336169741552729e-01,-2.196776905755342124e-01
5.959999999999999742e-01,5.653009874071454055e-01,5.422924600996380518e-01,-1.106770670890860377e-02
5.969999999999999751e-01,7.721998174572319851e-01,3.646171413502455327e-01,3.309035325951470985e-01
5.979999999999999760e-01,4.705380593841416714e-01,4.425339119246668451e-02,3.941999603171512101e-01
5.989999999999999769e-01,4.403483224642906757e-02,-6.847895760640773655e-02,1.613991998395694905e-01
5.999999999999999778e-01,-6.499517425066769771e-03,1.400679612849704270e-01,-8.486642221280503440e-02
6.009999999999999787e-01,3.611008809938099362e-01,3.691169858923278868e-01,-5.826382202308335451e-02
6.019999999999999796e-01,6.642549307299722150e-01,3.272067567678045852e-01,2.444729544842599578e-01
6.029999999999999805e-01,5.669429084202503022e-01,7.792886697622643244e-02,4.268475358642683237e-01
6.039999999999999813e-01,2.240866471278698813e-01,-8.759851122951489710e-02,3.312215873569848701e-01
6.049999999999999822e-01,-3.283461023321777340e-03,-1.089448333725009065e-02,9.094144355956308712e-02
6.059999999999999831e-01,1.681123604857663045e-01,1.512097025326265831e-01,-1.797590928746238548e-02
6.069999999999999840e-01,4.437573262453169964e-01,1.797685361575048490e-01,1.380355188581483261e-01
6.079999999999999849e-01,5.057957036196688572e-01,3.381940460149195082e-02,3.462053804048056960e-01
6.089999999999999858e-01,2.510656795879921410e-01,-1.232621571455573550e-01,3.795609050003979079e-01
6.099999999999999867e-01,3.374683333736526458e-02,-1.029737909180105521e-01,2.273359114479859833e-01
6.109999999999999876e-01,6.349364961607389946e-02,-1.722616985320525596e-02,4.612234315009115099e-02
6.119999999999999885e-01,2.227556018860966935e-01,8.801233120566448638e-04,8.379380738552641428e-02
6.129999999999999893e-01,2.932273008846260076e-01,-8.220767998416407540e-02,2.372309538555075203e-01
6.139999999999999902e-01,1.769872495034963134e-01,-1.655628359148210715e-01,3.171047918135734278e-01
6.149999999999999911e-01,1.474270954565834631e-02,-1.656376493907789071e-01,2.505014542794622434e-01
6.159999999999999920e-01,-2.156346064194199913e-02,-9.809179239615631318e-02,1.047519363974295237e-01
6.169999999999999929e-01,6.502424896020311818e-02,-1.349403728190266272e-01,6.165542533193803937e-02
6.179999999999999938e-01,7.854046294796221406e-02,-2.526098238138761998e-01,1.513222334880613140e-01
6.189999999999999947e-01,-6.874194574387627009e-03,-2.923517091386936273e-01,2.004795730613051219e-01
6.199999999999999956e-01,-1.238610461196198442e-01,-2.060863649686639210e-01,1.659150204153362063e-01
6.209999999999999964e-01,-9.551076262759057578e-02,-1.310174186358596116e-01,9.913783678633254770e-02
6.219999999999999973e-01,-1.198597185947451217e-02,-1.849023661958716369e-01,5.702149240652931023e-02
6.229999999999999982e-01,-4.829824824987392212e-02,-3.592944042993488352e-01,9.113478602510424742e-02
6.239999999999999991e-01,-2.070607276408727160e-01,-4.054958491208883742e-01,1.211000162316702294e-01
6.250000000000000000e-01,-3.106290822836753063e-01,-2.845236261691689861e-01,4.798940111146665632e-02
6.260000000000000009e-01,-2.322345660937865652e-01,-1.003241679427134408e-01,-4.101167553787809193e-03
6.270000000000000018e-01,-7.549548864798996672e-02,-1.256527555182911093e-01,-1.541257545599217064e-02
6.280000000000000027e-01,-9.090621873143112097e-02,-3.447207076765355649e-01,4.279894431114374120e-02
6.290000000000000036e-01,-3.122268329924450803e-01,-5.016140074939748894e-01,5.917484939156879981e-02
6.300000000000000044e-01,-5.067856200656426502e-01,-3.659758830724628709e-01,-1.867161418014653615e-02
6.310000000000000053e-01,-4.396392501554228227e-01,-9.583950350642249372e-02,-1.437686586803895994e-01
6.320000000000000062e-01,-1.593954139732615405e-01,9.506583003378353894e-03,-1.403807895182899446e-01
6.330000000000000071e-01,-6.037390318500639175e-02,-2.272921143120885390e-01,-3.255217267406072812e-02
6.340000000000000080e-01,-2.526646673857487757e-01,-5.150217194272564969e-01,4.976026176480211755e-02
6.350000000000000089e-01,-5.847629490988052181e-01,-4.741638086679983433e-01,-4.377948249548044291e-02
6.360000000000000098e-01,-6.297962849067280100e-01,-1.172387204674875255e-01,-2.130957847468695765e-01
6.370000000000000107e-01,-3.206829991325417795e-01,1.511802967610671455e-01,-2.874529519835614111e-01
6.380000000000000115e-01,1.158238126851834741e-02,-3.071416439104235601e-03,-1.847993687746684599e-01
6.390000000000000124e-01,-7.391348860931576392e-02,-3.704991358077238672e-01,3.055089497541324962e-03
6.400000000000000133e-01,-4.954166026200486628e-01,-5.180625880888094503e-01,-1.167486494055271218e-03
6.410000000000000142e-01,-7.364572971398368750e-01,-2.042670026428458074e-01,-1.906769227112792287e-01
6.420000000000000151e-01,-5.052140179065612857e-01,2.187768828570758606e-01,-3.917912199610261714e-01
6.430000000000000160e-01,-1.972548420233577460e-02,2.613757653896723876e-01,-3.476723043408252445e-01
6.440000000000000169e-01,1.567979588853876949e-01,-1.492490057465163944e-01,-1.055559603209770547e-01
6.450000000000000178e-01,-2.218716159573375091e-01,-4.539535234668402586e-01,5.106928028403188297e-02
6.460000000000000187e-01,-6.932776472159135617e-01,-2.952381656832055445e-01,-9.418957035723804494e-02
6.470000000000000195e-01,-6.745585377710896502e-01,2.245275205089707904e-01,-3.756774075338470964e-01
6.480000000000000204e-01,-1.239662446574736759e-01,4.711937703582886328e-01,-4.877461303587866670e-01
6.490000000000000213e-01,3.045355586386763735e-01,1.851483678143666101e-01,-2.607744658023376516e-01
6.500000000000000222e-01,1.372959699108647347e-01,-2.870064721247131412e-01,4.911160781374800804e-02
6.510000000000000231e-01,-3.964418156748918398e-01,-3.276533328847897608e-01,5.724081404528408995e-02
6.520000000000000240e-01,-6.915978513926526183e-01,1.305274277450408082e-01,-2.347476610364660765e-01
6.530000000000000249e-01,-3.207573165730062126e-01,5.866803702638060392e-01,-4.955841507846311389e-01
6.540000000000000258e-01,3.225777385750012716e-01,4.990140068074662705e-01,-4.078625892199306824e-01
6.550000000000000266e-01,4.848614999572704032e-01,1.912599796849293434e-03,-4.080687847005197433e-02
6.560000000000000275e-01,-4.109582591019345088e-03,-3.097955245171893357e-01,1.717663013360925250e-01
6.570000000000000284e-01,-5.308176324934926749e-01,-9.193636246407649315e-03,3.169886559547783773e-03
6.580000000000000293e-01,-4.468109934831048791e-01,5.594644712594675218e-01,-3.459083690036936498e-01
6.590000000000000302e-01,2.145447832862997506e-01,7.237083775000949792e-01,-4.687537257722505513e-01
6.600000000000000311e-01,6.801526651555245273e-01,3.085365005491772505e-01,-1.959856717393000380e-01
6.610000000000000320e-01,4.549488658841369104e-01,-1.750020104711913216e-01,1.917909527089452781e-01
6.620000000000000329e-01,-2.116895959463657717e-01,-1.490607853548391037e-01,2.323320533760549478e-01
6.630000000000000338e-01,-4.509333993699706777e-01,3.758564369917512527e-01,-9.451336451883361744e-02
6.640000000000000346e-01,1.516432442863781087e-02,7.633569542418762177e-01,-4.033217935581950853e-01
6.650000000000000355e-01,7.035042309324931464e-01,5.597779554351364206e-01,-3.095137676132402316e-01
6.660000000000000364e-01,8.205416119903101713e-01,6.087140843668158337e-03,1.123989914527329242e-01
6.670000000000000373e-01,2.482964089240414784e-01,-2.217913670943678639e-01,3.796923050264564004e-01
6.680000000000000382e-01,-3.066857699895358946e-01,1.544401772129969097e-01,1.948279739923965415e-01
6.690000000000000391e-01,-1.752660228722147939e-01,6.400615677542026427e-01,-1.687641153775084613e-01
6.700000000000000400e-01,4.889543589867108020e-01,6.890178239908666402e-01,-3.195443116280686224e-01
6.710000000000000409e-01,9.431249138161572620e-01,2.256426707800684994e-01,-3.785589843223038237e-02
6.720000000000000417e-01,6.304146182044845226e-01,-1.901110392686662931e-01,3.571173558575893581e-01
6.730000000000000426e-01,-2.559558955641561342e-02,-8.020815499739072929e-02,4.324136328916894922e-01
6.740000000000000435e-01,-2.462948992601070308e-01,4.065864777043825540e-01,9.934613959635590907e-02
6.750000000000000444e-01,2.095208644869187842e-01,6.454686621355943954e-01,-2.113414764971403570e-01
6.760000000000000453e-01,8.196597405789998181e-01,3.589124646378379913e-01,-1.567040480417882520e-01
6.770000000000000462e-01,8.566858927104804566e-01,-1.060394440842076930e-01,2.434682207542535337e-01
6.780000000000000471e-01,2.902834147538171927e-01,-2.314893761495873947e-01,5.215314312987321399e-01
6.790000000000000480e-01,-1.925934588339071052e-01,1.068352012639978421e-01,3.732797951521755753e-01
6.800000000000000488e-01,-5.808752532225339854e-02,4.706902132381464154e-01,-2.388720410911537428e-03
6.810000000000000497e-01,5.283957675518324848e-01,4.033819674377877584e-01,-1.607199620858061340e-01
6.820000000000000506e-01,8.437634194884647831e-01,-4.083822955423831169e-02,7.457887819767078375e-02
6.830000000000000515e-01,5.204554665250028522e-01,-3.072235676891443279e-01,4.316348345601050962e-01
6.840000000000000524e-01,-4.705011301482435460e-02,-1.696791437896339738e-01,5.216137443321374745e-01
6.850000000000000533e-01,-2.153129483106264175e-01,1.911831451184307085e-01,2.292078283095713709e-01
6.860000000000000542e-01,1.637522448331868163e-01,3.000376812930168891e-01,-5.994826760642301550e-02
6.870000000000000551e-01,6.131841741438706084e-01,1.346784879625998604e-02,-4.980836932981276555e-02
6.879999999999999449e-01,5.718596545784587759e-01,-3.325519559063211394e-01,2.817640780380707421e-01
6.889999999999999458e-01,1.010532410866246955e-01,-3.384875473205095076e-01,4.968368392855940230e-01
6.899999999999999467e-01,-2.640159785955977778e-01,-5.192442672906952966e-02,3.616882987786317893e-01
6.909999999999999476e-01,-1.181126860002339324e-01,1.276109580508232588e-01,6.439342482243284871e-02
6.919999999999999485e-01,2.772531944141947147e-01,-1.278640310164926887e-02,-1.009518966991214683e-01
6.929999999999999494e-01,4.579096883121244188e-01,-2.867004764070872902e-01,8.337731181199853348e-02
6.939999999999999503e-01,1.692607205635991152e-01,-4.182568905056857078e-01,3.448129881912666006e-01
6.949999999999999512e-01,-2.366424474288965074e-01,-2.640686703887666908e-01,4.268608478572483156e-01
6.959999999999999520e-01,-3.207663107477258801e-01,-6.488835782891266835e-02,1.838796777109519831e-01
6.969999999999999529e-01,-5.166862354188539452e-02,-8.971042698291531448e-02,-7.301797709387798652e-02
6.979999999999999538e-01,1.857608736488926549e-01,-2.766095714914039161e-01,-4.865367481721556003e-02
6.989999999999999547e-01,1.039154311050431712e-01,-3.931472765480107934e-01,1.583220900032251965e-01
6.999999999999999556e-01,-2.009583545241125924e-01,-3.280431462281815369e-01,2.985603592664464734e-01
7.009999999999999565e-01,-3.679636264574241422e-01,-1.891732779748073467e-01,2.012086240421126493e-01
7.019999999999999574e-01,-2.681219263071358272e-01,-1.648611287618960697e-01,-1.716455558689396199e-02
7.029999999999999583e-01,-7.132393249336579921e-02,-2.683538781149455432e-01,-1.245649905128752982e-01
7.039999999999999591e-01,-5.908398897574491243e-02,-3.354656866665123305e-01,-2.000336147090261280e-02
7.049999999999999600e-01,-2.382246151930253186e-01,-3.046745032366428574e-01,1.148145848548512565e-01
7.059999999999999609e-01,-4.087646238764769402e-01,-2.145331464737287031e-01,1.341618295777353143e-01
7.069999999999999618e-01,-3.577401742241406168e-01,-2.302479242085241906e-01,-2.450809334766600872e-02
7.079999999999999627e-01,-2.512846177137815773e-01,-3.019590580511978262e-01,-1.450269031482853965e-01
7.089999999999999636e-01,-2.142407043141308087e-01,-3.058595164657159082e-01,-1.270306999572377304e-01
7.099999999999999645e-01,-3.240307453985549757e-01,-2.178683526943923920e-01,-3.033430566568271272e-02
7.109999999999999654e-01,-4.040108521911559003e-01,-1.360425702098700118e-01,-1.004572488919708295e-02
7.119999999999999662e-01,-3.565195616055996664e-01,-1.983978105500794065e-01,-7.583474466631733024e-02
7.129999999999999671e-01,-2.759962002170794904e-01,-3.089135271799640647e-01,-1.653487458006797084e-01
7.139999999999999680e-01,-2.978178997840530973e-01,-3.036763785490898537e-01,-1.706947148523943469e-01
7.149999999999999689e-01,-4.171727334426640343e-01,-1.427882075290478336e-01,-9.757457643684054605e-02
7.159999999999999698e-01,-4.597188020989215751e-01,1.592838501527397282e-02,-1.059408100007482312e-01
7.169999999999999707e-01,-3.115005656707944826e-01,-5.600644355629691429e-02,-1.534325299901994899e-01
7.179999999999999716e-01,-1.885911600962661139e-01,-2.298587952830273562e-01,-2.137605708369196833e-01
7.189999999999999725e-01,-2.275993215682829973e-01,-3.118095168109465964e-01,-1.776828508053475975e-01
7.199999999999999734e-01,-4.270407412635846001e-01,-1.010283039063548521e-01,-1.366401844961309675e-01
7.209999999999999742e-01,-5.052694494706434503e-01,1.668735979715991191e-01,-1.455671790556104794e-01
7.219999999999999751e-01,-3.283774289904607402e-01,1.821880147668360206e-01,-2.236814796883997702e-01
7.229999999999999760e-01,-6.307603379095025331e-02,-7.827844680946011158e-02,-3.068275361070608720e-01
7.239999999999999769e-01,-2.822932030149200716e-02,-2.663504865491096441e-01,-2.396296166246285331e-01
7.249999999999999778e-01,-2.866286260215014092e-01,-1.145591174190971340e-01,-1.378604635780809329e-01
7.259999999999999787e-01,-4.887049433330575288e-01,2.519069022479694664e-01,-8.854568644841730174e-02
7.269999999999999796e-01,-3.676934949278074516e-01,4.064318081763173551e-01,-2.139222180020444730e-01
7.279999999999999805e-01,9.212039016060317997e-03,1.813083524260887813e-01,-3.296078676008413755e-01
7.289999999999999813e-01,2.135387102935890069e-01,-1.615150330349583441e-01,-3.108238148680237400e-01
7.299999999999999822e-01,1.344951513588405617e-02,-1.506347763152855179e-01,-1.467338573088168008e-01
7.309999999999999831e-01,-3.641179969051266396e-01,2.298287971483654046e-01,-1.637718057163029678e-02
7.319999999999999840e-01,-4.446452149603433712e-01,5.516284749107616125e-01,-8.756018196970481726e-02
7.329999999999999849e-01,-2.992367889381127369e-02,4.343678234743492683e-01,-2.900674327187571788e-01
7.339999999999999858e-01,3.973628640485038499e-01,2.631809987422329550e-02,-3.544263154560995388e-01
7.349999999999999867e-01,3.587540664848866689e-01,-1.806301846501548736e-01,-1.838360266019065103e-01
7.359999999999999876e-01,-8.484516831598390429e-02,1.121242094947704215e-01,4.265172099642092901e-02
7.369999999999999885e-01,-3.918249626306991584e-01,5.755018231190395239e-01,7.582522005142897092e-02
7.379999999999999893e-01,-1.284428962693562881e-01,6.692453731293894759e-01,-1.327312050081011774e-01
7.389999999999999902e-01,4.374386340516173699e-01,2.645543188237423071e-01,-3.324242243364070593e-01
7.399999999999999911e-01,6.631040869727550247e-01,-1.486397288934422078e-01,-2.699325680919020254e-01
7.409999999999999920e-01,2.901063317769052019e-01,-5.658012916523572772e-02,4.398268335983753635e-02
7.419999999999999929e-01,-2.187760956964645287e-01,4.515010295965363740e-01,2.216466593892270909e-01
7.429999999999999938e-01,-2.296771603027877584e-01,7.610401508734817577e-01,9.750807507994985190e-02
7.439999999999999947e-01,3.010030799896809550e-01,4.692890088262706150e-01,-2.051817430841620660e-01
7.449999999999999956e-01,7.931054826478044495e-01,-5.406397471838513685e-02,-3.074165080168061448e-01
7.459999999999999964e-01,6.833157137316419050e-01,-1.919554790783413178e-01,-5.078096462501104774e-02
7.469999999999999973e-01,7.504043475058032320e-02,1.885361544403610645e-01,2.932434455768244130e-01
7.479999999999999982e-01,-2.700543841945254320e-01,6.807088798141671671e-01,3.525568572338468321e-01
7.489999999999999991e-01,7.610728643504341417e-02,6.458597801716841058e-01,4.963671739664470700e-02
7.500000000000000000e-01,7.179663408383744061e-01,1.085548811693393678e-01,-2.290185906680324568e-01
7.510000000000000009e-01,9.277754608449156892e-01,-2.938462876210666819e-01,-1.443352548183687023e-01
7.520000000000000018e-01,4.359511880981778997e-01,-8.238853733879572538e-02,2.257919347506032182e-01
7.530000000000000027e-01,-1.723706185044211747e-01,4.435935015483485344e-01,4.761726770566204747e-01
7.540000000000000036e-01,-1.780004017995301668e-01,6.571562524698913998e-01,3.106139377697678672e-01
7.550000000000000044e-01,4.431562272560517490e-01,2.714860653811600466e-01,-5.896919815876308646e-02
7.560000000000000053e-01,9.522491941521555869e-01,-2.756853384590740030e-01,-1.920298310917125939e-01
7.570000000000000062e-01,7.297529601764319862e-01,-3.317203586595140474e-01,7.525584565639807655e-02
7.580000000000000071e-01,2.714441296585471189e-02,1.083377955524004177e-01,4.691573475135381033e-01
7.590000000000000080e-01,-3.336885994053422344e-01,5.161180647009995237e-01,5.267427202778941497e-01
7.600000000000000089e-01,6.576102336140621230e-02,3.481642095531859438e-01,1.832484767213237997e-01
7.610000000000000098e-01,7.107970946963686476e-01,-1.944526380797344522e-01,-1.411300063563027674e-01
7.620000000000000107e-01,8.405698716936745862e-01,-4.903676574511408037e-01,-7.178455268216268892e-02
7.630000000000000115e-01,2.819040618456556402e-01,-2.231563511061416816e-01,3.063005608610013253e-01
7.640000000000000124e-01,-3.319098048068887530e-01,2.486915457452683886e-01,5.842437417501661345e-01
7.650000000000000133e-01,-2.914347099445676048e-01,3.601960452678868441e-01,4.042908975612411471e-01
7.660000000000000142e-01,3.172233972443606054e-01,-7.358987865486914248e-02,2.278449906446747622e-02
7.670000000000000151e-01,7.513623253851620110e-01,-5.178451062976971997e-01,-1.654328934632882941e-01
7.680000000000000160e-01,4.764745407095864471e-01,-4.666023523566230624e-01,8.608496970813267479e-02
7.690000000000000169e-01,-2.065220153140150672e-01,-6.170571526757649000e-02,4.544021698673424980e-01
7.700000000000000178e-01,-5.007408335985040759e-01,2.285054551257254818e-01,5.273942544770783281e-01
7.710000000000000187e-01,-1.301316870572166717e-01,1.608087991581387544e-02,2.058515822893006719e-01
7.720000000000000195e-01,4.355340196620571258e-01,-4.398818851175451683e-01,-1.615742292575115258e-01
7.730000000000000204e-01,4.897725825556588086e-01,-6.002931279870528103e-01,-1.305133562209824793e-01
7.740000000000000213e-01,-5.210981612016989811e-02,-3.152164481432851439e-01,2.129169286493915736e-01
7.750000000000000222e-01,-5.539832135692893678e-01,4.907039104440816257e-02,4.827540333798228667e-01
7.760000000000000231e-01,-4.791649292209905209e-01,2.749769449119065720e-02,3.422324217696397497e-01
7.770000000000000240e-01,3.284401636411017622e-02,-3.127207662352801121e-01,-4.328889155150425494e-02
7.780000000000000249e-01,3.381848293462976773e-01,-5.708895479549926932e-01,-2.246839766828173934e-01
7.790000000000000258e-01,7.876015332802877023e-02,-4.667559247247544119e-01,-3.930614622234340078e-02
7.800000000000000266e-01,-4.765070216886856391e-01,-1.309020492828092408e-01,2.751021251834476766e-01
7.810000000000000275e-01,-6.611804370224918515e-01,1.286853480087155055e-02,3.494501294584791973e-01
7.820000000000000284e-01,-3.281393581176035301e-01,-1.903517551905698213e-01,7.218747827635399461e-02
7.830000000000000293e-01,7.136769819204391574e-02,-4.559504888702913816e-01,-2.447329639300993842e-01
7.840000000000000302e-01,5.595429371403869839e-02,-4.786428437288109405e-01,-2.443582604852234108e-01
7.850000000000000311e-01,-3.299428029191553424e-01,-2.513181580974879759e-01,2.452815160451783660e-02
7.860000000000000320e-01,-6.657608879873853081e-01,-6.677844580757685833e-02,2.484066523204954413e-01
7.870000000000000329e-01,-5.563562888228235082e-01,-1.157804224796116221e-01,1.113874669346324592e-01
7.880000000000000338e-01,-1.887968425873189637e-01,-3.107332713679272773e-01,-1.823519694712727734e-01
7.890000000000000346e-01,-1.251448789444130696e-02,-3.693966062031842634e-01,-3.198062774312948053e-01
7.900000000000000355e-01,-2.348107388587004352e-01,-2.292538215872949869e-01,-1.969097521143249319e-01
7.910000000000000364e-01,-5.489127118561674123e-01,-7.863134541210867190e-02,4.073283333342833656e-02
7.920000000000000373e-01,-5.693262347644298949e-01,-6.724917586970055594e-02,8.049543575523850081e-02
7.930000000000000382e-01,-3.400148131697920961e-01,-1.496153888820746236e-01,-1.114011685727576417e-01
7.940000000000000391e-01,-1.390859854908764737e-01,-2.078856382649487411e-01,-3.169079196872102711e-01
7.950000000000000400e-01,-1.977964214772636453e-01,-1.190899451204537329e-01,-3.172247547726254613e-01
7.960000000000000409e-01,-3.934429130997633695e-01,-2.404563812832009873e-02,-1.446498828080237942e-01
7.970000000000000417e-01,-4.913667720469152567e-01,-1.070143328290462138e-02,-1.537915046850339348e-02
7.980000000000000426e-01,-3.459525919086713919e-01,-6.899571252312004799e-02,-8.307165981588177095e-02
7.990000000000000435e-01,-1.884478534573668651e-01,-6.220877190193423861e-02,-2.657887339740392929e-01
8.000000000000000444e-01,-1.802033751179767107e-01,4.185878464423013062e-02,-3.320666772851694204e-01
8.010000000000000453e-01,-2.882793274917717086e-01,1.250829807641930247e-01,-2.431375545348665179e-01
8.020000000000000462e-01,-3.195369242579976232e-01,4.731155144064776163e-02,-1.265132920520848636e-01
8.030000000000000471e-01,-2.342394316194768566e-01,-2.387086382515119995e-02,-9.797279824292640105e-02
8.040000000000000480e-01,-1.150924484819427218e-01,2.596822347881623527e-02,-2.105894639888041264e-01
8.050000000000000488e-01,-1.274457582988292870e-01,1.905442021554741849e-01,-2.927246892687742075e-01
8.060000000000000497e-01,-1.983282347277275925e-01,2.949783568338413264e-01,-2.518029864115397531e-01
8.070000000000000506e-01,-1.711612355253754325e-01,2.070566661019995480e-01,-1.517572888490427707e-01
8.080000000000000515e-01,-1.753694928856715587e-02,2.765613394336800812e-02,-1.440153186097306026e-01
8.090000000000000524e-01,7.120612038733116489e-02,3.182129700526668825e-02,-2.006158753114523907e-01
8.100000000000000533e-01,7.116889369140932606e-03,2.567031564007559719e-01,-2.187003647682140284e-01
8.110000000000000542e-01,-1.490984328591311858e-01,4.457535047778236614e-01,-1.785501980330430061e-01
8.120000000000000551e-01,-1.247597635868081117e-01,3.823813363544323884e-01,-1.197761511970741044e-01
8.129999999999999449e-01,9.936877243241593050e-02,1.006943891336804231e-01,-1.224393893821059537e-01
8.139999999999999458e-01,2.927603890065366143e-01,-1.370253589810219164e-02,-1.641736383555431056e-01
8.149999999999999467e-01,2.402115440212044262e-01,2.055987818970763936e-01,-1.794531369280644439e-01
8.159999999999999476e-01,-2.163722468070915228e-02,5.030650805517519197e-01,-1.081656106154040287e-01
8.169999999999999485e-01,-1.210095598142483519e-01,5.489844673885787563e-01,-1.635449050220472720e-03
8.179999999999999494e-01,1.290305116362171489e-01,2.301186295386349334e-01,-2.025719300949390539e-02
8.189999999999999503e-01,4.688470098369716399e-01,-4.031012132379085261e-02,-1.219891627247932375e-01
8.199999999999999512e-01,5.109495080895601893e-01,4.888295986137388555e-02,-1.773796685285824182e-01
8.209999999999999520e-01,2.084995716759568685e-01,4.391318509079198962e-01,-8.191208897902267638e-02
8.219999999999999529e-01,-8.053188676197742257e-02,6.380253654759896476e-01,1.057332050836525400e-01
8.229999999999999538e-01,2.281984904754094309e-02,3.862865293755657903e-01,1.417680753808875649e-01
8.239999999999999547e-01,4.843711095001361766e-01,-5.032228069690775074e-02,1.120612680386382128e-02
8.249999999999999556e-01,7.311187358993956886e-01,-1.288499342565575245e-01,-1.320950771110183108e-01
8.259999999999999565e-01,4.917618630038727567e-01,2.464610507541367956e-01,-8.156523735114439011e-02
8.269999999999999574e-01,1.316170705371884526e-02,6.058781247401164860e-01,1.329439968272015660e-01
8.279999999999999583e-01,-9.552357850692741459e-02,5.141170509812931222e-01,3.174781112150484863e-01
8.289999999999999591e-01,3.111781618880306577e-01,3.459950593728503693e-02,1.896346707253565300e-01
8.299999999999999600e-01,7.731424417373723434e-01,-2.936752652568376809e-01,-2.722398026798357462e-02
8.309999999999999609e-01,7.381288201448010788e-01,-6.611108855626410263e-02,-1.200201620936003077e-01
8.319999999999999618e-01,2.183523019103671692e-01,4.376733536067632935e-01,8.430299003688047910e-02
8.329999999999999627e-01,-1.839407514372131403e-01,5.516000966958908291e-01,3.597862738478442846e-01
8.339999999999999636e-01,3.759180151328694180e-02,1.503090407727411260e-01,4.153536958626865561e-01
8.349999999999999645e-01,6.080882142429131498e-01,-3.525926073701743380e-01,1.523833012424009037e-01
8.359999999999999654e-01,8.618890641343984749e-01,-3.607626400071877182e-01,-7.887152769822169951e-02
8.369999999999999662e-01,4.623542661296904388e-01,1.145773677652107414e-01,-2.577970061452161676e-02
8.379999999999999671e-01,-1.852578523849098824e-01,4.718048766772132696e-01,2.894349173002452313e-01
8.389999999999999680e-01,-2.713381686300573303e-01,2.463115911068565200e-01,5.078299227940304972e-01
8.399999999999999689e-01,2.485571086374019634e-01,-3.205198452447393653e-01,3.572471176598149833e-01
8.409999999999999698e-01,7.812649200869802302e-01,-5.574238103794314503e-01,2.130216039225161714e-02
8.419999999999999707e-01,6.359964832162654513e-01,-2.339206142707581648e-01,-1.219365064408172439e-01
8.429999999999999716e-01,-3.279134065966378409e-02,2.713265387887577873e-01,1.344512243800007056e-01
8.439999999999999725e-01,-4.581150835577696978e-01,3.098263893448736650e-01,4.755743529542579284e-01
8.449999999999999734e-01,-1.875287997444145816e-01,-1.978987966019445099e-01,5.052738708504690424e-01
8.459999999999999742e-01,4.676404323571188848e-01,-6.525142160117507473e-01,1.890434866375505230e-01
8.469999999999999751e-01,6.801439406945504196e-01,-5.316589397156457064e-01,-1.366398430760999705e-01
8.479999999999999760e-01,1.732625675126152898e-01,-2.085549750046986669e-03,-6.946610074740378060e-02
8.489999999999999769e-01,-4.895630782957898219e-01,2.694270519380647100e-01,2.845008122558652652e-01
8.499999999999999778e-01,-5.656751873042077383e-01,-4.858009871480245545e-02,5.464001601093954053e-01
8.509999999999999787e-01,1.190077677197018055e-02,-5.761829670019319449e-01,3.573351837489955884e-01
8.519999999999999796e-01,5.150600451584882444e-01,-7.073600370007007143e-01,-5.276705888549362844e-02
8.529999999999999805e-01,3.306898288038698230e-01,-2.985596634591322629e-01,-2.344723955953857686e-01
8.539999999999999813e-01,-3.668516382524681374e-01,1.271700751401443619e-01,6.986773152314246227e-03
8.549999999999999822e-01,-7.632221699682668614e-01,7.473750751758627409e-02,3.768536521553781382e-01
8.559999999999999831e-01,-4.420692404459473646e-01,-3.976636136095615393e-01,4.389604270000561081e-01
8.569999999999999840e-01,1.898151370032864771e-01,-7.244783202836583280e-01,8.357212332653622677e-02
8.579999999999999849e-01,3.544351984963484137e-01,-5.055681634035951166e-01,-2.675614422904281642e-01
8.589999999999999858e-01,-1.485713807994751834e-01,-2.006674396308548783e-02,-2.726647509480105147e-01
8.599999999999999867e-01,-7.644989912474581262e-01,1.434495533334939898e-01,1.151490890991398452e-01
8.609999999999999876e-01,-7.627956659760520841e-01,-1.817788895648135838e-01,3.741716663800792597e-01
8.619999999999999885e-01,-1.864296989741424937e-01,-5.806301676175711357e-01,2.391117264928236952e-01
8.629999999999999893e-01,2.440643029923458551e-01,-5.666458779761964770e-01,-1.938200427587775387e-01
8.639999999999999902e-01,3.241671571662563950e-02,-1.735399899551603731e-01,-4.158904838136985305e-01
8.649999999999999911e-01,-5.839172089899854479e-01,1.477037894068114754e-01,-1.816816921133260210e-01
8.659999999999999920e-01,-8.686111996595492490e-01,2.930568476500953340e-02,1.789813545119749161e-01
8.669999999999999929e-01,-5.286544481945406604e-01,-3.426393349984276915e-01,2.523239985372168204e-01
8.679999999999999938e-01,1.252949270226275287e-02,-4.999294775978500582e-01,-5.923718915681633335e-02
8.689999999999999947e-01,1.328070709070623689e-01,-2.449280713859458281e-01,-4.344868354242899522e-01
8.699999999999999956e-01,-2.989681877205197513e-01,1.016783203734040603e-01,-3.998294174934894363e-01
8.709999999999999964e-01,-7.674625464046203049e-01,1.631000691836481942e-01,-7.677173959823560545e-02
8.719999999999999973e-01,-7.025476886615430461e-01,-9.171602124855977867e-02,1.698276318215423131e-01
8.729999999999999982e-01,-2.032280439869757760e-01,-3.049904002115281232e-01,5.720456806734910277e-02
8.739999999999999991e-01,1.048552091706514700e-01,-2.229828861036567689e-01,-3.174562094011019187e-01
8.750000000000000000e-01,-6.576841432618772687e-02,8.187970779182733583e-02,-5.008759856191856707e-01
8.760000000000000009e-01,-5.099042218257290315e-01,2.428226933272387977e-01,-3.171678043249427925e-01
8.770000000000000018e-01,-6.530074540320707221e-01,1.093867108713762748e-01,-1.966095152622873363e-02
8.780000000000000027e-01,-3.628338118034653559e-01,-8.896488031557048259e-02,6.287586238895677415e-02
8.790000000000000036e-01,4.372658781486213342e-02,-1.177153256774927798e-01,-1.563198720450985069e-01
8.800000000000000044e-01,7.220181040389983540e-02,1.085067111732708339e-01,-4.385607973625635925e-01
8.810000000000000053e-01,-2.010331328934991391e-01,2.621616049095282230e-01,-4.209024486133267073e-01
8.820000000000000062e-01,-4.288123605782844794e-01,2.248881327063251001e-01,-1.648588221534073306e-01
8.830000000000000071e-01,-3.300773778482996579e-01,8.890302213886380756e-02,1.452713645125997682e-02
8.840000000000000080e-01,-1.742492390200492750e-02,5.210638946678606415e-02,-5.271937879973471325e-02
8.850000000000000089e-01,1.515464024615253980e-01,1.683607870789712024e-01,-3.025733238427612548e-01
8.860000000000000098e-01,3.311849598593051558e-02,2.700524873480594779e-01,-4.084290651055831889e-01
8.870000000000000107e-01,-1.868114411633537419e-01,2.722030487202099502e-01,-2.607872668531113769e-01
8.880000000000000115e-01,-1.669226425205688480e-01,1.963521631313545901e-01,-5.823507497396329669e-02
8.890000000000000124e-01,3.291932420625132832e-02,1.953636980335966000e-01,1.691796535501746343e-02
8.900000000000000133e-01,2.023372039374621845e-01,2.911286805199783112e-01,-1.459599976695204193e-01
8.910000000000000142e-01,1.788564049485427687e-01,3.227561796529180849e-01,-2.825437027001870272e-01
8.920000000000000151e-01,5.618821271147144553e-02,2.738306105892014952e-01,-2.486300235009679671e-01
8.930000000000000160e-01,4.377038036387895237e-02,1.847614880170148632e-01,-9.130834822552535979e-02
8.940000000000000169e-01,1.623756477083463101e-01,2.388849103694385134e-01,2.972501935762506334e-02
8.950000000000000178e-01,2.720991868566109972e-01,3.606121891765651788e-01,-4.854592544661621295e-02
8.960000000000000187e-01,2.321793281385872709e-01,3.855600811730311994e-01,-1.303596906385578458e-01
8.970000000000000195e-01,1.688359942713150152e-01,2.486774127732883088e-01,-1.455505849185154410e-01
8.980000000000000204e-01,1.939531243155823981e-01,1.066249602459154733e-01,-6.167940364450723995e-02
8.990000000000000213e-01,3.301266250223469645e-01,1.519058205426318808e-01,3.333527846660674226e-02
9.000000000000000222e-01,3.940985913884605951e-01,3.365462907088291877e-01,3.701369700594782375e-02
9.010000000000000231e-01,2.894560603598173021e-01,4.501939999892660693e-01,-1.244891479400295729e-02
9.020000000000000240e-01,1.781499248055651574e-01,2.821350782057962525e-01,-3.657850072559012261e-02
9.030000000000000249e-01,2.421165248652193958e-01,3.577906584434693837e-02,5.774948356433778213e-02
9.040000000000000258e-01,4.390541717529443666e-01,-1.198723731247673327e-02,9.913915766424293008e-02
9.050000000000000266e-01,5.311199639618020552e-01,2.025939135319703155e-01,7.536119156807744024e-02
9.060000000000000275e-01,3.665495491289624819e-01,4.236034367596974715e-01,3.118477483100043704e-02
9.070000000000000284e-01,1.542995386227706822e-01,3.209535972533058001e-01,4.743693095038732654e-02
9.080000000000000293e-01,1.578043582480312679e-01,-1.079047975218461880e-02,1.655274031443360605e-01
9.090000000000000302e-01,3.926806729844768973e-01,-2.227619278310718209e-01,2.160542926347261694e-01
9.100000000000000311e-01,6.334300252259801312e-01,-1.302111245566422125e-02,1.542532737114598596e-01
9.110000000000000320e-01,5.077922636026072079e-01,3.130105538972957624e-01,6.563778367613896936e-02
9.120000000000000329e-01,1.296573356208556571e-01,3.731498978550442103e-01,6.920707599667026699e-02
9.130000000000000338e-01,-2.809756275586097751e-02,1.081307469100266545e-02,2.153952179091187247e-01
9.140000000000000346e-01,2.009902675014548501e-01,-3.566878634059095221e-01,3.102633984889581198e-01
9.150000000000000355e-01,5.808672672815770044e-01,-3.056177606013408821e-01,2.761762391139802597e-01
9.160000000000000364e-01,6.219067085379905713e-01,9.640659978408434860e-02,1.144763891510126586e-01
9.170000000000000373e-01,2.086797200406524389e-01,3.445019225698665033e-01,3.355400642365476138e-02
9.180000000000000382e-01,-1.826380732950024788e-01,8.696910186759616856e-02,1.402245349785964101e-01
9.190000000000000391e-01,-1.201391116143972065e-01,-3.873900978842969023e-01,3.646809423815135509e-01
9.200000000000000400e-01,3.592273569638240738e-01,-5.758934791560881283e-01,3.894853857763791449e-01
9.210000000000000409e-01,6.261950604960462297e-01,-2.008738324151315702e-01,1.970732204534532406e-01
9.220000000000000417e-01,3.294882034388569303e-01,2.241674646032752183e-01,-1.424042856583402142e-02
9.230000000000000426e-01,-2.376596430664177639e-01,1.700810239857409589e-01,2.831282800639776595e-02
9.240000000000000435e-01,-4.196517482183144132e-01,-3.148195513101626486e-01,2.772442256622330570e-01
9.250000000000000444e-01,-1.911871806063419887e-02,-6.861130117602178835e-01,4.521606764617683294e-01
9.260000000000000453e-01,4.659666041664529135e-01,-4.971193668295146861e-01,3.256047811500181188e-01
9.270000000000000462e-01,4.447681353475048671e-01,9.509549183221884666e-03,1.339297357203928819e-02
9.280000000000000471e-01,-1.336241599109394551e-01,2.283613862724538368e-01,-1.158981309771780349e-01
9.290000000000000480e-01,-6.174151066831540247e-01,-1.409605886177682510e-01,8.555497000062141366e-02
9.300000000000000488e-01,-4.477038081280673709e-01,-6.563870668221154503e-01,3.588070454570628232e-01
9.310000000000000497e-01,1.456525849963603847e-01,-7.197716118491875870e-01,4.069532751835627238e-01
9.320000000000000506e-01,4.365849314176031282e-01,-2.319954485886551454e-01,1.197605932469478496e-01
9.330000000000000515e-01,4.307352240409822314e-02,1.881721009595992145e-01,-1.916484480024116532e-01
9.340000000000000524e-01,-6.255488303171281572e-01,6.421056736476235538e-02,-1.579604036804939937e-01
9.350000000000000533e-01,-7.854610420372849511e-01,-4.814732135111156053e-01,1.745655845153041841e-01
9.360000000000000542e-01,-2.709196697796398268e-01,-7.696893086977465437e-01,3.917360262518157499e-01
9.370000000000000551e-01,2.948680382364960995e-01,-4.587677203245959512e-01,2.280772105057452259e-01
9.379999999999999449e-01,2.169644703889237192e-01,8.108910288422428725e-02,-1.523753307376796706e-01
9.389999999999999458e-01,-4.510495245321192170e-01,2.290563697359560558e-01,-3.421011445366965997e-01
9.399999999999999467e-01,-9.277396457084868819e-01,-1.986414663940446745e-01,-1.149467583573438451e-01
9.409999999999999476e-01,-6.710366468652793071e-01,-6.556043279521941436e-01,2.367643290985950444e-01
9.419999999999999485e-01,-6.472258326915022661e-03,-5.677707912549333491e-01,2.924903773944105279e-01
9.429999999999999494e-01,2.883209744291836962e-01,-3.946974020169245756e-02,-3.908465610343724028e-02
9.439999999999999503e-01,-1.503935093040921767e-01,3.166498536448879020e-01,-4.016507119113222335e-01
9.449999999999999512e-01,-8.099697591976511291e-01,9.532875737653245807e-02,-3.689251392473035795e-01
9.459999999999999520e-01,-9.205924440993523694e-01,-4.066824047704153955e-01,-2.564807944336343175e-03
9.469999999999999529e-01,-3.438912010929994212e-01,-5.656408244734948410e-01,2.494638172886025351e-01
9.479999999999999538e-01,2.288114055798420587e-01,-1.850947031759621608e-01,9.830858515736870529e-02
9.489999999999999547e-01,1.184195628212340312e-01,2.984178462291209866e-01,-3.161490700833000655e-01
9.499999999999999556e-01,-5.096827201337448265e-01,3.376880148860882391e-01,-5.421253493411878344e-01
9.509999999999999565e-01,-9.207817769611075231e-01,-8.151918352438583537e-02,-2.794019596103661796e-01
9.519999999999999574e-01,-6.064763495105947033e-01,-4.039636262276857792e-01,8.931298997287540065e-02
9.529999999999999583e-01,5.988993985160211142e-02,-2.336820103327489628e-01,1.689294372605709971e-01
9.539999999999999591e-01,2.990440553851249073e-01,2.286609784796905243e-01,-1.537119977050871722e-01
9.549999999999999600e-01,-1.169123568414544845e-01,4.766396885928746996e-01,-5.115998075653395150e-01
9.559999999999999609e-01,-6.613870496115100694e-01,2.233137947543305801e-01,-5.119909401703542917e-01
9.569999999999999618e-01,-6.920709387877365115e-01,-1.494453450101604630e-01,-1.273349051926239150e-01
9.579999999999999627e-01,-1.669277615389050951e-01,-2.051091393969613763e-01,1.256342957809721272e-01
9.589999999999999636e-01,3.456312019294580651e-01,1.597064557051575961e-01,1.041386787855742152e-02
9.599999999999999645e-01,2.223859572355955383e-01,4.614880035119667268e-01,-3.679803659739049326e-01
9.609999999999999654e-01,-3.207849147300937398e-01,4.069763480149579116e-01,-5.587499421875159467e-01
9.619999999999999662e-01,-5.846569249132306245e-01,9.484383334123333564e-02,-3.450313551353267338e-01
9.629999999999999671e-01,-2.551820733569242772e-01,-7.211221218870780825e-02,2.739352515892038570e-02
9.639999999999999680e-01,2.885760783311309696e-01,1.127335375183537713e-01,1.279358871357823002e-01
9.649999999999999689e-01,4.296769071105984716e-01,4.393023642154422204e-01,-1.288228835340276268e-01
9.659999999999999698e-01,8.247036096106223624e-02,4.821056380892451143e-01,-4.418148973824591041e-01
9.669999999999999707e-01,-3.085549926907116269e-01,2.821208074964652868e-01,-4.377990123401783173e-01
9.679999999999999716e-01,-2.581015522682388319e-01,7.558388198707004235e-02,-1.202032043495136204e-01
9.689999999999999725e-01,1.780394911256119594e-01,1.176403486925263198e-01,1.282387826881571935e-01
9.699999999999999734e-01,5.040004557217788728e-01,3.366048821411735670e-01,6.237029644457875444e-02
9.709999999999999742e-01,3.833398472935642953e-01,4.506209856909883515e-01,-2.383345882119627668e-01
9.719999999999999751e-01,3.297137856766215597e-02,3.421669572233460022e-01,-3.906242175313416332e-01
9.729999999999999760e-01,-1.092174161438344976e-01,1.699146494955898479e-01,-2.126676229209602254e-01
9.739999999999999769e-01,1.240220643191223965e-01,1.399958532721885529e-01,8.075980512746831763e-02
9.749999999999999778e-01,4.541511290440490289e-01,2.580929008398155644e-01,1.831432268627219417e-01
9.759999999999999787e-01,5.341376466866933903e-01,3.550840062064851699e-01,-1.200185330969475578e-02
9.769999999999999796e-01,2.673625964764324014e-01,2.930012508080390154e-01,-2.228129031550773465e-01
9.779999999999999805e-01,9.285779139742868227e-02,1.781964977713020037e-01,-1.922641593696237383e-01
9.789999999999999813e-01,1.611494506437414209e-01,1.706093156543748435e-01,4.097680001341345163e-02
9.799999999999999822e-01,3.891236623077767853e-01,2.309472204728186262e-01,2.050344140172286056e-01
9.809999999999999831e-01,5.079661704322506743e-01,2.341012314390858995e-01,1.654518540339653954e-01
9.819999999999999840e-01,4.098104762224838993e-01,1.755398871945897388e-01,-3.153320009386590718e-03
9.829999999999999849e-01,2.480490551007455691e-01,9.031025160505257166e-02,-1.038204801587507276e-01
9.839999999999999858e-01,2.334337814880667328e-01,1.021408267766100858e-01,1.704094587592202420e-02
9.849999999999999867e-01,3.648471897167374078e-01,1.941383865941512799e-01,1.933941497288266809e-01
9.859999999999999876e-01,4.327375035525998226e-01,1.647337797702057016e-01,2.527466294131127111e-01
9.869999999999999885e-01,3.676861709318038351e-01,1.954154792761131701e-02,1.408728996560123237e-01
9.879999999999999893e-01,2.779464327693083048e-01,-9.182452707217997334e-02,5.068459858308500127e-02
9.889999999999999902e-01,2.889943472793974899e-01,-2.849446151114226611e-02,6.844949450686950432e-02
9.899999999999999911e-01,3.761415810848690033e-01,1.164933490868637900e-01,1.726273299605829703e-01
9.909999999999999920e-01,3.630686586922085013e-01,1.379583457930797508e-01,2.477984907384019608e-01
9.919999999999999929e-01,2.459181571718761783e-01,-5.207751508239789190e-02,2.084667948302608154e-01
9.929999999999999938e-01,1.388894371751276946e-01,-2.585311375910704923e-01,1.422511806888243635e-01
9.939999999999999947e-01,2.398446161689385681e-01,-2.378875029168997790e-01,1.635103381928591504e-01
9.949999999999999956e-01,3.725171682939983908e-01,6.295541656847846064e-03,2.212445045438566071e-01
9.959999999999999964e-01,3.297378486255898022e-01,1.318316774014312853e-01,2.419255552437625245e-01
9.969999999999999973e-01,1.143557891023849887e-01,-6.197532863047301027e-02,2.044268951913832677e-01
9.979999999999999982e-01,-5.524070143758298690e-02,-3.790486176641962857e-01,1.593157422110684784e-01
9.989999999999999991e-01,3.155920863758373412e-02,-4.649910502722943151e-01,1.949059790894501487e-01
1.000000000000000000e+00,2.610969190661784900e-01,-2.027760143496295797e-01,2.375078162146661565e-01
1.000999999999999890e+00,3.289857694846059499e-01,8.076369835845562117e-02,2.399963878595675892e-01
1.002000000000000002e+00,8.522001514165525315e-02,1.512883733041673132e-02,1.735764710873624606e-01
1.002999999999999892e+00,-2.523563356904879318e-01,-3.678222189329132252e-01,1.033388736332985225e-01
1.004000000000000004e+00,-2.738634096208873436e-01,-6.219788080645344275e-01,1.474483520166639805e-01
1.004999999999999893e+00,2.884037928819568886e-02,-4.385970115107361567e-01,2.482414012915199197e-01
1.006000000000000005e+00,2.849407788803539066e-01,-1.804510525425965031e-02,2.790429428800774714e-01
1.006999999999999895e+00,1.274502295442149769e-01,1.114739464998603796e-01,1.627168530057085394e-01
1.008000000000000007e+00,-3.332416967943877539e-01,-2.241519533000567166e-01,5.425794551087344438e-03
1.008999999999999897e+00,-5.548977931698735322e-01,-6.476345632337857650e-01,7.182524502912261341e-03
1.010000000000000009e+00,-3.006793262465202177e-01,-6.216476658611570505e-01,1.708743947045589240e-01
1.010999999999999899e+00,1.368710085743971572e-01,-1.831134246961083623e-01,2.853406224371549671e-01
1.012000000000000011e+00,1.948866875882357685e-01,1.604612896625866036e-01,1.901357395776211989e-01
1.012999999999999901e+00,-2.452209361170479829e-01,-7.631753295357306989e-03,-2.715521005781011341e-02
1.014000000000000012e+00,-6.912708901922145488e-01,-5.191014683993653289e-01,-1.553512938613187677e-01
1.014999999999999902e+00,-6.579259514789861374e-01,-6.937153612942342784e-01,-3.912213701437481338e-03
1.016000000000000014e+00,-1.312408272639699891e-01,-3.555611931487553390e-01,1.990115908359939567e-01
1.016999999999999904e+00,2.086388884394762000e-01,1.534244738616652726e-01,2.359610094895904508e-01
1.018000000000000016e+00,-4.159232692915732638e-02,2.134176015326486597e-01,1.123022072095266168e-03
1.018999999999999906e+00,-6.463552380576114142e-01,-2.540178251302564472e-01,-2.698500170353201888e-01
1.020000000000000018e+00,-8.747377051481749488e-01,-6.281502994647711891e-01,-2.469919576707565456e-01
1.020999999999999908e+00,-4.673022210128567333e-01,-4.875761016133242087e-01,2.321087740072526329e-02
1.022000000000000020e+00,1.245883095484378172e-01,5.739101961561614978e-02,2.135102952906503537e-01
1.022999999999999909e+00,1.640447349816315792e-01,3.975808829657782040e-01,5.751738217559004829e-02
1.024000000000000021e+00,-4.009779015150400361e-01,9.637294621324971056e-02,-2.610088152639775116e-01
1.024999999999999911e+00,-9.038188428679940767e-01,-4.246041850356801484e-01,-4.217059990731679142e-01
1.026000000000000023e+00,-7.457247980667202070e-01,-5.306006807042448203e-01,-2.128678374610450674e-01
1.026999999999999913e+00,-8.993102110095779755e-02,-5.498106710365346927e-02,1.023894931326122804e-01
1.028000000000000025e+00,3.054965054513372746e-01,4.575959789601793948e-01,1.475413224049909877e-01
1.028999999999999915e+00,-2.549560052232771601e-02,4.006117261916860572e-01,-1.717890496278874912e-01
1.030000000000000027e+00,-6.817816463975514552e-01,-9.132291501948659740e-02,-4.831468090726544484e-01
1.030999999999999917e+00,-8.739407333360340591e-01,-4.239844077913765275e-01,-4.468411995523377533e-01
1.032000000000000028e+00,-3.413313570195357083e-01,-1.627049752225708523e-01,-1.053833710960968006e-01
1.032999999999999918e+00,3.051510915944101732e-01,4.110784287438916662e-01,1.534368280343266500e-01
1.034000000000000030e+00,3.143312637483413607e-01,5.945500860383269304e-01,7.757324611261410749e-03
1.034999999999999920e+00,-2.957986427739282553e-01,2.473344659143207058e-01,-3.848089487614700377e-01
1.036000000000000032e+00,-7.758409961164427493e-01,-2.323036315846380151e-01,-5.843758646498451448e-01
1.036999999999999922e+00,-5.423595994372639728e-01,-2.152205945571795676e-01,-3.360826262775137852e-01
1.038000000000000034e+00,1.634804240291492794e-01,2.617438803220423771e-01,6.588013484348606563e-02
1.038999999999999924e+00,5.413690625179625737e-01,6.488261492502571670e-01,1.623759837640991743e-01
1.040000000000000036e+00,1.544542798617270507e-01,5.091529852876253148e-01,-1.839667341155570013e-01
1.040999999999999925e+00,-4.485190921274220255e-01,3.804778307733670817e-02,-5.315360541929319282e-01
1.042000000000000037e+00,-5.698072994109383282e-01,-1.822336560561744478e-01,-5.058839491615166883e-01
1.042999999999999927e+00,-4.585701430186112787e-02,1.251537373229160699e-01,-1.094581975472830593e-01
1.044000000000000039e+00,5.786916859726483064e-01,5.745865937204405194e-01,1.886785638353489780e-01
1.044999999999999929e+00,5.418388018964976904e-01,6.472317156689768591e-01,7.599026771569888927e-02
1.046000000000000041e+00,-2.284214989392300763e-02,2.829397640619981669e-01,-3.296897440304136229e-01
1.046999999999999931e+00,-4.301133277447483083e-01,-7.800751492151974942e-02,-5.227198660218186355e-01
1.048000000000000043e+00,-1.621010029799165864e-01,1.360632166355380283e-03,-2.868097248014634948e-01
1.048999999999999932e+00,4.667612408945865377e-01,4.101968069974892828e-01,1.407866992999808053e-01
1.050000000000000044e+00,7.544881053165737317e-01,6.199029837456703218e-01,2.365477124018778021e-01
1.050999999999999934e+00,4.059228050391356368e-01,4.113131470304958182e-01,-2.485787834153553935e-02
1.052000000000000046e+00,-1.502400450599389869e-01,4.624389855446432024e-02,-3.642510943194626205e-01
1.052999999999999936e+00,-2.071662427871983903e-01,-4.452922423039379352e-02,-3.680755704164284103e-01
1.054000000000000048e+00,2.801717781206911062e-01,2.160570722304240299e-01,-4.599001600619519528e-03
1.054999999999999938e+00,7.398468792333547928e-01,4.758620636878878041e-01,3.306466023803758536e-01
1.056000000000000050e+00,6.674740971157229197e-01,4.326795238263294596e-01,2.197362072598605109e-01
1.056999999999999940e+00,1.643743391740327686e-01,1.255841321568042512e-01,-1.078811402498461025e-01
1.058000000000000052e+00,-1.051955291812469162e-01,-6.635526066151981039e-02,-3.048897519852068472e-01
1.058999999999999941e+00,1.269170341129563784e-01,4.193374917520333034e-02,-1.114745629560865564e-01
1.060000000000000053e+00,5.794734482913183049e-01,2.575264973142605829e-01,2.605577088687301424e-01
1.060999999999999943e+00,7.416343916016774340e-01,3.079216591864987196e-01,3.835761321639111765e-01
1.062000000000000055e+00,4.378791521943498077e-01,1.137742501920042948e-01,1.532861668096271446e-01
1.062999999999999945e+00,4.128427991089655275e-02,-6.639391810460747168e-02,-1.295011194605255045e-01
1.064000000000000057e+00,4.622446243627496149e-02,-6.820971367535352825e-02,-1.354591989775628391e-01
1.064999999999999947e+00,3.719607096898571719e-01,6.546440208602834210e-02,1.524085960592949374e-01
1.066000000000000059e+00,6.220726349102567720e-01,1.294676700313597828e-01,4.172331687358356023e-01
1.066999999999999948e+00,5.017506374311085926e-01,2.434991587435158047e-02,3.437290375570286050e-01
1.068000000000000060e+00,1.711571652250686304e-01,-9.473775266554480823e-02,8.138128470733826947e-02
1.068999999999999950e+00,3.095055094180595295e-02,-1.117781763399670475e-01,-7.021289215807730022e-02
1.070000000000000062e+00,1.815672748578029405e-01,-4.493509233389608726e-02,8.380787553799469436e-02
1.070999999999999952e+00,4.155712351830865292e-01,-3.865534917909310003e-02,3.368298400397026771e-01
1.072000000000000064e+00,3.975725977319936044e-01,-1.351334265342415131e-01,4.095720471974413912e-01
1.072999999999999954e+00,1.847929912491054760e-01,-2.001253209992197302e-01,2.426216676500580482e-01
1.074000000000000066e+00,3.775140732486784861e-02,-1.851094896932595768e-01,5.096266422446373706e-02
1.074999999999999956e+00,6.825194075811231997e-02,-1.193314953628241276e-01,3.978176073840983956e-02
1.076000000000000068e+00,1.929907358011648255e-01,-1.316370843993727169e-01,2.312045151136357390e-01
1.076999999999999957e+00,1.958889094274521570e-01,-2.736109181444597582e-01,3.698948420276247373e-01
1.078000000000000069e+00,7.964036427929915840e-02,-3.262605176089016790e-01,2.896986613289828094e-01
1.078999999999999959e+00,-2.480321799720949794e-02,-2.549235052009501401e-01,1.467800000402146310e-01
1.080000000000000071e+00,-2.410826419791970918e-02,-1.058068702723445886e-01,6.691547059241644002e-02
1.080999999999999961e+00,5.233674148482347910e-02,-1.276398577048859784e-01,1.388384787353461047e-01
1.082000000000000073e+00,1.313485888697425025e-02,-3.093122322045419592e-01,2.588627357811552065e-01
1.082999999999999963e+00,-1.043562243975518222e-01,-4.632358594626166393e-01,2.599128063354619878e-01
1.084000000000000075e+00,-1.788567472402413372e-01,-3.568054527486394512e-01,1.548075225383535314e-01
1.084999999999999964e+00,-9.920728068374279340e-02,-1.161051729390002590e-01,7.522098560360578057e-02
1.086000000000000076e+00,-1.053882069720901704e-02,-5.898482919092368215e-02,1.071720742692975625e-01
1.086999999999999966e+00,-9.890965722555326856e-02,-2.645463052617408328e-01,1.529172618917561954e-01
1.088000000000000078e+00,-3.061447646378056553e-01,-5.198139616971150234e-01,1.708450340898114150e-01
1.088999999999999968e+00,-3.911645019933288614e-01,-4.649815479700633025e-01,8.737086358221629601e-02
1.090000000000000080e+00,-2.599352505042807349e-01,-1.630461908375217817e-01,2.438799871138229436e-02
1.090999999999999970e+00,-5.953422941992685125e-02,6.238946088207569102e-02,6.984381192837708918e-02
1.092000000000000082e+00,-1.064410503975080358e-01,-8.401824961598675090e-02,1.087741087656312333e-01
1.092999999999999972e+00,-3.694946612155858290e-01,-4.464765935250344375e-01,7.813655231607341545e-02
1.094000000000000083e+00,-5.804578105107417452e-01,-5.434448796762438860e-01,-2.717610249719930315e-02
1.094999999999999973e+00,-4.741024119444083307e-01,-2.595885984363552335e-01,-5.820934375481399276e-02
1.096000000000000085e+00,-1.263870210137936767e-01,1.416822650056512312e-01,-6.316072605602268686e-03
1.096999999999999975e+00,-4.218684271588789975e-03,1.452057803115461287e-01,6.373059299829653135e-02
1.098000000000000087e+00,-2.742376981502895883e-01,-2.242589506405177346e-01,2.590197864454777191e-02
1.098999999999999977e+00,-6.434998146855896994e-01,-5.201303266625482147e-01,-1.109932198661504749e-01
1.100000000000000089e+00,-6.794715331687490867e-01,-3.265372410156101024e-01,-2.228107872002170198e-01
1.100999999999999979e+00,-2.825383896965127373e-01,1.507280844801694719e-01,-1.379605479878754370e-01
1.102000000000000091e+00,7.062893211562863705e-02,3.675437792805658632e-01,-1.492008776373955755e-03
1.102999999999999980e+00,-5.483901781944498788e-02,7.758231108901855744e-02,2.208146917046869412e-02
1.104000000000000092e+00,-5.352807167340029038e-01,-3.754597227668592385e-01,-1.298858770975165056e-01
1.104999999999999982e+00,-7.883451732824018343e-01,-3.809326276166699610e-01,-3.166921290765674635e-01
1.106000000000000094e+00,-4.817561920658581798e-01,8.746331061653700445e-02,-3.181964161057310170e-01
1.106999999999999984e+00,6.555681896809452402e-02,5.019884805571273034e-01,-1.095586072432369329e-01
1.108000000000000096e+00,1.833709140600525700e-01,4.064798322387494500e-01,3.576225571897894556e-02
1.108999999999999986e+00,-2.281660099050563661e-01,-1.086680034885301321e-01,-6.026931698619994449e-02
1.110000000000000098e+00,-7.094035967057339409e-01,-3.639998854556567576e-01,-3.225245547077373320e-01
1.110999999999999988e+00,-6.346586856406205568e-01,-4.391283545316582854e-02,-4.524018207364716160e-01
1.112000000000000099e+00,-5.138119686228306837e-02,4.941101396401276213e-01,-2.729025625514164832e-01
1.112999999999999989e+00,3.799518287052384147e-01,6.410299159874474073e-01,-1.391417403721840682e-02
1.114000000000000101e+00,1.914290527805147801e-01,2.085279612082474865e-01,5.596352577351997731e-02
1.114999999999999991e+00,-4.199153861390580444e-01,-2.375981092334074340e-01,-2.153458998989776496e-01
1.116000000000000103e+00,-6.646829071782993648e-01,-1.587565083558709067e-01,-4.715350629970304630e-01
1.116999999999999993e+00,-2.286407253281430296e-01,3.764678869415683526e-01,-4.334564479369337198e-01
1.118000000000000105e+00,4.259071252180852141e-01,7.491271454969236077e-01,-1.328552658248203788e-01
1.118999999999999995e+00,5.319018117242777510e-01,5.101560614554502271e-01,1.100515931184700841e-01
1.120000000000000107e+00,1.089697110626839001e-02,-2.209414754045196244e-02,-7.471049063510039681e-03
1.120999999999999996e+00,-5.108628748218763116e-01,-2.209971734261927390e-01,-3.512582404047401852e-01
1.122000000000000108e+00,-3.837719688398762985e-01,1.712710374346699538e-01,-5.031269699610573243e-01
1.122999999999999998e+00,3.121384797778579134e-01,6.927870086269437566e-01,-2.758063166251842890e-01
1.124000000000000110e+00,7.600195145001200636e-01,6.961358420836691874e-01,7.956821504783817556e-02
1.125000000000000000e+00,4.709640345983205356e-01,1.898541163116325703e-01,1.786752848219863576e-01
1.125999999999999890e+00,-1.842145701529637469e-01,-1.950687791728898668e-01,-1.013553015900875154e-01
1.127000000000000002e+00,-4.146936121863473157e-01,-3.865605954199633626e-02,-4.261992694461363418e-01
1.127999999999999892e+00,9.938085172035358850e-02,4.658559628549732157e-01,-3.990807907486037531e-01
1.129000000000000004e+00,7.506378643421551811e-01,7.074777239018421593e-01,-1.218344179432463009e-02
1.129999999999999893e+00,8.241076837529357491e-01,3.849948009203442156e-01,2.811407654047011762e-01
1.131000000000000005e+00,2.402398007353568343e-01,-1.024241357983138173e-01,1.857351943293676366e-01
1.131999999999999895e+00,-2.872684406709286042e-01,-1.965197279331137581e-01,-2.062436404249796684e-01
1.133000000000000007e+00,-1.237573105261531997e-01,2.037447074040313610e-01,-3.835598856790732314e-01
1.133999999999999897e+00,5.510109886037575233e-01,5.671267198663034748e-01,-1.399832435735645086e-01
1.135000000000000009e+00,9.449183601849752145e-01,4.693653753429448683e-01,2.778643234608869084e-01
1.135999999999999899e+00,6.020522543584365671e-01,2.524169415621623641e-02,3.972028012682472520e-01
1.137000000000000011e+00,-2.604279975582009243e-02,-2.752252931007233561e-01,9.023183566661460708e-02
1.137999999999999901e+00,-2.190262948010713584e-01,-8.623625338590426570e-02,-2.556956963875857691e-01
1.139000000000000012e+00,2.482644729613243673e-01,3.195257508504048549e-01,-2.407093991556422674e-01
1.139999999999999902e+00,8.236611843987985404e-01,4.201301486475917391e-01,1.582321794709276030e-01
1.141000000000000014e+00,8.145347211473947802e-01,8.327349671707433287e-02,4.756427661734955459e-01
1.141999999999999904e+00,2.444360248889577703e-01,-2.812858008561271994e-01,3.745418771878448738e-01
1.143000000000000016e+00,-1.954567109085874888e-01,-2.697469202430336499e-01,-2.112672152663234298e-02
1.143999999999999906e+00,-3.229477142429787451e-02,4.584034653445728802e-02,-2.163399133638112815e-01
1.145000000000000018e+00,5.288896550159266630e-01,2.586993010514559432e-01,2.739233220896600696e-03
1.145999999999999908e+00,7.891392524568259237e-01,7.036649837848951705e-02,3.836728570772249269e-01
1.147000000000000020e+00,4.450540249501508949e-01,-2.525843544027928655e-01,5.330053944840452695e-01
1.147999999999999909e+00,-9.377231885059397754e-02,-3.738200902738149645e-01,2.459966486898926274e-01
1.149000000000000021e+00,-2.249745463956352720e-01,-1.890484945195489430e-01,-8.672232513924407749e-02
1.149999999999999911e+00,1.728724556504440957e-01,3.515904829699379591e-02,-8.964000062212146291e-02
1.151000000000000023e+00,5.637208102207322824e-01,2.037497771807348507e-02,2.368424149051130967e-01
1.151999999999999913e+00,4.827881689582308455e-01,-2.246151965605387990e-01,5.173632444480085191e-01
1.153000000000000025e+00,3.265163303662035194e-02,-3.982115504889725544e-01,4.382028844999441008e-01
1.153999999999999915e+00,-2.711194615028135746e-01,-3.293569952873501849e-01,9.064800876656009532e-02
1.155000000000000027e+00,-1.198775787209525462e-01,-1.561478270239787247e-01,-8.308823571949469633e-02
1.155999999999999917e+00,2.297069236482578158e-01,-1.032221703405184071e-01,5.259560837802524508e-02
1.157000000000000028e+00,3.422912276658987007e-01,-2.374750508545122041e-01,3.683071705042810229e-01
1.157999999999999918e+00,6.608664796345256609e-02,-3.608979495653981684e-01,4.876513119077169334e-01
1.159000000000000030e+00,-2.699480348327161772e-01,-3.315167318669635099e-01,2.547519269302274125e-01
1.159999999999999920e+00,-3.082919561391123109e-01,-2.420008324853034631e-01,-1.726360245081052722e-02
1.161000000000000032e+00,-6.476836364561842918e-02,-2.128326415005806493e-01,-4.611817334079106739e-02
1.161999999999999922e+00,1.218368557743417790e-01,-2.837321651226384356e-01,1.803889859271434748e-01
1.163000000000000034e+00,4.153505818286001502e-03,-3.214250502399403353e-01,3.563020365697966985e-01
1.163999999999999924e+00,-2.696611974451287308e-01,-2.882560613665935412e-01,3.055856240636584120e-01
1.165000000000000036e+00,-3.921353327078919149e-01,-2.005336501467832599e-01,5.212366759967045765e-02
1.165999999999999925e+00,-2.623808658581541220e-01,-2.099777972038300022e-01,-1.022905529552691622e-01
1.167000000000000037e+00,-1.214171529806155198e-01,-3.137413912818926010e-01,-1.281038741040429075e-03
1.167999999999999927e+00,-1.442564642553335608e-01,-3.206155795783027229e-01,1.945934596426574514e-01
1.169000000000000039e+00,-2.988335498633886145e-01,-2.076136435570617722e-01,2.351076136426361041e-01
1.169999999999999929e+00,-3.965176395781054852e-01,-9.706414753106375193e-02,8.369200760617062640e-02
1.171000000000000041e+00,-3.150451034391484884e-01,-1.459499334058267095e-01,-9.697742634770140091e-02
1.171999999999999931e+00,-2.582993716752696178e-01,-2.812999721276148724e-01,-9.969895823330317264e-02
1.173000000000000043e+00,-2.777414091796934770e-01,-3.402522169760908710e-01,3.053774163137012304e-02
1.173999999999999932e+00,-3.972818980034072411e-01,-1.575799283334304579e-01,9.134863327287597035e-02
1.175000000000000044e+00,-4.180179208962256920e-01,4.641347496011373475e-02,3.384372928746834375e-02
1.175999999999999934e+00,-3.054637709413336455e-01,5.542271025433697512e-02,-1.013109582134356784e-01
1.177000000000000046e+00,-2.394757075028171589e-01,-1.409167463892482541e-01,-1.349653264634166350e-01
1.177999999999999936e+00,-3.298484589930248401e-01,-2.996376784476666999e-01,-9.964254881718093149e-02
1.179000000000000048e+00,-4.733589253967319666e-01,-1.695563187837794694e-01,-3.043146037442686497e-02
1.179999999999999938e+00,-4.637913570338274005e-01,1.684456610891659212e-01,-6.550632024979438639e-02
