time,acc_x,acc_y,acc_z
0.000000000000000000e+00,-1.395595739283284620e-01,-2.327065531324771230e-01,5.866837797638803711e-03
1.000000000000000021e-03,-3.060539688791573121e-01,-3.257832618300510741e-01,-1.051578935601981818e-01
2.000000000000000042e-03,-4.106306051198042040e-01,-3.487748422913868329e-01,-1.987725870959846930e-01
3.000000000000000062e-03,-4.600181706443765006e-01,-3.450754303150174729e-01,-2.450146586081053679e-01
4.000000000000000083e-03,-4.304886829919501445e-01,-2.874900565904010552e-01,-2.682508024808625269e-01
5.000000000000000104e-03,-3.424659558401151882e-01,-1.658869944437431632e-01,-2.385288632638528084e-01
6.000000000000000125e-03,-2.005876952471163932e-01,-2.163060176313486710e-02,-2.184090450066808742e-01
7.000000000000000146e-03,-2.395902855106452761e-02,1.093216223873671594e-01,-1.131631747255864434e-01
8.000000000000000167e-03,1.244510965694570204e-01,2.453571013792157918e-01,-1.993069173120543339e-02
8.999999999999999320e-03,2.926758311539561785e-01,3.216698073483883480e-01,9.511654644307276918e-02
1.000000000000000021e-02,3.878161710585333877e-01,3.517067854238285496e-01,1.694254205240624256e-01
1.099999999999999936e-02,4.678867564634267562e-01,3.432523266430780873e-01,2.467538408285327722e-01
1.200000000000000025e-02,4.398161651899809010e-01,2.695718692529576188e-01,2.581385949054740836e-01
1.299999999999999940e-02,3.579761597809424378e-01,1.530186962449997801e-01,2.638316087966550150e-01
1.400000000000000029e-02,2.195998716320277933e-01,2.407810783102831698e-02,2.235573966139303148e-01
1.499999999999999944e-02,3.237021032072097404e-02,-1.309127984019268776e-01,9.679762697332879029e-02
1.600000000000000033e-02,-1.482065116924709824e-01,-2.369768886867916757e-01,1.612225733044653914e-02
1.700000000000000122e-02,-2.857049340275276683e-01,-3.226774505745314547e-01,-8.306142717904571593e-02
1.799999999999999864e-02,-4.059932700528781635e-01,-3.368595617001935993e-01,-1.760941177442069405e-01
1.899999999999999953e-02,-4.374800893342354891e-01,-3.420555355452083446e-01,-2.654791677569582897e-01
2.000000000000000042e-02,-4.316440286341172161e-01,-2.905684879873898785e-01,-2.558530966756064062e-01
2.100000000000000130e-02,-3.471263870710818988e-01,-1.634071981467848378e-01,-2.461123264640147357e-01
2.199999999999999872e-02,-2.115778514888750905e-01,-1.133616308766312135e-02,-2.281650161433059487e-01
2.299999999999999961e-02,-1.736838725265487521e-02,1.396188318268073159e-01,-1.374602234832984771e-01
2.400000000000000050e-02,1.254733337600172360e-01,2.202043507688622170e-01,-4.709419821446447080e-02
2.500000000000000139e-02,2.903654910494660180e-01,3.343261584245815210e-01,6.243101389920758387e-02
2.599999999999999881e-02,4.136460112170172176e-01,3.654715949977652700e-01,1.663142785138160828e-01
2.699999999999999969e-02,4.638654596945759323e-01,3.451341492765954144e-01,2.575666358115196175e-01
2.800000000000000058e-02,4.407391158307149559e-01,2.861968270281802784e-01,2.652623202354079113e-01
2.900000000000000147e-02,3.486619049566193618e-01,1.525317838420319483e-01,2.772819507120443672e-01
2.999999999999999889e-02,2.047641372789029135e-01,-1.209186999936225949e-03,2.299669591375033684e-01
3.099999999999999978e-02,7.429909086922097117e-02,-1.398567515690454788e-01,1.547886772777691544e-01
3.200000000000000067e-02,-1.490355735087296463e-01,-2.734549343827384349e-01,6.139667734238151570e-02
3.300000000000000155e-02,-2.720534461838344797e-01,-3.316227894441080570e-01,-4.737224848020236273e-02
3.400000000000000244e-02,-4.013054417817985553e-01,-3.697961592983931567e-01,-1.715271638577896829e-01
3.500000000000000333e-02,-4.436516490820962000e-01,-3.234473452968526508e-01,-2.351391664416040694e-01
3.599999999999999728e-02,-4.311349972938935404e-01,-2.561665748287885180e-01,-2.302974997173218019e-01
3.699999999999999817e-02,-3.401355923175389817e-01,-1.645905199371215655e-01,-2.590171802535860546e-01
3.799999999999999906e-02,-2.369058388309828733e-01,-5.063821156980424787e-03,-2.189869860417042458e-01
3.899999999999999994e-02,-6.707112532356547530e-02,1.275664054716214302e-01,-1.596018626089175663e-01
4.000000000000000083e-02,1.341269075789641163e-01,2.265115018511772438e-01,-7.674693063969888207e-02
4.100000000000000172e-02,2.713397817075527962e-01,3.580281254862983098e-01,4.872201490132969937e-02
4.200000000000000261e-02,3.977118940009961023e-01,3.521840220985837933e-01,1.388369789021909328e-01
4.299999999999999656e-02,4.499063179504985133e-01,3.104070449729166570e-01,2.059641551542394367e-01
4.399999999999999745e-02,4.161205897617378802e-01,2.726853699135218245e-01,2.642787552517127936e-01
4.499999999999999833e-02,3.315720591458080069e-01,1.295790036507768195e-01,2.544893343759982995e-01
4.599999999999999922e-02,2.049901899352416512e-01,-3.506207710983525968e-04,2.458251799264797866e-01
4.700000000000000011e-02,8.583791992599007492e-02,-1.501846773833488413e-01,1.608198774265539033e-01
4.800000000000000100e-02,-1.173158781457798450e-01,-2.496616430142686305e-01,7.507912058382197606e-02
4.900000000000000189e-02,-2.813136798287142470e-01,-3.481951898550010305e-01,-2.234909649696048550e-02
5.000000000000000278e-02,-3.914734053410715009e-01,-3.470355586501658873e-01,-1.369147391745657028e-01
5.099999999999999672e-02,-4.296575884729648132e-01,-3.099661264606999866e-01,-1.695079225183085958e-01
5.199999999999999761e-02,-4.487276674335051729e-01,-2.504205218808463473e-01,-2.423109419044385260e-01
5.299999999999999850e-02,-3.488235244047066530e-01,-1.468027429574256248e-01,-2.804760800959720801e-01
5.399999999999999939e-02,-2.205669697741529378e-01,4.607312892140995320e-03,-2.335462667854634466e-01
5.500000000000000028e-02,-6.529631687125699024e-02,1.669220112242993936e-01,-1.681379642569411081e-01
5.600000000000000117e-02,1.011329075750524858e-01,2.496042781760245410e-01,-8.254208025451688358e-02
5.700000000000000205e-02,2.671106597753236667e-01,3.146602486433822121e-01,2.095452412168803333e-02
5.800000000000000294e-02,3.817340715751553759e-01,3.445595423481717101e-01,1.072050285379878842e-01
5.899999999999999689e-02,4.456319489080798890e-01,3.356738604510726698e-01,1.879698166545326621e-01
5.999999999999999778e-02,4.438797582574197653e-01,2.515718870866572865e-01,2.599073063813769902e-01
6.099999999999999867e-02,3.705631787303546032e-01,1.417651799284243841e-01,2.589492940723422953e-01
6.199999999999999956e-02,2.400489873531432283e-01,-3.325942136879676131e-02,2.151993291637069317e-01
6.300000000000000044e-02,7.932620867885543936e-02,-1.475801285218936443e-01,1.973719410812025676e-01
6.400000000000000133e-02,-8.576307771241224731e-02,-2.427096053516818730e-01,1.078259977714303430e-01
6.500000000000000222e-02,-2.631822043172559189e-01,-3.546113181505856637e-01,-4.523465559194403407e-03
6.600000000000000311e-02,-3.929361633338361304e-01,-3.471584074403634701e-01,-1.331987154505627768e-01
6.700000000000000400e-02,-4.351201373314912413e-01,-3.023670464146053227e-01,-1.933791982346657889e-01
6.800000000000000488e-02,-4.333256139971863319e-01,-2.507556753304163721e-01,-2.524422804979176704e-01
6.900000000000000577e-02,-3.661004367522620040e-01,-1.411135222636520914e-01,-2.593063767587795998e-01
7.000000000000000666e-02,-2.223186261322713797e-01,3.515931209522477410e-03,-2.345641759685595795e-01
7.099999999999999367e-02,-8.498609336259738134e-02,1.585947475711685373e-01,-1.908933215116165594e-01
7.199999999999999456e-02,1.077290215563495301e-01,2.690250880169050562e-01,-1.048341022690552349e-01
7.299999999999999545e-02,2.611329219774946586e-01,3.439298714779728261e-01,-2.709337723895958658e-02
7.399999999999999634e-02,3.901135943671483752e-01,3.471565530011938017e-01,8.626457526373711160e-02
7.499999999999999722e-02,4.423622979022421298e-01,3.215335266861278907e-01,1.840938673260828495e-01
7.599999999999999811e-02,4.547468974984718582e-01,2.333065764521384255e-01,2.493145742485205485e-01
7.699999999999999900e-02,3.781866886419097407e-01,1.091384158377985969e-01,2.620249159444447695e-01
7.799999999999999989e-02,2.453773650116673199e-01,-2.198371316613503476e-02,2.716836175597353020e-01
7.900000000000000078e-02,8.591450066868230873e-02,-1.433805663956687348e-01,2.092499361128549729e-01
8.000000000000000167e-02,-9.507005942983322300e-02,-2.539956268762946223e-01,1.466553952029499841e-01
8.100000000000000255e-02,-2.526228165499698752e-01,-3.658530586509853300e-01,8.319396660908098817e-03
8.200000000000000344e-02,-3.827810446137510647e-01,-3.918524405080253126e-01,-1.112119057589239374e-01
8.300000000000000433e-02,-4.445763647075219316e-01,-3.156355853486495500e-01,-1.689080352985466715e-01
8.400000000000000522e-02,-4.315018869123424805e-01,-2.383132894841928917e-01,-2.452765966110237450e-01
8.500000000000000611e-02,-3.921289185399511878e-01,-1.291172570655980123e-01,-2.797538792295048982e-01
8.599999999999999312e-02,-2.644317457413387085e-01,4.095979843160967027e-02,-2.774561654120853982e-01
8.699999999999999400e-02,-8.287268041623224724e-02,1.967948660114416659e-01,-2.021692681579592143e-01
8.799999999999999489e-02,6.855427900315713696e-02,2.962450281055266643e-01,-1.128595195710670601e-01
8.899999999999999578e-02,2.390795297483134518e-01,3.354971377058276194e-01,-3.822426717184933959e-02
8.999999999999999667e-02,3.590673254016307769e-01,3.717387654258038632e-01,7.357922657781189313e-02
9.099999999999999756e-02,4.473711646426290489e-01,3.337648234216826770e-01,1.533250225009076817e-01
9.199999999999999845e-02,4.609184838791401395e-01,2.193022593812997689e-01,2.162490372364328783e-01
9.299999999999999933e-02,3.815424330754462745e-01,9.901262665453912371e-02,2.566990031338960421e-01
9.400000000000000022e-02,2.500969128279606490e-01,-3.433125282968332165e-02,2.536322975490403753e-01
9.500000000000000111e-02,9.615698510394422860e-02,-1.833333015386291176e-01,2.231394229920971861e-01
9.600000000000000200e-02,-7.365375224935324927e-02,-2.677354496477099000e-01,1.648736685475442332e-01
9.700000000000000289e-02,-2.351448451700008935e-01,-3.415498790126466067e-01,5.127967410201374199e-02
9.800000000000000377e-02,-3.643296869436198904e-01,-3.497775703865117491e-01,-4.472039841563555523e-02
9.900000000000000466e-02,-4.248922160330768638e-01,-3.027975220295126557e-01,-1.527151199761773159e-01
1.000000000000000056e-01,-4.164674506534119525e-01,-2.186466289575624833e-01,-2.022987057607840145e-01
1.010000000000000064e-01,-3.829904989820819283e-01,-9.352115370512961712e-02,-2.750494862496393744e-01
1.019999999999999934e-01,-2.622789498267821262e-01,4.654311986871701584e-02,-2.635999479134197299e-01
1.029999999999999943e-01,-9.230133177500342290e-02,1.768241310247227749e-01,-2.244482737496205360e-01
1.039999999999999952e-01,7.550911708192219185e-02,2.642900133056608758e-01,-1.573595217779577282e-01
1.049999999999999961e-01,2.021680330101822687e-01,3.587718181605104584e-01,-6.164811806956985857e-02
1.059999999999999970e-01,3.613947992841534673e-01,3.807473815027319630e-01,4.462921936061018530e-02
1.069999999999999979e-01,4.321296442627480250e-01,3.123256618841508403e-01,1.311792049236755464e-01
1.079999999999999988e-01,4.432948071217584496e-01,2.352558151887995663e-01,2.358508792812725186e-01
1.089999999999999997e-01,3.904196431287477731e-01,7.929716724688672114e-02,2.653180775533764413e-01
1.100000000000000006e-01,2.639818736572599467e-01,-5.240687052816309088e-02,2.415688349204345442e-01
1.110000000000000014e-01,1.167904053187089897e-01,-1.808071550756850110e-01,2.048593648120968502e-01
1.120000000000000023e-01,-7.086400981501160545e-02,-2.852880185549958036e-01,1.699975511729553135e-01
1.130000000000000032e-01,-2.126971929236368408e-01,-3.602948916744258545e-01,9.067216182483124609e-02
1.140000000000000041e-01,-3.682365753726463686e-01,-3.886121353273511714e-01,-2.482156384102586141e-02
1.150000000000000050e-01,-4.244216285836696079e-01,-2.927897734135389562e-01,-1.089582111203660358e-01
1.160000000000000059e-01,-4.308724554367465709e-01,-2.156091499872540840e-01,-1.862729372371794145e-01
1.170000000000000068e-01,-3.938973756885089106e-01,-8.962063922946120198e-02,-2.628142491429715233e-01
1.179999999999999938e-01,-2.703085771244974622e-01,6.068420439242351583e-02,-2.698646297887026813e-01
1.189999999999999947e-01,-1.300735173314274962e-01,1.934868831752684093e-01,-2.177191800597357008e-01
1.199999999999999956e-01,4.924941265483535197e-02,2.881837796385371409e-01,-1.677483664768283644e-01
1.209999999999999964e-01,2.011031445473949741e-01,3.524963473313211249e-01,-9.575638278079742771e-02
1.219999999999999973e-01,3.714560133443245982e-01,3.531554551194020508e-01,3.233573458159552660e-02
1.229999999999999982e-01,4.246635557734383948e-01,3.101310966342180064e-01,1.071384280390242222e-01
1.239999999999999991e-01,4.489702319236811290e-01,2.218441950810746688e-01,1.822639954959481279e-01
1.250000000000000000e-01,4.032495016362547258e-01,7.150151083821315590e-02,2.636106960525013698e-01
1.260000000000000009e-01,2.935150564011541618e-01,-7.332102899133335905e-02,2.653568533058491274e-01
1.270000000000000018e-01,1.361625768837278483e-01,-1.921324854770351254e-01,2.369902013307655098e-01
1.280000000000000027e-01,-2.551717865910476529e-02,-2.964480574250806244e-01,1.555039922931650276e-01
1.290000000000000036e-01,-2.073033781108950258e-01,-3.535153108737852379e-01,9.761517904804146994e-02
1.300000000000000044e-01,-3.313986008723389109e-01,-3.559138790944052499e-01,-4.713503980004162854e-03
1.310000000000000053e-01,-4.143974843552471476e-01,-2.819714095327906511e-01,-1.230355784632352345e-01
1.320000000000000062e-01,-4.601559628304018323e-01,-2.107446612255921836e-01,-2.028015649714568769e-01
1.330000000000000071e-01,-4.014499905038084182e-01,-8.284282318656333022e-02,-2.359690751333825831e-01
1.340000000000000080e-01,-3.048527139458253044e-01,7.039454810586195932e-02,-2.639054112870184432e-01
1.350000000000000089e-01,-1.446577355209685556e-01,2.113833946611778647e-01,-2.644353279921174971e-01
1.360000000000000098e-01,4.273661655705798812e-02,2.858841495844253733e-01,-2.116017862699559882e-01
1.370000000000000107e-01,1.876886399670625039e-01,3.313854524413578639e-01,-1.122906354823948183e-01
1.380000000000000115e-01,3.316975593721923632e-01,3.504150143315692967e-01,-2.909550776145630388e-02
1.390000000000000124e-01,4.266874712051121343e-01,3.063039652569550242e-01,8.497427466188003931e-02
1.400000000000000133e-01,4.421743546443817063e-01,1.904538713756982748e-01,1.954853608443895274e-01
1.409999999999999865e-01,3.888669792349651599e-01,6.275512409647292233e-02,2.307722139675549289e-01
1.419999999999999873e-01,3.006810426702817285e-01,-7.182864591072832261e-02,2.609142580674704281e-01
1.429999999999999882e-01,1.379631248763585616e-01,-1.943146978656820067e-01,2.640410775764968077e-01
1.439999999999999891e-01,-4.283910166945848613e-02,-3.052359851281311598e-01,2.034247943896982103e-01
1.449999999999999900e-01,-2.095117361524239663e-01,-3.466414505543984892e-01,1.303993107519074712e-01
1.459999999999999909e-01,-3.563637592242048791e-01,-3.261651153752646581e-01,1.429678978149141744e-02
1.469999999999999918e-01,-4.205476873659538262e-01,-2.691279620580779297e-01,-8.318734872610374087e-02
1.479999999999999927e-01,-4.548065829237586399e-01,-1.871483242078729459e-01,-1.825627061361317360e-01
1.489999999999999936e-01,-4.115661036803600070e-01,-6.270067027758655098e-02,-2.199763798909394052e-01
1.499999999999999944e-01,-3.028573206146217833e-01,5.839478887075797570e-02,-2.908871500757918560e-01
1.509999999999999953e-01,-1.384257491265679929e-01,2.045077817827552491e-01,-2.612587747645492287e-01
1.519999999999999962e-01,2.870741345014984902e-02,3.046052371640192713e-01,-2.156543293753979129e-01
1.529999999999999971e-01,1.905471113790906945e-01,3.503659929425359532e-01,-1.438694879753706357e-01
1.539999999999999980e-01,3.631519452096425571e-01,3.416154380363646825e-01,-3.885372043184614349e-02
1.549999999999999989e-01,4.122988911104251697e-01,2.856680320919376403e-01,7.145261571110821108e-02
1.559999999999999998e-01,4.443054052161901635e-01,1.949467053820403140e-01,1.690837307131105027e-01
1.570000000000000007e-01,3.892260038986338766e-01,5.181326782080005605e-02,2.444763903621785806e-01
1.580000000000000016e-01,2.868216845235359580e-01,-8.626468375785267817e-02,2.666927383204336643e-01
1.590000000000000024e-01,1.599552058644234109e-01,-2.154371726851695146e-01,2.697039965391480054e-01
1.600000000000000033e-01,-1.802814669217652974e-02,-2.985151354779703725e-01,1.957158764588045330e-01
1.610000000000000042e-01,-1.802537228679411963e-01,-3.571617097287326237e-01,1.413433845138461764e-01
1.620000000000000051e-01,-3.268152861716452362e-01,-3.398926945031679470e-01,3.898940907048606408e-02
1.630000000000000060e-01,-4.123226650456474629e-01,-3.013097997654243798e-01,-6.736388536578141739e-02
1.640000000000000069e-01,-4.589809137239914127e-01,-1.581177022801831256e-01,-1.402452692570064496e-01
1.650000000000000078e-01,-3.998834830913459704e-01,-3.764076924457825102e-02,-2.225349522452043649e-01
1.660000000000000087e-01,-3.042350329281687249e-01,8.231836263543541865e-02,-2.656846258238753089e-01
1.670000000000000095e-01,-1.591356202951059728e-01,2.227851013664827184e-01,-2.587692762570920624e-01
1.680000000000000104e-01,-4.127549910614567580e-03,3.178114089466366754e-01,-2.262496803538822931e-01
1.690000000000000113e-01,1.654889070677960927e-01,3.691229467675699039e-01,-1.427650537353325755e-01
1.700000000000000122e-01,3.163261448398511644e-01,3.550831775529345591e-01,-6.178623103144972178e-02
1.710000000000000131e-01,3.956960054434869312e-01,2.763918683840206891e-01,4.219949623351017948e-02
1.719999999999999862e-01,4.361871532388363892e-01,1.709404135814711623e-01,1.523608527742295327e-01
1.729999999999999871e-01,4.178204107227004860e-01,7.179267892334732781e-02,2.305005601760129752e-01
1.739999999999999880e-01,3.077853194835941664e-01,-9.761347973602406414e-02,2.613880901038485582e-01
1.749999999999999889e-01,1.713403999738629113e-01,-2.485627496311533513e-01,2.882330649399514888e-01
1.759999999999999898e-01,-2.281713157237103429e-03,-3.193034181535219229e-01,2.324909199273310079e-01
1.769999999999999907e-01,-1.899921914428724656e-01,-3.592872715391876026e-01,1.848114242334791546e-01
1.779999999999999916e-01,-3.189828011919539907e-01,-3.511833408997834804e-01,5.450936448278573265e-02
1.789999999999999925e-01,-3.968550581176066849e-01,-2.933112494339917831e-01,-2.930227477576838324e-02
1.799999999999999933e-01,-4.414508478648875855e-01,-1.708362532640297082e-01,-1.383596464711478180e-01
1.809999999999999942e-01,-4.143748805384940836e-01,-1.885156086545492285e-02,-2.265139458631177105e-01
1.819999999999999951e-01,-3.123237771389265616e-01,9.902760497404342055e-02,-2.512229657158059348e-01
1.829999999999999960e-01,-1.701614244153442090e-01,2.226546784839774917e-01,-2.586300599457770910e-01
1.839999999999999969e-01,-2.322407470374689576e-03,3.149816632626950552e-01,-2.398381272094115002e-01
1.849999999999999978e-01,1.641103117766661568e-01,3.452114812280145939e-01,-1.916715544881566202e-01
1.859999999999999987e-01,3.199260091553847718e-01,3.468038087418027771e-01,-8.762010369524772524e-02
1.869999999999999996e-01,4.038820888195941983e-01,2.853053446300123364e-01,1.419126393875982765e-02
1.880000000000000004e-01,4.725540806949261041e-01,1.766761698347623921e-01,1.314028794472966999e-01
1.890000000000000013e-01,4.231430270555949225e-01,4.464747269960639420e-02,2.024722593146611183e-01
1.900000000000000022e-01,3.366272638645571580e-01,-1.116687666534941226e-01,2.814427610170304184e-01
1.910000000000000031e-01,1.731381268095610881e-01,-2.324479512637685485e-01,2.653937262699793131e-01
1.920000000000000040e-01,3.899875225589807815e-03,-3.382500801052391037e-01,2.477615322603267667e-01
1.930000000000000049e-01,-1.629526591902768218e-01,-3.692647286192829448e-01,1.723666210292111312e-01
1.940000000000000058e-01,-3.343674386689119427e-01,-3.470598607436157779e-01,6.658380232268452936e-02
1.950000000000000067e-01,-4.115419595877596870e-01,-2.680082757520271253e-01,1.151243527007532810e-02
1.960000000000000075e-01,-4.371964697520633325e-01,-1.625775970423264383e-01,-1.021897314149800562e-01
1.970000000000000084e-01,-4.253421619285731037e-01,-1.490614581150659021e-02,-1.941713853527888278e-01
1.980000000000000093e-01,-3.159100359715653061e-01,1.023698847166318870e-01,-2.602430355472359902e-01
1.990000000000000102e-01,-1.881650288251909831e-01,2.201565511266791453e-01,-2.482760480689853166e-01
2.000000000000000111e-01,-2.295349570860073102e-03,3.280493656051986506e-01,-2.709787848338973681e-01
2.010000000000000120e-01,1.662442532402405859e-01,3.276830152977506239e-01,-2.018680951068605456e-01
2.020000000000000129e-01,2.926925645802186948e-01,3.459712553141625069e-01,-7.670254056538389209e-02
2.030000000000000138e-01,4.012346369299634175e-01,2.762840436149300860e-01,-5.523854176018644022e-03
2.039999999999999869e-01,4.302932399379596484e-01,1.862034629930085783e-01,1.078658224265813120e-01
2.049999999999999878e-01,4.281640468902294105e-01,4.217471191262733149e-02,1.613504999648756599e-01
2.059999999999999887e-01,3.450098654368212725e-01,-1.049296456584176834e-01,2.111487978737781601e-01
2.069999999999999896e-01,1.603883917401832948e-01,-2.340222076605355250e-01,2.681623705238529998e-01
2.079999999999999905e-01,1.243058420776572449e-02,-3.119559648278025232e-01,2.301650440760621419e-01
2.089999999999999913e-01,-1.183922152427419605e-01,-3.565773275600379599e-01,1.973958871104700974e-01
2.099999999999999922e-01,-3.059110658779293224e-01,-3.305799599075026629e-01,1.034319590865995925e-01
2.109999999999999931e-01,-3.897247313419229253e-01,-2.507341572955043008e-01,1.058027351739873265e-02
2.119999999999999940e-01,-4.497070284574249954e-01,-1.578333078332728734e-01,-1.002931782341385247e-01
2.129999999999999949e-01,-4.437549968493877395e-01,-1.308357638864226288e-03,-1.744173571086026497e-01
2.139999999999999958e-01,-3.303604543553735895e-01,1.112819399751835969e-01,-2.533744633687560199e-01
2.149999999999999967e-01,-1.927979243818358779e-01,2.384283693576892404e-01,-2.793822696985589493e-01
2.159999999999999976e-01,-2.999915508959006410e-02,2.971812821703747054e-01,-2.550086308514679656e-01
2.169999999999999984e-01,1.375622515028399884e-01,3.834230128442581709e-01,-2.136178206217688169e-01
2.179999999999999993e-01,2.793895151820210421e-01,3.480081045492705027e-01,-9.001962910934864504e-02
2.190000000000000002e-01,3.822322385530637079e-01,2.589838488094829416e-01,-1.812231637093597580e-02
2.200000000000000011e-01,4.760663533808606740e-01,1.549605007248619215e-01,6.898093794123082156e-02
2.210000000000000020e-01,4.293181156216612226e-01,1.142677377395000249e-02,1.445286945410483026e-01
2.220000000000000029e-01,3.534200276966630860e-01,-1.220444821319917467e-01,2.208783206407442523e-01
2.230000000000000038e-01,2.058594322585979852e-01,-2.395849641809783825e-01,2.625579386419438221e-01
2.240000000000000047e-01,3.942395749250172249e-02,-3.178321729847691235e-01,2.686694712921783856e-01
2.250000000000000056e-01,-1.327784707103003004e-01,-3.853193678520895893e-01,2.166029432012246958e-01
2.260000000000000064e-01,-2.903484470474222978e-01,-3.440526314930386076e-01,1.432775876681864902e-01
2.270000000000000073e-01,-4.040287357166046922e-01,-2.631466124612549806e-01,5.331015344002466849e-02
2.280000000000000082e-01,-4.522315103154969096e-01,-1.091698766755165584e-01,-5.323739908103179014e-02
2.290000000000000091e-01,-4.273139459328184619e-01,-2.421985475608106481e-02,-1.549073666428390506e-01
2.300000000000000100e-01,-3.420060996726675406e-01,9.615186983107507079e-02,-2.213973465219681303e-01
2.310000000000000109e-01,-2.313810495498620778e-01,2.525179057369858482e-01,-2.840076225916066677e-01
2.320000000000000118e-01,-4.077656415532232570e-02,3.105734452466327178e-01,-2.719956131229922525e-01
2.330000000000000127e-01,1.204701301111285872e-01,3.580382676233087036e-01,-2.363353395805705415e-01
2.340000000000000135e-01,2.821073808340113787e-01,3.258396203506102040e-01,-1.345811775041439173e-01
2.349999999999999867e-01,4.114125092820449248e-01,2.484433673535432485e-01,-5.884084786665232797e-02
2.359999999999999876e-01,4.405861054052540582e-01,1.526815008178843414e-01,4.729301561788576413e-02
2.369999999999999885e-01,4.312021891929621598e-01,-4.605793879302390835e-03,1.454357722381822149e-01
2.379999999999999893e-01,3.337586477663335716e-01,-1.210707747507870496e-01,2.348234980719248466e-01
2.389999999999999902e-01,2.148443827444383170e-01,-2.655353531475501128e-01,2.637871274349609108e-01
2.399999999999999911e-01,5.399188114091062196e-02,-3.189394736714074585e-01,2.725000932276266941e-01
2.409999999999999920e-01,-9.972743590234937894e-02,-3.649173687593337823e-01,2.252752830383976945e-01
2.419999999999999929e-01,-2.803578337267265685e-01,-3.245725671347005625e-01,1.595997719056917175e-01
2.429999999999999938e-01,-4.063668306612333581e-01,-2.423426663877778497e-01,7.326562911173228887e-02
2.439999999999999947e-01,-4.513528761191111793e-01,-1.737037171770590693e-01,-5.776119427689861002e-02
2.449999999999999956e-01,-4.297634348968131235e-01,-6.259948857975992757e-03,-1.359615463454157680e-01
2.459999999999999964e-01,-3.700716483346040420e-01,1.300384065241361742e-01,-2.276735595444759064e-01
2.469999999999999973e-01,-2.202960526750034898e-01,2.686722679361688848e-01,-2.571257774292221021e-01
2.479999999999999982e-01,-6.672122119633906723e-02,3.391107010582123937e-01,-2.779400566971059194e-01
2.489999999999999991e-01,1.276249165247044237e-01,3.731007951673125378e-01,-2.486198238437085095e-01
2.500000000000000000e-01,2.658337390319978621e-01,3.264956715120659880e-01,-1.795878368170646666e-01
2.510000000000000009e-01,3.706209771446752899e-01,2.467851013734990995e-01,-6.654150113016271684e-02
2.520000000000000018e-01,4.205487024699415266e-01,1.252063600111762709e-01,2.640126470146743690e-02
2.530000000000000027e-01,4.544936922941348323e-01,-1.256940186734193353e-02,1.300175922184880761e-01
2.540000000000000036e-01,3.449185718160716063e-01,-1.486186515185032864e-01,1.979869196570854528e-01
2.550000000000000044e-01,2.246606355125774224e-01,-2.511646757794593898e-01,2.572677755335440186e-01
2.560000000000000053e-01,6.466234080711548426e-02,-3.362517313525081875e-01,2.754049951746746494e-01
2.570000000000000062e-01,-1.102262139329859003e-01,-3.571241874252534809e-01,2.114096463611026266e-01
2.580000000000000071e-01,-2.632329101750233158e-01,-3.262210821060256838e-01,1.759147727554442875e-01
2.590000000000000080e-01,-3.917384681477070751e-01,-2.240986108237536523e-01,8.133745901152794611e-02
2.600000000000000089e-01,-4.481035328078316060e-01,-1.388792576179629368e-01,-1.162436839943211710e-02
2.610000000000000098e-01,-4.558840017397263189e-01,1.624498748933603937e-02,-1.129028555878224677e-01
2.620000000000000107e-01,-3.590594668716773907e-01,1.379766243656223301e-01,-2.209476985215702849e-01
2.630000000000000115e-01,-2.534862542206290370e-01,2.356439803313487291e-01,-2.451365714721476519e-01
2.640000000000000124e-01,-8.705106103487575409e-02,3.414197679116339201e-01,-2.950217295304283227e-01
2.650000000000000133e-01,1.092011037428220060e-01,3.615299440264168052e-01,-2.688239756702155425e-01
2.660000000000000142e-01,2.522821756397963799e-01,3.390627875481496134e-01,-1.935445759082680683e-01
2.670000000000000151e-01,3.701499970857234367e-01,2.339501442860749125e-01,-1.067722284457152115e-01
2.680000000000000160e-01,4.432378608638525841e-01,1.298710378796831544e-01,1.207908908284959643e-02
2.690000000000000169e-01,4.398417537202241601e-01,6.026610247852531854e-03,1.092773083658214184e-01
2.700000000000000178e-01,3.573179127714636860e-01,-1.517737029058732479e-01,1.883871790598529994e-01
2.710000000000000187e-01,2.333450040245871882e-01,-2.678623758225746054e-01,2.403815150511637577e-01
2.720000000000000195e-01,6.639754479425238887e-02,-3.339343107726169824e-01,2.537334239051788898e-01
2.730000000000000204e-01,-7.280004014043121863e-02,-3.654813022274494005e-01,2.568543117509756168e-01
2.740000000000000213e-01,-2.553349760633501497e-01,-3.304129357748986084e-01,1.997519429664693369e-01
2.750000000000000222e-01,-3.863707191432251831e-01,-2.546374828943832602e-01,1.274473675918962323e-01
2.760000000000000231e-01,-4.517218814663611637e-01,-1.101072987674836245e-01,4.452511522589849835e-02
2.770000000000000240e-01,-4.364333151008851219e-01,1.090825799697785377e-02,-1.019570008665213329e-01
2.780000000000000249e-01,-3.493237980632969419e-01,1.459421144373979073e-01,-1.920645987396621956e-01
2.790000000000000258e-01,-2.481038321302026506e-01,2.921014737237385139e-01,-2.521008079134030577e-01
2.800000000000000266e-01,-8.165116642719888462e-02,3.500668555073457311e-01,-2.617167581204544735e-01
2.810000000000000275e-01,9.196459646716072245e-02,3.623897340065789785e-01,-2.611656578759883884e-01
2.819999999999999729e-01,2.530558292652439478e-01,3.232745222748369951e-01,-2.136244236910192773e-01
2.829999999999999738e-01,3.645923071524427850e-01,2.490454368845479716e-01,-1.166520290922785086e-01
2.839999999999999747e-01,4.564312306503914840e-01,1.022569580710780551e-01,-3.046175553566312852e-02
2.849999999999999756e-01,4.521416507833015408e-01,-4.070131424032514406e-02,5.560189751509152234e-02
2.859999999999999765e-01,3.662745288377313169e-01,-1.709401126292111883e-01,1.693053210152498655e-01
2.869999999999999774e-01,2.702588813642793908e-01,-2.846571259290183731e-01,2.374491728224683851e-01
2.879999999999999782e-01,8.968982616526656459e-02,-3.447882567376803209e-01,2.605566616350494247e-01
2.889999999999999791e-01,-7.948665160772404314e-02,-3.611867923057907603e-01,2.803973947143034717e-01
2.899999999999999800e-01,-2.139645637351710594e-01,-3.246630199541266082e-01,1.844906857929655142e-01
2.909999999999999809e-01,-3.895104881253110829e-01,-2.297398526016253828e-01,1.470714152227766691e-01
2.919999999999999818e-01,-4.232566120691270140e-01,-1.237326133178093118e-01,4.007497792974359929e-02
2.929999999999999827e-01,-4.607736409929238941e-01,3.772952911984100294e-02,-5.668173606769024570e-02
2.939999999999999836e-01,-4.253738964087387386e-01,1.779033213018025583e-01,-1.650519950127088964e-01
2.949999999999999845e-01,-2.290962072913028669e-01,2.833076822527853533e-01,-2.143149143678258484e-01
2.959999999999999853e-01,-9.836226280934408372e-02,3.427480253243909147e-01,-2.435420565168797957e-01
2.969999999999999862e-01,8.229654141806190537e-02,3.540894114881414922e-01,-2.702032034101648494e-01
2.979999999999999871e-01,2.135647176618056531e-01,3.260991075617035162e-01,-1.955621362511930639e-01
2.989999999999999880e-01,3.834567435435651817e-01,2.227387313341532282e-01,-1.544561440415231079e-01
2.999999999999999889e-01,4.407212031682714026e-01,1.076946381551009968e-01,-5.703807692228077264e-02
3.009999999999999898e-01,4.505618151680914063e-01,-3.657701149125346107e-02,7.347083749447151646e-02
3.019999999999999907e-01,3.696091145601784200e-01,-1.844006806661908360e-01,1.615804849862756409e-01
3.029999999999999916e-01,2.799048590473370846e-01,-2.750068554553610212e-01,2.250448891763985881e-01
3.039999999999999925e-01,1.219508605447937044e-01,-3.372033203880496766e-01,2.695264644741703908e-01
3.049999999999999933e-01,-7.158339994346010760e-02,-3.542670771189659895e-01,2.525498985214185699e-01
3.059999999999999942e-01,-2.145535791046259411e-01,-3.295493365786317796e-01,2.390614788652883349e-01
3.069999999999999951e-01,-3.649602795841934699e-01,-2.274680830747662086e-01,1.417788789199482535e-01
3.079999999999999960e-01,-4.343976062902875079e-01,-9.222746684034555109e-02,5.195898614557849238e-02
3.089999999999999969e-01,-4.523342935941153664e-01,4.235491716900315756e-02,-3.578770643985811073e-02
3.099999999999999978e-01,-3.847007773334441549e-01,1.577613249727618794e-01,-1.646799928178958594e-01
3.109999999999999987e-01,-2.903793319884186985e-01,3.040380314124181971e-01,-2.100524735969421519e-01
3.119999999999999996e-01,-1.260863280078370063e-01,3.537552177875566417e-01,-2.785149499938468498e-01
3.130000000000000004e-01,4.682894460631860378e-02,3.700828720672554861e-01,-2.670625427285993614e-01
3.140000000000000013e-01,2.243097609336232312e-01,2.951381380450388559e-01,-2.307940126357038435e-01
3.150000000000000022e-01,3.448903586986727943e-01,2.368216283749765561e-01,-1.458142075601863707e-01
3.160000000000000031e-01,4.068171569682615951e-01,8.137085782652864197e-02,-5.746950613001206715e-02
3.170000000000000040e-01,4.397764789271847996e-01,-6.221421820647653200e-02,1.584783026188009078e-02
3.180000000000000049e-01,3.966148301987485469e-01,-1.857269679298479970e-01,9.680905386135829627e-02
3.190000000000000058e-01,2.675782027243481243e-01,-2.826019879996765627e-01,2.099277439639672949e-01
3.200000000000000067e-01,1.149572127960011569e-01,-3.549627795993365309e-01,2.474817365431495886e-01
3.210000000000000075e-01,-4.822274752700954348e-02,-3.809095799032395369e-01,2.676702506030074202e-01
3.220000000000000084e-01,-2.118541074669998414e-01,-3.046404842178457861e-01,2.450174469395188792e-01
3.230000000000000093e-01,-3.650670680761090026e-01,-2.203546810559086078e-01,1.513420445416880922e-01
3.240000000000000102e-01,-4.461015480952900125e-01,-1.009722025135321444e-01,8.478131956771933764e-02
3.250000000000000111e-01,-4.561464578531364000e-01,5.817373659628428950e-02,5.407097343503367709e-03
3.260000000000000120e-01,-3.898724477948864453e-01,1.825833498496524099e-01,-9.692744213553075583e-02
3.270000000000000129e-01,-3.011561966586924211e-01,2.864617787062702647e-01,-1.785197522960388361e-01
3.280000000000000138e-01,-1.398920765824782364e-01,3.765730047827728910e-01,-2.535428924891147129e-01
3.290000000000000147e-01,5.075329437357893603e-02,3.457365614191578729e-01,-2.683064048612941455e-01
3.300000000000000155e-01,2.153879652644442033e-01,2.923171826474045831e-01,-2.498786315317330087e-01
3.310000000000000164e-01,3.478921954433822905e-01,1.954176951067710943e-01,-1.857366480279404597e-01
3.320000000000000173e-01,4.420873671341349898e-01,1.015034032454894819e-01,-1.005387794269900215e-01
3.330000000000000182e-01,4.519065767503195330e-01,-5.703197090631065280e-02,-5.411871570838041153e-05
3.340000000000000191e-01,3.856611079128485775e-01,-1.816182783234792653e-01,1.381880304474892573e-01
3.350000000000000200e-01,2.674465438377214843e-01,-2.823251813063855642e-01,1.781724816995639560e-01
3.360000000000000209e-01,1.434063004758776572e-01,-3.505665994935238672e-01,2.373386956704261752e-01
3.370000000000000218e-01,-4.839543207551035009e-02,-3.659312081320190146e-01,2.717248782789829509e-01
3.380000000000000226e-01,-1.989816964814458411e-01,-3.126768108858595796e-01,2.460783609453278953e-01
3.390000000000000235e-01,-3.441816484863516323e-01,-2.000067905115983369e-01,2.058561162926954569e-01
3.400000000000000244e-01,-4.300847200830951733e-01,-7.677586416653425783e-02,1.071827358384505879e-01
3.410000000000000253e-01,-4.506571697193219594e-01,5.640158641416203461e-02,-1.073325286259765431e-03
3.420000000000000262e-01,-4.064806091700459145e-01,1.903751842231020674e-01,-9.288597649352305086e-02
3.430000000000000271e-01,-2.822018258082927833e-01,3.196747495446807807e-01,-1.824526465264953989e-01
3.439999999999999725e-01,-1.379379840408346269e-01,3.680634739363464192e-01,-2.451926035199875897e-01
3.449999999999999734e-01,2.199109171528022474e-02,3.488479515770979145e-01,-2.664455174283367755e-01
3.459999999999999742e-01,2.149085897517962751e-01,2.896179454957970578e-01,-2.467101239499133181e-01
3.469999999999999751e-01,3.570863762439931421e-01,2.059545533963622610e-01,-2.135977964189997858e-01
3.479999999999999760e-01,4.137177490225243393e-01,6.660288639282341272e-02,-1.172024620282288987e-01
3.489999999999999769e-01,4.034479177416751550e-01,-8.345850075943062052e-02,-3.181597749814350090e-02
3.499999999999999778e-01,4.084989484929781867e-01,-2.155496756995670116e-01,1.031419576694264650e-01
3.509999999999999787e-01,3.079883040184283050e-01,-2.942329187400140045e-01,1.667034271086238195e-01
3.519999999999999796e-01,1.664961015812071454e-01,-3.387726317469652582e-01,2.583242374438927680e-01
3.529999999999999805e-01,-3.533071540807841693e-02,-3.562643005294474086e-01,2.726634909414125674e-01
3.539999999999999813e-01,-1.657593729806400018e-01,-3.312987120256132290e-01,2.515794287582545641e-01
3.549999999999999822e-01,-3.349074677088787477e-01,-1.993533614964618228e-01,1.992805987595477335e-01
3.559999999999999831e-01,-4.414587605807618886e-01,-4.203824841442761751e-02,1.395083738670360729e-01
3.569999999999999840e-01,-4.588507614111592692e-01,8.698705787580125748e-02,3.918312056851442488e-02
3.579999999999999849e-01,-4.118325471981457153e-01,2.343119958830936489e-01,-6.880109581639164140e-02
3.589999999999999858e-01,-2.882438045790627346e-01,2.970832099395075421e-01,-1.692855415255766494e-01
3.599999999999999867e-01,-1.616690923682046199e-01,3.561409911704628284e-01,-2.366950837584130274e-01
3.609999999999999876e-01,2.069935962442276400e-02,3.502931447937900900e-01,-2.665671259600057019e-01
3.619999999999999885e-01,1.796852811387002202e-01,3.073361623532386844e-01,-2.605236168133364116e-01
3.629999999999999893e-01,3.386210858148423486e-01,1.912324717236477956e-01,-2.090271442238839095e-01
3.639999999999999902e-01,4.602044809140947712e-01,6.485445183756016752e-02,-1.523291325474828428e-01
3.649999999999999911e-01,4.511821369066227883e-01,-1.042108162966661478e-01,-6.111839956596847034e-02
3.659999999999999920e-01,4.205935851104440903e-01,-2.217763985748369970e-01,4.725914586344538010e-02
3.669999999999999929e-01,3.348988601756952010e-01,-3.062595051741752727e-01,1.526875247219574017e-01
3.679999999999999938e-01,1.633876371929959825e-01,-3.279609516178563222e-01,2.024650102798561668e-01
3.689999999999999947e-01,-1.093351941393107610e-02,-3.602205847493657465e-01,2.614511237430171553e-01
3.699999999999999956e-01,-1.846034867855653461e-01,-3.039594457461347043e-01,2.683180940295857853e-01
3.709999999999999964e-01,-3.233824428712117061e-01,-1.741709775153787998e-01,2.151579791661025753e-01
3.719999999999999973e-01,-4.295157337403540110e-01,-5.994200808966861777e-02,1.484400447491096009e-01
3.729999999999999982e-01,-4.367822850223586073e-01,8.675028131755772864e-02,8.236216627651811450e-02
3.739999999999999991e-01,-4.268169979715220053e-01,2.373727408121391880e-01,-3.604744338801099679e-02
3.750000000000000000e-01,-3.253284915050912440e-01,3.075405132856366408e-01,-1.315197591656316334e-01
3.760000000000000009e-01,-1.618694512447088896e-01,3.498969365067550741e-01,-2.163097147514467522e-01
3.770000000000000018e-01,-7.070933535015168185e-03,3.395796566601636535e-01,-2.408170408431224152e-01
3.780000000000000027e-01,1.642969398360369648e-01,2.900097317162572685e-01,-2.568190360627565227e-01
3.790000000000000036e-01,3.141436618014554760e-01,1.909414567910202587e-01,-2.246118369988167607e-01
3.800000000000000044e-01,4.020038699474661192e-01,5.700196067518790988e-02,-1.354020089594780152e-01
3.810000000000000053e-01,4.291506020115206099e-01,-5.854305833569618811e-02,-6.536617655320059450e-02
3.820000000000000062e-01,4.227596017831145581e-01,-2.225251617507519042e-01,4.216835083638257459e-02
3.830000000000000071e-01,3.035687147205778369e-01,-3.174094842704590635e-01,1.164430471345668933e-01
3.840000000000000080e-01,1.770379600682243371e-01,-3.740673825271136343e-01,2.191616221607837200e-01
3.850000000000000089e-01,-1.053095101097590615e-02,-3.495883675088070630e-01,2.541045485377161350e-01
3.860000000000000098e-01,-1.715446879712497208e-01,-2.773863000378757326e-01,2.479751570469529709e-01
3.870000000000000107e-01,-3.069789935815996906e-01,-1.862966892959550536e-01,2.333968039515901260e-01
3.880000000000000115e-01,-3.896913534643403065e-01,-5.201058869960421827e-02,1.656296896128873208e-01
3.890000000000000124e-01,-4.236653758294081640e-01,8.519223472409245823e-02,8.714039405391257875e-02
3.900000000000000133e-01,-4.169864534757091734e-01,2.068251498395586863e-01,-1.738173429418614704e-02
3.910000000000000142e-01,-3.297142077888177703e-01,2.994453920696690807e-01,-1.034776034747498658e-01
3.920000000000000151e-01,-1.993467716605736573e-01,3.634797228789623524e-01,-1.986483485670782478e-01
3.930000000000000160e-01,-6.572998111746262452e-03,3.548489563107273814e-01,-2.734692446226827944e-01
3.940000000000000169e-01,1.697463749021291268e-01,2.632569155103895442e-01,-2.762393666078585830e-01
3.950000000000000178e-01,3.133189263968801375e-01,1.570611542878322109e-01,-2.669409108216596604e-01
3.960000000000000187e-01,3.977387232080796253e-01,3.892391981655644179e-02,-2.035359227029163165e-01
3.970000000000000195e-01,4.464040155520785369e-01,-1.044302917762963273e-01,-1.041976870347800371e-01
3.980000000000000204e-01,4.010838154032550507e-01,-2.494626293012042473e-01,1.183512293347926958e-02
3.990000000000000213e-01,3.323309881282539013e-01,-3.145625287375229395e-01,1.237713157648549223e-01
4.000000000000000222e-01,1.968329044043727327e-01,-3.558840466240638656e-01,1.978444208109733926e-01
4.010000000000000231e-01,2.183687819352692072e-02,-3.509571475413532093e-01,2.583706693015799805e-01
4.020000000000000240e-01,-1.677512898508183026e-01,-2.634719117376811415e-01,2.525322837164020728e-01
4.030000000000000249e-01,-2.964873029788138714e-01,-1.719698523544898050e-01,2.582417725282957210e-01
4.040000000000000258e-01,-4.066717216790157741e-01,-2.905183487416238344e-02,2.016204356366715078e-01
4.050000000000000266e-01,-4.503029868650230694e-01,1.057603254656649949e-01,7.952152517542956933e-02
4.060000000000000275e-01,-4.318050218667832119e-01,2.343256830533087531e-01,-7.329558240955159377e-03
4.069999999999999729e-01,-3.439321922140224363e-01,3.450029320792944998e-01,-1.122451585474631003e-01
4.079999999999999738e-01,-1.890342427062989827e-01,3.658865328844432829e-01,-1.941366620574015711e-01
4.089999999999999747e-01,-3.331330411613220993e-02,3.494309013121340013e-01,-2.272861001276224036e-01
4.099999999999999756e-01,1.510062417668499302e-01,2.815494767064578019e-01,-2.490456273630974049e-01
4.109999999999999765e-01,3.167052981890154939e-01,1.574664662481408406e-01,-2.495933194328294469e-01
4.119999999999999774e-01,3.940173937113807257e-01,3.000045125834524193e-02,-2.005983816056051972e-01
4.129999999999999782e-01,4.413475592168079609e-01,-1.212895602090879738e-01,-1.254760045546533809e-01
4.139999999999999791e-01,4.288755832479245189e-01,-2.419019100648585052e-01,-9.518636902936557578e-03
4.149999999999999800e-01,3.637952697512028544e-01,-3.450240447822815471e-01,8.631880838202932171e-02
4.159999999999999809e-01,1.949861512697132204e-01,-3.674385108939468014e-01,1.732261410997632534e-01
4.169999999999999818e-01,2.011763863991865298e-02,-3.131924870760428026e-01,2.142250536087297597e-01
4.179999999999999827e-01,-1.565658562963766487e-01,-2.772413850547300052e-01,2.843528993584148457e-01
4.189999999999999836e-01,-2.828287920341669426e-01,-1.413438569512031895e-01,2.440639349179481166e-01
4.199999999999999845e-01,-3.628050513522397269e-01,-1.935333469333511136e-02,1.926964473397537181e-01
4.209999999999999853e-01,-4.657413931137278085e-01,1.222554779475273912e-01,1.451304956501401622e-01
4.219999999999999862e-01,-4.371752053372954250e-01,2.646024042086558836e-01,3.741546755949648473e-02
4.229999999999999871e-01,-3.404441283827629450e-01,3.541487900622250495e-01,-8.595998270614164938e-02
4.239999999999999880e-01,-2.000667539557656749e-01,3.533982745859998165e-01,-1.651118476810524427e-01
4.249999999999999889e-01,-6.640954610164330474e-02,3.288184759028212056e-01,-2.456534305714312694e-01
4.259999999999999898e-01,1.613453677447071188e-01,2.605394843045697462e-01,-2.571814583129977128e-01
4.269999999999999907e-01,2.911093734299368685e-01,1.676926711158976679e-01,-2.470557795873268569e-01
4.279999999999999916e-01,3.974038772240540141e-01,1.704452524960946638e-02,-2.271568416580133087e-01
4.289999999999999925e-01,4.356561889084755723e-01,-1.350491965215207257e-01,-1.243738749755649575e-01
4.299999999999999933e-01,4.268968860571554780e-01,-2.654324953709088497e-01,-4.739757335453904930e-02
4.309999999999999942e-01,3.410778975270418178e-01,-3.236793764012408370e-01,5.547145173538853280e-02
4.319999999999999951e-01,1.998515313357764334e-01,-3.416433372878389108e-01,1.557262074899921911e-01
4.329999999999999960e-01,5.553551985113090034e-02,-3.327397141047577223e-01,2.236623856717778192e-01
4.339999999999999969e-01,-1.510390401428666207e-01,-2.804537986884924616e-01,2.541109842603767044e-01
4.349999999999999978e-01,-2.896044171733379025e-01,-1.509344922763494190e-01,2.714163371576460704e-01
4.359999999999999987e-01,-3.948288709318225620e-01,-8.259339038743750486e-03,1.899649367982175763e-01
4.369999999999999996e-01,-4.418409062374462626e-01,1.237890334658282021e-01,1.413974243984922052e-01
4.380000000000000004e-01,-4.203682168642049466e-01,2.325673053530858958e-01,6.393917864029768916e-02
4.390000000000000013e-01,-3.589086954506303107e-01,3.098513833692084773e-01,-1.945833690193044321e-02
4.400000000000000022e-01,-2.246469297214171434e-01,3.518811287829510803e-01,-1.386939671150693443e-01
4.410000000000000031e-01,-4.284320683420265313e-02,3.436250483216998775e-01,-2.120685506271970111e-01
4.420000000000000040e-01,9.951458078627045678e-02,2.543067587386720341e-01,-2.574823553684799649e-01
4.430000000000000049e-01,2.609030024093828559e-01,1.488859267667300978e-01,-2.730261603898517242e-01
4.440000000000000058e-01,3.773085276471297989e-01,2.451518541286448402e-02,-2.314930705463499327e-01
4.450000000000000067e-01,4.359849511125969412e-01,-1.687093490856531319e-01,-1.825116969016405966e-01
4.460000000000000075e-01,4.524570482377580083e-01,-2.686214511950703598e-01,-6.223543921404448009e-02
4.470000000000000084e-01,3.483245998116313302e-01,-3.552177095111291316e-01,4.374608033998157036e-02
4.480000000000000093e-01,2.169376856793220620e-01,-3.684376958411207381e-01,1.278850634979221412e-01
4.490000000000000102e-01,5.264551444759459770e-02,-3.233619762542391807e-01,1.998029676039033697e-01
4.500000000000000111e-01,-1.115045121115873783e-01,-2.609638731963214719e-01,2.813505718313363269e-01
4.510000000000000120e-01,-2.625654723833359405e-01,-1.264045345847238100e-01,2.500082373324985507e-01
4.520000000000000129e-01,-4.013221378511139248e-01,9.050953182402473804e-03,2.304563644783667042e-01
4.530000000000000138e-01,-4.486752494248300027e-01,1.194852823717282575e-01,1.694655243716671478e-01
4.540000000000000147e-01,-4.211288973986545559e-01,2.400048428835357128e-01,8.995336665254510811e-02
4.550000000000000155e-01,-3.779042470580204482e-01,3.303667654492394856e-01,-1.461784043448246737e-02
4.560000000000000164e-01,-2.336271317993177943e-01,3.484923692356916014e-01,-1.200081730210579428e-01
4.570000000000000173e-01,-6.026853877995663050e-02,3.026140496169284488e-01,-1.817844081304805237e-01
4.580000000000000182e-01,1.070844872366125689e-01,2.218766112303459104e-01,-2.607152989696462364e-01
4.590000000000000191e-01,2.635484777882757812e-01,1.192899093701959429e-01,-2.515788833365488752e-01
4.600000000000000200e-01,4.025136847635114590e-01,2.538873155657646145e-03,-2.280019236824308571e-01
4.610000000000000209e-01,4.494586420456999076e-01,-1.519619539605804315e-01,-1.782399340193772108e-01
4.620000000000000218e-01,4.451190205663725918e-01,-2.597656453033169166e-01,-9.137088823701185192e-02
4.630000000000000226e-01,3.571029344068027966e-01,-3.412075243588987838e-01,2.043786938631112285e-02
4.640000000000000235e-01,2.247865761814766272e-01,-3.794876681178726563e-01,1.068674715354904770e-01
4.650000000000000244e-01,6.989899369176670596e-02,-3.127880441333491524e-01,1.887584454622724672e-01
4.660000000000000253e-01,-1.136501374053024011e-01,-2.389702822728986265e-01,2.564136070653569854e-01
4.670000000000000262e-01,-2.431088328067220472e-01,-1.302933789468544434e-01,2.584978485561650330e-01
4.680000000000000271e-01,-3.969758860725099425e-01,3.232305343366891764e-02,2.616855005627125585e-01
4.689999999999999725e-01,-4.276895274581795636e-01,1.487037564866043049e-01,1.812928757556425130e-01
4.699999999999999734e-01,-4.355284688774446744e-01,2.565287172184768094e-01,7.945840348807625686e-02
4.709999999999999742e-01,-3.670067138609454660e-01,3.462139055018859102e-01,1.383521383806124612e-02
4.719999999999999751e-01,-2.560405965154327057e-01,3.632341858010363911e-01,-8.898168501185915735e-02
4.729999999999999760e-01,-9.008449824963307706e-02,3.342181811943726877e-01,-2.036971638969670706e-01
4.739999999999999769e-01,1.023607113833687188e-01,2.350127029611505380e-01,-2.308989716484175225e-01
4.749999999999999778e-01,2.433046768800344595e-01,1.099661065615178679e-01,-2.599807747264542557e-01
4.759999999999999787e-01,3.837203644903702249e-01,-5.974794742481913043e-03,-2.541161909941909713e-01
4.769999999999999796e-01,4.279443892150747719e-01,-1.561914719613786973e-01,-1.815185253512166530e-01
4.779999999999999805e-01,4.310962115128968986e-01,-2.732103186527313765e-01,-1.248836453248234613e-01
4.789999999999999813e-01,3.646740684379533581e-01,-3.396945642250454034e-01,1.393202412439024929e-02
4.799999999999999822e-01,2.517104508971246268e-01,-3.476600415714318770e-01,7.666455026268936823e-02
4.809999999999999831e-01,8.186564101959718787e-02,-3.505898720182107353e-01,1.824311317726532988e-01
4.819999999999999840e-01,-6.143195482350299885e-02,-2.254760681751909468e-01,2.465381960304602049e-01
4.829999999999999849e-01,-2.478042758905347476e-01,-1.153247754461650953e-01,2.887479959632908155e-01
4.839999999999999858e-01,-3.651518109880211860e-01,4.348607937476208635e-02,2.821230731670701930e-01
4.849999999999999867e-01,-4.439656475156816273e-01,1.757371038116285200e-01,2.069556661662697861e-01
4.859999999999999876e-01,-4.446854231469658525e-01,2.712560796362009086e-01,1.280841928689894493e-01
4.869999999999999885e-01,-3.963651267329935113e-01,3.441534010745077032e-01,2.929133132904965589e-02
4.879999999999999893e-01,-2.727855461023573347e-01,3.759623631133194865e-01,-5.963957839945441958e-02
4.889999999999999902e-01,-8.891061557975792062e-02,3.344764548026533113e-01,-1.692134530695588446e-01
4.899999999999999911e-01,6.815141915245806481e-02,2.269629888341095358e-01,-2.303019745678632768e-01
4.909999999999999920e-01,2.511520028456008524e-01,1.345033611609848245e-01,-2.717890406810808401e-01
4.919999999999999929e-01,3.720432054612968220e-01,-5.796182492398214980e-02,-2.569483003095435203e-01
4.929999999999999938e-01,4.417054039827209011e-01,-1.551087959117473103e-01,-2.350534188607386610e-01
4.939999999999999947e-01,4.498637263226527017e-01,-2.825278588719034034e-01,-1.526897024171943729e-01
4.949999999999999956e-01,3.984179900195166102e-01,-3.491172781560366589e-01,-2.821696762266236863e-02
4.959999999999999964e-01,2.525117532176445745e-01,-3.351676468166138179e-01,4.388887917665373201e-02
4.969999999999999973e-01,1.102569615615130172e-01,-3.054386871318620633e-01,1.636251335692500419e-01
4.979999999999999982e-01,-6.513493101531073193e-02,-2.411490435551224276e-01,2.309426488712501002e-01
4.989999999999999991e-01,-2.346696062603545463e-01,-9.490363101049667516e-02,2.690179420918909492e-01
5.000000000000000000e-01,-3.498520972198817525e-01,3.577452372518012680e-02,2.470156289720406018e-01
5.010000000000000009e-01,-4.345460742086449946e-01,1.812402693993905856e-01,2.358471129480222972e-01
5.020000000000000018e-01,-4.413318034906523746e-01,2.755488394684529330e-01,1.490752418266953205e-01
5.030000000000000027e-01,-4.036296866573525488e-01,3.419941383298206738e-01,7.754131111059343884e-02
5.040000000000000036e-01,-2.547013470179225747e-01,3.516296159429044277e-01,-6.710909615356919211e-02
5.050000000000000044e-01,-9.942509730696071080e-02,3.089904203514542425e-01,-1.350109195446845267e-01
5.060000000000000053e-01,6.783494404709722314e-02,2.333752732527127893e-01,-2.121187095412191415e-01
5.070000000000000062e-01,2.274876364741725554e-01,7.831267656405146993e-02,-2.595007488000082851e-01
5.080000000000000071e-01,3.875450828699086303e-01,-4.834704707269218971e-02,-2.513097793176755634e-01
5.090000000000000080e-01,4.386455766975236870e-01,-1.790967205597637779e-01,-2.315068590717618002e-01
5.100000000000000089e-01,4.552250804170476783e-01,-2.778235931436032202e-01,-1.610281759137598967e-01
5.110000000000000098e-01,3.923347413640363435e-01,-3.435655758928933268e-01,-7.368167688229602941e-02
5.120000000000000107e-01,2.783752603221008037e-01,-3.391935862713072458e-01,2.200912224931964034e-02
5.130000000000000115e-01,1.178687767232940303e-01,-2.976744540083665624e-01,1.419427149154728340e-01
5.140000000000000124e-01,-3.947724326489909091e-02,-2.327738567769504219e-01,2.310550912940073920e-01
5.150000000000000133e-01,-2.271729317013374549e-01,-8.496078803379350508e-02,2.603926141423837937e-01
5.160000000000000142e-01,-3.421641018419097624e-01,3.036015823266943053e-02,2.759685791200217619e-01
5.170000000000000151e-01,-4.355665509512522404e-01,1.942232692245673964e-01,2.105139548714412001e-01
5.180000000000000160e-01,-4.485578393431660094e-01,3.057526605456284963e-01,1.654254189586455703e-01
5.190000000000000169e-01,-3.953394733446615184e-01,3.475980100444556187e-01,7.524503548066591163e-02
5.200000000000000178e-01,-2.688892195263903329e-01,3.481704942797204660e-01,-2.235507567715813368e-02
5.210000000000000187e-01,-1.204769391396061928e-01,3.215597117591575405e-01,-1.271134402278197295e-01
5.220000000000000195e-01,3.642257279820394766e-02,2.149211419209160201e-01,-2.091147793237514430e-01
5.230000000000000204e-01,2.126356352383600712e-01,8.751730408727061150e-02,-2.525862696531703810e-01
5.240000000000000213e-01,3.398466164072194706e-01,-8.088652120907334486e-02,-2.616880947975641636e-01
5.250000000000000222e-01,4.015366961473113561e-01,-2.067062919432607893e-01,-2.522996297919213871e-01
5.260000000000000231e-01,4.427334735202020366e-01,-2.916517598790587251e-01,-2.019186932342253993e-01
5.270000000000000240e-01,4.160821094496148231e-01,-3.381545144417762438e-01,-9.806131757093608514e-02
5.280000000000000249e-01,2.974077644081103977e-01,-3.605551984253201336e-01,3.663032235986242446e-02
5.290000000000000258e-01,1.485606951046908875e-01,-3.057389234667520772e-01,1.170642669928788210e-01
5.300000000000000266e-01,-3.207775269690333469e-02,-2.040129103466379046e-01,1.785711496537929488e-01
5.310000000000000275e-01,-2.177990003988078405e-01,-8.482427638443833240e-02,2.591092370883424922e-01
5.320000000000000284e-01,-3.509619423510981773e-01,7.820711698005056167e-02,2.676577079782106461e-01
5.330000000000000293e-01,-4.207314788286363738e-01,2.199105252289987600e-01,2.622191743110238171e-01
5.340000000000000302e-01,-4.562000843318865240e-01,2.680276811263587744e-01,2.029906710817687143e-01
5.350000000000000311e-01,-3.855049991002987286e-01,3.608711059221530459e-01,8.233426405286313476e-02
5.360000000000000320e-01,-2.965961311759413022e-01,3.575468678041041071e-01,-1.588929560195627942e-03
5.370000000000000329e-01,-1.436331438429965524e-01,3.124311614111040525e-01,-1.151310791589119226e-01
5.380000000000000338e-01,4.616877262709419283e-02,1.878394347904167871e-01,-1.861746713344632764e-01
5.390000000000000346e-01,2.186929863659589079e-01,8.461652984812817468e-02,-2.263811948954928543e-01
5.400000000000000355e-01,3.340421137929273643e-01,-7.067286056484181622e-02,-2.548327540723351325e-01
5.410000000000000364e-01,4.344184848701658774e-01,-1.703792194082376643e-01,-2.512821242722252935e-01
5.420000000000000373e-01,4.648106306671218602e-01,-2.903313367767669795e-01,-2.011187388315786029e-01
5.430000000000000382e-01,4.113909631659233845e-01,-3.356152398117367985e-01,-1.223446512882005455e-01
5.440000000000000391e-01,3.021569328461861659e-01,-3.420418964658447636e-01,-7.791711108659138754e-03
5.450000000000000400e-01,1.558856960136893177e-01,-2.897206736901648538e-01,8.830539958033231662e-02
5.460000000000000409e-01,-4.440362476952838811e-02,-1.994461008211033393e-01,1.634617340255032913e-01
5.470000000000000417e-01,-2.018346171844210835e-01,-3.489169379072309257e-02,2.251595450978726709e-01
5.480000000000000426e-01,-3.502218469864741279e-01,8.034509332778420887e-02,2.536015314933856568e-01
5.490000000000000435e-01,-4.061095226841944239e-01,1.913386394645731348e-01,2.778636473908667193e-01
5.500000000000000444e-01,-4.410468058338554709e-01,2.975830565172757347e-01,2.194931458623559650e-01
5.510000000000000453e-01,-4.057541883758810641e-01,3.484447619031327270e-01,1.108977851332727804e-01
5.520000000000000462e-01,-3.103173238197057260e-01,3.366919205363956280e-01,1.739732396365888112e-02
5.530000000000000471e-01,-1.546995482905819119e-01,3.004737302283640998e-01,-6.047643486793861933e-02
5.540000000000000480e-01,1.857572044147375728e-02,2.011766720872258940e-01,-1.829899738333972958e-01
5.550000000000000488e-01,2.032759683784495786e-01,6.484548152820811262e-02,-2.476110088901701534e-01
5.560000000000000497e-01,3.495730653823501122e-01,-6.745752445580470436e-02,-2.790062223213348180e-01
5.570000000000000506e-01,4.286409954647704690e-01,-2.109943812889653048e-01,-2.467168954880518683e-01
5.580000000000000515e-01,4.492248358089809268e-01,-2.756625776350576373e-01,-2.289970340016349026e-01
5.590000000000000524e-01,4.107999335563325416e-01,-3.487555526349700452e-01,-1.355699368123364223e-01
5.600000000000000533e-01,3.142658833639122573e-01,-3.436864026914528414e-01,-5.363730391567506084e-02
5.610000000000000542e-01,1.538299734456431145e-01,-2.871039790780477441e-01,6.632737389344676993e-02
5.620000000000000551e-01,-1.499379814920959002e-02,-1.952528922162378722e-01,1.671452253084212969e-01
5.629999999999999449e-01,-1.924359437259245686e-01,-6.103535599171004689e-02,2.398908191021446867e-01
5.639999999999999458e-01,-3.239981687927095955e-01,1.074405716014968787e-01,2.723865195558888841e-01
5.649999999999999467e-01,-4.019240196810912047e-01,2.263579487183165762e-01,2.563143718774796853e-01
5.659999999999999476e-01,-4.426175005336492330e-01,3.265591463010225071e-01,2.266669654815928747e-01
5.669999999999999485e-01,-4.119180030077122523e-01,3.506812065262247535e-01,1.366132300436311564e-01
5.679999999999999494e-01,-3.035335606366312833e-01,3.371813612075028055e-01,5.577662719449443668e-02
5.689999999999999503e-01,-1.471132701579953850e-01,2.857687888452500324e-01,-4.779496034373306723e-02
5.699999999999999512e-01,-9.537574542278255338e-03,1.734938518666389040e-01,-1.560253792181932331e-01
5.709999999999999520e-01,1.782368489630893338e-01,4.089686371475051430e-02,-2.362468604222207058e-01
5.719999999999999529e-01,3.095732503606388186e-01,-7.611169891503902218e-02,-2.589973922216519120e-01
5.729999999999999538e-01,4.177173356057591325e-01,-1.906626876291325767e-01,-2.724116655721733338e-01
5.739999999999999547e-01,4.539731632292171026e-01,-2.891883576662971356e-01,-2.317687696505298101e-01
5.749999999999999556e-01,4.011627114843968056e-01,-3.587623412402922707e-01,-1.594654529369966822e-01
5.759999999999999565e-01,3.228223339371311673e-01,-3.335230802936908212e-01,-4.234512155363213265e-02
5.769999999999999574e-01,1.780168199733680734e-01,-2.749396625483083167e-01,2.767713461653905499e-02
5.779999999999999583e-01,-1.069020989225770088e-02,-1.839887237363630190e-01,1.387111969855966132e-01
5.789999999999999591e-01,-1.764890435918855249e-01,-4.736113083605423407e-02,2.095616486859454008e-01
5.799999999999999600e-01,-3.184192543205626724e-01,1.030684594640525475e-01,2.581035078533974181e-01
5.809999999999999609e-01,-3.922954015485032864e-01,2.332748079368170135e-01,2.798423201819011386e-01
5.819999999999999618e-01,-4.572085645443194624e-01,3.169515835069328658e-01,2.224128358793978077e-01
5.829999999999999627e-01,-4.077011776607112337e-01,3.487738701948600029e-01,1.531339212187527443e-01
5.839999999999999636e-01,-3.337011917814241002e-01,3.409438059912954233e-01,7.815676235988495979e-02
5.849999999999999645e-01,-1.813760634758504742e-01,2.939635375494871750e-01,-3.907803882446912735e-02
5.859999999999999654e-01,4.125903893168812557e-03,1.952998784816050437e-01,-1.220574580957318883e-01
5.869999999999999662e-01,1.713457883142132654e-01,3.174911985603579012e-02,-2.191300805715152566e-01
5.879999999999999671e-01,3.295246693543127381e-01,-8.735456074049791075e-02,-2.807340005071865541e-01
5.889999999999999680e-01,4.245461513211187810e-01,-2.204198716390252943e-01,-2.904720730612534996e-01
5.899999999999999689e-01,4.229924867241136588e-01,-3.186911483919812049e-01,-2.266436480035635137e-01
5.909999999999999698e-01,4.062891644167778704e-01,-3.723748731888206764e-01,-1.799692819634565177e-01
5.919999999999999707e-01,3.193167863555223529e-01,-3.292596130164895385e-01,-9.959099332527714121e-02
5.929999999999999716e-01,1.839489929115349920e-01,-2.981046627828483064e-01,1.587711285109526596e-02
5.939999999999999725e-01,1.133902367733782487e-02,-1.836439193197381692e-01,1.254074591200965982e-01
5.949999999999999734e-01,-1.777820370275008111e-01,-4.903328173996610029e-02,2.031027968182672061e-01
5.959999999999999742e-01,-3.103520400178835792e-01,1.010203105172819138e-01,2.511063916346585878e-01
5.969999999999999751e-01,-4.158838722555873724e-01,1.980944569639660480e-01,2.571367498724756451e-01
5.979999999999999760e-01,-4.615835105764307111e-01,3.231645135069444730e-01,2.565713355859376987e-01
5.989999999999999769e-01,-4.182712350811448876e-01,3.622420473922360884e-01,1.494222021228586716e-01
5.999999999999999778e-01,-3.226528401362585008e-01,3.621789122695449614e-01,1.163410339784247127e-01
6.009999999999999787e-01,-1.882543009267709233e-01,2.654468613848108838e-01,-1.338592241988525479e-02
6.019999999999999796e-01,-3.784085539703072043e-02,1.683482402311139436e-01,-1.264525166385578325e-01
6.029999999999999805e-01,1.560040158192872728e-01,3.428884154985020055e-02,-1.792587800942515575e-01
6.039999999999999813e-01,3.197442228510307127e-01,-1.312014738284681681e-01,-2.510832330076926966e-01
6.049999999999999822e-01,4.178678142950945640e-01,-2.384435589703332858e-01,-2.634453722572686618e-01
6.059999999999999831e-01,4.607346031506914241e-01,-3.286457559285924646e-01,-2.598547290855611758e-01
6.069999999999999840e-01,4.531079190617536279e-01,-3.360382062737235498e-01,-1.976131439959808167e-01
6.079999999999999849e-01,3.464399308397295707e-01,-3.391440187349572533e-01,-1.203746650373975074e-01
6.089999999999999858e-01,1.680299803589284102e-01,-2.818810289203133035e-01,1.342334246601003048e-02
6.099999999999999867e-01,9.149609013063324248e-03,-1.829909266836656778e-01,1.075031962617599285e-01
6.109999999999999876e-01,-1.612124272759281052e-01,-2.042019302560429961e-02,1.766219863782988175e-01
6.119999999999999885e-01,-2.908357503800447774e-01,1.153707430026636171e-01,2.350582480364153959e-01
6.129999999999999893e-01,-3.984600778750057581e-01,2.458519319905011769e-01,2.771160996864624471e-01
6.139999999999999902e-01,-4.525249870070174874e-01,3.268259533854238619e-01,2.457985715477746524e-01
6.149999999999999911e-01,-4.205926758498691465e-01,3.563442792671924764e-01,2.046656320010894203e-01
6.159999999999999920e-01,-3.430571541962098570e-01,3.457662086142326285e-01,1.270603578104422260e-01
6.169999999999999929e-01,-2.145699027810775705e-01,2.773095369092595797e-01,5.015849058828738410e-02
6.179999999999999938e-01,-2.652443880591853070e-02,1.763207418081678968e-01,-1.123149294777126966e-01
6.189999999999999947e-01,1.510133028439015479e-01,1.770979485632871026e-02,-1.747565985072027928e-01
6.199999999999999956e-01,2.758746260350520840e-01,-1.354208418817941517e-01,-2.504825834259544193e-01
6.209999999999999964e-01,3.777664828541592579e-01,-2.588213226994309779e-01,-2.728999695960355187e-01
6.219999999999999973e-01,4.495970851931088141e-01,-3.327347189006898409e-01,-2.550442981870166825e-01
6.229999999999999982e-01,4.247197013249385256e-01,-3.682535023374864380e-01,-2.088032465224172463e-01
6.239999999999999991e-01,3.546893186848841251e-01,-3.459205209019428073e-01,-1.334057418659028160e-01
6.250000000000000000e-01,2.148972459153390968e-01,-2.719249159405496274e-01,-4.158033816020305362e-02
6.260000000000000009e-01,4.092920997996790655e-02,-1.322512984852748930e-01,7.438251957282314419e-02
6.270000000000000018e-01,-1.312945576118162427e-01,-1.772120679278954558e-02,1.813882764049573049e-01
6.280000000000000027e-01,-3.121829824508032258e-01,9.812714936475094851e-02,2.353188174591930304e-01
6.290000000000000036e-01,-3.769570072855634169e-01,2.719596152776599940e-01,2.700927911054442077e-01
6.300000000000000044e-01,-4.405980164439166069e-01,3.440544182938277684e-01,2.411132326648509905e-01
6.310000000000000053e-01,-4.182086771073620923e-01,3.701834078571445974e-01,2.274230004312556286e-01
6.320000000000000062e-01,-3.394476167715449466e-01,3.494812696145710995e-01,1.289620515412732982e-01
6.330000000000000071e-01,-2.228106811025963585e-01,2.719364870115229538e-01,5.550967611027747550e-02
6.340000000000000080e-01,-5.603682370659601730e-02,1.411459390806745207e-01,-5.505960594789042345e-02
6.350000000000000089e-01,1.065875562476760879e-01,-1.629526373262606478e-02,-1.344430188991704300e-01
6.360000000000000098e-01,2.982042890500611332e-01,-1.282865286264290583e-01,-2.410702745764580213e-01
6.370000000000000107e-01,3.951481211100453250e-01,-2.649398393254479012e-01,-2.671657509616583437e-01
6.380000000000000115e-01,4.472156552900107829e-01,-3.486356297483252376e-01,-2.500432345854747274e-01
6.390000000000000124e-01,4.528309463558098935e-01,-3.592541327886821234e-01,-2.405050906810364819e-01
6.400000000000000133e-01,3.550599029329490897e-01,-3.251720588392001399e-01,-1.324952084131634233e-01
6.410000000000000142e-01,2.202224862638695879e-01,-2.580638388180177545e-01,-5.482433497868784839e-02
6.420000000000000151e-01,5.295454280000056607e-02,-1.361929691295640232e-01,5.377853698089023887e-02
6.430000000000000160e-01,-1.334572561956267611e-01,-1.222210938663377197e-02,1.242241334669673958e-01
6.440000000000000169e-01,-2.915715134084181925e-01,1.318793046279969905e-01,2.097096803507265961e-01
6.450000000000000178e-01,-3.827600247863204297e-01,2.381088371472017684e-01,2.790676476984398913e-01
6.460000000000000187e-01,-4.535626216971276881e-01,3.292485420661348527e-01,2.689895190289750548e-01
6.470000000000000195e-01,-4.200552986484422102e-01,3.608516648342991462e-01,2.268092011630059024e-01
6.480000000000000204e-01,-3.642417061198334749e-01,3.413313987560310236e-01,1.752692839359170918e-01
6.490000000000000213e-01,-2.383126470966784871e-01,2.556604718426860323e-01,7.438429574921164023e-02
6.500000000000000222e-01,-6.291860332423133972e-02,1.259995388747367773e-01,-5.078027736564108552e-02
6.510000000000000231e-01,1.020236407722801969e-01,1.568785963587287710e-02,-1.070069984804217222e-01
6.520000000000000240e-01,2.805136293239232081e-01,-1.472656717620978994e-01,-2.010369795119023306e-01
6.530000000000000249e-01,3.907664199203749189e-01,-2.556422946786582884e-01,-2.494542420046731990e-01
6.540000000000000258e-01,4.492542478974060338e-01,-3.405134432224095065e-01,-2.506816872503959126e-01
6.550000000000000266e-01,4.399232772388833035e-01,-3.499585853552043546e-01,-2.200904421339675565e-01
6.560000000000000275e-01,3.348288126114861152e-01,-3.357310863528550349e-01,-1.747887671228520179e-01
6.570000000000000284e-01,2.279043539717145461e-01,-2.413365141819321102e-01,-8.162448686114495700e-02
6.580000000000000293e-01,5.633345446114519650e-02,-1.560029797875999713e-01,2.575035166058037284e-02
6.590000000000000302e-01,-1.169428813590348420e-01,1.261402462591499490e-02,1.114497498144051690e-01
6.600000000000000311e-01,-2.423006001385061281e-01,1.554348581383114825e-01,2.133199004958169775e-01
6.610000000000000320e-01,-3.761555765046566413e-01,2.907208705719013797e-01,2.476235400743000414e-01
6.620000000000000329e-01,-4.328887300959566864e-01,3.512818721859338744e-01,2.533040127178411427e-01
6.630000000000000338e-01,-4.277760516514388933e-01,3.484495498680475478e-01,2.570297217415388746e-01
6.640000000000000346e-01,-3.722403785281196975e-01,3.352054679367848511e-01,1.952056106426572346e-01
6.650000000000000355e-01,-2.279341411674586648e-01,2.272776635049319482e-01,9.502702196854345695e-02
6.660000000000000364e-01,-8.133880084032447944e-02,1.410802067045439090e-01,-1.409615321787399504e-02
6.670000000000000373e-01,9.026819714552961060e-02,-1.173884104685950225e-02,-1.254205804291881887e-01
6.680000000000000382e-01,2.637498337585291175e-01,-1.505376213976430955e-01,-2.043083931541721521e-01
6.690000000000000391e-01,3.818688644987808800e-01,-2.471073384556783381e-01,-2.165253056811184407e-01
6.700000000000000400e-01,4.438398077021630805e-01,-3.494583595291008704e-01,-2.761676756911189412e-01
6.710000000000000409e-01,4.556034816558745537e-01,-3.452603812315130916e-01,-2.683131458945661185e-01
6.720000000000000417e-01,3.578777618891224588e-01,-3.099566059841287746e-01,-1.922907632896749264e-01
6.730000000000000426e-01,2.473351321874431852e-01,-2.520996796323473621e-01,-1.247238929168594523e-01
6.740000000000000435e-01,5.766439442662271014e-02,-1.087551228677979404e-01,8.390562783112925915e-03
6.750000000000000444e-01,-8.459517522813345125e-02,2.285379584352913857e-02,8.186365596058438332e-02
6.760000000000000453e-01,-2.541233525199207421e-01,1.733030515303426444e-01,1.805518259039846640e-01
6.770000000000000462e-01,-3.990370267910919311e-01,2.917374372293888296e-01,2.560868920682892180e-01
6.780000000000000471e-01,-4.587360757703991543e-01,3.694936939961288025e-01,2.716015035773779451e-01
6.790000000000000480e-01,-4.480956985511977408e-01,3.542248285122738261e-01,2.535578813708561086e-01
6.800000000000000488e-01,-3.951655430003935265e-01,3.006209929719804164e-01,1.972406961561727901e-01
6.810000000000000497e-01,-2.490793798302871065e-01,2.398758525404789677e-01,1.122259104483985526e-01
6.820000000000000506e-01,-6.439182898891138151e-02,1.167690843522170147e-01,1.647015319424032995e-02
6.830000000000000515e-01,1.081282484109019892e-01,-2.605802147245600206e-02,-7.618610854428486956e-02
6.840000000000000524e-01,2.417987570070671000e-01,-1.711814201588821860e-01,-1.733854068706114915e-01
6.850000000000000533e-01,3.629484968290052072e-01,-2.838565891105708783e-01,-2.377592801464156469e-01
6.860000000000000542e-01,4.443864500374127835e-01,-3.560188068300877418e-01,-2.537004801157246581e-01
6.870000000000000551e-01,4.617823649460609525e-01,-3.847627287832274812e-01,-2.581355895165504122e-01
6.879999999999999449e-01,3.679412726566966274e-01,-3.143961497130904337e-01,-2.150392978561862511e-01
6.889999999999999458e-01,2.555878397174547456e-01,-2.210005260368260449e-01,-1.430996284074554648e-01
6.899999999999999467e-01,1.024905061287040980e-01,-9.822337326058694362e-02,-1.809667880432782108e-02
6.909999999999999476e-01,-8.116720735908194984e-02,1.895268596112352141e-02,7.265644022112564826e-02
6.919999999999999485e-01,-2.347649648664062449e-01,1.567580986879797134e-01,1.628416825412253577e-01
6.929999999999999494e-01,-3.759158567484599534e-01,2.976001545037105789e-01,2.274474178448446238e-01
6.939999999999999503e-01,-4.602181251423222985e-01,3.610219796261845970e-01,2.818768266913124765e-01
6.949999999999999512e-01,-4.570517962842846615e-01,3.506042998279037537e-01,2.672994786173233939e-01
6.959999999999999520e-01,-3.719966760428018437e-01,3.231005419754152674e-01,2.179156902790091166e-01
6.969999999999999529e-01,-2.636248287978548155e-01,2.309363949908863622e-01,1.265615849793956249e-01
6.979999999999999538e-01,-1.195603017122618128e-01,1.159999210287208232e-01,2.785530866014061108e-02
6.989999999999999547e-01,6.149723741375164032e-02,-3.122098325477614539e-02,-6.080979878539798794e-02
6.999999999999999556e-01,2.236841006717482094e-01,-1.786828523587861151e-01,-1.436300053652761199e-01
7.009999999999999565e-01,3.707061872427299121e-01,-2.876847576220410985e-01,-2.400343491577009991e-01
7.019999999999999574e-01,4.351937706772841530e-01,-3.373128207863672068e-01,-2.159711322018405266e-01
7.029999999999999583e-01,4.485832326921518898e-01,-3.657123379317344658e-01,-2.523472666848671220e-01
7.039999999999999591e-01,3.792222332257102480e-01,-3.072950123859985450e-01,-2.365267430040753072e-01
7.049999999999999600e-01,2.593313384947320555e-01,-2.339419626495359561e-01,-1.678932897626242149e-01
7.059999999999999609e-01,9.124015811101310325e-02,-8.402906263041283463e-02,-5.605516483121606580e-02
7.069999999999999618e-01,-7.083117981068007274e-02,2.287497385387783286e-02,5.339006107596876854e-02
7.079999999999999627e-01,-2.224993491498867548e-01,1.928833162101115384e-01,1.370301094975484024e-01
7.089999999999999636e-01,-3.659863820212008734e-01,3.052501045049800243e-01,2.206320595021722397e-01
7.099999999999999645e-01,-4.225076803982992235e-01,3.522198968558216681e-01,2.634850513985519949e-01
7.109999999999999654e-01,-4.544477123836950239e-01,3.449457502864023417e-01,2.540891267486992122e-01
7.119999999999999662e-01,-3.734482691640080843e-01,3.301486806933341955e-01,2.293611010830585717e-01
7.129999999999999671e-01,-2.893158194596613386e-01,2.239880760294249151e-01,1.819419874719522823e-01
7.139999999999999680e-01,-9.979132547660624075e-02,1.040146760160889083e-01,7.805777865896829093e-02
7.149999999999999689e-01,8.645395133521760478e-02,-3.809297062879764273e-02,-1.155091506824468262e-02
7.159999999999999698e-01,2.231682886350098427e-01,-1.730355449468175821e-01,-1.112692913639432152e-01
7.169999999999999707e-01,3.502202203160381666e-01,-2.936868044599568739e-01,-2.216207057387954149e-01
7.179999999999999716e-01,4.182156479098103063e-01,-3.723843053992695329e-01,-2.755219025626489682e-01
7.189999999999999725e-01,4.721974335825315783e-01,-3.681742439366177955e-01,-2.544361823642595777e-01
7.199999999999999734e-01,3.752753680218166021e-01,-2.920193923771841615e-01,-2.340191705337164030e-01
7.209999999999999742e-01,2.870168946463150794e-01,-2.055894980604617006e-01,-1.709803768099382726e-01
7.219999999999999751e-01,1.191604626059975941e-01,-9.239478352861490995e-02,-9.754205835447737893e-02
7.229999999999999760e-01,-3.287448303307564934e-02,3.360628651897579200e-02,2.132331210848653624e-02
7.239999999999999769e-01,-2.201884598834312201e-01,1.907880785278205371e-01,1.258047060361746350e-01
7.249999999999999778e-01,-3.539712379885824878e-01,2.767622661936104400e-01,2.117262904257023459e-01
7.259999999999999787e-01,-4.411079301670416952e-01,3.559833815436029836e-01,2.729154164801951277e-01
7.269999999999999796e-01,-4.350232998147524621e-01,3.702291662713529385e-01,2.767224579264281892e-01
7.279999999999999805e-01,-3.984332406058240794e-01,2.951602268897112746e-01,2.544569099339837881e-01
7.289999999999999813e-01,-3.091842550665704903e-01,1.998332239440425706e-01,1.768437818221578472e-01
7.299999999999999822e-01,-1.173820907030093952e-01,8.634828352420732822e-02,9.046039265392552542e-02
7.309999999999999831e-01,6.428185593870177315e-03,-5.035741791500372017e-02,1.609842902250967558e-02
7.319999999999999840e-01,2.318731083189713993e-01,-1.759270516893602088e-01,-1.318538561194537162e-01
7.329999999999999849e-01,3.211512646567659668e-01,-2.837322303300746085e-01,-2.048708916563633797e-01
7.339999999999999858e-01,4.501699171897122209e-01,-3.474151264856848442e-01,-2.537558430638516827e-01
7.349999999999999867e-01,4.592758040103283035e-01,-3.577650863990328722e-01,-2.563368260671289867e-01
7.359999999999999876e-01,4.000616730248056085e-01,-3.021768427745762930e-01,-2.620568315525378389e-01
7.369999999999999885e-01,2.805080005350965022e-01,-2.145892583300069711e-01,-2.008752707345341504e-01
7.379999999999999893e-01,1.421200480448832348e-01,-6.818781043897262362e-02,-1.373058632850102934e-01
7.389999999999999902e-01,-3.992253513977059992e-02,8.104135987275004616e-02,-9.126694738211146157e-03
7.399999999999999911e-01,-1.982028976012732424e-01,1.869438434829258644e-01,1.011554690963490655e-01
7.409999999999999920e-01,-3.622329898583036001e-01,3.018000092186224892e-01,1.978675626057437853e-01
7.419999999999999929e-01,-4.413524603562433146e-01,3.491278466533858649e-01,2.370903898875251214e-01
7.429999999999999938e-01,-4.559135353472905106e-01,3.498701722133997216e-01,2.686943184447028177e-01
7.439999999999999947e-01,-4.294535143178405678e-01,2.998039338545060994e-01,2.692148047101386443e-01
7.449999999999999956e-01,-2.825798665778819219e-01,2.027478489282935337e-01,1.899333322360979293e-01
7.459999999999999964e-01,-1.263842339395198078e-01,5.279204623160007465e-02,1.096543434944976109e-01
7.469999999999999973e-01,5.103756438788051297e-02,-6.478971092432880829e-02,2.109498351371528677e-02
7.479999999999999982e-01,2.039432268365181933e-01,-2.199038493355908452e-01,-9.888201558061511520e-02
7.489999999999999991e-01,3.443727296442670727e-01,-2.971352471075616175e-01,-1.820705261220530446e-01
7.500000000000000000e-01,4.176234664656772178e-01,-3.608794733781913733e-01,-2.646788494926076152e-01
7.510000000000000009e-01,4.505348484400728548e-01,-3.578537651581584766e-01,-2.606358275830429894e-01
7.520000000000000018e-01,3.997348948480762276e-01,-3.226594516016378922e-01,-2.511686687493845938e-01
7.530000000000000027e-01,2.986089351006548931e-01,-1.970813528189966357e-01,-1.940901922663642587e-01
7.540000000000000036e-01,1.221067731600802703e-01,-4.914903778188344646e-02,-1.247499387593611481e-01
7.550000000000000044e-01,-2.492620166283675276e-02,8.628528369237120632e-02,-2.954510507289518154e-02
7.560000000000000053e-01,-2.136681103525876757e-01,2.140035058375223120e-01,7.322710951828584336e-02
7.570000000000000062e-01,-3.171273218249222037e-01,3.123276035177773857e-01,1.799094431335092892e-01
7.580000000000000071e-01,-4.168743889356830712e-01,3.325168155639305345e-01,2.623108355883494447e-01
7.590000000000000080e-01,-4.355839820188149858e-01,3.557160959468575467e-01,2.814994757621622767e-01
7.600000000000000089e-01,-4.103277821767812306e-01,3.036189570343784117e-01,2.703791833440591930e-01
7.610000000000000098e-01,-3.167486244125986006e-01,1.893500414623454642e-01,2.239191882217907159e-01
7.620000000000000107e-01,-1.586990407711517115e-01,4.173671385251400551e-02,1.399683553345807407e-01
7.630000000000000115e-01,1.956115341910392644e-02,-7.757581367260638072e-02,3.533032918793246879e-02
7.640000000000000124e-01,1.890608733130992591e-01,-1.831687100094380183e-01,-4.668930967967985235e-02
7.650000000000000133e-01,3.160395289949871622e-01,-3.068409930548962605e-01,-1.731955110160593725e-01
7.660000000000000142e-01,4.417993159794518232e-01,-3.447567257363593485e-01,-2.152335819192783273e-01
7.670000000000000151e-01,4.312815557693417956e-01,-3.432233213299833996e-01,-2.764618263664320730e-01
7.680000000000000160e-01,3.966509240937202141e-01,-2.933603209685656243e-01,-2.608311744369739560e-01
7.690000000000000169e-01,3.140434356488083223e-01,-1.784131163837215095e-01,-2.189281896846095310e-01
7.700000000000000178e-01,1.534567381657490348e-01,-4.922218839866378259e-02,-1.417922937379632597e-01
7.710000000000000187e-01,-1.106742285270307172e-02,9.053554699162459640e-02,-5.255491845387420813e-02
7.720000000000000195e-01,-1.649061260978457455e-01,2.075819771167968508e-01,6.016139586565164704e-02
7.730000000000000204e-01,-3.022600443988382457e-01,3.085848794592461197e-01,1.481103939770078148e-01
7.740000000000000213e-01,-4.127605953108138825e-01,3.685384310483455494e-01,2.153992832258326273e-01
7.750000000000000222e-01,-4.600182559840239049e-01,3.614693560684910656e-01,2.589430182379683920e-01
7.760000000000000231e-01,-4.431417710914530295e-01,2.779735001707046016e-01,2.563414404517719847e-01
7.770000000000000240e-01,-3.087605308265882198e-01,1.805468218562341076e-01,2.260639355837656406e-01
7.780000000000000249e-01,-1.941233359992179663e-01,6.167211215902953375e-02,1.763996072419403427e-01
7.790000000000000258e-01,8.069847997293929515e-03,-9.357186367755515599e-02,4.351936793862563185e-02
7.800000000000000266e-01,1.724074225756631884e-01,-2.170263884739191962e-01,-2.593057540641034026e-02
7.810000000000000275e-01,2.976397134544413459e-01,-3.112345011110895787e-01,-1.506960530570282397e-01
7.820000000000000284e-01,3.987653982422126320e-01,-3.533186817712974936e-01,-2.091122062330477427e-01
7.830000000000000293e-01,4.652675150434655293e-01,-3.392843094815198857e-01,-2.761392828830450674e-01
7.840000000000000302e-01,4.352980007400366613e-01,-2.877247566498046250e-01,-2.772982209491083316e-01
7.850000000000000311e-01,3.245466631066973862e-01,-1.909259612857488464e-01,-2.290140183703831267e-01
7.860000000000000320e-01,1.768646070124365588e-01,-7.482184037570373258e-02,-1.643621662558590601e-01
7.870000000000000329e-01,1.948861379655666623e-02,9.225355202731003179e-02,-8.025126359623584171e-02
7.880000000000000338e-01,-1.798521065638383210e-01,2.035770759987522438e-01,1.701573225709896581e-02
7.890000000000000346e-01,-3.284050660387029530e-01,3.140554858647927605e-01,1.396271630041669709e-01
7.900000000000000355e-01,-4.009750774438929355e-01,3.466019013558549466e-01,1.915156817921178090e-01
7.910000000000000364e-01,-4.647696700889687449e-01,3.480606225857136304e-01,2.505345099827340216e-01
7.920000000000000373e-01,-4.168316003914610546e-01,2.722017880247747379e-01,2.694142885470448556e-01
7.930000000000000382e-01,-3.460220900535599942e-01,1.783592228643988420e-01,2.159382746078171156e-01
7.940000000000000391e-01,-1.959133191604173208e-01,3.830473708867524613e-02,1.903247932794007724e-01
7.950000000000000400e-01,-1.960105516797812017e-02,-1.101929645077538988e-01,1.017166954034714604e-01
7.960000000000000409e-01,1.705321520227215115e-01,-2.194369373189276884e-01,-2.904839536133892522e-02
7.970000000000000417e-01,3.173220719326303452e-01,-3.205412796984069557e-01,-1.193112687967864405e-01
7.980000000000000426e-01,4.298214093275049552e-01,-3.467542915213859267e-01,-2.004409209519888990e-01
7.990000000000000435e-01,4.491721367233549866e-01,-3.393386129294498343e-01,-2.745686026242964983e-01
8.000000000000000444e-01,4.334464304734412243e-01,-2.615895078443340460e-01,-2.656739063064197381e-01
8.010000000000000453e-01,3.426820133365859888e-01,-1.698719937436345695e-01,-2.491979787528581791e-01
8.020000000000000462e-01,1.803672822926889741e-01,-4.353247724547917169e-02,-1.984344449861834003e-01
8.030000000000000471e-01,1.860353616666097706e-02,1.046910454914123101e-01,-8.738064465913593371e-02
8.040000000000000480e-01,-1.534659531096183305e-01,2.498055948840808282e-01,-1.005349443677075981e-02
8.050000000000000488e-01,-3.035240543419915893e-01,3.155465147683458871e-01,9.836969249830729289e-02
8.060000000000000497e-01,-4.004072344404178696e-01,3.483736640431323028e-01,1.912256058089247257e-01
8.070000000000000506e-01,-4.608013537801157744e-01,3.523671102934770594e-01,2.509930127951492951e-01
8.080000000000000515e-01,-4.320174569258037889e-01,2.718666667771639789e-01,2.704407164183861290e-01
8.090000000000000524e-01,-3.389057639527916499e-01,1.600614280843490889e-01,2.482740911199126377e-01
8.100000000000000533e-01,-1.918034274646518433e-01,5.303171916348333598e-02,1.792211319951038662e-01
8.110000000000000542e-01,-2.428591456055961134e-02,-1.130174762204644162e-01,1.124876129918870454e-01
8.120000000000000551e-01,1.577625590611762829e-01,-2.269709710899067978e-01,-8.283491889664654911e-03
8.129999999999999449e-01,3.108074162469677826e-01,-3.399737627272543805e-01,-8.569660865654217530e-02
8.139999999999999458e-01,4.106529317195082851e-01,-3.495059630109204063e-01,-1.705698767470112953e-01
8.149999999999999467e-01,4.516245473998670712e-01,-3.279887473517582031e-01,-2.254818145254105788e-01
8.159999999999999476e-01,4.394819171789962065e-01,-2.473331992301920079e-01,-2.553035951700166062e-01
8.169999999999999485e-01,3.385691155161830168e-01,-1.557307081311436747e-01,-2.622434971280228067e-01
8.179999999999999494e-01,1.970528427968612772e-01,-1.825998956651841629e-02,-2.227752917288390866e-01
8.189999999999999503e-01,4.089516467192308435e-02,1.116765270622078060e-01,-1.175795643123807022e-01
8.199999999999999512e-01,-1.185664069980740254e-01,2.374577270710766796e-01,-3.345832143013588444e-02
8.209999999999999520e-01,-2.883093028001909586e-01,3.331446079829150642e-01,7.850156988959250404e-02
8.219999999999999529e-01,-3.833256675248628009e-01,3.727967689033217513e-01,1.730166416454669842e-01
8.229999999999999538e-01,-4.214642051659898692e-01,3.347491980808658396e-01,2.261416369701778339e-01
8.239999999999999547e-01,-4.267593778878823740e-01,2.553278878453661971e-01,2.704697833592529799e-01
8.249999999999999556e-01,-3.466919209952398218e-01,1.479254318014460723e-01,2.565691839732205937e-01
8.259999999999999565e-01,-2.034636624548788741e-01,1.293549129527080815e-02,2.216031916993273232e-01
8.269999999999999574e-01,-4.722649996499364566e-02,-1.348518171090106466e-01,1.260910030353668831e-01
8.279999999999999583e-01,1.345711400939292868e-01,-2.556302531845252024e-01,6.165011736432111922e-02
8.289999999999999591e-01,2.992433882042217497e-01,-3.329252329672902633e-01,-9.058373755081193524e-02
8.299999999999999600e-01,3.925893105700774544e-01,-3.381884084064296636e-01,-1.430323053640887021e-01
8.309999999999999609e-01,4.502410374607572763e-01,-3.434205340611831136e-01,-2.467652679651807790e-01
8.319999999999999618e-01,4.169332434922064512e-01,-2.417967898170208518e-01,-2.776496930139291663e-01
8.329999999999999627e-01,3.452063702791267064e-01,-1.704579397366579596e-01,-2.634508028273142011e-01
8.339999999999999636e-01,2.206119157891172911e-01,-1.295795456031082447e-02,-2.014132637099369239e-01
8.349999999999999645e-01,5.795505497470614803e-02,1.412413659928807297e-01,-1.475514980612960547e-01
8.359999999999999654e-01,-1.357472326727758583e-01,2.453544628451707899e-01,-2.783518877140003789e-02
8.369999999999999662e-01,-3.051771118653618942e-01,3.442792372240799370e-01,7.092614065050242833e-02
8.379999999999999671e-01,-4.092012622010013922e-01,3.591946796808189180e-01,1.448343883583165237e-01
8.389999999999999680e-01,-4.321577796820031958e-01,3.278180540228101125e-01,2.234118133154993913e-01
8.399999999999999689e-01,-4.212662805629052709e-01,2.626785496225615968e-01,2.719074597833897600e-01
8.409999999999999698e-01,-3.760256660037673004e-01,1.343735939291845205e-01,2.618656967136377967e-01
8.419999999999999707e-01,-2.270134096468949536e-01,1.290456033050401720e-02,2.292415151583092336e-01
8.429999999999999716e-01,-3.562010059739786211e-02,-1.268500389024834196e-01,1.667074800436715853e-01
8.439999999999999725e-01,1.288618714463913573e-01,-2.377070234331837006e-01,5.806303068279124180e-02
8.449999999999999734e-01,2.901496734145815326e-01,-3.342358778061029212e-01,-5.134345809479966966e-02
8.459999999999999742e-01,3.797350051034471541e-01,-3.457480130321192169e-01,-1.405011488842928813e-01
8.469999999999999751e-01,4.257721974523043240e-01,-3.375058503779798103e-01,-2.294624642253433044e-01
8.479999999999999760e-01,4.360228128670233239e-01,-2.644008264206827441e-01,-2.644108576780627162e-01
8.489999999999999769e-01,3.864673776037189090e-01,-1.368414992033947231e-01,-2.582720475831785101e-01
8.499999999999999778e-01,2.187438157362976698e-01,1.348392722611568579e-03,-2.378815097605191109e-01
8.509999999999999787e-01,5.308156700017006846e-02,1.375248501763360887e-01,-1.700071472668442107e-01
8.519999999999999796e-01,-9.831011730533106840e-02,2.598405509732581442e-01,-6.799812713534955644e-02
8.529999999999999805e-01,-2.717622031748167521e-01,3.292777431125216703e-01,2.834305114970350065e-02
8.539999999999999813e-01,-3.754327573757370029e-01,3.678834160909804085e-01,1.396565318286806245e-01
8.549999999999999822e-01,-4.611853445376360439e-01,3.242858382042942966e-01,2.044795233457912531e-01
8.559999999999999831e-01,-4.403896324072530954e-01,2.600280230609242071e-01,2.563949808414116571e-01
8.569999999999999840e-01,-3.806716258650156282e-01,1.227194900163919439e-01,2.791024311391451240e-01
8.579999999999999849e-01,-2.547487358472741992e-01,-7.752594066613132783e-04,2.435593361095518827e-01
8.589999999999999858e-01,-8.748658914965062872e-02,-1.415482316566137044e-01,1.684433912309157289e-01
8.599999999999999867e-01,8.603680242212571883e-02,-2.995332418733026580e-01,6.193754728637104745e-02
8.609999999999999876e-01,2.828492257176066782e-01,-3.199360495435692453e-01,-5.735783872866798312e-03
8.619999999999999885e-01,4.022173874939825033e-01,-3.661143033506285560e-01,-1.138213610873229920e-01
8.629999999999999893e-01,4.464352568051259129e-01,-3.219249277287291044e-01,-1.612544799119211281e-01
8.639999999999999902e-01,4.347940216683960912e-01,-2.455080326861006634e-01,-2.490899953712570614e-01
8.649999999999999911e-01,3.610647338111811488e-01,-1.270723651513711860e-01,-2.873259285753247960e-01
8.659999999999999920e-01,2.445215787175769317e-01,1.779407335882931401e-02,-2.339353654937230687e-01
8.669999999999999929e-01,7.680525665860053752e-02,1.667434856152170686e-01,-1.937208676896899628e-01
8.679999999999999938e-01,-8.048635062840901744e-02,2.582783866543930662e-01,-9.903413823042908626e-02
8.689999999999999947e-01,-2.654083421653909425e-01,3.267689595252071810e-01,-1.727384840258724573e-03
8.699999999999999956e-01,-3.471414159170740921e-01,3.480216914470289358e-01,9.725896019354905719e-02
8.709999999999999964e-01,-4.394458388291568318e-01,3.546706959465593667e-01,2.151828281893924943e-01
8.719999999999999973e-01,-4.476046857941031187e-01,2.564041600170694490e-01,2.372915380427838561e-01
8.729999999999999982e-01,-3.875216404902801504e-01,1.202926808521942170e-01,2.700555313352384634e-01
8.739999999999999991e-01,-2.303682149732948770e-01,-1.595221323039357902e-02,2.527615025480038358e-01
8.750000000000000000e-01,-8.005392824874374424e-02,-1.525617883377060335e-01,2.034559353370100632e-01
8.760000000000000009e-01,1.014093842736688844e-01,-2.732460514610552393e-01,8.239702296431737627e-02
8.770000000000000018e-01,2.741922029716168940e-01,-3.289970974942417192e-01,3.650393217863550505e-02
8.780000000000000027e-01,3.760475975585337860e-01,-3.634702305464593275e-01,-7.401226327893489776e-02
8.790000000000000036e-01,4.476156890516574949e-01,-3.334362336284960593e-01,-1.765643185467025977e-01
8.800000000000000044e-01,4.352046906992763087e-01,-2.293341195588085024e-01,-2.511099906827192196e-01
8.810000000000000053e-01,3.861844745118919175e-01,-1.147324325000014245e-01,-2.930792200023322192e-01
8.820000000000000062e-01,2.526738948394999795e-01,1.903275988914558334e-02,-2.525388018085085728e-01
8.830000000000000071e-01,8.153510596448838854e-02,1.634360640441229751e-01,-1.954981618442130920e-01
8.840000000000000080e-01,-7.572156767780936770e-02,2.793040260413210962e-01,-1.083812351514542999e-01
8.850000000000000089e-01,-2.133685574087750281e-01,3.485200885858676378e-01,-1.717840758516728239e-02
8.860000000000000098e-01,-3.525813918002420611e-01,3.498091620464794937e-01,8.313891507181911389e-02
8.870000000000000107e-01,-4.294728198729609314e-01,3.115838821627759381e-01,1.563760330289185319e-01
8.880000000000000115e-01,-4.286414017119277164e-01,2.258820168227126945e-01,2.547778573533256430e-01
8.890000000000000124e-01,-3.724606447587638924e-01,1.136210140375934208e-01,2.807201854843677236e-01
8.900000000000000133e-01,-2.573884525984745375e-01,-4.445454949140680706e-02,2.475463484611496734e-01
8.910000000000000142e-01,-9.131347716910660772e-02,-1.793705763745717108e-01,1.989130215079057962e-01
8.920000000000000151e-01,7.110547671718370211e-02,-2.942447627703869695e-01,1.384493976928897752e-01
8.930000000000000160e-01,2.404922326054952098e-01,-3.585886762918116255e-01,3.704750469377514344e-02
8.940000000000000169e-01,3.656702081619301326e-01,-3.483506775720561777e-01,-4.656204560675007015e-02
8.950000000000000178e-01,4.263784909968195147e-01,-3.074170576071333372e-01,-1.470847496581867420e-01
8.960000000000000187e-01,4.593926757886183654e-01,-2.224719010284924303e-01,-2.550563436156078612e-01
8.970000000000000195e-01,4.011511038304639287e-01,-9.205804178373462598e-02,-2.576410419427535015e-01
8.980000000000000204e-01,2.517870475469985436e-01,4.809864701218644761e-02,-2.768367117787525200e-01
8.990000000000000213e-01,8.152689402356673443e-02,1.678432815851698678e-01,-2.245077889941020088e-01
9.000000000000000222e-01,-7.672387646131331729e-02,2.824243087243215600e-01,-1.441296888108223040e-01
9.010000000000000231e-01,-2.278241218967306525e-01,3.303581253913156490e-01,-3.104470519451837593e-02
9.020000000000000240e-01,-3.602342887298555785e-01,3.684632649128464221e-01,5.444434924143845556e-02
9.030000000000000249e-01,-4.273521480809645001e-01,3.069560539538866428e-01,1.597110720403078221e-01
9.040000000000000258e-01,-4.423998464319812141e-01,2.285769935938399278e-01,2.271803569220519348e-01
9.050000000000000266e-01,-3.727793208972806638e-01,1.035982653161948291e-01,2.625731688613862080e-01
9.060000000000000275e-01,-2.622291400952688756e-01,-3.759754161696569896e-02,2.720325153850197131e-01
9.070000000000000284e-01,-1.167213043309183185e-01,-1.802552025533810109e-01,2.099114131794643512e-01
9.080000000000000293e-01,6.976020556499690217e-02,-2.781452210856004137e-01,1.536373918423082630e-01
9.090000000000000302e-01,2.388645094257392798e-01,-3.319741871379022213e-01,4.372492940423020752e-02
9.100000000000000311e-01,3.785851942059260677e-01,-3.424755277438277234e-01,-4.201031727405536015e-02
9.110000000000000320e-01,4.355952097863921568e-01,-3.134827697047122275e-01,-1.340075723985346967e-01
9.120000000000000329e-01,4.481656054276870749e-01,-2.233617173787508514e-01,-1.964280026537719159e-01
9.130000000000000338e-01,3.890096282219681068e-01,-1.142317432045537595e-01,-2.969317769402759488e-01
9.140000000000000346e-01,2.868420821582040037e-01,4.344668148762592663e-02,-2.733794557401055814e-01
9.150000000000000355e-01,1.228726819462454267e-01,1.944101583327384475e-01,-2.220443826589474645e-01
9.160000000000000364e-01,-6.167623413023346629e-02,2.879445117545879618e-01,-1.696612642231180856e-01
9.170000000000000373e-01,-2.210314970197020112e-01,3.872559359809194524e-01,-8.257476629852941730e-02
9.180000000000000382e-01,-3.584329547150681416e-01,3.629748478495269937e-01,2.827464131557982235e-02
9.190000000000000391e-01,-4.475788056775895640e-01,3.015060063438571580e-01,1.268187876206273157e-01
9.200000000000000400e-01,-4.478419712433744926e-01,2.017043156553550987e-01,2.114674571280767135e-01
9.210000000000000409e-01,-3.799145921037586637e-01,1.007356668579559023e-01,2.726089959994056344e-01
9.220000000000000417e-01,-2.877543316154888009e-01,-5.700909020620823636e-02,2.735657679151995980e-01
9.230000000000000426e-01,-1.345723998816865663e-01,-1.923322638781274629e-01,2.230120840165175644e-01
9.240000000000000435e-01,8.014628303625567773e-02,-2.725964597363368380e-01,1.643090304986876415e-01
9.250000000000000444e-01,2.277544029589894659e-01,-3.589903358082151552e-01,7.327387127441827019e-02
9.260000000000000453e-01,3.523022307252429153e-01,-3.389670629039326921e-01,-1.473479454454597846e-02
9.270000000000000462e-01,4.204449149918047524e-01,-3.117433543385934591e-01,-1.071674909851945134e-01
9.280000000000000471e-01,4.530011679354999377e-01,-2.114071480392020752e-01,-2.030109551253164168e-01
9.290000000000000480e-01,3.919728317370139159e-01,-8.302776664242572657e-02,-2.767202402189978816e-01
9.300000000000000488e-01,2.810265898653306893e-01,5.321545397906965458e-02,-2.538157432683038617e-01
9.310000000000000497e-01,1.373204150184386962e-01,1.769370802136766285e-01,-2.339066361662325844e-01
9.320000000000000506e-01,-4.766456181426277638e-02,3.095112893845690660e-01,-1.695611061134613406e-01
9.330000000000000515e-01,-2.096732792099203213e-01,3.303885655274548805e-01,-8.807936509007310844e-02
9.340000000000000524e-01,-3.393448305846473723e-01,3.561014589823895404e-01,8.718861606350526705e-03
9.350000000000000533e-01,-4.483531105220475710e-01,3.118567797372608918e-01,8.955522836189806768e-02
9.360000000000000542e-01,-4.405312068675059090e-01,2.130840324164604838e-01,1.817145655248357250e-01
9.370000000000000551e-01,-3.990718352734969332e-01,6.588247975032017478e-02,2.575956970547773617e-01
9.379999999999999449e-01,-2.841224192642317625e-01,-5.804034718288994532e-02,2.604491503466525026e-01
9.389999999999999458e-01,-1.080547830860614095e-01,-1.895301540599058088e-01,2.381720182358012805e-01
9.399999999999999467e-01,2.896986966153116197e-02,-3.181631961281465304e-01,2.109876513646956608e-01
9.409999999999999476e-01,2.010308807964481248e-01,-3.309078289597309763e-01,1.015306051897470613e-01
9.419999999999999485e-01,3.631356263319691635e-01,-3.371871012633111397e-01,2.586180934404869874e-02
9.429999999999999494e-01,4.363391931096085585e-01,-3.076889155121398933e-01,-6.975167417486735633e-02
9.439999999999999503e-01,4.368602999660334274e-01,-2.053792296653975391e-01,-1.701379370355575460e-01
9.449999999999999512e-01,3.882694787578221396e-01,-8.480775931218924313e-02,-2.515213890826928922e-01
9.459999999999999520e-01,2.795312284323380192e-01,8.872202122005130864e-02,-2.821692541562507150e-01
9.469999999999999529e-01,1.310449223540819386e-01,1.933194809025214067e-01,-2.415561481237728236e-01
9.479999999999999538e-01,-5.229137116267019297e-02,3.037919341881775703e-01,-2.015002055679413484e-01
9.489999999999999547e-01,-1.915650316056373426e-01,3.373617234948854127e-01,-1.131705068206677323e-01
9.499999999999999556e-01,-3.383620272759389480e-01,3.411264981603729929e-01,-1.058391624683242827e-02
9.509999999999999565e-01,-4.233304494032776311e-01,3.129778755301220738e-01,6.958149039115622825e-02
9.519999999999999574e-01,-4.503685646936413378e-01,2.178327132898676688e-01,1.892313184288031969e-01
9.529999999999999583e-01,-4.060725758352037862e-01,6.635228972865310493e-02,2.451733791619895575e-01
9.539999999999999591e-01,-2.984933299010866237e-01,-1.039639216218767176e-01,2.649270624327302870e-01
9.549999999999999600e-01,-1.435047427842136292e-01,-1.873486975824884548e-01,2.286698850808286942e-01
9.559999999999999609e-01,2.293136292720250949e-02,-2.920645491748468658e-01,1.981151744485774857e-01
9.569999999999999618e-01,1.819797456488136955e-01,-3.661113370338250350e-01,9.699797363216992874e-02
9.579999999999999627e-01,3.148752080873698511e-01,-3.689412405752864332e-01,3.744862826218340983e-03
9.589999999999999636e-01,4.447414577701337413e-01,-2.855178753318016738e-01,-6.028962419737728812e-02
9.599999999999999645e-01,4.426071496491939539e-01,-2.051351748823759535e-01,-1.666576164088685863e-01
9.609999999999999654e-01,4.036639628349882880e-01,-4.386108992641759435e-02,-2.473644427034208115e-01
9.619999999999999662e-01,2.929771941555688319e-01,8.507223886798624679e-02,-2.379912174622575982e-01
9.629999999999999671e-01,1.655792872039962838e-01,2.101189786110702340e-01,-2.521052785824118292e-01
9.639999999999999680e-01,-2.930901180263576628e-02,2.859035762544822057e-01,-2.261826697348109927e-01
9.649999999999999689e-01,-1.869974861154036772e-01,3.650611501182845497e-01,-1.352432229514499706e-01
9.659999999999999698e-01,-3.360340207641476229e-01,3.400705696890115037e-01,-5.020408447885638115e-02
9.669999999999999707e-01,-4.082225134799034594e-01,2.971087440141316760e-01,5.411351635331938109e-02
9.679999999999999716e-01,-4.546063302915510640e-01,1.888112555787095359e-01,1.424404024397656898e-01
9.689999999999999725e-01,-4.124550529948430300e-01,6.207978681643312041e-02,2.224282510770562715e-01
9.699999999999999734e-01,-3.070575360171426404e-01,-8.369438083421176788e-02,2.602260159056120070e-01
9.709999999999999742e-01,-1.814729764486905372e-01,-2.302386856402517112e-01,2.694837606321462964e-01
9.719999999999999751e-01,9.077140254099317143e-03,-3.156007942123396082e-01,2.378351404250278744e-01
9.729999999999999760e-01,1.825389355829328819e-01,-3.427219355698703507e-01,1.476029538334721614e-01
9.739999999999999769e-01,3.498714082063907882e-01,-3.310213118719946834e-01,4.344564482243253034e-02
9.749999999999999778e-01,4.129714138148932734e-01,-2.926982580372464726e-01,-5.607453298845929690e-02
9.759999999999999787e-01,4.415562814599056640e-01,-1.798715297518656830e-01,-1.205924070078400329e-01
9.769999999999999796e-01,4.135235211516256615e-01,-6.486220272646918417e-02,-2.255937716514571090e-01
9.779999999999999805e-01,3.259420701776166718e-01,1.129593007638462626e-01,-2.408073943850629894e-01
9.789999999999999813e-01,1.712319177778578450e-01,2.182559845900162165e-01,-2.646046221911888541e-01
9.799999999999999822e-01,-2.666281813549488053e-02,3.369906495784311673e-01,-2.353401498965607130e-01
9.809999999999999831e-01,-1.724096151744557437e-01,3.627748072427892101e-01,-1.484737881546724925e-01
9.819999999999999840e-01,-3.168384775647992146e-01,3.511447860272837729e-01,-6.967055271899603996e-02
9.829999999999999849e-01,-4.387415647217592918e-01,2.789913663543074906e-01,2.663623960746577812e-02
9.839999999999999858e-01,-4.440160762981583131e-01,1.799706639492307525e-01,1.245286226899193910e-01
9.849999999999999867e-01,-4.142658272184748247e-01,4.897467713951339507e-02,2.171956318282155241e-01
9.859999999999999876e-01,-3.082691542765542692e-01,-8.941293432314356693e-02,2.427504847724388515e-01
9.869999999999999885e-01,-1.488614405497615256e-01,-2.090183549911253102e-01,2.598668494871372303e-01
9.879999999999999893e-01,1.422909684608805909e-02,-3.121119286337052934e-01,2.438564291521827798e-01
9.889999999999999902e-01,1.688085134519479724e-01,-3.595353573602383945e-01,1.917610994413137815e-01
9.899999999999999911e-01,3.017871434106553230e-01,-3.445241664268579584e-01,7.554006760308594470e-02
9.909999999999999920e-01,4.317751509025241075e-01,-2.524448580713807289e-01,-3.819794685059185041e-02
9.919999999999999929e-01,4.633579120297297016e-01,-1.950683210102766019e-01,-1.261819823310718902e-01
9.929999999999999938e-01,4.077837599839366223e-01,-3.589451088986200800e-02,-1.960524094021485475e-01
9.939999999999999947e-01,3.372614619551636550e-01,1.219701123731087855e-01,-2.326486358935696830e-01
9.949999999999999956e-01,1.720681644919750952e-01,2.393645159435600078e-01,-2.728282963562859709e-01
9.959999999999999964e-01,4.021055370657842035e-03,3.105255889316642648e-01,-2.410778716500833474e-01
9.969999999999999973e-01,-1.581994427166578954e-01,3.548942867918092325e-01,-1.672599582563451537e-01
9.979999999999999982e-01,-3.083579829768902658e-01,3.645397863106613623e-01,-7.237410190990013759e-02
9.989999999999999991e-01,-4.018752109607444112e-01,2.735448955308121266e-01,2.096002020662199837e-03
1.000000000000000000e+00,-4.503134952254306267e-01,1.575009447262248896e-01,1.111055562555556125e-01
1.000999999999999890e+00,-4.246370280953247756e-01,1.171110143825644136e-02,2.223254849032176295e-01
1.002000000000000002e+00,-3.440625693305223720e-01,-9.895432798550542197e-02,2.531236745020352674e-01
1.002999999999999892e+00,-1.650572513350811177e-01,-2.398623952210944266e-01,2.708866261034282297e-01
1.004000000000000004e+00,-3.114327945258559688e-02,-3.190521178288712734e-01,2.673669771032224363e-01
1.004999999999999893e+00,1.430181901858888216e-01,-3.764549598253906226e-01,1.959261654119050233e-01
1.006000000000000005e+00,3.078306176556046547e-01,-3.420518123072977534e-01,1.204981143130045979e-01
1.006999999999999895e+00,4.068537421247496733e-01,-2.678784032930380254e-01,-6.042086354206069321e-03
1.008000000000000007e+00,4.695502149320114338e-01,-1.794417005782953656e-01,-1.049664802903395033e-01
1.008999999999999897e+00,4.102775958405636136e-01,-1.833122718784787469e-02,-1.905042360598911411e-01
1.010000000000000009e+00,3.375645250693309340e-01,1.114865754882659182e-01,-2.440012986599191525e-01
1.010999999999999899e+00,2.317622628324885747e-01,2.337265525707261649e-01,-2.570751199188014424e-01
1.012000000000000011e+00,3.018208035556778704e-02,3.028223216647518146e-01,-2.825088174096292981e-01
1.012999999999999901e+00,-1.446349633490722209e-01,3.542867186714969141e-01,-1.883819804509827001e-01
1.014000000000000012e+00,-2.933277224340513079e-01,3.398927827039671112e-01,-1.236285172071366761e-01
1.014999999999999902e+00,-4.171684047491190928e-01,2.845432098369923279e-01,-1.649572972935418533e-02
1.016000000000000014e+00,-4.362091896608510377e-01,1.708759534839882910e-01,7.853938395804054007e-02
1.016999999999999904e+00,-4.261645505417412383e-01,1.548622141148805510e-02,1.732515591207667571e-01
1.018000000000000016e+00,-3.388154481423449327e-01,-1.128235194438687444e-01,2.460500690545482372e-01
1.018999999999999906e+00,-2.053401721195501628e-01,-2.578805885227362094e-01,2.656758993286669757e-01
1.020000000000000018e+00,-2.334905598707361432e-02,-3.331599151776638568e-01,2.503296822692629986e-01
1.020999999999999908e+00,1.427689994857139488e-01,-3.726948930456552289e-01,2.062290078650560743e-01
1.022000000000000020e+00,2.806016888291146816e-01,-3.622702639881466569e-01,1.206626079910671362e-01
1.022999999999999909e+00,4.365596676927380182e-01,-2.684272513544542216e-01,1.668842566833376312e-02
1.024000000000000021e+00,4.503223592219443572e-01,-1.374233920184806945e-01,-8.218592991479356513e-02
1.024999999999999911e+00,4.211558190034714322e-01,-6.148082949251883721e-03,-1.480974496663347573e-01
1.026000000000000023e+00,3.448149099430352083e-01,1.245895025467064071e-01,-2.266906859071734504e-01
1.026999999999999913e+00,2.006560830029442133e-01,2.497992144229144729e-01,-2.640461568504968715e-01
1.028000000000000025e+00,5.284789711094764475e-02,3.312449327474295546e-01,-2.624359688925699263e-01
1.028999999999999915e+00,-1.267030770373628878e-01,3.555518758454056516e-01,-2.018232410894122975e-01
1.030000000000000027e+00,-2.919480843883783816e-01,3.586058302519272156e-01,-1.490750586961032409e-01
1.030999999999999917e+00,-3.971171151255331044e-01,2.523281256427772901e-01,-4.181953374374604293e-02
1.032000000000000028e+00,-4.418709793684950649e-01,1.600510661818149716e-01,7.634495040623438811e-02
1.032999999999999918e+00,-4.325797085871628256e-01,1.161592613400235646e-02,1.521395435305571142e-01
1.034000000000000030e+00,-3.435690795738025050e-01,-1.315216308793704103e-01,2.203992642617207953e-01
1.034999999999999920e+00,-2.399981147203968657e-01,-2.434422382522559158e-01,2.564952887530905778e-01
1.036000000000000032e+00,-5.878367872870485927e-02,-3.246002034553566729e-01,2.622405244088489296e-01
1.036999999999999922e+00,1.453754557667698566e-01,-3.522323297306819700e-01,2.246615191548836654e-01
1.038000000000000034e+00,2.960989117020902950e-01,-3.551463808764130925e-01,1.557090216685034778e-01
1.038999999999999924e+00,4.038699589455340133e-01,-2.791161278268967094e-01,3.491561489905770088e-02
1.040000000000000036e+00,4.451737252272622847e-01,-1.459488321847244863e-01,-6.297566406648714976e-02
1.040999999999999925e+00,4.310697593719507448e-01,4.580099729323683713e-03,-1.500930814759272036e-01
1.042000000000000037e+00,3.567276851209014721e-01,1.618376123775616682e-01,-2.186120808638530866e-01
1.042999999999999927e+00,2.439880955358876002e-01,2.553583897898024646e-01,-2.629267585200635859e-01
1.044000000000000039e+00,7.020376716266384098e-02,3.204213342329369496e-01,-2.822514999321115714e-01
1.044999999999999929e+00,-1.293669748983403422e-01,3.319017734284747667e-01,-2.349794363718486212e-01
1.046000000000000041e+00,-2.914545981751406334e-01,3.333826841112853545e-01,-1.559647177862648615e-01
1.046999999999999931e+00,-4.083862778191765242e-01,2.333893456630377616e-01,-6.543199524781870280e-02
1.048000000000000043e+00,-4.512681847690310777e-01,1.441956539830262507e-01,3.094879108883824212e-02
1.048999999999999932e+00,-4.093029022848183596e-01,5.681992308105972452e-03,1.338061515403438095e-01
1.050000000000000044e+00,-3.629487500798789235e-01,-1.225126076705379541e-01,2.264165251018420699e-01
1.050999999999999934e+00,-2.325025042275853659e-01,-2.438279026864801080e-01,2.479153418651076912e-01
1.052000000000000046e+00,-4.849013366570643219e-02,-3.228544256594005346e-01,2.527756843164134515e-01
1.052999999999999936e+00,1.344102726326987240e-01,-3.641191157385451627e-01,2.432416465078433288e-01
1.054000000000000048e+00,2.902344998744356697e-01,-3.315696514903421765e-01,1.766622762561350923e-01
1.054999999999999938e+00,3.818310536742941519e-01,-2.277567627077511647e-01,7.654497510724128650e-02
1.056000000000000050e+00,4.450034397589668345e-01,-9.747028965383539023e-02,-3.108447464919765826e-02
1.056999999999999940e+00,4.288536712756645941e-01,1.279568670191248182e-02,-1.313359028163540443e-01
1.058000000000000052e+00,3.766856000449087527e-01,1.355993507512822382e-01,-1.931004508923191698e-01
1.058999999999999941e+00,2.326345249611844190e-01,2.615027106054748640e-01,-2.822898057088525925e-01
1.060000000000000053e+00,4.403265593641309678e-02,3.544854145100380105e-01,-2.710169796039759160e-01
1.060999999999999943e+00,-9.895441648027170078e-02,3.709293315054463802e-01,-2.396425765306479105e-01
1.062000000000000055e+00,-2.693949087885502136e-01,3.543267782783028896e-01,-1.937229302936293029e-01
1.062999999999999945e+00,-3.657957582476104585e-01,2.413530337036550455e-01,-1.133062894475985183e-01
1.064000000000000057e+00,-4.378346298933655234e-01,1.391617878188598501e-01,3.936824954972792043e-03
1.064999999999999947e+00,-4.316238897252226425e-01,-1.213465343407129325e-02,1.063003220829882300e-01
1.066000000000000059e+00,-3.753860156719135421e-01,-1.677872143183505305e-01,2.140200294858523034e-01
1.066999999999999948e+00,-2.430993887707403878e-01,-2.680192676111393668e-01,2.326137278544896381e-01
1.068000000000000060e+00,-8.426305744776033113e-02,-3.364836120633765137e-01,2.728883500656564265e-01
1.068999999999999950e+00,1.163035071106609947e-01,-3.644257620359769856e-01,2.342039180753737182e-01
1.070000000000000062e+00,2.439372760467642398e-01,-3.164722499344790885e-01,1.646028902288226570e-01
1.070999999999999952e+00,3.952758211688867651e-01,-2.376105367797990142e-01,1.055725587090646928e-01
1.072000000000000064e+00,4.242140375583898781e-01,-1.409755557045915542e-01,6.676803962042341008e-03
1.072999999999999954e+00,4.468666551541553011e-01,4.568168168585722000e-02,-1.098809233692267379e-01
1.074000000000000066e+00,3.599517741651090952e-01,1.333863857439706591e-01,-1.724917126024604619e-01
1.074999999999999956e+00,2.412376864473542437e-01,2.711012908802126753e-01,-2.501240956150067585e-01
1.076000000000000068e+00,6.810696878248327646e-02,3.257301845904542748e-01,-2.651367904530493869e-01
1.076999999999999957e+00,-1.070810370680728291e-01,3.833399209174787048e-01,-2.575274975757455009e-01
1.078000000000000069e+00,-2.816466763270273344e-01,3.201926326995571115e-01,-2.143536651769178958e-01
1.078999999999999959e+00,-3.647017501215213398e-01,2.343059589451596814e-01,-9.595702935570737946e-02
1.080000000000000071e+00,-4.398891786862388353e-01,1.218424375336765036e-01,1.183065751814147207e-02
1.080999999999999961e+00,-4.316479857775072926e-01,-1.219241742811773797e-02,9.371729664299707774e-02
1.082000000000000073e+00,-3.673562936571671544e-01,-1.550154219375877718e-01,1.927056251801090303e-01
1.082999999999999963e+00,-2.360143783942875995e-01,-2.561046158315734567e-01,2.453378188802946003e-01
1.084000000000000075e+00,-7.477142521229367123e-02,-3.221264182928642028e-01,2.547359991985761463e-01
1.084999999999999964e+00,9.798065859935399524e-02,-3.618950112210769787e-01,2.713335768688110994e-01
1.086000000000000076e+00,2.515890142571829413e-01,-3.316149526758910837e-01,2.038224326037339218e-01
1.086999999999999966e+00,3.757237538246633313e-01,-2.214026550578027108e-01,1.097858825595605797e-01
1.088000000000000078e+00,4.346791572946160920e-01,-1.141119033131081928e-01,3.570152289266469853e-02
1.088999999999999968e+00,4.400515726117133486e-01,1.167701394466913456e-02,-8.317748382511892802e-02
1.090000000000000080e+00,3.781265466287951904e-01,1.747597972683101464e-01,-1.661262386001244318e-01
1.090999999999999970e+00,2.578969116187616040e-01,2.674954647181880807e-01,-2.238960447074278548e-01
1.092000000000000082e+00,1.006714531899263881e-01,3.733178532833502650e-01,-2.661126451512851321e-01
1.092999999999999972e+00,-8.289414334859558642e-02,3.573661077474749037e-01,-2.481302979182344326e-01
1.094000000000000083e+00,-2.718256551907373142e-01,3.196562649330814687e-01,-2.103436346638467846e-01
1.094999999999999973e+00,-3.667383257718969669e-01,2.297689128077708975e-01,-1.228629993404692228e-01
1.096000000000000085e+00,-4.463049853967023806e-01,1.166071477798324568e-01,-4.179980163681549371e-02
1.096999999999999975e+00,-4.369124488313965160e-01,-4.536931355120172454e-02,5.679973745922439754e-02
1.098000000000000087e+00,-3.985278704505898495e-01,-1.615985367579000631e-01,1.554604319893727049e-01
1.098999999999999977e+00,-2.697978748203352373e-01,-2.712000841006821372e-01,2.309076681403555431e-01
1.100000000000000089e+00,-7.833060526559890158e-02,-3.317324518079396989e-01,2.577240072581689634e-01
1.100999999999999979e+00,8.418525894610467963e-02,-3.446111341600572309e-01,2.436088084108703755e-01
1.102000000000000091e+00,2.303543029982770274e-01,-3.054084952830085076e-01,1.982027162876185133e-01
1.102999999999999980e+00,3.698289511278930464e-01,-2.329133218941673855e-01,1.401117282230478767e-01
1.104000000000000092e+00,4.434492095605067630e-01,-1.006424810520857166e-01,5.199954745019472885e-02
1.104999999999999982e+00,4.603019519576647123e-01,3.874824627184859926e-02,-4.467094034031329763e-02
1.106000000000000094e+00,3.836152717696430514e-01,1.796348649734641478e-01,-1.367610419480010941e-01
1.106999999999999984e+00,2.582858630283356161e-01,2.835572186542216766e-01,-2.240726100701926904e-01
1.108000000000000096e+00,1.050711139553773821e-01,3.548601570774139735e-01,-2.806849874208466877e-01
1.108999999999999986e+00,-5.668028682006098773e-02,3.507651235086909347e-01,-2.655886724905971441e-01
1.110000000000000098e+00,-2.360746921049823865e-01,3.232114653139709914e-01,-2.334387896529810380e-01
1.110999999999999988e+00,-3.764674620108932057e-01,2.202829508073180509e-01,-1.669102516555423799e-01
1.112000000000000099e+00,-4.371338279666702742e-01,8.779926634527282503e-02,-7.168365898839616779e-02
1.112999999999999989e+00,-4.362259632023161027e-01,-2.545353301027373366e-02,2.789256805622965935e-02
1.114000000000000101e+00,-3.898595592460487591e-01,-1.905737108587190476e-01,1.026473384636638342e-01
1.114999999999999991e+00,-2.697407568316447235e-01,-2.509560266207886414e-01,2.250499266559613520e-01
1.116000000000000103e+00,-1.133033338186735656e-01,-3.266387327978164667e-01,2.482718612073905873e-01
1.116999999999999993e+00,5.699146684573817845e-02,-3.394875198794219950e-01,2.716043640456763941e-01
1.118000000000000105e+00,2.277784966180073645e-01,-3.234924664707428676e-01,2.506539774697610357e-01
1.118999999999999995e+00,3.786240219131928875e-01,-2.038514739581188950e-01,1.519319912514615067e-01
1.120000000000000107e+00,4.331512766636990697e-01,-7.449351385218269672e-02,7.796516259966143614e-02
1.120999999999999996e+00,4.488167250580935019e-01,4.546833156680212679e-02,-5.836672487091524447e-02
1.122000000000000108e+00,3.963293058016221226e-01,1.861272057391305801e-01,-1.292526520941582602e-01
1.122999999999999998e+00,2.582704500514109158e-01,3.101023523800082726e-01,-2.246111825537348838e-01
1.124000000000000110e+00,1.208615066888907158e-01,3.244056083815147207e-01,-2.565297167238391740e-01
1.125000000000000000e+00,-4.818869068244092946e-02,3.625916767646259475e-01,-2.521729467572093042e-01
1.125999999999999890e+00,-2.351145278443148579e-01,3.179950276056443537e-01,-2.643780404189391420e-01
1.127000000000000002e+00,-3.381883039059137008e-01,2.184343065462765743e-01,-1.819241081231701140e-01
1.127999999999999892e+00,-4.381163601881875591e-01,7.438342560204522225e-02,-8.797789925032308000e-02
1.129000000000000004e+00,-4.539650945758126332e-01,-5.603913243297738156e-02,8.623924467293014873e-03
1.129999999999999893e+00,-3.957670913660177314e-01,-1.756984598834943623e-01,1.085615413601077883e-01
1.131000000000000005e+00,-2.661735685054655298e-01,-3.015481988755253639e-01,1.803353516486546348e-01
1.131999999999999895e+00,-1.189753089487455007e-01,-3.497677882882045397e-01,2.491053983031804864e-01
1.133000000000000007e+00,4.135154815167074727e-02,-3.090539559486638610e-01,2.872834317987109087e-01
1.133999999999999897e+00,2.095249926958468178e-01,-3.007881912702063953e-01,2.426723330885135199e-01
1.135000000000000009e+00,3.588476989311610299e-01,-2.064661080024375317e-01,1.977512088936062840e-01
1.135999999999999899e+00,4.205748643768840167e-01,-1.022843384337102229e-01,1.134703121083747712e-01
1.137000000000000011e+00,4.574591330146008383e-01,4.985518393008143284e-02,-6.859211628387477944e-03
1.137999999999999901e+00,3.649009706908789563e-01,2.038149976899214233e-01,-1.291807273221290131e-01
1.139000000000000012e+00,2.821518337339447013e-01,3.129168592019816453e-01,-1.864574047247141708e-01
1.139999999999999902e+00,1.295215372016803590e-01,3.463207361124581163e-01,-2.532973687196529711e-01
1.141000000000000014e+00,-5.768708450606089416e-02,3.641870757109728629e-01,-2.654356113190596833e-01
1.141999999999999904e+00,-2.126398938759591351e-01,3.032063230477150539e-01,-2.391203651330263968e-01
1.143000000000000016e+00,-3.385387421930661778e-01,1.827240930419102571e-01,-1.878798602175213717e-01
1.143999999999999906e+00,-4.360620254877367041e-01,9.621071077240117564e-02,-1.171373903102893160e-01
1.145000000000000018e+00,-4.695664932685666981e-01,-8.080005392171936418e-02,-1.461753940426538563e-02
1.145999999999999908e+00,-4.129933325085456963e-01,-2.033953937518168664e-01,1.138399992774151992e-01
1.147000000000000020e+00,-2.670893361653599030e-01,-3.090187483597509610e-01,1.920103205810652913e-01
1.147999999999999909e+00,-1.487027156201561617e-01,-3.615134995553363484e-01,2.289064468924604245e-01
1.149000000000000021e+00,4.714405527508782820e-03,-3.395762446253702271e-01,2.523720418769812013e-01
1.149999999999999911e+00,1.909495305973354373e-01,-3.058051270546456868e-01,2.741299096282208692e-01
1.151000000000000023e+00,3.443234823907333486e-01,-2.099338274042363006e-01,2.105114379645957601e-01
1.151999999999999913e+00,4.030320877390636825e-01,-6.298024343140816439e-02,1.121036585358285015e-01
1.153000000000000025e+00,4.355956820918391315e-01,9.491764543992962933e-02,2.902039487247436850e-02
1.153999999999999915e+00,4.169795652197499369e-01,2.179426752203840467e-01,-6.642654214913708277e-02
1.155000000000000027e+00,2.910442209662240098e-01,2.775343597305628407e-01,-1.753981960402094253e-01
1.155999999999999917e+00,1.433773429544045741e-01,3.430665989589546938e-01,-2.114704500044486957e-01
1.157000000000000028e+00,-2.020543041191540795e-02,3.454134048774941124e-01,-2.768698387982825859e-01
1.157999999999999918e+00,-2.111197757815810594e-01,2.798215767759155703e-01,-2.642422712385252836e-01
1.159000000000000030e+00,-3.463532979871300488e-01,2.078723053954958377e-01,-2.250123391191533873e-01
1.159999999999999920e+00,-4.259622234492687065e-01,6.202460339291865354e-02,-1.122403707929932049e-01
1.161000000000000032e+00,-4.595356083357099997e-01,-8.226012333420415490e-02,-2.447752765601287142e-02
1.161999999999999922e+00,-3.993227939717420849e-01,-2.286170488456873151e-01,7.268637859798672551e-02
1.163000000000000034e+00,-3.325010599955263157e-01,-2.997497467243739888e-01,1.694109511266474188e-01
1.163999999999999924e+00,-1.777062713030133911e-01,-3.755391472172198153e-01,2.230331269922425641e-01
1.165000000000000036e+00,1.588213875315667989e-02,-3.604800312046644861e-01,2.725038162148052390e-01
1.165999999999999925e+00,1.823434814367587420e-01,-2.946565716899353649e-01,2.551303157137732036e-01
1.167000000000000037e+00,3.369412700194895915e-01,-1.869589335028920829e-01,2.027222981416682834e-01
1.167999999999999927e+00,4.094206460270102266e-01,-5.449437155367969909e-02,1.436331477913738441e-01
1.169000000000000039e+00,4.269150998108703909e-01,9.468790398447914092e-02,3.124395453438887429e-02
1.169999999999999929e+00,4.143892393505159144e-01,2.284177827227105162e-01,-6.623508153822954547e-02
1.171000000000000041e+00,2.984369508611869337e-01,3.189867431303889389e-01,-1.482589039374576645e-01
1.171999999999999931e+00,1.612210759301925533e-01,3.481049820069991863e-01,-2.297038059725429737e-01
1.173000000000000043e+00,-2.632616722269973380e-03,3.591217653864255954e-01,-2.770922239549387656e-01
1.173999999999999932e+00,-1.989954812598542511e-01,3.106046112859465747e-01,-2.769410603782856417e-01
1.175000000000000044e+00,-3.313725668068713270e-01,1.646860323894345224e-01,-2.408270411023683555e-01
1.175999999999999934e+00,-4.057269229290115797e-01,6.880649496326486647e-02,-1.489508970838543112e-01
1.177000000000000046e+00,-4.371509216227326133e-01,-8.766738480466150507e-02,-5.144212603677411622e-02
1.177999999999999936e+00,-4.121616519643844234e-01,-2.006412103303112926e-01,3.308569932706576650e-02
1.179000000000000048e+00,-3.130178693143928492e-01,-3.018174514861436952e-01,1.382660338132867539e-01
1.179999999999999938e+00,-1.649336651075470339e-01,-3.619151905694960591e-01,1.904303700759118201e-01
