time,acc_x,acc_y,acc_z
0.000000000000000000e+00,4.430900728301380431e-02,2.536697880096507388e-02,3.623068895299877412e-02
1.000000000000000021e-03,5.123475868913610759e-02,1.135837652725094765e-02,3.960890989949272106e-02
2.000000000000000042e-03,3.216254994990035837e-02,2.735042230157338702e-02,4.474274654984884692e-02
3.000000000000000062e-03,-1.259920550740030107e-02,-1.060950992347690566e-02,1.087276630989538785e-02
4.000000000000000083e-03,-1.665707584745354519e-02,-2.310434649733906012e-02,-1.138123021639871578e-02
5.000000000000000104e-03,-1.770065431143270224e-02,-2.296103864084341611e-02,-1.011852940631445368e-02
6.000000000000000125e-03,-3.617384563123020313e-02,-4.448320644229617621e-02,-3.188828102496688716e-02
7.000000000000000146e-03,-4.637048444842130357e-02,-3.346983008154496425e-02,-4.364085364965403224e-02
8.000000000000000167e-03,-4.267192492454105479e-02,-4.365261867766486586e-02,-2.665870935147815826e-02
8.999999999999999320e-03,-5.624222503536510653e-02,-6.702139637505315217e-02,-3.508336852443308396e-02
1.000000000000000021e-02,-3.645363698082555032e-02,-1.836619885196382612e-02,-4.023084973582247148e-02
1.099999999999999936e-02,-4.541195638706196219e-02,-4.443494144773326576e-02,-2.384273902034189305e-02
1.200000000000000025e-02,-9.399217564148529616e-03,-4.419288012102630045e-03,-5.974603075404705255e-03
1.299999999999999940e-02,-2.063328945230321482e-02,-5.079973958888429376e-03,-6.499136640418033684e-03
1.400000000000000029e-02,-2.254478375858405895e-02,2.619335588167492207e-02,-3.184441033242962210e-02
1.499999999999999944e-02,2.057783852956930875e-03,2.786164179660342508e-02,-2.154097265399938679e-04
1.600000000000000033e-02,6.175429075638940585e-02,1.271807019308905141e-02,9.146947472552260233e-03
1.700000000000000122e-02,4.241520509408314848e-02,2.315965209543923223e-02,-1.150119051146270867e-02
1.799999999999999864e-02,3.210342735481991339e-02,3.597117059775471054e-02,5.105228949573520358e-02
1.899999999999999953e-02,6.691054295122608742e-02,4.275893168227250934e-02,2.803698477353858132e-02
2.000000000000000042e-02,6.017722996433514521e-02,5.157328874404433494e-02,3.351785380012432813e-02
2.100000000000000130e-02,2.870555180640781481e-02,1.302068169795629268e-02,2.982836312555572217e-02
2.199999999999999872e-02,3.234414529895485862e-02,2.269067392982362236e-02,2.629862815954606831e-02
2.299999999999999961e-02,3.030881871814629022e-02,1.277883059650174874e-02,2.837495289470422580e-02
2.400000000000000050e-02,-1.533785377413089505e-02,-1.378798625315267104e-02,3.284974266804743109e-02
2.500000000000000139e-02,-1.294598655289302090e-02,-2.236906922410619031e-02,1.817643638716542193e-02
2.599999999999999881e-02,-3.382052911436646270e-02,-3.803931739552332547e-02,5.034917228531338856e-02
2.699999999999999969e-02,-2.439008764167605037e-02,-5.169702498356281567e-02,-2.110262622113633427e-02
2.800000000000000058e-02,-6.453957614820460265e-02,-6.913649444592100124e-02,-3.000104946794461547e-02
2.900000000000000147e-02,-6.314756509922553329e-02,-5.930949952037516820e-02,-2.280127046742991964e-02
2.999999999999999889e-02,-6.226271848584667701e-02,-2.409518419300939185e-02,-2.539138515484907696e-02
3.099999999999999978e-02,-6.253367804144675801e-02,-2.379482903457917631e-02,-2.643169312261307510e-02
3.200000000000000067e-02,-4.890789073606877091e-02,-8.254796506540842266e-03,-2.152148699085296157e-02
3.300000000000000155e-02,-3.327321603667578870e-02,4.238321196965649275e-03,-1.774016558656200948e-02
3.400000000000000244e-02,-2.893217454970103616e-02,2.898675972246861007e-03,-1.455412152204742585e-02
3.500000000000000333e-02,-6.717418963028578063e-03,-1.661963427217855865e-02,-2.595921597882792919e-02
3.599999999999999728e-02,1.968427852117328458e-02,1.273720252049088432e-02,6.668706965096138362e-03
3.699999999999999817e-02,1.909388602199933380e-02,1.445465881104274382e-02,5.574461007031679231e-03
3.799999999999999906e-02,4.725094183713526852e-02,2.298166409569517635e-02,-4.996187821829292794e-04
3.899999999999999994e-02,4.349453057576423143e-02,3.427631072312139343e-02,3.740729521585216960e-02
4.000000000000000083e-02,5.954439378887245449e-02,4.780341812765416531e-02,3.913148990279427530e-02
4.100000000000000172e-02,6.536997886707275607e-02,6.045798119590137243e-02,5.201241011815822129e-02
4.200000000000000261e-02,5.473073409646581761e-02,1.067213593136642248e-02,1.046309240834537684e-02
4.299999999999999656e-02,5.318535899777068754e-02,1.601193613437506408e-02,4.114131096559604794e-02
4.399999999999999745e-02,3.010831460658421402e-02,1.086682466832922071e-02,5.213518977323768067e-02
4.499999999999999833e-02,4.804049641291046648e-03,-1.765693694163488967e-02,7.404995064736206133e-03
4.599999999999999922e-02,1.067448112409469935e-02,-2.538693201412781791e-02,1.908961476782163741e-02
4.700000000000000011e-02,-1.873719597085402380e-02,-3.774976183538666930e-02,6.742337455162299500e-03
4.800000000000000100e-02,-3.374472507668404425e-02,-4.523050772009298143e-02,4.956446191687102591e-03
4.900000000000000189e-02,-2.564966290715716205e-02,-3.377237123053610651e-02,-1.300333836376408279e-02
5.000000000000000278e-02,-4.209772103546841754e-02,-5.135391624606708977e-02,-2.441269228415023085e-02
5.099999999999999672e-02,-5.109101052526367204e-02,-5.906885911235226772e-02,-1.175525441811687763e-02
5.199999999999999761e-02,-5.219115588238027598e-02,-5.102351071715231778e-02,-3.683628010770268607e-02
5.299999999999999850e-02,-3.914950510945178208e-02,-1.860736437367657703e-02,-2.498150842297806526e-02
5.399999999999999939e-02,-3.982920989996138750e-02,-8.450039293300078136e-03,-5.132420247233499683e-02
5.500000000000000028e-02,-8.745307083255488348e-03,-1.137399906924236974e-02,-2.585506572313002113e-02
5.600000000000000117e-02,-1.132243479506389594e-02,1.882171535900309780e-03,-2.447528589467382054e-02
5.700000000000000205e-02,-1.078713430448704352e-02,2.195361282285171207e-03,1.898480920547891953e-03
5.800000000000000294e-02,2.581136120027454489e-02,2.608142370767540727e-02,-1.476475403973186162e-02
5.899999999999999689e-02,3.097938004711838986e-02,1.345806445577315928e-02,2.026874342454489109e-02
5.999999999999999778e-02,4.872715187573089558e-03,3.647004393853888610e-02,2.059131946638317195e-02
6.099999999999999867e-02,6.942751554704236494e-02,3.115916600518002164e-02,7.669375144945614516e-03
6.199999999999999956e-02,4.629953479749287365e-02,5.069410462791944239e-02,1.532412184603278507e-02
6.300000000000000044e-02,5.655678335866148182e-02,3.736718692866011077e-02,1.226089338632264589e-02
6.400000000000000133e-02,4.641462335971242165e-02,2.849218958654783918e-02,2.826854857272317195e-02
6.500000000000000222e-02,4.797268515665050609e-02,4.874541277277617823e-02,4.895886836269194853e-02
6.600000000000000311e-02,3.022241452325426236e-02,9.599486461892895416e-04,2.856330613222214654e-02
6.700000000000000400e-02,-3.068174262271018606e-03,1.862293726727019165e-03,1.599782512321465053e-02
6.800000000000000488e-02,5.835479732857041732e-03,-2.716025024467070073e-02,1.697263738431956451e-02
6.900000000000000577e-02,-2.367062956014305899e-02,-4.326196080083401230e-02,-8.748460666763862442e-03
7.000000000000000666e-02,-1.627742159040173817e-02,-5.341604931597550288e-02,-1.498716959488385556e-02
7.099999999999999367e-02,-4.006984925065205927e-02,-4.651653555911218485e-02,-1.428833679916359164e-02
7.199999999999999456e-02,-4.477365914931293045e-02,-4.410544944514866589e-02,-2.702667523483853751e-02
7.299999999999999545e-02,-5.979549034575887961e-02,-4.866509095059080164e-02,-5.025410743382849321e-02
7.399999999999999634e-02,-6.493525646082694280e-02,-3.791336917293523096e-02,-4.962363795818472423e-02
7.499999999999999722e-02,-5.449222219731194444e-02,-2.555527717606461552e-02,-5.737172183835307498e-02
7.599999999999999811e-02,-3.052379711959190417e-02,-2.056596243847919059e-02,7.989484419272791221e-04
7.699999999999999900e-02,-1.553133979980638249e-02,2.476310688571646546e-03,-1.243700689147801686e-02
7.799999999999999989e-02,-2.597110043242933583e-02,4.107809049652770550e-02,-3.659491097508900392e-02
7.900000000000000078e-02,1.251160056379871204e-02,2.016125819197423646e-02,-1.700404236261291585e-02
8.000000000000000167e-02,1.657797778086699328e-02,3.840537763321125869e-02,1.065290517737203443e-02
8.100000000000000255e-02,2.681200972735539589e-02,3.313518481798118781e-02,-1.853458672041650990e-02
8.200000000000000344e-02,5.212466693215602603e-02,5.812016907078794425e-02,1.557213520954172682e-02
8.300000000000000433e-02,5.347707008440296533e-02,4.243006786542347780e-02,2.324123764396099356e-02
8.400000000000000522e-02,3.697610925351977468e-02,6.049709491898548619e-02,3.240726299688697493e-02
8.500000000000000611e-02,6.328167772000949098e-02,1.974061814303769771e-02,3.580872912311858225e-02
8.599999999999999312e-02,4.204029875747807704e-02,7.852714588979152130e-03,1.994162785823102441e-02
8.699999999999999400e-02,4.467895286958073475e-02,3.637603895852235814e-03,3.803566489302098036e-02
8.799999999999999489e-02,1.281928654100367333e-02,-2.735478341857316281e-02,1.537228332379386719e-02
8.899999999999999578e-02,1.656959749416404837e-02,5.536215449855135494e-04,7.919474411679460618e-03
8.999999999999999667e-02,-3.171135197782821297e-02,-3.774575675098936628e-02,1.448204288930616873e-03
9.099999999999999756e-02,-3.279135963045057972e-02,-3.744106204851432168e-02,-8.474005832575209896e-03
9.199999999999999845e-02,-3.580780025630739966e-02,-5.690889518091677562e-02,-1.625255964219341973e-02
9.299999999999999933e-02,-7.962238320297639060e-02,-5.640420649602259640e-02,4.925255936649833993e-03
9.400000000000000022e-02,-5.450514211085981386e-02,-3.312996199659189178e-02,-4.393151497151114721e-02
9.500000000000000111e-02,-6.051784140878727764e-02,-3.007266343127653827e-02,-3.860492076920189752e-02
9.600000000000000200e-02,-3.296965076724055893e-02,-1.795696928167424614e-02,-2.273494106442029358e-02
9.700000000000000289e-02,-3.357708234080169357e-02,-3.382905097301063327e-03,-9.333864643562499175e-03
9.800000000000000377e-02,-3.218140495326139022e-02,4.665496050400307071e-03,-3.950105391846735203e-02
9.900000000000000466e-02,-9.494320005522201289e-03,7.711346990401247992e-03,-3.603382904144224186e-02
1.000000000000000056e-01,6.302633366108895997e-03,1.838972369509963775e-02,-3.636234647345693710e-02
1.010000000000000064e-01,5.189672028804008866e-03,3.657750713244201785e-02,-2.449431601119072752e-02
1.019999999999999934e-01,2.343142099337360007e-02,3.228996121797429036e-02,-1.131296034605257066e-02
1.029999999999999943e-01,5.883896623271151621e-02,4.852486128760290923e-02,-4.366031748454532978e-03
1.039999999999999952e-01,4.245114083312213904e-02,2.858800009061489983e-02,2.693881914942254305e-02
1.049999999999999961e-01,4.889582476655739141e-02,4.494009147697346912e-02,3.256564082395831117e-02
1.059999999999999970e-01,2.855615169633384659e-02,6.431251902319524982e-02,4.794475793678344006e-02
1.069999999999999979e-01,6.375898339294894246e-02,2.590355530715028609e-02,4.822654913482939815e-02
1.079999999999999988e-01,5.116257499654137952e-02,5.080401693229760068e-02,2.443200742482502796e-02
1.089999999999999997e-01,4.755357495964342845e-02,5.343048495130658243e-03,1.504443863793939948e-02
1.100000000000000006e-01,1.965636640851725972e-02,-1.943519557136475298e-02,3.383660741062422678e-02
1.110000000000000014e-01,-1.604420127347748817e-02,-6.511837816267080324e-03,1.477003899196602070e-02
1.120000000000000023e-01,-2.554776215412661242e-02,-3.885046119359394923e-02,5.951348498667766336e-03
1.130000000000000032e-01,-4.666336063757414720e-02,-4.578057971316883829e-02,-4.238897178036427440e-04
1.140000000000000041e-01,-4.654958923683021749e-02,-3.242111734738269829e-02,-1.491299059992502729e-02
1.150000000000000050e-01,-4.458795733198701872e-02,-4.132488202200547411e-02,-1.642540330922049457e-02
1.160000000000000059e-01,-7.614849558309377819e-02,-4.906705304412639634e-02,-1.596718819136970502e-02
1.170000000000000068e-01,-5.973405803083526450e-02,-6.233798108587329523e-02,-1.143008379426365718e-02
1.179999999999999938e-01,-7.301572265234762549e-02,2.861833188748516749e-04,-3.736947087239021054e-02
1.189999999999999947e-01,-1.920317152334105604e-02,-3.001995450468436868e-02,-2.692971243811581941e-02
1.199999999999999956e-01,-6.739946194020436654e-02,1.080093428866160318e-02,-1.439911003279785613e-02
1.209999999999999964e-01,-2.015053368454966173e-02,2.527834819408421307e-02,-3.838655477668100058e-02
1.219999999999999973e-01,2.372262330899209404e-02,4.421476902263097447e-02,1.130422381384323495e-03
1.229999999999999982e-01,2.554703622061504920e-02,3.983415580138225526e-02,-8.522863890077376700e-03
1.239999999999999991e-01,4.141974255794519943e-02,5.272001351989933499e-02,1.927139325310708298e-03
1.250000000000000000e-01,3.714048172423599359e-02,4.192687943027702951e-02,1.662513882491373912e-02
1.260000000000000009e-01,7.849416766019791381e-02,4.557588313011380621e-02,1.989304170559015594e-02
1.270000000000000018e-01,7.146493911080856187e-02,4.879629037938266328e-02,1.057639769551219598e-02
1.280000000000000027e-01,4.985699062871241233e-02,5.978746945060723489e-02,5.908344352305380798e-02
1.290000000000000036e-01,5.090835832461925586e-02,3.936169245615923906e-02,3.150372619767786292e-02
1.300000000000000044e-01,2.149719017505289861e-02,-9.620749744998264089e-03,3.705126223348050030e-02
1.310000000000000053e-01,1.828780665137015246e-02,3.409165579966948190e-03,2.667389369364337945e-02
1.320000000000000062e-01,2.513751619689674061e-02,-1.401267674290945960e-02,1.578622016743043768e-02
1.330000000000000071e-01,-2.235990395198482646e-03,-3.686394210200821808e-02,-1.125114973694252155e-03
1.340000000000000080e-01,-3.180701271918124490e-02,-5.957714068988065326e-02,1.483677827272381761e-03
1.350000000000000089e-01,-2.867966488152594307e-02,-3.853259080489977034e-02,3.198213679036202798e-03
1.360000000000000098e-01,-6.226865703757453879e-02,-6.601869614761661509e-02,3.236575545083777809e-03
1.370000000000000107e-01,-6.421560269279423527e-02,-3.688211540944141137e-02,-2.715558931921151567e-02
1.380000000000000115e-01,-6.044741317444961987e-02,-4.150118966233122542e-02,-3.064936868079187401e-02
1.390000000000000124e-01,-6.199884443520661814e-02,-1.222097325161476504e-02,-1.624349779645149414e-02
1.400000000000000133e-01,-3.477243310450620073e-02,-3.033317754572643216e-02,-1.581470097135905667e-02
1.409999999999999865e-01,-5.435062953300544286e-02,2.039380275980057743e-03,-3.039063591806524106e-02
1.419999999999999873e-01,-2.209340614954422369e-02,1.096918036213788590e-02,-3.392592935378287156e-02
1.429999999999999882e-01,1.233152478838569870e-03,3.255996990895714677e-02,-2.377558407635920606e-02
1.439999999999999891e-01,1.528726865893007686e-02,3.572378727700515483e-02,-3.203311453789591673e-02
1.449999999999999900e-01,3.683486706125741611e-02,3.327741541951682175e-02,-1.009999198949694012e-02
1.459999999999999909e-01,4.562335545737651599e-02,6.467124987141679993e-02,9.867009195448599515e-03
1.469999999999999918e-01,4.473228606820840031e-02,3.374858037071714473e-02,5.104473064900976950e-03
1.479999999999999927e-01,2.999876296965926087e-02,5.860293312101660240e-02,1.608223898570653940e-02
1.489999999999999936e-01,5.777136308024705125e-02,2.892483302097203710e-02,2.791783411719633151e-02
1.499999999999999944e-01,4.569659803591238911e-02,4.801709544505134569e-02,3.493270466104183430e-02
1.509999999999999953e-01,3.668130110256291598e-02,-9.318842766000387176e-03,2.563946141356386252e-02
1.519999999999999962e-01,3.374813526286907922e-02,-4.171666368676166942e-03,3.300989927773573945e-02
1.529999999999999971e-01,-9.895031434981823443e-03,-2.339313716382215858e-02,1.706586302060271107e-02
1.539999999999999980e-01,6.896727791641556193e-03,-4.933160615821205464e-02,3.610709059504803309e-02
1.549999999999999989e-01,-3.854884426569935019e-02,-2.419124759880948716e-02,1.152498348607163513e-02
1.559999999999999998e-01,-3.406089200251729426e-02,-2.606397461866526502e-02,3.281849957499349650e-03
1.570000000000000007e-01,-6.669274969224553429e-02,-5.328020668108388730e-02,-2.365266250848476956e-02
1.580000000000000016e-01,-3.344622448924806229e-02,-4.050194476327865362e-02,-1.063273170104274412e-02
1.590000000000000024e-01,-6.276102956361054308e-02,-4.219481252412075889e-02,-3.822329227156735093e-02
1.600000000000000033e-01,-3.971040274938245074e-02,-7.437375772264821945e-03,-4.174798699998814866e-02
1.610000000000000042e-01,-5.632920165924387712e-02,-1.437750060187791869e-02,-3.342855812904971247e-02
1.620000000000000051e-01,-3.896661935507123725e-02,-3.527982565745733240e-02,-2.826533643216501065e-02
1.630000000000000060e-01,-1.572735035780992163e-02,-7.209801178979165746e-03,-3.462676498718447737e-02
1.640000000000000069e-01,-2.451844851827543817e-02,1.754480341234785495e-02,-4.551843493453413408e-02
1.650000000000000078e-01,8.347571256451476185e-03,3.291704033097617166e-02,-4.699011043734933890e-02
1.660000000000000087e-01,1.378174376437836003e-02,5.939581091091755694e-02,-2.011844710398488084e-02
1.670000000000000095e-01,3.687436732662629363e-02,2.270160190152898522e-02,1.156052955476886924e-03
1.680000000000000104e-01,4.444692587440981363e-02,4.532806374992461723e-02,-2.789426409938961481e-03
1.690000000000000113e-01,6.231513028345878752e-02,3.264512890987127103e-02,-2.221566615799227054e-03
1.700000000000000122e-01,4.480879769853726713e-02,4.446573507951397108e-02,2.035252404724781014e-02
1.710000000000000131e-01,2.360780516318962408e-02,3.661477008718219683e-02,1.227237959107854194e-02
1.719999999999999862e-01,6.427615496897506886e-02,8.867648406828734439e-03,1.446138841199037968e-02
1.729999999999999871e-01,4.263637707789606768e-02,2.690076498254593065e-02,2.383096639131440653e-02
1.739999999999999880e-01,9.556791056060436051e-03,-1.483200158779452403e-02,4.167514595153994778e-02
1.749999999999999889e-01,2.342701485000603465e-03,-2.638838479780297730e-02,1.626404129071764779e-02
1.759999999999999898e-01,-2.647519219025824475e-03,-3.117297970364650908e-02,1.849063743728171852e-02
1.769999999999999907e-01,-1.209986282168119820e-02,-3.048992418205542093e-02,3.088692244951442463e-03
1.779999999999999916e-01,-3.412561858703070522e-02,-4.110788234217527953e-02,-3.452324201705870427e-03
1.789999999999999925e-01,-5.445524899899010368e-02,-5.888833488428971141e-02,-1.400926947466239747e-02
1.799999999999999933e-01,-5.738469593470569424e-02,-6.615510842757427179e-02,-1.364458808469073969e-02
1.809999999999999942e-01,-6.175358875193378422e-02,-4.816515837917791087e-02,-4.611850272916757226e-02
1.819999999999999951e-01,-8.122717378958872747e-02,-1.874774452859025164e-02,-3.016503603828307040e-02
1.829999999999999960e-01,-3.751941565310148302e-02,1.055730311789465940e-03,-5.356423218783327306e-02
1.839999999999999969e-01,-3.204273082725866278e-02,9.531013456876968187e-03,-1.286291001780840229e-02
1.849999999999999978e-01,-4.514229269342139028e-02,2.491084450309849485e-02,2.558190212080081911e-03
1.859999999999999987e-01,-1.297875213373219164e-02,4.244678403651079568e-02,-5.690895345128139243e-02
1.869999999999999996e-01,-6.564410634313675059e-03,4.955804343103984572e-02,-3.322201216945721430e-02
1.880000000000000004e-01,1.531432367592642195e-02,3.870222423415831808e-02,-2.272811060429641428e-02
1.890000000000000013e-01,5.387045495581255228e-02,3.893530690369780001e-02,4.022495235526992938e-03
1.900000000000000022e-01,5.173974878866077071e-02,5.476664147582115810e-02,1.793972157317810442e-02
1.910000000000000031e-01,5.485148851413076954e-02,1.469174326061958337e-02,1.417303765672393336e-02
1.920000000000000040e-01,7.758878106880631731e-02,6.449694093523493377e-02,4.756661186969545624e-02
1.930000000000000049e-01,3.910849967515879488e-02,1.381803412566012801e-02,6.087890656679800089e-02
1.940000000000000058e-01,6.054478938436331364e-02,2.012491805352595656e-02,6.492519049416656252e-02
1.950000000000000067e-01,3.453402175038544630e-02,3.048251413937588393e-04,4.104029919613172428e-02
1.960000000000000075e-01,2.380405408671757220e-02,-2.724436963232973810e-02,3.340740843205070032e-02
1.970000000000000084e-01,-4.849700082906359920e-03,-3.037055636177789925e-02,3.280984925359136523e-02
1.980000000000000093e-01,9.164209396404383043e-04,-2.794730195148059648e-02,1.430823343901722715e-02
1.990000000000000102e-01,-2.037257555644328769e-02,-4.786028479153046217e-02,9.512252925351074098e-03
2.000000000000000111e-01,-3.119493694738988826e-02,-2.156520542604140403e-02,-3.702959565950907257e-03
2.010000000000000120e-01,-5.132186871682467566e-02,-5.046608365333118268e-02,-8.066717068770998603e-03
2.020000000000000129e-01,-5.496468778189959881e-02,-4.495006799564928851e-02,-3.483766750688836039e-02
2.030000000000000138e-01,-7.998895313539808316e-02,-4.040359765351103638e-02,-2.752375957395074638e-02
2.039999999999999869e-01,-4.417784183631253553e-02,-5.612054501470390387e-03,-8.629972737509176636e-03
2.049999999999999878e-01,-2.022591778094947820e-02,2.003944932133265230e-02,-2.459887232442426949e-02
2.059999999999999887e-01,-2.036494802758247180e-02,6.567865625491713967e-03,-3.047719388484944336e-02
2.069999999999999896e-01,-2.150172272538113105e-02,3.731024941769073289e-02,-4.591374698483188105e-02
2.079999999999999905e-01,1.716077976825722273e-02,2.930238529155410401e-02,-8.040366056586412818e-03
2.089999999999999913e-01,9.070522634233435869e-03,4.160140312054567274e-02,-1.076699397531606997e-02
2.099999999999999922e-01,5.148914286117955985e-02,5.882714025404636032e-02,-3.359928474839717766e-03
2.109999999999999931e-01,5.170659185799988261e-02,3.486900155677233326e-02,2.329064287081069901e-03
2.119999999999999940e-01,7.816451546801402028e-02,2.772380453064586872e-02,7.399949796171186554e-03
2.129999999999999949e-01,7.007022763358974893e-02,2.297250475862122610e-02,3.363864032019148187e-02
2.139999999999999958e-01,6.869036026686800578e-02,2.409227933293668633e-02,5.036563489027530427e-02
2.149999999999999967e-01,4.237013915350150428e-02,1.158973841254215889e-02,5.520352141024394838e-02
2.159999999999999976e-01,2.605688687078358892e-02,1.220993261550276827e-02,5.870599223741262973e-02
2.169999999999999984e-01,2.592461341996386143e-02,-2.600270447183810479e-02,3.387363079441707558e-02
2.179999999999999993e-01,2.186828728650435164e-02,-7.459242897571387483e-03,2.597988717549281831e-02
2.190000000000000002e-01,-1.116506947549075757e-02,-3.683736281091887915e-02,4.289522433777798183e-02
2.200000000000000011e-01,-7.400949686921611155e-03,-5.894729924797391385e-02,1.158019060880601664e-02
2.210000000000000020e-01,-1.405126132247971373e-02,-4.026462433066876206e-02,1.358810866388467792e-02
2.220000000000000029e-01,-2.990453196401923058e-02,-3.247840305270894429e-02,8.700586427128733161e-03
2.230000000000000038e-01,-2.912324027246775485e-02,-2.724881666343519776e-02,5.381356061915190322e-03
2.240000000000000047e-01,-7.069841493617365358e-02,-2.576474281899993404e-02,-6.009740610440940378e-02
2.250000000000000056e-01,-8.413323622779941835e-02,-3.222446682399267640e-03,-2.455839444419653794e-02
2.260000000000000064e-01,-4.611603178141002873e-02,5.636447552805596596e-03,-4.248507654360467872e-02
2.270000000000000073e-01,-3.852158230872920058e-02,1.702159238148061651e-02,-4.114669027876152740e-02
2.280000000000000082e-01,-2.941708205109322405e-02,1.631105859816889617e-02,-1.180875555778381457e-02
2.290000000000000091e-01,1.647137354712926993e-02,3.943068472167090416e-02,-5.061877203995484437e-02
2.300000000000000100e-01,7.632084026474157852e-03,4.727949786211402966e-02,-1.928448665520424155e-02
2.310000000000000109e-01,2.124441023416836355e-02,4.620140667334174389e-02,-3.540351867088399954e-03
2.320000000000000118e-01,4.372646173281207610e-02,3.901813937575682179e-02,-1.314769206239061556e-03
2.330000000000000127e-01,5.539093797912202077e-02,3.557541131999551742e-02,1.635117092831355617e-02
2.340000000000000135e-01,4.775675665710037154e-02,2.134763456051123887e-02,1.434683166703086717e-02
2.349999999999999867e-01,7.302645318542781705e-02,2.859286351915563129e-02,3.665933447138892270e-02
2.359999999999999876e-01,6.284878576420165064e-02,3.651953195588341500e-02,3.347031450874508613e-03
2.369999999999999885e-01,5.417333427196237283e-02,2.193909968584103077e-03,2.213819372111227798e-02
2.379999999999999893e-01,2.316162838984484398e-02,-2.472346026257040558e-02,1.697993757123236053e-02
2.389999999999999902e-01,8.451880417711042995e-03,-3.654789545381023630e-02,3.883722053901766252e-02
2.399999999999999911e-01,-5.477590727619613929e-03,-3.564541370703413342e-02,1.844104452133431271e-02
2.409999999999999920e-01,-3.770988776897950777e-03,-3.958021658148725558e-02,8.973936413942295437e-03
2.419999999999999929e-01,-4.135893573965465642e-02,-3.235902264954337165e-02,7.622792459809978050e-03
2.429999999999999938e-01,-3.559891478008410381e-02,-3.300130672582907848e-02,1.828083459667719651e-02
2.439999999999999947e-01,-4.379132132272198913e-02,-2.813100068709080068e-02,2.013387988447389726e-02
2.449999999999999956e-01,-6.182214854850236890e-02,-6.286392380910287708e-03,-2.656407536622674634e-02
2.459999999999999964e-01,-5.883752825099368422e-02,-9.408129403094392385e-03,-3.989368406850040544e-02
2.469999999999999973e-01,-6.652908320905018269e-02,5.332532391814688404e-03,-2.767955085781303309e-02
2.479999999999999982e-01,-3.651458390141336385e-02,3.711262233421986278e-04,-2.823061468928923790e-02
2.489999999999999991e-01,-2.776534424894090691e-02,2.456721791096215871e-02,-2.350475078135055157e-02
2.500000000000000000e-01,-7.356559867182783409e-03,5.161488620097054447e-02,-3.611919302960584638e-02
2.510000000000000009e-01,9.245606401975600339e-03,3.395983717216314451e-02,-4.273857824361588370e-02
2.520000000000000018e-01,7.730519361329119335e-03,6.274918102644171103e-02,-2.364325426827735069e-02
2.530000000000000027e-01,3.342697720939376282e-02,3.233659014436054968e-02,-1.824285837625638437e-02
2.540000000000000036e-01,6.543718427431489959e-02,4.220333546524682178e-02,7.356950687909567105e-03
2.550000000000000044e-01,5.019575920505066347e-02,2.384724520170167922e-02,-9.089734152629171809e-03
2.560000000000000053e-01,7.207766907461213290e-02,2.839071930436005975e-02,9.117238607912286213e-03
2.570000000000000062e-01,4.875181253585952890e-02,2.354389057331251339e-02,1.837694693530586565e-02
2.580000000000000071e-01,4.574401577188826062e-02,-2.138579183531668162e-02,1.784050755264133398e-02
2.590000000000000080e-01,2.981456791143392501e-02,-1.894351551965917785e-02,3.459236969671435763e-02
2.600000000000000089e-01,1.529382394409397466e-02,-5.566424026219869009e-02,2.604716161717901546e-02
2.610000000000000098e-01,7.584491574440937155e-03,-7.498210014868682272e-02,4.231694356899461801e-02
2.620000000000000107e-01,1.643324348689008743e-02,-3.493734926745486330e-02,2.871371921103983357e-02
2.630000000000000115e-01,-5.946118303054882641e-03,-3.682109976330089074e-02,2.685029236071999337e-02
2.640000000000000124e-01,-3.290749936036681256e-02,-6.375552459449497500e-02,2.879823154306123192e-02
2.650000000000000133e-01,-5.309261179348929993e-02,-3.235741261634267341e-02,5.911994847056120835e-03
2.660000000000000142e-01,-5.621401427906857345e-02,-3.155010743567175646e-02,5.281065968036077231e-03
2.670000000000000151e-01,-4.510632137555713184e-02,-5.121585272473413303e-02,-1.721188890464519020e-02
2.680000000000000160e-01,-4.453787164667988990e-02,-1.548621875113308927e-02,-3.934647152997674396e-02
2.690000000000000169e-01,-3.970065132102296168e-02,1.440678207328829896e-02,-3.974493393684002535e-02
2.700000000000000178e-01,-3.278157530638331485e-02,8.022636597173712913e-03,-4.471233526903883176e-02
2.710000000000000187e-01,-1.419033114240000545e-02,1.248714371167296278e-02,-1.521927219241615663e-02
2.720000000000000195e-01,-8.483219284107914454e-03,4.957008620500465840e-02,-3.877912885785460284e-02
2.730000000000000204e-01,3.363676863345044926e-02,2.049195649201512176e-02,-5.316215374170372293e-02
2.740000000000000213e-01,2.599742673947091215e-02,5.342462848429564010e-02,-2.258075183661535298e-02
2.750000000000000222e-01,5.034683050265988113e-02,3.585868486004616107e-02,-1.847929719988511757e-02
2.760000000000000231e-01,3.645838865511080024e-02,3.239176318264729015e-02,8.850710413318032058e-03
2.770000000000000240e-01,6.652529960989267410e-02,3.046321565013394850e-02,-1.077720831277982974e-02
2.780000000000000249e-01,7.427569384432582134e-02,1.955841626381722362e-02,3.911605249803935813e-02
2.790000000000000258e-01,6.303030889007191218e-02,3.774143586688404051e-02,3.309101308654561341e-02
2.800000000000000266e-01,2.658525727771760341e-02,3.843406344722703240e-03,4.635611389741863680e-02
2.810000000000000275e-01,3.391686478253561066e-02,-2.091480727796932865e-02,5.105633794103328627e-02
2.819999999999999729e-01,2.898262035325039829e-02,-8.032425879355258036e-03,7.637055118623854028e-03
2.829999999999999738e-01,-1.613671477944006449e-02,-4.237885040418976762e-02,3.829986067794059063e-02
2.839999999999999747e-01,-4.358039303279601789e-02,-5.635806847347270276e-02,2.749726406588611297e-02
2.849999999999999756e-01,-8.115423338929788830e-03,-6.100628379422575603e-02,2.690843907054278616e-02
2.859999999999999765e-01,-5.329260309019503289e-02,-3.337238181703896384e-02,1.642841411028637261e-02
2.869999999999999774e-01,-4.304210913491893220e-02,-5.651295280670596416e-02,-1.767325860483548797e-02
2.879999999999999782e-01,-6.772385271221451064e-02,-2.759625470292063898e-02,-1.469238455367854503e-02
2.889999999999999791e-01,-6.809445973626047921e-02,-1.208099628248573412e-03,-2.276093870232680574e-02
2.899999999999999800e-01,-5.544730038699289404e-02,-1.258865499015256705e-02,-2.901909794422440070e-02
2.909999999999999809e-01,-3.121281084513020249e-02,1.350573323571483027e-02,-2.972432105963660615e-02
2.919999999999999818e-01,-3.916982593570002280e-02,1.173686842267853900e-02,-2.403436279779226636e-02
2.929999999999999827e-01,-1.221229151114999398e-02,2.318488635596269512e-02,-4.892548154704722679e-02
2.939999999999999836e-01,-9.109915178022791283e-04,4.045352295967717671e-02,-4.176833503650364404e-02
2.949999999999999845e-01,-4.291808480069513911e-03,4.305815434499023903e-02,-5.388117116078246227e-02
2.959999999999999853e-01,3.130161643810377980e-02,6.183630212654842029e-02,-1.422658204092371557e-02
2.969999999999999862e-01,6.073321857760469178e-02,3.449798429205706146e-02,6.790840954281754556e-03
2.979999999999999871e-01,5.870100654062801460e-02,3.380643357621838929e-02,8.655853951385592026e-05
2.989999999999999880e-01,3.976781774006508258e-02,2.292419592650088087e-02,-5.343209659930846971e-04
2.999999999999999889e-01,3.011729963456844308e-02,1.349809835788124031e-02,2.030366241883735032e-02
3.009999999999999898e-01,5.831649501583891643e-02,-1.887683763824339958e-02,2.964941952002518935e-02
3.019999999999999907e-01,7.555791291245381180e-02,-1.220713681372310316e-02,3.315793706777653976e-02
3.029999999999999916e-01,3.037135312584696503e-02,-1.399107228053811033e-02,3.174688065906162981e-02
3.039999999999999925e-01,2.333450803121036796e-02,-3.120460906491967501e-02,2.246521177869858707e-02
3.049999999999999933e-01,1.360262807310588101e-02,-4.375386189205874438e-02,3.060917530540701106e-02
3.059999999999999942e-01,-1.137064762812171718e-02,-5.901560103453031697e-02,4.749597908080487041e-02
3.069999999999999951e-01,-4.885788980650394853e-02,-6.622096113728799527e-02,1.464296392130168094e-02
3.079999999999999960e-01,-3.293766045125677555e-02,-2.504093150723556843e-02,5.670521628711871175e-03
3.089999999999999969e-01,-4.796098737255794636e-02,-2.996283232066805635e-02,-2.355785998767517125e-02
3.099999999999999978e-01,-4.493191524936102771e-02,-9.381092528084182883e-03,-3.394585953023347702e-02
3.109999999999999987e-01,-2.943461509427407544e-02,-3.187973920178710334e-03,-3.171680754775746403e-02
3.119999999999999996e-01,-3.438726151174373302e-02,2.221664776971973235e-03,-1.428843488399606995e-02
3.130000000000000004e-01,-4.306804404485877619e-02,2.157827681470153233e-02,-2.551500083834728344e-02
3.140000000000000013e-01,-1.196230532193095532e-02,5.695382572238069652e-02,-2.866394816756524452e-02
3.150000000000000022e-01,-5.646570721795400420e-03,3.501441650558089619e-02,-1.389529195728825446e-02
3.160000000000000031e-01,3.134858843736056805e-02,9.229601784379783819e-03,-3.504884872464958390e-02
3.170000000000000040e-01,8.447646950592446399e-03,3.840013202453902708e-02,-3.320116802137357270e-02
3.180000000000000049e-01,3.453085979696458863e-02,2.960999885312377497e-02,-1.144698683272957207e-02
3.190000000000000058e-01,6.682747397330685013e-02,4.926387865943932659e-02,1.311874167585671451e-03
3.200000000000000067e-01,3.600825530414959036e-02,2.856992081412259091e-02,7.806313450918760284e-03
3.210000000000000075e-01,6.810818923003561509e-02,9.769782653078235013e-03,5.459458014382165963e-03
3.220000000000000084e-01,8.055438914190568567e-02,-7.915623201200129577e-03,1.563702328264226366e-02
3.230000000000000093e-01,5.717937639776813491e-02,-3.342064673728380869e-03,3.702703969151591862e-02
3.240000000000000102e-01,1.826897349653567801e-02,-4.392948276691288623e-02,3.624876683017361212e-02
3.250000000000000111e-01,2.457221172087118224e-02,-3.137675871482169254e-02,3.270671805274501243e-02
3.260000000000000120e-01,-2.863140114323471392e-03,-5.166817755608104495e-02,4.198581717227554966e-02
3.270000000000000129e-01,-3.626753311836204002e-02,-5.845824468321837025e-02,2.701535038648778669e-02
3.280000000000000138e-01,-2.027112387922404280e-02,-5.155793289578849276e-02,2.691070796798886861e-02
3.290000000000000147e-01,-2.089021617041426568e-02,-4.633014888951437343e-02,2.002755676661585604e-02
3.300000000000000155e-01,-4.803257430910117670e-02,-3.531908400829911893e-02,1.700542935543564518e-02
3.310000000000000164e-01,-3.904281587680584475e-02,-6.453751598804025047e-02,1.002590801616477009e-03
3.320000000000000173e-01,-6.221013478464371138e-02,-3.657132192629353185e-02,7.632500100238370951e-03
3.330000000000000182e-01,-4.604021803132632429e-02,9.390962868564131302e-03,-2.645837489883953383e-02
3.340000000000000191e-01,-5.283257393184746104e-02,2.796842916780291777e-03,-3.694871655331927185e-02
3.350000000000000200e-01,-2.358671959749283203e-02,4.845230738321584102e-02,-3.392983163210791520e-02
3.360000000000000209e-01,-1.807844121604992513e-02,4.440339660525095128e-02,-1.661751797895260480e-02
3.370000000000000218e-01,1.265916788316235600e-03,5.456654814757412597e-02,-2.153675647551666836e-02
3.380000000000000226e-01,2.441104777207631429e-02,3.579451466113774821e-02,-4.748014635649919907e-02
3.390000000000000235e-01,3.669331365013689394e-02,4.625519464236104578e-02,-3.105602984771614616e-02
3.400000000000000244e-01,4.650316667698096984e-02,4.351887498472215704e-02,-2.601094817019707420e-02
3.410000000000000253e-01,5.355616918075457172e-02,3.272841667789495868e-02,3.678340684313888970e-02
3.420000000000000262e-01,6.995475604585499330e-02,6.089119693449335756e-03,-7.651674958351614014e-03
3.430000000000000271e-01,5.458602531945615233e-02,-9.085569970553108304e-03,7.279745056070383372e-03
3.439999999999999725e-01,4.185666111095863451e-02,-1.183584282623935738e-02,1.159258242097247101e-02
3.449999999999999734e-01,1.156080375984835061e-02,-1.445500997446633532e-02,3.719078398083968534e-02
3.459999999999999742e-01,2.484480151975847206e-02,-4.728044946640234947e-02,9.806185557837729383e-03
3.469999999999999751e-01,1.506068220072674310e-02,-3.048880216435408824e-02,4.619903870358700593e-02
3.479999999999999760e-01,1.002579017823383538e-02,-6.094874992954432691e-02,3.175701734305542284e-02
3.489999999999999769e-01,9.272864098044062905e-03,-6.281438443325829124e-02,9.522860411847678536e-03
3.499999999999999778e-01,-2.609979022498160051e-02,-6.102147453062827659e-02,8.014499470382505097e-03
3.509999999999999787e-01,-4.179203814187688187e-02,-3.417877932111021422e-02,4.393305809087720559e-03
3.519999999999999796e-01,-7.639852773178740231e-02,-4.585142454210248270e-02,-1.144279969082820370e-02
3.529999999999999805e-01,-5.845223620435011092e-02,-1.082657541165737633e-02,-3.521472444436576227e-02
3.539999999999999813e-01,-6.593155279861483142e-02,-2.589754881071100467e-02,-2.287849784718626323e-02
3.549999999999999822e-01,-7.059198759939619428e-02,1.652772115519144866e-02,-6.048924718024585763e-03
3.559999999999999831e-01,-8.557367181393965572e-02,1.996936562900314752e-02,-2.795579334810609218e-02
3.569999999999999840e-01,-5.798629456439949315e-02,2.168231469256878818e-02,-5.160868281892701942e-02
3.579999999999999849e-01,-2.323361088893685644e-02,4.129334897233963991e-02,-4.572278986916244320e-02
3.589999999999999858e-01,1.142535328709300482e-02,2.850646591775754871e-02,-3.680177512502190440e-02
3.599999999999999867e-01,2.435608254525916186e-02,5.737384951911438102e-02,-8.944690658167222044e-03
3.609999999999999876e-01,2.147407316509373013e-02,2.706627031320667232e-02,-2.963319553402450970e-02
3.619999999999999885e-01,3.505073345765233328e-02,3.380042937303834316e-02,8.720998109849380231e-03
3.629999999999999893e-01,4.301589034887420143e-02,1.198935243863099263e-02,-3.355431938183554841e-02
3.639999999999999902e-01,7.502929593709027623e-02,1.228989397835298508e-02,-1.705311694390146963e-05
3.649999999999999911e-01,2.646294103919416899e-02,-8.913178399064943316e-03,2.337272411018794654e-02
3.659999999999999920e-01,4.285424215855635627e-02,4.005686759270720571e-03,8.407664595128695045e-03
3.669999999999999929e-01,4.022112449714832644e-02,-3.273730427468077991e-02,4.265220011807020067e-02
3.679999999999999938e-01,4.440649610860235991e-02,-4.372497152008724547e-02,7.422603066553838669e-02
3.689999999999999947e-01,1.113493660782572704e-02,-4.532129740422418535e-02,1.470801144992188447e-02
3.699999999999999956e-01,-1.833760494294359167e-02,-6.688299082230732273e-02,4.103659049562187466e-02
3.709999999999999964e-01,-3.526302855287708621e-02,-4.839754564364136952e-02,2.464428831147606747e-02
3.719999999999999973e-01,-4.186843458443691851e-02,-5.115043911728217596e-02,1.670954395913451518e-02
3.729999999999999982e-01,-3.741392986528230269e-02,-4.757714583153878352e-02,-6.994885035681409164e-04
3.739999999999999991e-01,-4.183239562107471388e-02,-3.908640498004059549e-03,2.377923810470554487e-03
3.750000000000000000e-01,-5.143530291844012475e-02,-1.512241935858457675e-02,8.932084232811979621e-03
3.760000000000000009e-01,-4.924819798068131443e-02,1.454572088273727373e-02,-2.586073648188532727e-03
3.770000000000000018e-01,-5.818145285793206722e-02,2.613093477084682884e-02,-3.099485627245406050e-02
3.780000000000000027e-01,-3.199137814810843611e-02,3.601013938507174189e-02,-5.700584687805559242e-02
3.790000000000000036e-01,-1.527206025225212420e-02,6.230882639294315489e-02,-4.455293871489787033e-02
3.800000000000000044e-01,-3.341228034440214129e-02,5.371184034537692525e-02,-1.870807881591127556e-02
3.810000000000000053e-01,1.433658540749548418e-02,4.633907261865849447e-02,-5.106229939968613685e-02
3.820000000000000062e-01,1.355036593788141661e-02,5.379942680003521605e-02,-2.688714640204969628e-02
3.830000000000000071e-01,3.980971534197084993e-02,7.129840217363022682e-03,-1.731070579071088134e-02
3.840000000000000080e-01,4.445764021197582544e-02,3.551387004301927858e-02,-1.160042907059269206e-02
3.850000000000000089e-01,7.506064125668179821e-02,5.919992955406612987e-03,7.650528151732974465e-03
3.860000000000000098e-01,4.071411636059888567e-02,2.023274042807170908e-02,1.099903902429445225e-02
3.870000000000000107e-01,4.474307036886709943e-02,6.754951691196698325e-03,1.035915589356610489e-02
3.880000000000000115e-01,3.635416588600686588e-02,-3.484422724731575660e-02,1.207444685219719559e-02
3.890000000000000124e-01,2.538292281961752536e-02,-3.318548801953150051e-02,3.239104383077368726e-02
3.900000000000000133e-01,-1.769518360321734561e-04,-3.879360873337874688e-02,3.332195071906404044e-02
3.910000000000000142e-01,-5.557536875765257262e-03,-5.033231820530453121e-02,5.195923715239035567e-02
3.920000000000000151e-01,-1.350187236213120853e-02,-4.710374667725577419e-02,3.754652908733058930e-02
3.930000000000000160e-01,-4.730748341071464025e-02,-2.459854618206894564e-02,2.760873078494098520e-02
3.940000000000000169e-01,-4.417275640757733352e-02,-3.131475200229130035e-02,2.002672325176926144e-02
3.950000000000000178e-01,-4.897713194769780926e-02,-1.517413402961280584e-02,8.966782798144737332e-03
3.960000000000000187e-01,-3.879120506898359882e-02,-2.276537147555947674e-02,-1.489047135588210218e-02
3.970000000000000195e-01,-2.586424641108854561e-02,-1.590047994913145260e-02,-7.485356411817829271e-03
3.980000000000000204e-01,-4.751606918638193872e-02,2.297243708115889738e-03,-1.248784540257115092e-02
3.990000000000000213e-01,-4.877311401854171613e-02,3.288184164856996355e-02,-3.727836135847194948e-02
4.000000000000000222e-01,-2.331623668858742379e-02,2.688856542476602066e-02,-2.762452458280057616e-02
4.010000000000000231e-01,6.651981722800986985e-03,3.728105986352399370e-02,-3.220955520612106548e-02
4.020000000000000240e-01,2.615032140559731336e-02,5.353441913279355369e-02,-3.333635467908283023e-02
4.030000000000000249e-01,1.868759855167653749e-02,5.942332935228119423e-02,-1.112929739328484720e-02
4.040000000000000258e-01,4.089349595722305969e-02,3.702969410448287563e-02,-3.849216457802613622e-02
4.050000000000000266e-01,3.904964993572863918e-02,3.479074815130926007e-02,-1.133177868077578018e-02
4.060000000000000275e-01,4.750468996614083672e-02,-1.084038317078495767e-02,-2.281719326622482294e-02
4.069999999999999729e-01,5.998640678409732779e-02,2.181336053737447517e-03,-8.324533265162607429e-03
4.079999999999999738e-01,3.410976873563982548e-02,1.609680274694328186e-02,3.775828081836919703e-02
4.089999999999999747e-01,6.926111403765961017e-02,-2.010435208364333426e-02,1.077562602781180143e-02
4.099999999999999756e-01,2.093738785497864865e-02,-5.641761761006382214e-02,1.779732737995035757e-02
4.109999999999999765e-01,3.556786240554654643e-02,-3.833034893834962042e-02,2.661229855884623963e-02
4.119999999999999774e-01,2.724915178805581081e-02,-6.406471483879618012e-02,1.126438165670660962e-02
4.129999999999999782e-01,-3.381544073608155898e-02,-1.516895199718870484e-02,2.202052779432879179e-02
4.139999999999999791e-01,-1.915121007176612267e-02,-3.500002190154597598e-02,4.200545258752861472e-02
4.149999999999999800e-01,-6.931184874984011590e-02,-2.263603832519438600e-02,2.167534585780916609e-02
4.159999999999999809e-01,-3.956236945645237590e-02,-2.829006035111166287e-02,1.592083441266393257e-02
4.169999999999999818e-01,-4.621730535795574163e-02,-1.589333645507517989e-02,2.492055930727440222e-02
4.179999999999999827e-01,-4.835964828332807441e-02,-1.555742211699651621e-02,1.019761267319316614e-02
4.189999999999999836e-01,-5.990264187764315906e-02,7.262539758721665503e-03,-1.226633727500832556e-02
4.199999999999999845e-01,-6.149066628975589921e-02,9.140336226545005618e-03,9.847698398295879132e-03
4.209999999999999853e-01,-5.914078021784292816e-02,3.943552297028729559e-02,-2.872187050497431587e-02
4.219999999999999862e-01,-2.050924543877139308e-02,5.040021598460025370e-02,-2.330328185496981924e-02
4.229999999999999871e-01,-1.028123691831778208e-02,2.162954639929354911e-02,-3.204661218789914973e-02
4.239999999999999880e-01,6.983773426404721188e-04,5.185315645332959356e-02,-4.367951539099273334e-02
4.249999999999999889e-01,4.803783051582623947e-02,5.301237746508349197e-02,-2.652233598470157827e-02
4.259999999999999898e-01,4.648222642324854881e-02,2.398896706342766583e-02,-1.947963935850485079e-02
4.269999999999999907e-01,4.842104963706661547e-02,4.712111080867809054e-02,-3.149983155057824863e-02
4.279999999999999916e-01,5.034681325168316457e-02,1.455000652241265728e-02,6.971437495666573357e-03
4.289999999999999925e-01,5.261845053254545629e-02,1.435922502173441612e-02,-3.543691139878049103e-03
4.299999999999999933e-01,5.844527713273158648e-02,-6.624990292695817108e-03,4.499780343960969181e-02
4.309999999999999942e-01,4.688740213526394751e-02,-2.177515917116366190e-02,1.797260546209712359e-02
4.319999999999999951e-01,3.864262446995084255e-02,-5.696634805002011304e-02,3.269614161314193107e-02
4.329999999999999960e-01,2.931440275545152234e-03,-5.348714071089379074e-02,8.032047175146538390e-03
4.339999999999999969e-01,7.259520934709739505e-03,-3.281333572923534475e-02,2.781299002175536064e-02
4.349999999999999978e-01,-1.366388075600121974e-02,-3.786973534887637383e-02,1.274793717106549595e-02
4.359999999999999987e-01,1.966962904508808615e-03,-5.503583488984241379e-02,-2.555113329871315075e-03
4.369999999999999996e-01,-3.031069048080013012e-02,-5.038829227313231657e-02,3.011934984953511946e-02
4.380000000000000004e-01,-5.189635698771238870e-02,-3.316528503160121044e-02,-1.836813753455090494e-03
4.390000000000000013e-01,-5.168039398808769308e-02,-6.917245509929685968e-03,-1.293974839085970663e-02
4.400000000000000022e-01,-6.021652775073103175e-02,-1.629335450625590473e-02,-1.654625811511185873e-02
4.410000000000000031e-01,-6.603844616729409589e-02,1.723888710762523646e-02,-1.983071759391885625e-02
4.420000000000000040e-01,-5.809627818003218480e-02,2.972737223524847647e-04,-2.777873465893619664e-02
4.430000000000000049e-01,-9.498830306711988913e-03,5.876193468987792046e-02,-2.968813093872479242e-02
4.440000000000000058e-01,-1.206344449172891929e-02,5.401120022331151738e-02,-3.640491589293864960e-02
4.450000000000000067e-01,5.997210033094668361e-05,4.639843235627416629e-02,-3.552848048027611866e-02
4.460000000000000075e-01,1.749773821622648343e-02,4.233684509436002469e-02,-2.902986723857858137e-02
4.470000000000000084e-01,3.445497815172566397e-02,3.858836733210951886e-02,-1.742003015804861540e-02
4.480000000000000093e-01,2.241136213239807926e-02,2.947685791541002423e-02,-1.150542598836958204e-02
4.490000000000000102e-01,6.987947001681944770e-02,1.808659530419700137e-02,-3.966951307561250584e-03
4.500000000000000111e-01,4.753081307626032259e-02,-2.616728087649846171e-03,2.485284375762845249e-03
4.510000000000000120e-01,6.032714990934368721e-02,-1.249684691264689104e-02,1.343323770644391964e-02
4.520000000000000129e-01,3.161095816650544288e-02,-3.634261827327577021e-02,7.490457842779137988e-03
4.530000000000000138e-01,4.969339848241462881e-02,-2.179968376559970195e-02,3.775211368352573982e-02
4.540000000000000147e-01,1.267493280471144318e-02,-2.502958422329150043e-02,4.816132058671968030e-02
4.550000000000000155e-01,2.755812465718534068e-02,-4.078892739799649253e-02,4.499768363617862033e-02
4.560000000000000164e-01,3.297878690219217465e-03,-4.572473960928037651e-02,1.351132450548556650e-02
4.570000000000000173e-01,-2.265154367050826491e-03,-4.418941290914749076e-02,4.283857714812241285e-02
4.580000000000000182e-01,-5.334881230716039674e-02,-4.477355570574512861e-02,5.419422839349077176e-02
4.590000000000000191e-01,-4.831934982284324248e-02,-4.464972618716608888e-02,3.067524818714033666e-02
4.600000000000000200e-01,-3.903916071933620502e-02,-3.815858025525885322e-02,3.385231071681081561e-02
4.610000000000000209e-01,-5.228173130035385086e-02,2.638551028995340681e-03,1.904071657423476657e-02
4.620000000000000218e-01,-3.777065663673950108e-02,1.351139840108041626e-02,1.942890132880053383e-03
4.630000000000000226e-01,-8.224767030159514658e-02,2.208570315418286259e-02,-1.169083239418708224e-02
4.640000000000000235e-01,-3.538776576256615763e-02,1.421228456068551055e-02,-1.754154261381279944e-02
4.650000000000000244e-01,-1.580875548370211728e-02,4.201721511558744598e-02,-5.305670037083505715e-03
4.660000000000000253e-01,1.153582948914618975e-03,5.938772064395599071e-02,-2.593505757736084064e-02
4.670000000000000262e-01,-5.159528407583642215e-03,2.450021245487919025e-02,-2.764239141984134104e-02
4.680000000000000271e-01,3.009768455105533286e-02,4.437819218490293705e-02,-3.311024032166941244e-02
4.689999999999999725e-01,2.923248468689558510e-02,3.353407425924662816e-02,-4.422618226623411392e-02
4.699999999999999734e-01,5.137887358686853839e-02,2.453246865771376017e-02,-2.658656110132190040e-02
4.709999999999999742e-01,5.475137685903519458e-02,-1.179745513841206836e-03,7.611460518092191124e-03
4.719999999999999751e-01,7.651647588490979868e-02,4.701178388028060613e-04,-4.977871418420071192e-03
4.729999999999999760e-01,5.888572158503993514e-02,-1.942417650592015432e-02,2.133656855128976577e-03
4.739999999999999769e-01,4.193744331246509333e-02,-2.040246735510349227e-02,5.756136497314198741e-03
4.749999999999999778e-01,4.836046753201153625e-02,-4.593765011489689409e-02,9.410033160742429723e-03
4.759999999999999787e-01,5.181585835744385860e-03,-3.537326759290052719e-02,3.356707858836919384e-02
4.769999999999999796e-01,1.119393507792778436e-02,-6.452559594772920570e-02,3.096218511579072394e-02
4.779999999999999805e-01,-3.559264906203709472e-02,-3.631694967641659055e-02,2.997573665318009270e-02
4.789999999999999813e-01,-2.973445170618066111e-02,-6.058855287988718780e-02,3.641282039809860122e-02
4.799999999999999822e-01,-3.978178718067577890e-02,-2.671411641649754781e-02,3.593380469281307055e-02
4.809999999999999831e-01,-5.336083467771370742e-02,-3.333223831378294422e-02,1.516521602925518034e-02
4.819999999999999840e-01,-5.289478393162688058e-02,3.818059810728197633e-03,2.162436760995802010e-02
4.829999999999999849e-01,-5.245189694713781742e-02,3.841376540781973967e-03,7.451687455151749864e-03
4.839999999999999858e-01,-5.095177443671235901e-02,2.858438247884072941e-02,-2.246686656685985273e-02
4.849999999999999867e-01,-6.653371906420228743e-02,-9.040466597094442072e-03,-1.266417524178867736e-02
4.859999999999999876e-01,-3.105395057567964662e-02,5.236858473433397138e-02,-5.609480310655115542e-02
4.869999999999999885e-01,-2.525264032918191417e-02,4.447953776617259020e-02,-2.455844622501363039e-02
4.879999999999999893e-01,-1.209819311195187673e-02,4.493935478975957798e-02,-3.885014501472267706e-02
4.889999999999999902e-01,-1.054226390264442065e-02,6.176168849843378938e-02,-2.523991113147748544e-02
4.899999999999999911e-01,6.127011924895524320e-02,4.454228127431706513e-02,-4.915940925199272643e-02
4.909999999999999920e-01,5.324046359990478733e-02,5.605026537738737151e-03,-3.731328106752600932e-02
4.919999999999999929e-01,4.158325757776706877e-02,4.896395920895502650e-03,-1.172191126047159200e-02
4.929999999999999938e-01,5.973502474213891050e-02,3.156201783912379859e-03,-1.068867084637172352e-02
4.939999999999999947e-01,5.929499770222030480e-02,-2.019232278411164927e-02,8.560715791892253151e-03
4.949999999999999956e-01,6.200741800368587270e-02,-2.006894032743137754e-02,2.739180204496555193e-02
4.959999999999999964e-01,3.652897461266125384e-02,-4.419705173615266769e-02,1.147457012690757117e-02
4.969999999999999973e-01,4.644279190521693329e-02,-4.414683774382479990e-03,4.679351889256948976e-02
4.979999999999999982e-01,1.170891210394409306e-02,-5.359453523169913775e-02,4.735796807166733208e-02
4.989999999999999991e-01,8.057412710937530975e-03,-2.935588775184095819e-02,7.408620364046968228e-03
5.000000000000000000e-01,-3.533784085894055293e-02,-3.442195689504570083e-02,4.201952664456640868e-02
5.010000000000000009e-01,-1.710665311369948330e-02,-1.949566802683606881e-02,2.723475461006282308e-02
5.020000000000000018e-01,-3.732218095064355340e-02,-1.934345949523702535e-02,3.233683340784382354e-02
5.030000000000000027e-01,-4.868078427175458883e-02,-1.497383633590611621e-02,2.703449044919499500e-02
5.040000000000000036e-01,-5.854960238716590271e-02,7.703797607568787890e-03,1.451355659911867518e-02
5.050000000000000044e-01,-5.094745389108452926e-02,-1.879956075589701153e-02,-2.832084781882823906e-04
5.060000000000000053e-01,-4.332474999706036056e-02,1.603082579625673271e-02,3.451952557066182239e-04
5.070000000000000062e-01,-1.488790273240198601e-02,1.543105466897853884e-02,-7.942747526576048392e-03
5.080000000000000071e-01,-1.110306231089261929e-02,4.711071861981486197e-02,4.306716843008438593e-03
5.090000000000000080e-01,-1.052471687550861693e-02,3.665073557437887458e-02,-3.419722527005604473e-02
5.100000000000000089e-01,5.773900020545350356e-03,4.398569813191678668e-02,-3.215765606430907170e-02
5.110000000000000098e-01,1.974365105638424545e-02,2.372712723840629881e-02,-3.247802909352305589e-02
5.120000000000000107e-01,3.434215281329621589e-02,1.152824357246633007e-02,-1.056331017342166355e-02
5.130000000000000115e-01,5.539466108970796110e-02,2.142970313232284152e-02,-1.914208759057679787e-02
5.140000000000000124e-01,6.583829880265672230e-02,-1.436427884725722734e-02,1.521785355777563117e-03
5.150000000000000133e-01,3.920634428899810037e-02,-2.554698762610153190e-02,-2.274391036089630155e-02
5.160000000000000142e-01,6.736992828413283785e-02,-1.909979312862176981e-02,7.499107439808265843e-03
5.170000000000000151e-01,5.323972487819643440e-02,-3.031963492911717711e-02,-1.304735106464872084e-03
5.180000000000000160e-01,5.980247769470799224e-02,-3.792800401124045429e-02,3.087671868448474063e-02
5.190000000000000169e-01,5.642826760047764401e-03,-4.911847741432420061e-02,8.361710751926168528e-03
5.200000000000000178e-01,6.272149711130180216e-03,-3.794802321378862309e-02,2.741966919154448928e-02
5.210000000000000187e-01,6.932889081270184398e-03,-4.756682763322545721e-02,3.144280859715695153e-02
5.220000000000000195e-01,-4.457293010452967330e-02,-4.701936886642244656e-02,4.742757163462509029e-02
5.230000000000000204e-01,-1.979623921039446940e-02,-1.650808586803783826e-02,2.588893340377994984e-02
5.240000000000000213e-01,-2.993134178985333571e-02,-2.395697019060656283e-02,-7.921647872732776431e-04
5.250000000000000222e-01,-6.346238742572346547e-02,-9.521941220825570415e-03,1.161420633278112749e-02
5.260000000000000231e-01,-5.079536998012596644e-02,4.127007143209009132e-02,1.545855206649020958e-02
5.270000000000000240e-01,-6.464533142499311047e-02,4.123646869146072730e-02,-5.747922795917323295e-03
5.280000000000000249e-01,-4.725376354718817395e-02,5.456278091367737504e-02,-1.066640956842586016e-02
5.290000000000000258e-01,-1.698559672894753986e-02,2.446806325210518218e-02,6.624267782236203418e-03
5.300000000000000266e-01,-8.461358606414162362e-03,5.930159561357040837e-02,-2.565690357010561029e-02
5.310000000000000275e-01,-4.092854890721676214e-02,5.016325591242184329e-02,-5.030502323058164138e-02
5.320000000000000284e-01,8.610683182866337576e-03,1.831828456308167222e-02,-2.741119834162152741e-02
5.330000000000000293e-01,3.506344683502956444e-02,6.035430589477942115e-02,-4.050499338408402455e-02
5.340000000000000302e-01,3.629240248045377537e-02,4.571381499260700892e-02,-2.519575091393365385e-02
5.350000000000000311e-01,4.005016912915965177e-02,1.606083970440227299e-02,-4.382363730912433586e-02
5.360000000000000320e-01,4.757286305937967474e-02,1.488692287279501196e-02,-3.032695144972835308e-02
5.370000000000000329e-01,4.423433911525770368e-02,-7.426840488843060306e-03,-1.513755144569534777e-02
5.380000000000000338e-01,2.383701071453804207e-02,-2.808082968935855534e-03,1.964216135912455474e-02
5.390000000000000346e-01,3.643985693998118974e-02,-4.481426293026092439e-02,7.078690986127646884e-03
5.400000000000000355e-01,9.853432331140387756e-04,-4.238176595093806620e-02,4.375823468372638109e-02
5.410000000000000364e-01,1.899177455573091908e-02,-4.181628404899780105e-02,3.461507237834660078e-02
5.420000000000000373e-01,-1.374516842339525841e-02,-4.031659784532413277e-02,3.425007213266215850e-02
5.430000000000000382e-01,-1.604759632628195015e-02,-2.952621949891305261e-02,2.282624211389030003e-02
5.440000000000000391e-01,-2.417330091337858977e-02,-3.747015604206017925e-02,2.527277747865221483e-02
5.450000000000000400e-01,-2.064498840753275014e-02,-1.562074882283931952e-02,2.867152812422060770e-02
5.460000000000000409e-01,-5.878072968186508901e-02,9.680052144581922577e-03,8.251061822373008739e-03
5.470000000000000417e-01,-7.802930938301512465e-02,-2.805057183977188381e-02,1.342606993191705449e-02
5.480000000000000426e-01,-6.203315962159892949e-02,3.376453591333507948e-02,5.693553832231042396e-03
5.490000000000000435e-01,-4.805937851529802629e-02,1.701887471342799357e-02,-2.918711565512970701e-02
5.500000000000000444e-01,-2.257394057853865516e-02,5.359923121966735093e-02,-3.696847743990387680e-02
5.510000000000000453e-01,-2.616632663199661493e-02,3.856989175905662509e-02,-2.051405503865703916e-02
5.520000000000000462e-01,-1.232476649801676240e-02,5.978010920737253375e-02,3.348662345219959903e-03
5.530000000000000471e-01,1.531251399753310802e-02,4.608314418504003140e-02,-3.288831599859937116e-02
5.540000000000000480e-01,1.780581099358534425e-02,2.283388216521934494e-02,-2.622564254491227195e-02
5.550000000000000488e-01,2.974147904436146017e-02,3.362588513262524531e-02,-3.369587899267560693e-02
5.560000000000000497e-01,3.732283938246334226e-02,4.125928185348046173e-02,-4.649185051396431678e-02
5.570000000000000506e-01,4.303772011810309134e-02,2.448511778066410349e-03,-1.359896269523696959e-02
5.580000000000000515e-01,4.314636221496968155e-02,-6.579952884880272378e-03,-1.276718792942369181e-02
5.590000000000000524e-01,3.952062142617333851e-02,-2.816973237482240169e-02,-1.826489299592206489e-02
5.600000000000000533e-01,5.164316637216952860e-02,-3.656513549219346515e-02,1.220021142220225306e-02
5.610000000000000542e-01,3.852010567237336425e-02,-1.088525710177559204e-02,-2.310820852018068833e-03
5.620000000000000551e-01,3.831240912200917226e-02,-3.876172844335598611e-02,3.328899913166299268e-02
5.629999999999999449e-01,4.050525385973476056e-02,-3.452503319096216633e-02,1.643233260172093091e-02
5.639999999999999458e-01,-1.174145193267819333e-02,-7.817825402716543914e-02,2.007065080937426790e-02
5.649999999999999467e-01,-1.621249183038676878e-02,-4.893923087277907841e-02,2.290048759682169685e-02
5.659999999999999476e-01,-4.902276588248968142e-02,-2.139557444094466673e-02,1.556936645500527419e-02
5.669999999999999485e-01,-3.246452549465660142e-02,-1.146103034335323179e-02,1.008020162081244703e-02
5.679999999999999494e-01,-5.963995462977663559e-02,1.203740498932060962e-02,1.506470309495623952e-02
5.689999999999999503e-01,-6.453300552977903060e-02,1.859756195983628888e-02,-8.422914511156663966e-03
5.699999999999999512e-01,-5.720020498390301911e-02,4.963679543673292505e-02,-2.755005147695858275e-02
5.709999999999999520e-01,-3.945163097620235648e-02,3.126191339501090821e-02,3.351474671630224646e-03
5.719999999999999529e-01,-5.260050704769255597e-02,5.018573458098898182e-02,-7.809701032005979086e-03
5.729999999999999538e-01,-3.945045254347026575e-02,6.418697810004964088e-02,-3.051646892529171970e-02
5.739999999999999547e-01,1.620611795520693040e-03,5.813447662688774747e-02,-3.815766345260265813e-02
5.749999999999999556e-01,2.097761435353911325e-02,3.247553557702561461e-02,-3.982223387734777631e-02
5.759999999999999565e-01,3.160863589692583520e-02,3.654281915430468430e-02,-5.591288285406974257e-02
5.769999999999999574e-01,3.761548264522422691e-02,3.123663553315573008e-02,-2.853404206209607732e-02
5.779999999999999583e-01,5.902768249246110460e-02,1.559665280805415909e-02,-2.231220365674278089e-02
5.789999999999999591e-01,7.330752656611352891e-02,-1.117881464418638568e-03,-2.931927346916999785e-02
5.799999999999999600e-01,6.378894683662504617e-02,-2.814946741373408265e-02,-1.418604050839322381e-02
5.809999999999999609e-01,3.233700693536417647e-02,-3.358130605417370546e-02,-5.683748718822758880e-03
5.819999999999999618e-01,6.565647466770285767e-02,-1.335211434412903603e-02,1.823057993080717809e-02
5.829999999999999627e-01,6.353176597819280846e-02,-5.325609855519931879e-02,1.696002025543351388e-02
5.839999999999999636e-01,2.190323648777609683e-02,-4.304384945342037277e-02,2.297130745140198507e-02
5.849999999999999645e-01,-4.042103832931207529e-03,-5.013341037597042471e-02,4.054625477837679043e-02
5.859999999999999654e-01,-2.006263820006588816e-02,-5.278079567548793483e-02,5.785971637188209310e-02
5.869999999999999662e-01,-2.597441830025024392e-02,-3.358058675436657869e-02,3.692100713100202741e-02
5.879999999999999671e-01,-3.349413436344464423e-02,-2.064163466610559328e-02,3.894919859014759483e-02
5.889999999999999680e-01,-3.969145536220304582e-02,-6.003309214856083521e-03,7.476050471765610661e-03
5.899999999999999689e-01,-5.987402202663315298e-02,3.140535281021770986e-02,3.218728835384676579e-02
5.909999999999999698e-01,-5.329390643500099556e-02,3.994750576101919332e-02,2.115691713688715170e-02
5.919999999999999707e-01,-5.620329892330922644e-02,4.085174792585122283e-02,-4.144343335909323779e-03
5.929999999999999716e-01,-5.472873463156483625e-02,4.212396269442883479e-02,-7.845216275146600290e-03
5.939999999999999725e-01,-4.769550431927656320e-02,6.788889565754417654e-02,-3.457054414625126276e-02
5.949999999999999734e-01,3.441197891059113003e-04,5.199692611373775419e-02,-3.666920416430115293e-02
5.959999999999999742e-01,-6.634765235779022108e-03,2.856518046950504500e-02,-2.868037273719134875e-02
5.969999999999999751e-01,1.166633488199328959e-02,3.478207650172804311e-02,-1.855669576909509122e-02
5.979999999999999760e-01,4.372996319399067439e-02,3.515662770254488617e-02,-4.472378187604104244e-02
5.989999999999999769e-01,3.270092560498429057e-02,-2.636642600947634342e-03,-4.051624565019219110e-02
5.999999999999999778e-01,5.865805109996066052e-02,3.732756576365255097e-02,-1.312391058520129619e-02
6.009999999999999787e-01,4.983669303595252009e-02,-2.649660079347507941e-02,-1.772900943591497122e-02
6.019999999999999796e-01,5.986368518881436673e-02,-2.497798125783445844e-02,-1.421151381903202129e-02
6.029999999999999805e-01,5.248019629342037806e-02,-2.205705796934758281e-02,1.028761821885793145e-03
6.039999999999999813e-01,5.661437958648687235e-02,-4.866974009984914584e-02,3.300954284212207629e-02
6.049999999999999822e-01,3.486064191199767653e-02,-4.918368349482891283e-02,4.244539719959106172e-02
6.059999999999999831e-01,4.446666066896746983e-03,-7.145943953659827930e-02,2.951359295096566554e-02
6.069999999999999840e-01,-3.004670030035164890e-02,-5.542870806479251872e-02,5.775679126917854928e-02
6.079999999999999849e-01,-1.912103640659284023e-02,-2.037747533608993966e-02,3.282884729970980686e-02
6.089999999999999858e-01,-3.392182037422843827e-02,-3.449545617121334978e-02,2.553696881465497212e-02
6.099999999999999867e-01,-5.966151483506942910e-02,-5.489530034293423413e-03,2.682816864274347596e-02
6.109999999999999876e-01,-5.866500450027026248e-02,9.729688834797361671e-03,3.387513570027134852e-02
6.119999999999999885e-01,-8.076359875754525464e-02,9.312504432997720238e-03,9.426449991715929802e-03
6.129999999999999893e-01,-4.989254331569163703e-02,3.042833138020877015e-02,-1.487898728475434791e-03
6.139999999999999902e-01,-3.113171619055085659e-02,5.925071032630880447e-02,-1.783188134257701618e-02
6.149999999999999911e-01,-5.341596621721835664e-02,4.824592739053060186e-02,-9.507470485424090317e-03
6.159999999999999920e-01,-3.325987802233865837e-02,4.209965225915768966e-02,-2.659426197690903729e-02
6.169999999999999929e-01,-5.043207700818579239e-04,2.175024738949452377e-02,-4.095539077933843530e-02
6.179999999999999938e-01,1.692243233032836650e-02,6.118254273494603407e-02,-1.772837764117868656e-02
6.189999999999999947e-01,2.323885090156352362e-02,1.097830206243713413e-02,-3.877838513951252508e-02
6.199999999999999956e-01,3.545638320226922324e-02,-3.483442739745718462e-03,-3.172650804675954811e-02
6.209999999999999964e-01,7.124066951646405854e-02,1.483703227064022551e-02,-4.171458601971263919e-02
6.219999999999999973e-01,7.926703604570815853e-02,8.140872562562537522e-04,-2.959319116569676320e-02
6.229999999999999982e-01,5.773904761630870713e-02,-1.974507372152613238e-02,-1.890662253710076457e-02
6.239999999999999991e-01,3.506287734170453196e-02,-3.328096008897656749e-02,-1.505369652512146030e-02
6.250000000000000000e-01,7.098047117208730605e-02,-4.138735274264999237e-02,2.395997565389199752e-02
6.260000000000000009e-01,3.962356947618705938e-02,-1.773997968143002299e-02,-6.477016612075595006e-04
6.270000000000000018e-01,2.777613200749540212e-02,-2.111569029150889287e-02,1.776184365629857737e-02
6.280000000000000027e-01,1.505887760713930067e-02,-5.670913271733864919e-02,2.749557710963003096e-02
6.290000000000000036e-01,-6.682571960880774251e-03,-4.601986628764846016e-02,2.026555553175254931e-02
6.300000000000000044e-01,-3.136973388494638387e-02,-3.263524292340264088e-02,4.897731574773317442e-02
6.310000000000000053e-01,-4.308874103491405066e-02,5.715180627143532678e-03,1.998296329126343987e-02
6.320000000000000062e-01,-6.966638317331115549e-02,-4.701895303312954820e-03,5.468161126444440190e-02
6.330000000000000071e-01,-5.046023629034400437e-02,1.576454713323130821e-02,-9.965388981857401310e-03
6.340000000000000080e-01,-5.287079738656582512e-02,3.231235385741335758e-02,1.145462979878434859e-02
6.350000000000000089e-01,-6.255034578529979072e-02,4.625764903810408030e-02,2.796640592376474239e-03
6.360000000000000098e-01,-1.715714705357330658e-02,3.658979692917244120e-02,-3.620535511734644663e-02
6.370000000000000107e-01,-2.899774365943329907e-02,4.820798094253155724e-02,4.199626750190966346e-03
6.380000000000000115e-01,1.188267970297917156e-02,5.797948551185156535e-02,-4.994453591166909956e-02
6.390000000000000124e-01,-2.258065047371509218e-02,3.834187278740727733e-02,-9.930420653716545004e-03
6.400000000000000133e-01,7.025392696746000400e-03,3.045189187806693690e-02,-4.597556197980795512e-02
6.410000000000000142e-01,2.867058771621639954e-02,4.764290216823386520e-02,-2.068370907776340140e-02
6.420000000000000151e-01,3.498338786809859075e-02,5.126910668292000879e-03,-1.408724566304554379e-02
6.430000000000000160e-01,5.958088735926201501e-02,-1.334316386497751659e-03,-1.068069476766137643e-02
6.440000000000000169e-01,3.865356822334588965e-02,-1.416771200653045570e-02,-2.480623453853374877e-02
6.450000000000000178e-01,5.885895551247165292e-02,-4.276889403078767277e-02,-9.323211673284448678e-03
6.460000000000000187e-01,7.006194426655905361e-02,-3.199881815212120284e-02,1.066013345291500283e-02
6.470000000000000195e-01,6.507780180098091116e-02,-4.312385249382504754e-02,3.178494435707545588e-03
6.480000000000000204e-01,1.480573048249422125e-02,-1.996128763551051691e-02,3.368683795351180843e-02
6.490000000000000213e-01,-4.318092986967848532e-03,-4.771222119391629879e-02,2.610309825411431112e-02
6.500000000000000222e-01,1.023994584762069962e-02,-4.431599508600256310e-02,3.809564694416890662e-02
6.510000000000000231e-01,-2.024539041835403744e-02,-3.261760838162224702e-02,1.926127703161307700e-02
6.520000000000000240e-01,-3.881330710620503610e-02,-1.447581450686050326e-02,4.233258381076841770e-02
6.530000000000000249e-01,-3.552885198480417589e-02,-8.636126443010230108e-03,1.853632313557134273e-02
6.540000000000000258e-01,-6.171329153085269859e-02,3.778361526122569168e-03,4.488647852260953253e-02
6.550000000000000266e-01,-4.199500278736376796e-02,2.955963376588065586e-02,9.817562679161315892e-03
6.560000000000000275e-01,-5.017648870969005498e-02,2.870294505739737559e-02,2.757751531140883311e-02
6.570000000000000284e-01,-4.882515475028632174e-02,7.329162272404826650e-02,2.416768427594747064e-03
6.580000000000000293e-01,-2.530315049902894312e-02,3.388083624141534356e-02,3.055096005355703234e-02
6.590000000000000302e-01,-2.639674965481890456e-02,3.872824438091268529e-02,-2.015887278541930380e-02
6.600000000000000311e-01,-9.755087376708281716e-03,5.064589138096279447e-02,-2.382097977991179394e-02
6.610000000000000320e-01,2.614078199583209222e-02,3.630369933446829511e-02,-3.342105597295006586e-02
6.620000000000000329e-01,1.364020331937659640e-02,3.477095592748314506e-02,-3.002288591950283067e-02
6.630000000000000338e-01,3.610612829680966140e-02,2.275676658217642631e-02,-4.254952537509601451e-02
6.640000000000000346e-01,5.819969922033224607e-02,4.328702872550159106e-03,-2.215053629435793578e-02
6.650000000000000355e-01,5.201020009967070867e-02,8.528226718588495861e-03,-3.445455482843985673e-02
6.660000000000000364e-01,4.827032328802205452e-02,-1.449663170701840850e-02,1.368539452626702825e-02
6.670000000000000373e-01,7.070592307150858069e-02,-5.533181129985770969e-02,-1.089257381934099177e-02
6.680000000000000382e-01,4.451319363094192322e-02,-4.419993595737748554e-02,4.012593441173674044e-03
6.690000000000000391e-01,1.959752004806703321e-02,-2.311216532606429758e-02,1.142800781850726935e-02
6.700000000000000400e-01,4.841197827324294350e-02,-5.868771071873226525e-02,4.004188795729845401e-02
6.710000000000000409e-01,2.396943257310006278e-02,-5.809079287075923081e-02,5.798349387705795110e-02
6.720000000000000417e-01,-1.039980430332125430e-03,-2.302665250559364843e-02,1.952128721798643968e-02
6.730000000000000426e-01,-2.844488446704438941e-02,-3.181773968337418129e-02,3.713656480036630486e-02
6.740000000000000435e-01,-2.372163078774825601e-02,-4.918314282502271595e-03,4.309212142103130416e-02
6.750000000000000444e-01,-6.240054328396385519e-02,3.246316150157795878e-03,4.933754956570540057e-02
6.760000000000000453e-01,-5.920370580610728739e-02,8.867369116950974892e-03,1.794127647678528392e-02
6.770000000000000462e-01,-5.470422799824710414e-02,4.072889632636190332e-02,7.113656402325476205e-03
6.780000000000000471e-01,-5.443620611922463798e-02,4.602609421257798650e-02,9.695676152765828060e-03
6.790000000000000480e-01,-4.060497321008119803e-02,4.622430694443325355e-02,2.180568512304723386e-02
6.800000000000000488e-01,-4.734157123432775061e-02,5.364436942009900844e-02,-6.262360808022610428e-03
6.810000000000000497e-01,-7.319845083405019173e-03,4.179998177563711698e-02,-1.185562052700358908e-02
6.820000000000000506e-01,-6.489319924738106739e-03,1.838683979353645040e-02,-3.229641904507445788e-02
6.830000000000000515e-01,2.548585304867531653e-02,4.994835339508847671e-02,-2.065402880748266543e-02
6.840000000000000524e-01,3.278889241307395008e-02,1.434677547084428108e-02,-9.515172372558795139e-03
6.850000000000000533e-01,4.796840965334388251e-02,4.539398354009999310e-03,-3.928889285244106105e-02
6.860000000000000542e-01,4.433953406392537877e-02,-2.058885623631822800e-02,-2.588539108837630345e-02
6.870000000000000551e-01,2.875465252587279877e-02,-2.159518276689366759e-02,-1.813755563217430214e-02
6.879999999999999449e-01,6.069793038462181073e-02,-2.477580107370981957e-02,1.192287377197683539e-02
6.889999999999999458e-01,4.638091719790882195e-02,-5.879027847142607316e-02,-1.873827499192186677e-02
6.899999999999999467e-01,5.268354250248329096e-02,-8.236694757067193617e-02,-2.010634387728061842e-02
6.909999999999999476e-01,5.049010865375223173e-02,-2.893719184660009311e-02,-1.558918143568217146e-02
6.919999999999999485e-01,2.282693987260505861e-02,-3.703513662730392036e-02,2.427493638123078001e-02
6.929999999999999494e-01,2.331334054060664809e-03,-4.023809092938869514e-02,2.947496288161346317e-02
6.939999999999999503e-01,-7.254295131069038449e-03,-1.905477100206674421e-02,2.525740903065377269e-02
6.949999999999999512e-01,-3.753976387386002284e-02,-1.198038627844430666e-02,1.268189280328902054e-02
6.959999999999999520e-01,-5.390837372460067362e-02,-1.301319311455522570e-02,3.414886926723009059e-02
6.969999999999999529e-01,-5.604198687838768400e-02,9.369521955402746946e-03,3.143121690086845416e-02
6.979999999999999538e-01,-8.857122011696129393e-02,2.429218491050090262e-03,3.406384708066476086e-02
6.989999999999999547e-01,-4.202435060497234504e-02,2.066848791409547567e-02,1.593910283474111404e-03
6.999999999999999556e-01,-1.911343679412703597e-02,4.430980211791235579e-02,4.782220199227609457e-03
7.009999999999999565e-01,-6.648763417633932193e-02,3.814570302877978020e-02,5.219296101557362351e-03
7.019999999999999574e-01,-3.991683919854061013e-02,3.098389170563608727e-02,-3.507015161312638640e-03
7.029999999999999583e-01,1.857552028747762795e-03,1.420005050818586544e-02,-1.993542222743132503e-02
7.039999999999999591e-01,7.620769773054395131e-03,3.240654027162561540e-02,-3.328108661034075849e-02
7.049999999999999600e-01,1.759224583637980510e-02,1.613844565410021623e-02,-4.343685577563372036e-02
7.059999999999999609e-01,5.131840464357094456e-02,-4.647507320053122400e-03,-4.175785501940289940e-02
7.069999999999999618e-01,4.353302288366496520e-02,-1.919294670141586182e-02,-1.859526284723087008e-02
7.079999999999999627e-01,6.136499888506478234e-02,-3.704445317303153851e-02,-5.303546798621763814e-02
7.089999999999999636e-01,5.389888595826160256e-02,-1.920727611879924010e-02,-2.631859124535283062e-02
7.099999999999999645e-01,4.573522106611797866e-02,-2.339654524946167477e-02,-1.937647137542086034e-02
7.109999999999999654e-01,5.418461209120069982e-02,-4.116197210699577141e-02,1.350884577952764579e-02
7.119999999999999662e-01,3.483833652350890736e-02,-3.894389119560408979e-02,1.108567577609383299e-02
7.129999999999999671e-01,2.038852616544143195e-02,-5.831577994544103610e-02,6.690289057090576495e-03
7.139999999999999680e-01,1.781949515574928616e-02,-4.342726562495654447e-02,5.088584920062110689e-02
7.149999999999999689e-01,5.967392053609600448e-03,-4.203749055454221450e-02,3.296791597912446942e-02
7.159999999999999698e-01,3.464668538521499704e-03,-1.803027976216719369e-02,-2.694277606241368000e-03
7.169999999999999707e-01,-7.232875961354229277e-02,-6.851492191684687913e-03,5.133708952639862849e-02
7.179999999999999716e-01,-7.167699425967734295e-02,1.376200717982341108e-02,2.065133238374054075e-02
7.189999999999999725e-01,-6.380092743095858165e-02,3.688883109750121930e-02,2.285150371258635321e-02
7.199999999999999734e-01,-2.558382685265341711e-02,5.737210460597302886e-02,2.301072313499684038e-02
7.209999999999999742e-01,-5.431962052133628566e-02,3.193142662061283082e-02,1.409346201293882120e-02
7.219999999999999751e-01,-1.851888255788211937e-02,2.894238025945823287e-02,1.325303493889254218e-02
7.229999999999999760e-01,-4.465103464393206656e-02,3.954457786209160386e-02,-1.331919784972880735e-03
7.239999999999999769e-01,-1.330523248616308912e-02,4.984376514512377926e-02,-2.786664908953453198e-03
7.249999999999999778e-01,-1.005953894529607387e-02,3.371751136322811288e-02,-2.248200273183604408e-02
7.259999999999999787e-01,2.028199114074990400e-02,3.614159416854647450e-02,-1.886626186953977574e-02
7.269999999999999796e-01,3.483346487783706841e-02,-1.746813898309695348e-03,-6.864751985277153801e-02
7.279999999999999805e-01,4.085535432010188595e-02,1.004022588996229468e-02,-2.506441575208540745e-02
7.289999999999999813e-01,5.151030651607302335e-02,-1.012374345734885946e-02,-2.822872497884552218e-02
7.299999999999999822e-01,7.563438526240272297e-02,-4.532717356435344430e-02,-2.451123323985476485e-02
7.309999999999999831e-01,5.042348460671870758e-02,-3.627826235311198272e-02,-2.597312742125051921e-02
7.319999999999999840e-01,7.074722724460071055e-02,-2.844824615049126870e-02,-2.500348637205144706e-02
7.329999999999999849e-01,4.072400729895256366e-02,-3.924912853980314087e-02,-7.322905001430367105e-04
7.339999999999999858e-01,3.870964894777360193e-02,-3.641071984874579004e-02,6.061575089278290959e-03
7.349999999999999867e-01,1.741811954871741452e-02,-4.330108596652434971e-02,5.048523911514800995e-04
7.359999999999999876e-01,2.698207998126231355e-02,-3.734911934002968503e-02,1.430316167981949063e-02
7.369999999999999885e-01,-1.622766888925379278e-02,-1.515792017347106571e-02,5.065811347753700067e-02
7.379999999999999893e-01,-4.053031671728276469e-02,-1.500162356547117028e-02,2.915121565291985475e-02
7.389999999999999902e-01,-4.329661564922007710e-02,1.500687012929676975e-02,3.960406219690161544e-02
7.399999999999999911e-01,-6.868367566536695557e-02,5.455807093102264631e-03,2.709740476122480049e-02
7.409999999999999920e-01,-7.094902009625508876e-02,3.072840854014125336e-02,1.909771029131658929e-02
7.419999999999999929e-01,-5.757629198339056509e-02,3.164039308822685220e-02,1.268684282591786214e-02
7.429999999999999938e-01,-4.558557512541887291e-02,2.502904320972002689e-02,-3.421448036033783707e-03
7.439999999999999947e-01,-4.356086411395199837e-02,4.922890771624983258e-02,2.145070148371738469e-02
7.449999999999999956e-01,-3.589092745907625226e-02,2.711728882344039554e-02,-1.294846262276185163e-02
7.459999999999999964e-01,-3.001578859955163041e-03,4.818032266836692196e-02,-2.072098214981811862e-02
7.469999999999999973e-01,7.126455510968020789e-03,2.384968025975204436e-02,-3.383279366547267686e-02
7.479999999999999982e-01,8.898157981765237104e-03,2.832193051110406048e-02,-2.664451557445350963e-02
7.489999999999999991e-01,3.198550487619425398e-02,1.576736980345791114e-02,-4.049727076672448439e-02
7.500000000000000000e-01,4.685257348837909563e-02,1.419799499919012671e-02,-3.508645097350860526e-02
7.510000000000000009e-01,4.181198456655240564e-02,-1.300131980469601024e-02,-5.145087247947587733e-02
7.520000000000000018e-01,4.398863406721392061e-02,-3.035700065920280549e-02,-3.403858198478932479e-02
7.530000000000000027e-01,6.717935670282265681e-02,-3.573777824599322361e-02,-3.725462459429368378e-02
7.540000000000000036e-01,6.951043605557143124e-02,-6.461559233947290759e-02,1.882686933225228383e-03
7.550000000000000044e-01,7.664468294357280886e-02,-5.540467177002236093e-02,1.033250197194362716e-02
7.560000000000000053e-01,1.628801059870449430e-02,-7.082563771027686195e-02,4.701564607079484863e-03
7.570000000000000062e-01,-5.011038135778838470e-03,-1.942351826390785463e-02,2.807481999039177639e-02
7.580000000000000071e-01,-5.137815864118229665e-03,-2.613900038344854279e-02,1.712748058637018900e-02
7.590000000000000080e-01,-3.215335574200518104e-02,-2.282548082851518917e-02,3.690286767623011249e-02
7.600000000000000089e-01,-3.627199118133320882e-02,1.533305564720994010e-02,3.136231340336627371e-02
7.610000000000000098e-01,-3.086676123154857843e-02,5.091149560197662455e-04,4.721729255529641400e-02
7.620000000000000107e-01,-2.428646532646974027e-02,3.664939558320411475e-03,3.083956696969900046e-02
7.630000000000000115e-01,-6.112300551962398382e-02,3.360924747918512395e-02,2.231225737297292538e-02
7.640000000000000124e-01,-4.696655697677751262e-02,3.388734597329613046e-02,5.262066338410125582e-02
7.650000000000000133e-01,-4.317796339138059436e-02,4.896968742024411514e-02,2.328820424247800627e-02
7.660000000000000142e-01,-2.092958943872289673e-02,4.411771700054241407e-02,1.057571537792281573e-02
7.670000000000000151e-01,-4.767523523574695304e-02,5.711314733131041266e-02,-1.452182021649224899e-02
7.680000000000000160e-01,-1.951582355359690255e-02,3.487665607583655819e-02,-2.400944727693077319e-02
7.690000000000000169e-01,-1.102437922425475794e-03,1.477258961789004905e-02,-1.165060172113872167e-02
7.700000000000000178e-01,1.639640323443393444e-02,2.654285540516944375e-02,-2.547333823349471824e-02
7.710000000000000187e-01,4.344398462895553148e-02,3.895092282047945415e-02,-2.967231013757841429e-02
7.720000000000000195e-01,3.825978495309291516e-02,-1.826355362341036681e-02,-1.614135537366205228e-02
7.730000000000000204e-01,5.912556653831960857e-02,-3.633600166743183868e-02,-3.604866510472239105e-02
7.740000000000000213e-01,5.627578426969726683e-02,-3.131227227237264737e-02,-3.293667681651996776e-02
7.750000000000000222e-01,7.910202012144536277e-02,-4.200381044443408929e-02,-2.435232278764040692e-02
7.760000000000000231e-01,3.461651459185867419e-02,-5.854110689958698377e-02,-3.329822078050977217e-03
7.770000000000000240e-01,4.283423240918667052e-02,-4.565047475625187007e-02,-2.629209763274124867e-03
7.780000000000000249e-01,3.732156198565875216e-02,-3.239695099281227758e-02,1.913382733395219831e-02
7.790000000000000258e-01,2.651499438141438972e-02,-3.161568984277712824e-02,1.963808551723424806e-02
7.800000000000000266e-01,-9.303351182204806433e-03,-3.333243871598811497e-02,3.043214799415995542e-02
7.810000000000000275e-01,-3.027250566009760668e-02,-1.659329306009368898e-02,2.513944535108625367e-02
7.820000000000000284e-01,-6.613867486704841370e-02,2.986326913411290959e-02,3.086922741166713002e-02
7.830000000000000293e-01,-5.712522320345760074e-02,3.836735899823291024e-02,2.394350656204735986e-02
7.840000000000000302e-01,-6.507331582873530917e-02,2.571163766478085089e-02,4.318829676223218117e-02
7.850000000000000311e-01,-3.454516290501326997e-02,3.701561820909774619e-02,4.347978165329768885e-02
7.860000000000000320e-01,-6.653109990369862614e-02,6.809890830949254237e-02,1.735407570000960242e-02
7.870000000000000329e-01,-8.022592596700212075e-02,4.929136556047973572e-02,1.996483749220939394e-02
7.880000000000000338e-01,-1.965250169065763108e-02,5.880505755338540780e-02,1.324805123392029313e-02
7.890000000000000346e-01,-2.412603315692926631e-02,4.620670012525911197e-02,8.103082504222549080e-04
7.900000000000000355e-01,1.299587712601120741e-03,3.185934591081129863e-02,-1.479577898211293339e-02
7.910000000000000364e-01,6.366112498364920672e-03,1.729455035874542107e-02,-1.758400002272995227e-02
7.920000000000000373e-01,3.059657527492844198e-02,-2.875724668388033103e-02,-5.894917032495369802e-02
7.930000000000000382e-01,5.680609316760087263e-02,2.827634307443615148e-03,-2.762218510416379613e-02
7.940000000000000391e-01,4.406239660322249646e-02,-1.159446380300892601e-02,-3.570139185293394468e-02
7.950000000000000400e-01,8.599738259763310688e-02,-2.181077865114977934e-02,-4.029943033470042429e-02
7.960000000000000409e-01,3.895767921709115261e-02,-5.197233053370306499e-02,-1.811771788174884948e-02
7.970000000000000417e-01,5.381261071914301281e-02,-3.434229225922490886e-02,-1.480738905106383178e-03
7.980000000000000426e-01,3.829071408264840548e-02,-4.032340934067486782e-02,1.289877714960121352e-02
7.990000000000000435e-01,3.494680966143793449e-02,-3.433404500873933618e-02,-2.821351852616036521e-02
8.000000000000000444e-01,1.102621785556062196e-02,-2.568345510600011927e-02,3.601300131491177309e-02
8.010000000000000453e-01,-2.667682960635548925e-02,-1.148420218513153575e-02,3.251546543315669141e-02
8.020000000000000462e-01,8.166848652192006770e-04,9.899723508840488004e-03,4.837819112921097620e-02
8.030000000000000471e-01,-2.338025629312358994e-02,-4.213593337041611486e-03,5.097940345018184966e-02
8.040000000000000480e-01,-4.601594286377174575e-02,2.297636604880825065e-02,5.631708531273695723e-02
8.050000000000000488e-01,-7.104915129044796218e-02,3.336514800002549075e-02,5.819653221854100000e-02
8.060000000000000497e-01,-3.904289207199418410e-02,4.377575740111361996e-02,2.739447676242584909e-02
8.070000000000000506e-01,-8.164712173267468787e-02,3.399895987036114647e-02,1.383605769095271228e-02
8.080000000000000515e-01,-6.008498075692492862e-02,4.055005356351528562e-02,1.017435192714044936e-02
8.090000000000000524e-01,-3.482246075820119580e-02,5.125939319003049860e-02,-6.807270094833249357e-04
8.100000000000000533e-01,-3.951462216167423575e-02,3.980073916865588257e-02,1.079996110780704482e-02
8.110000000000000542e-01,-1.396325036867965188e-03,3.902422454105108907e-02,-2.392103995191812577e-02
8.120000000000000551e-01,2.553160081756256083e-02,3.849620344171236080e-02,-1.860315066503759329e-02
8.129999999999999449e-01,5.163321373577837298e-02,1.139049406565456266e-02,-2.219880077048157208e-02
8.139999999999999458e-01,1.019863170089308976e-02,-3.765539394912476023e-03,-3.855758221758664311e-02
8.149999999999999467e-01,3.650170154437669401e-02,-1.528469170474462506e-02,-1.646900854381618332e-02
8.159999999999999476e-01,4.959702897424698997e-02,-1.695867903180725902e-02,-1.407485323009481475e-02
8.169999999999999485e-01,6.526335273935397752e-02,-4.833700931021221725e-02,-3.367702172620056639e-02
8.179999999999999494e-01,6.177105197095742600e-02,-7.775453085868244685e-02,-3.930872776416979852e-02
8.189999999999999503e-01,3.868189148476267741e-02,-3.441892053513180560e-02,-2.431718171470157223e-04
8.199999999999999512e-01,4.608713889480276632e-02,-2.466293964426653426e-02,3.349424384320727477e-02
8.209999999999999520e-01,2.166298893419444510e-02,-4.877327674913936595e-02,4.952991332536573268e-03
8.219999999999999529e-01,-2.074548931458149604e-03,-3.439291988895383512e-02,2.071735177936520622e-02
8.229999999999999538e-01,-1.273703406481406335e-02,-3.957579468870356734e-03,2.293802164036360877e-02
8.239999999999999547e-01,-2.646257860895020325e-02,2.368173078937442846e-02,2.500013605217082241e-02
8.249999999999999556e-01,-3.391775661731868952e-02,8.257061418591463142e-03,4.027853321229320910e-02
8.259999999999999565e-01,-2.961637445872351837e-02,1.113558331904325287e-02,3.498699533072512080e-02
8.269999999999999574e-01,-5.450069063890648768e-02,9.642424372612779307e-03,3.391062181703679429e-02
8.279999999999999583e-01,-6.799356249152328779e-02,3.791325855674104739e-02,2.712553605289679676e-02
8.289999999999999591e-01,-3.796742998041863215e-02,3.756697739633872019e-02,6.991749336246870852e-03
8.299999999999999600e-01,-2.816720236194294319e-02,5.091607856517090663e-02,1.799911532597297040e-02
8.309999999999999609e-01,-1.640238014787782916e-02,4.124565164668502620e-02,1.597593978373169216e-02
8.319999999999999618e-01,-3.421191299772863986e-02,4.647108900049057301e-02,-1.388960824067863274e-02
8.329999999999999627e-01,-2.123260840458577811e-02,3.092867866341644442e-02,-1.355231042436011099e-02
8.339999999999999636e-01,1.718048912392028046e-02,-1.460678931718847537e-02,-3.705202260797221120e-02
8.349999999999999645e-01,2.523946278354807088e-02,-8.956960075041875413e-03,-2.665961638201684233e-02
8.359999999999999654e-01,1.614735920051105569e-02,-3.238325128137682640e-02,-2.828643636855501797e-02
8.369999999999999662e-01,4.490637826789962983e-02,-3.551359806826469984e-02,-2.659678964732242398e-02
8.379999999999999671e-01,6.777143965769524825e-02,-4.081338476500636497e-02,-5.836684711915410273e-02
8.389999999999999680e-01,6.254231315036390404e-02,-5.439235641784573999e-02,-2.411869621834290822e-02
8.399999999999999689e-01,4.941234047137944840e-02,-3.606949632370860109e-02,-1.465333162061902006e-02
8.409999999999999698e-01,3.786446483355194320e-02,-4.140187895885116820e-02,-2.532872998839045750e-02
8.419999999999999707e-01,2.717101945291222967e-02,-4.369936930279167547e-02,-4.634826273438960587e-03
8.429999999999999716e-01,3.737113892024755950e-03,-2.739909066177531952e-02,3.459879084034878094e-02
8.439999999999999725e-01,-2.739601093874605847e-02,-1.755622734785481504e-02,3.040065946370066122e-02
8.449999999999999734e-01,-3.153032884943999387e-02,1.249412866259227116e-02,2.525103403433252500e-02
8.459999999999999742e-01,-3.911167052708770624e-03,-1.278981906327335966e-02,4.478306937478974264e-02
8.469999999999999751e-01,-5.372162088825285092e-02,2.587697614306322044e-02,4.284394472454975539e-02
8.479999999999999760e-01,-5.645641537793400638e-02,2.667305978385449763e-02,6.303680641387052197e-02
8.489999999999999769e-01,-4.218034441509848492e-02,3.350414804755154352e-02,4.055935037586680392e-02
8.499999999999999778e-01,-3.911523094563276737e-02,5.100983144248281281e-02,3.314922990979311812e-02
8.509999999999999787e-01,-2.736330213765610087e-02,4.004174555574006172e-02,1.500320033060416509e-02
8.519999999999999796e-01,-3.724869604285379471e-02,2.832575262848219255e-02,-2.838796903818375378e-03
8.529999999999999805e-01,-4.290856491040444254e-02,2.185943262636362572e-02,9.670858158725620379e-03
8.539999999999999813e-01,4.332232051301105388e-04,1.780268149927838675e-02,-2.688141362384153729e-02
8.549999999999999822e-01,-1.066794833870227631e-02,7.219050819489944079e-03,-1.698643338280272919e-02
8.559999999999999831e-01,2.204007122491670814e-02,7.364239447464878373e-03,-2.217069906513359501e-02
8.569999999999999840e-01,2.543650733399194577e-02,-1.074649651590668144e-02,-2.351639952613844217e-02
8.579999999999999849e-01,5.113816460253003265e-02,-2.459262524848259551e-02,-9.238251776957955496e-04
8.589999999999999858e-01,3.089694594468426689e-02,-5.426802823980288182e-02,-2.647289850850076398e-02
8.599999999999999867e-01,3.779801241726138405e-02,-3.910848576790710435e-02,-1.473403608700697351e-02
8.609999999999999876e-01,6.296545874566661372e-02,-4.776917964802323419e-02,5.367361626210514179e-03
8.619999999999999885e-01,4.888837700575363043e-02,-3.118370693507729191e-02,-2.847199823809901109e-02
8.629999999999999893e-01,2.947791717718277124e-02,-1.744703351197527882e-02,-1.321206800271802762e-02
8.639999999999999902e-01,2.597593536141405007e-02,-3.150182018361246533e-02,1.573769676952637905e-02
8.649999999999999911e-01,-3.344791701284798632e-03,-4.146201920624500645e-03,1.524834357898235265e-02
8.659999999999999920e-01,-2.116608701586667959e-02,-1.022798377386281710e-02,1.580928196389998208e-02
8.669999999999999929e-01,-1.365348840000406121e-02,-4.843868339200946282e-03,3.034598681513703267e-02
8.679999999999999938e-01,-4.974554056286779186e-02,2.458524415363172108e-02,2.709713567671072701e-02
8.689999999999999947e-01,-5.775782612687269113e-02,3.672590681736386670e-02,2.614292207990698974e-02
8.699999999999999956e-01,-7.051588656738179417e-02,3.512854761203554332e-02,3.869763890115139604e-03
8.709999999999999964e-01,-6.794298030861656290e-02,3.022348999113069756e-02,1.181624919824062793e-02
8.719999999999999973e-01,-5.662231554056294802e-02,4.975540930234405301e-02,8.955103428984791114e-03
8.729999999999999982e-01,-1.307211345745346899e-02,5.772563724868513824e-02,2.551844369053535982e-02
8.739999999999999991e-01,-5.430082609557085327e-02,4.189969544083741587e-02,8.944710446917168017e-03
8.750000000000000000e-01,-1.649754348210072039e-02,4.158127163990400776e-02,3.159736200019915703e-02
8.760000000000000009e-01,-1.010889370199076487e-02,2.000321207889240241e-02,-2.095960751831678348e-02
8.770000000000000018e-01,8.643758299456486818e-04,5.636858403299153421e-03,-4.275037965684538172e-02
8.780000000000000027e-01,5.311248302336792765e-02,-7.235016394196397242e-03,-4.310233895533288617e-02
8.790000000000000036e-01,2.553429343081814115e-02,-2.430945027821609580e-02,-3.578293088806924760e-02
8.800000000000000044e-01,2.467362977747104488e-02,-4.588667492237898798e-02,-3.771318230285478773e-02
8.810000000000000053e-01,3.804253583843249936e-02,-4.794247963179953942e-02,-4.777237456603430216e-02
8.820000000000000062e-01,4.839961909446519744e-02,-5.903487108257484545e-02,-3.238824387382015224e-02
8.830000000000000071e-01,5.925490561881007617e-02,-3.811886835483554309e-02,-6.525622113310117385e-03
8.840000000000000080e-01,7.432604681893953402e-02,-4.013402764997809485e-02,-4.369883947993059153e-02
8.850000000000000089e-01,4.797993336664229530e-02,-5.174557720606149519e-02,-1.887618202781542187e-02
8.860000000000000098e-01,1.499730917027505481e-02,-1.079007411825268214e-02,-6.063152018300595886e-03
8.870000000000000107e-01,-9.461709679816236729e-03,-7.589405814110211125e-03,-6.732206563051839655e-03
8.880000000000000115e-01,-1.953686607341821591e-02,8.070047327221926969e-03,2.217872368302445038e-02
8.890000000000000124e-01,-3.200110608077372937e-02,1.388500785584195762e-02,2.936506740906313223e-02
8.900000000000000133e-01,-5.178470540036543557e-02,1.050608343969692583e-02,3.298006790571960528e-02
8.910000000000000142e-01,-5.002143034002203698e-02,1.912282981384236594e-02,6.115779019489766405e-02
8.920000000000000151e-01,-8.107053071561666491e-02,1.449213768681101820e-02,2.740432160439102913e-02
8.930000000000000160e-01,-5.837690234466388212e-02,4.559173231012559474e-02,3.360951075978397401e-02
8.940000000000000169e-01,-4.940590162510276329e-02,4.441806980345901906e-02,4.020611335717000356e-02
8.950000000000000178e-01,-2.984033585509116709e-02,2.692361258087367856e-02,2.639836031025402999e-02
8.960000000000000187e-01,-1.615815481427782321e-02,5.503038073008525294e-02,-4.912689420200446952e-03
8.970000000000000195e-01,1.180727210565959539e-03,9.466409463508374325e-03,4.165686855554170086e-03
8.980000000000000204e-01,4.443525321807981557e-03,2.313867627185330761e-02,2.647337350082813474e-03
8.990000000000000213e-01,1.361859615928587286e-02,3.616173389889065348e-03,-1.644914488393541332e-02
9.000000000000000222e-01,4.687399494949704565e-02,-2.269145004261532983e-02,-4.779706238760368653e-02
9.010000000000000231e-01,4.228567387478682910e-02,-3.753077918259232343e-02,-2.811064398052132152e-02
9.020000000000000240e-01,3.411111883839154646e-02,-4.630390209197308288e-02,-4.468757165304111656e-02
9.030000000000000249e-01,6.737079245251109683e-02,-6.241704883294018485e-02,-5.699138455357889016e-02
9.040000000000000258e-01,5.557634352578578324e-02,-5.209835984662482961e-02,-2.338241723547027431e-02
9.050000000000000266e-01,6.109989753588979111e-02,-4.626447649685287711e-02,-5.333728712439268077e-02
9.060000000000000275e-01,2.176664965641185792e-02,-5.956333047641412803e-02,-9.476475055089309679e-03
9.070000000000000284e-01,2.739085560293304245e-02,-4.342806880416783671e-02,1.308692893662616319e-02
9.080000000000000293e-01,5.884565191776778940e-03,-2.418118203716826051e-02,8.860833175712829954e-03
9.090000000000000302e-01,3.557752725670123347e-03,-2.398840831166473495e-02,-1.624851677864933529e-03
9.100000000000000311e-01,-3.843255292391498101e-02,-7.098938891354776614e-04,2.642069267119837028e-02
9.110000000000000320e-01,-4.548477059476189154e-03,3.039169860882135615e-02,3.358694664821330889e-02
9.120000000000000329e-01,-5.699637506807362503e-02,1.159576427924918600e-02,3.548852140059452487e-02
9.130000000000000338e-01,-6.101241005574942200e-02,4.957695190211214992e-02,4.272591595433587741e-02
9.140000000000000346e-01,-7.739070121858462881e-02,3.132762741159773184e-02,2.904780799785529680e-02
9.150000000000000355e-01,-5.694890299424285041e-02,2.225612847973327049e-02,2.911717131421601504e-02
9.160000000000000364e-01,-3.489716028907597495e-02,4.548836472174708906e-02,1.147535619162433004e-02
9.170000000000000373e-01,-5.271111647290634833e-02,5.880364848167305564e-02,1.050921113037720130e-02
9.180000000000000382e-01,-1.759925963239320282e-02,5.596669084501782604e-03,7.848151295990000997e-03
9.190000000000000391e-01,-7.626435781822120917e-03,1.642513039512477277e-02,-3.219973479214298384e-02
9.200000000000000400e-01,9.149858652910590473e-03,-1.505428201751599603e-02,-6.263434153702206360e-03
9.210000000000000409e-01,2.416199386437985902e-02,-1.260370103115339598e-02,-2.541601293834144792e-02
9.220000000000000417e-01,4.189580946365849962e-02,-1.649429419647086698e-02,-4.424723474551728319e-02
9.230000000000000426e-01,2.032381200439986602e-02,-4.144237469580773492e-02,-4.652405752511316883e-02
9.240000000000000435e-01,5.776548773865877034e-02,-3.574123253619308771e-02,-4.240496627023909726e-02
9.250000000000000444e-01,8.094916893870580943e-02,-4.868067121459423302e-02,-2.917325355415291768e-02
9.260000000000000453e-01,4.153046818186412192e-02,-2.815406432549335397e-02,-3.150607884589851082e-02
9.270000000000000462e-01,4.922726063506611266e-02,-5.819750454973853654e-02,-4.796994887382859118e-02
9.280000000000000471e-01,2.676972125259393515e-02,-3.434971678679876739e-02,-5.915605643214551061e-04
9.290000000000000480e-01,-3.260321453873759375e-03,-1.908796922371378685e-02,-8.434938065940636312e-04
9.300000000000000488e-01,-2.003231683426345095e-04,-1.572083009800579953e-02,1.670685364448427565e-02
9.310000000000000497e-01,5.903583344889046583e-03,8.130634961506587322e-03,2.473621234964559421e-02
9.320000000000000506e-01,-2.065698660171903789e-02,-4.916149346236795177e-03,4.213616671002341774e-02
9.330000000000000515e-01,-5.091757033483337858e-02,3.691015397364125900e-02,3.890578217355116636e-02
9.340000000000000524e-01,-4.618553970075012227e-02,2.268451072479887864e-02,2.622429117124205206e-02
9.350000000000000533e-01,-9.559097334278426894e-02,4.182139571606491302e-02,4.568091151017865392e-02
9.360000000000000542e-01,-6.366560883955763028e-02,4.122641653748286561e-02,5.571250961303733651e-02
9.370000000000000551e-01,-3.942834758253308675e-02,4.861414457316541593e-02,2.659331421389310446e-02
9.379999999999999449e-01,-5.547330619651128641e-02,2.733609189699497816e-02,1.340288904081830303e-02
9.389999999999999458e-01,-1.728445159360027239e-02,1.680797341531904687e-02,-2.013101339561034452e-03
9.399999999999999467e-01,3.513124119117261041e-03,2.666039905098238280e-02,-8.835972725703279684e-03
9.409999999999999476e-01,4.866653957370763693e-03,-1.964921739218602244e-03,-7.057998684096307603e-03
9.419999999999999485e-01,2.095875741090286182e-02,-2.486292727495660951e-02,4.428415882811045402e-03
9.429999999999999494e-01,5.169387690051299028e-02,-1.543047494437529282e-02,-5.988655349254828029e-03
9.439999999999999503e-01,4.487784981028563464e-02,-1.405875262977386402e-02,-1.191497859936795946e-02
9.449999999999999512e-01,6.247777041888710747e-02,-6.896418003170928790e-02,-3.169040499305189607e-02
9.459999999999999520e-01,4.891426263771550542e-02,-3.008038067605083021e-02,-6.273504021794373657e-03
9.469999999999999529e-01,6.354047151221389744e-02,-6.279775729996424360e-02,-3.735089883175089082e-02
9.479999999999999538e-01,5.389676482114953704e-02,-1.900292878229440513e-02,-3.992911553512040745e-02
9.489999999999999547e-01,6.314878482117983194e-02,-2.306686859637785414e-02,-2.064137473314887200e-02
9.499999999999999556e-01,1.142587571247062964e-02,-3.319942372442717671e-02,-2.364270672936325327e-02
9.509999999999999565e-01,-1.098207852178388318e-03,-1.408862022968019982e-02,-1.269906953933154156e-02
9.519999999999999574e-01,-6.119185918283491857e-03,-5.438000381783956137e-03,-9.087214479213729171e-03
9.529999999999999583e-01,-2.830061629297488113e-02,-8.495556059066320873e-03,2.193012978736300425e-02
9.539999999999999591e-01,-2.289029214059836240e-02,2.045327921721790468e-02,3.895316828396103159e-02
9.549999999999999600e-01,-3.054675429440557866e-02,4.166621634659137957e-02,1.931935187893435782e-02
9.559999999999999609e-01,-5.906918087030484793e-02,5.046968892641223725e-02,1.998447662825455703e-02
9.569999999999999618e-01,-4.376796551129432528e-02,5.892088471038459813e-02,4.977622213722746047e-02
9.579999999999999627e-01,-7.368629023427067382e-02,4.719505047686013699e-02,1.626770420895098934e-02
9.589999999999999636e-01,-5.321910664489182263e-02,5.015387770675475837e-02,3.299630306830115406e-02
9.599999999999999645e-01,-5.532588380951881935e-02,5.136085725994626872e-02,1.975678655674585268e-02
9.609999999999999654e-01,5.530738901217950197e-04,1.847143222240475030e-02,7.406025139758857590e-04
9.619999999999999662e-01,-7.007107974300781812e-03,6.871397969258665091e-03,1.859080463215578502e-02
9.629999999999999671e-01,8.887309781197118633e-03,3.908717121044952628e-03,-1.291906544576527406e-02
9.639999999999999680e-01,1.345162328477541268e-02,-9.675684047983298258e-03,-2.775664871672290507e-02
9.649999999999999689e-01,2.341937346554237923e-02,-5.654542712723660547e-02,-4.719030727266693148e-02
9.659999999999999698e-01,4.200178579359810371e-02,-3.508387612668480843e-02,-2.510440796429812271e-02
9.669999999999999707e-01,4.241158695002117396e-02,-3.076491831149182066e-02,-2.858941379818237885e-02
9.679999999999999716e-01,6.765706540941419933e-02,-3.901429994153757935e-02,-3.588607651687675953e-02
9.689999999999999725e-01,5.063244194172069473e-02,-3.913921528009910167e-02,-2.322320966503654480e-02
9.699999999999999734e-01,3.477364415151452254e-02,-3.723594816329314772e-02,-4.003776929782069255e-02
9.709999999999999742e-01,3.724838571444760715e-02,-3.219894423882991435e-02,-1.669184666803382247e-02
9.719999999999999751e-01,2.129775993038974385e-02,-2.264355501908254121e-03,-1.409797380987986605e-02
9.729999999999999760e-01,-1.648411453163650675e-02,-1.958453104606865808e-02,1.405714329440530160e-02
9.739999999999999769e-01,-1.851156121893855408e-02,3.286496403939675841e-03,1.130755654058939602e-02
9.749999999999999778e-01,-7.186484252689594177e-02,3.806096341096573861e-03,4.159505423897509949e-03
9.759999999999999787e-01,-3.267589257011870724e-02,2.445102379999651229e-02,5.012082498262543373e-02
9.769999999999999796e-01,-6.949934401782732751e-02,4.698202832575772842e-02,3.277417659442939668e-02
9.779999999999999805e-01,-6.489502933562964204e-02,5.204521885953286575e-02,3.430708813752292308e-02
9.789999999999999813e-01,-5.846177350860167626e-02,3.261269517083307395e-02,5.537425459307536435e-02
9.799999999999999822e-01,-7.194508174802463629e-02,8.277824307745471066e-02,3.927819722673339675e-02
9.809999999999999831e-01,-5.785636632337295970e-02,4.097843402648430888e-02,1.853539168461918948e-02
9.819999999999999840e-01,-3.376756323589623354e-02,1.607690017139500049e-02,1.189470254973491042e-02
9.829999999999999849e-01,-1.749301229918541868e-03,3.549680941757645675e-02,1.782593060563563911e-02
9.839999999999999858e-01,1.415108817999555062e-02,1.375726446048639723e-02,2.069569932143933491e-03
9.849999999999999867e-01,9.299269560587981182e-03,-1.751583486462702371e-02,-2.446331866178087441e-02
9.859999999999999876e-01,2.908562861769468585e-02,-3.027480229751858612e-02,-1.539891259386397780e-02
9.869999999999999885e-01,6.029947263422055781e-02,-3.138777831900443904e-02,-4.080205983303199224e-02
9.879999999999999893e-01,4.031214077423378450e-02,-4.157392872009697121e-02,-3.356750670349449572e-02
9.889999999999999902e-01,5.069793395652991141e-02,-4.331824918691611070e-02,-4.999238305476409044e-02
9.899999999999999911e-01,6.970489069982047092e-02,-4.813732230502422438e-02,-3.932723776692057666e-02
9.909999999999999920e-01,5.430765949435140821e-02,-3.215488286387902656e-02,-2.465423728407548434e-02
9.919999999999999929e-01,3.767056586226923826e-02,-3.596002283543359851e-02,5.655321868908208885e-03
9.929999999999999938e-01,2.617849627134809232e-02,-4.055215604168186001e-03,-8.844520720532187547e-03
9.939999999999999947e-01,2.146721305678405550e-02,-2.460030231041877673e-03,-1.248710825386125517e-02
9.949999999999999956e-01,1.031872967741533477e-03,1.358544193849106629e-02,-5.430483097553486828e-03
9.959999999999999964e-01,-1.436152571052696017e-02,2.565053684063570844e-02,3.408943341582644504e-02
9.969999999999999973e-01,-3.724198518603669822e-02,2.680726666586935418e-03,2.935851423142548516e-02
9.979999999999999982e-01,-5.651635843881811644e-02,2.260919378386654424e-02,1.830085600804225512e-02
9.989999999999999991e-01,-5.114710629523028934e-02,2.917651236091247866e-02,2.131474501074302058e-02
1.000000000000000000e+00,-5.911426061812567051e-02,4.197575041423437514e-02,4.591147577266654206e-02
1.000999999999999890e+00,-4.926053984140883746e-02,5.364501157640281376e-02,2.625265949348814035e-02
1.002000000000000002e+00,-4.335533189820649919e-02,5.497391976776799805e-02,1.185298378059271643e-02
1.002999999999999892e+00,-2.628907957794631572e-02,3.509299394832873092e-02,4.085476418104978802e-02
1.004000000000000004e+00,-3.223444806240778615e-02,2.520864471685875866e-02,2.696152095469471835e-02
1.004999999999999893e+00,6.971677860719557168e-03,1.314747549880496396e-04,9.545145467507927875e-03
1.006000000000000005e+00,1.527479936084041867e-03,-8.471960932495596966e-03,-6.262181930802649711e-03
1.006999999999999895e+00,5.387215809755547397e-02,-2.385494894573769037e-02,2.936893269511776927e-03
1.008000000000000007e+00,3.233281712020596305e-02,-5.078823145593634042e-02,-3.229398761573287063e-02
1.008999999999999897e+00,3.271855958396979042e-02,-2.734233834044704284e-02,-4.376659924713895838e-02
1.010000000000000009e+00,4.798885274999096368e-02,-7.733405629072943877e-02,-1.245643269236517379e-02
1.010999999999999899e+00,6.291213414458890485e-02,-6.351825072746897227e-02,-5.169936723684287472e-02
1.012000000000000011e+00,5.748635236308773794e-02,-1.487062603955963645e-02,-2.195788195246544186e-02
1.012999999999999901e+00,5.388484564707333307e-02,-4.531734030823293680e-02,-2.924330562003858713e-02
1.014000000000000012e+00,5.834537330055243609e-02,-4.193378370769317715e-02,-2.505958714443993693e-02
1.014999999999999902e+00,5.338171426031178279e-02,-1.455852729839053963e-02,1.053050523834579005e-02
1.016000000000000014e+00,-1.024797069190893934e-03,1.016591971134948175e-02,3.193686815252077486e-03
1.016999999999999904e+00,2.334643254608749843e-02,-3.258405702701521779e-03,2.471051396899686878e-02
1.018000000000000016e+00,-3.008216938025900372e-02,4.042238578168170365e-02,2.345321144522511184e-02
1.018999999999999906e+00,-3.661360882789906068e-02,3.975417889361663321e-02,3.564709460564007698e-02
1.020000000000000018e+00,-4.912012750305814329e-02,2.048990005103911924e-02,4.623316589157621531e-02
1.020999999999999908e+00,-6.663830713299502551e-02,5.508928072277271409e-02,4.328012944541276968e-02
1.022000000000000020e+00,-3.351347940318225721e-02,3.718144835051230557e-02,4.281893254011488043e-02
1.022999999999999909e+00,-7.237381319062242968e-02,3.366939979648798237e-02,2.415757272314081328e-02
1.024000000000000021e+00,-6.025301608983968382e-02,3.086502704103497724e-02,-5.629123487628142491e-03
1.024999999999999911e+00,-1.196898343220465476e-02,4.163766249137571679e-02,3.794135006385181141e-02
1.026000000000000023e+00,-3.928054568976760419e-02,1.405106093300691021e-02,2.974742366820534029e-02
1.026999999999999913e+00,-1.385788556290970704e-02,-1.889329683783602665e-02,-2.223002652594157470e-05
1.028000000000000025e+00,2.013352003796894940e-02,5.913210468075053017e-03,-1.826299762185337391e-02
1.028999999999999915e+00,1.493131928387467396e-02,-3.556273731051648457e-02,-1.799793408904150002e-02
1.030000000000000027e+00,4.478763495691374941e-02,-2.108237547133474596e-02,-2.333077760722333110e-02
1.030999999999999917e+00,5.382494377855719797e-02,-2.188461895250375100e-02,-4.164356559392012880e-02
1.032000000000000028e+00,5.435574739691953483e-02,-6.809558906450563498e-02,-4.166152118692655060e-02
1.032999999999999918e+00,5.397386847170980440e-02,-5.828470703881988985e-02,-2.551255328379463394e-02
1.034000000000000030e+00,5.191602599616056829e-02,-3.112363258552167805e-02,-3.547467398201593208e-02
1.034999999999999920e+00,2.445689324892619254e-02,-3.058620613904505445e-02,-3.691381582368290920e-02
1.036000000000000032e+00,3.509245274226677203e-02,-4.892224574187361424e-03,9.600271237252362352e-03
1.036999999999999922e+00,1.616155438098541494e-02,-2.073162958460593105e-02,1.759149649467202023e-02
1.038000000000000034e+00,-1.378005613881770966e-02,9.848423948947443440e-03,-1.117864525580776307e-02
1.038999999999999924e+00,-2.306387820818872614e-02,5.897451113294413516e-04,2.002272776240094851e-02
1.040000000000000036e+00,-2.814076809197983003e-02,2.284915627748359754e-02,1.765719883514188168e-02
1.040999999999999925e+00,-5.337687030823066309e-02,4.796661940980135458e-02,4.935426939012418218e-02
1.042000000000000037e+00,-7.504086728309110332e-02,4.051979004829963510e-02,3.548349741099852267e-02
1.042999999999999927e+00,-4.529442045497955593e-02,5.348319109356636236e-02,4.702306883737272791e-02
1.044000000000000039e+00,-3.335134997466059764e-02,3.225104174999404022e-02,4.085218545336705837e-02
1.044999999999999929e+00,-5.177180185611134772e-02,4.619816395765134753e-02,4.532572644021604785e-02
1.046000000000000041e+00,-5.700611731564379780e-02,3.246925039056357265e-02,3.268963337561428539e-02
1.046999999999999931e+00,-9.528934590276453773e-03,-4.265159355328939153e-04,-4.117428809165826591e-03
1.048000000000000043e+00,-1.614534632537819453e-02,-9.000422800326547332e-03,1.632167936170746472e-02
1.048999999999999932e+00,2.141578334030920863e-03,-5.801988681019962756e-03,7.615603437574909444e-05
1.050000000000000044e+00,8.337205052530296395e-03,-2.364478531284497365e-02,-1.254206224197134019e-02
1.050999999999999934e+00,4.150925722252331307e-02,-2.887991583054251230e-02,-5.630261316887745331e-03
1.052000000000000046e+00,4.239102117727703428e-02,-4.375776109088457683e-02,-1.519248888948473292e-02
1.052999999999999936e+00,4.528647799093557524e-02,-3.579157588368071102e-02,-1.588141454623325476e-03
1.054000000000000048e+00,6.973334602357361689e-02,-4.242009236340977402e-02,-3.255921600137867689e-02
1.054999999999999938e+00,5.611673017444112482e-02,-2.174164154662080323e-02,-2.031088897647938263e-02
1.056000000000000050e+00,3.457810626614494370e-02,-2.860187872594890587e-02,-8.703050232621805868e-03
1.056999999999999940e+00,1.404976244453268359e-02,-2.425360354939082308e-02,-4.859381571872524452e-03
1.058000000000000052e+00,1.518952352121187219e-02,-3.000081233347233131e-02,-4.116588125824926017e-03
1.058999999999999941e+00,5.832411958644818060e-03,2.173553894263652309e-02,-1.668698698288620733e-02
1.060000000000000053e+00,-2.322843424692204364e-03,-6.998650873138331091e-03,-1.902594696985819914e-02
1.060999999999999943e+00,-2.332624651170925670e-02,3.121070103334261728e-02,3.017015634414404318e-03
1.062000000000000055e+00,-4.095885068422679132e-02,4.802276114885051239e-02,3.010707068202038775e-02
1.062999999999999945e+00,-6.743807028559600791e-02,3.601424328705549877e-02,1.361918890694595666e-02
1.064000000000000057e+00,-4.987334224330192134e-02,4.659314091371212496e-02,3.899340649396117880e-02
1.064999999999999947e+00,-5.147094866082965736e-02,2.243106923298984756e-02,8.960958647174190744e-03
1.066000000000000059e+00,-3.853280624942048010e-02,3.183224373790143752e-02,2.649383375963526577e-02
1.066999999999999948e+00,-4.433643329728257504e-02,2.889773577801081628e-02,3.283924276688890420e-02
1.068000000000000060e+00,-3.258423247199950662e-02,2.128335633906196234e-02,1.922717317451777888e-02
1.068999999999999950e+00,-2.029924421533124343e-02,2.364000421392166082e-02,1.079598546033277463e-02
1.070000000000000062e+00,-2.429067763681160442e-03,-2.293562645925334778e-03,5.873068830804430845e-03
1.070999999999999952e+00,5.206895210763706414e-03,-2.742005942268190694e-02,-9.897405543208559475e-04
1.072000000000000064e+00,3.628224193275047388e-02,-2.269285918383738554e-02,-1.983328395175011985e-02
1.072999999999999954e+00,6.156294046302927814e-02,-6.534620766449403262e-02,-3.443712573843573516e-02
1.074000000000000066e+00,4.984922662495166329e-02,-4.607122211416561641e-02,-2.025131048765717312e-02
1.074999999999999956e+00,4.341962919393519554e-02,-3.836383016305423138e-02,-1.554086317172863503e-02
1.076000000000000068e+00,4.562947193443381289e-02,-3.256746158721866846e-02,-1.762219413044277538e-02
1.076999999999999957e+00,6.615142042858222771e-02,-5.047926999129401238e-02,-4.259547978040648109e-02
1.078000000000000069e+00,4.687827507198707999e-02,-5.285905907863028969e-02,-4.097504094469946873e-02
1.078999999999999959e+00,4.677503124379446542e-02,-2.544631036021928819e-02,-2.385796398705818111e-02
1.080000000000000071e+00,2.510254908627419096e-02,-1.025507580812745113e-04,-1.440562517016216390e-02
1.080999999999999961e+00,-1.468391006704169478e-02,3.653990255905898571e-02,-1.090104754537258268e-02
1.082000000000000073e+00,-2.009957034182434724e-02,3.351627586517487434e-02,2.183244984075332490e-02
1.082999999999999963e+00,-4.123028953980933248e-02,5.661647601386469997e-02,1.872677833809514511e-02
1.084000000000000075e+00,-3.590553743103692269e-02,5.072934404218864407e-02,1.456791904944197344e-02
1.084999999999999964e+00,-5.041963207451045925e-02,5.332545764682144335e-02,2.461799803598842609e-02
1.086000000000000076e+00,-4.333211720386236782e-02,6.496910602872206508e-02,1.644223260019706326e-02
1.086999999999999966e+00,-7.267739877795713344e-02,7.271605224186107608e-02,2.127781568796855566e-02
1.088000000000000078e+00,-4.220523413879378322e-02,4.157485886710520634e-02,5.059374054279724975e-02
1.088999999999999968e+00,-4.176136780558509926e-02,4.583599408566669392e-02,2.414957002958235954e-02
1.090000000000000080e+00,-2.251206043018422545e-02,3.353366346802971742e-02,2.645383427980830399e-02
1.090999999999999970e+00,-2.334927175130366295e-02,-8.286331951288458675e-04,2.620832296273334708e-02
1.092000000000000082e+00,-8.486409640295978552e-05,-2.020144355955299370e-02,1.859254732641422297e-02
1.092999999999999972e+00,1.305511843496115140e-02,-1.760109762906721456e-02,-2.449888002294885528e-03
1.094000000000000083e+00,5.429002703536356389e-02,-2.240289263197251315e-02,3.998211099724241447e-05
1.094999999999999973e+00,5.800548304824599405e-02,-2.972769839320192273e-02,-5.986388158980215229e-02
1.096000000000000085e+00,4.140804427597769011e-02,-3.773921767019231682e-02,-3.508419515157790158e-02
1.096999999999999975e+00,5.435762183802388819e-02,-5.465477816112945808e-02,-2.305171390024685421e-02
1.098000000000000087e+00,5.299694234704071388e-02,-4.661783665511707447e-02,-1.843653970755837132e-02
1.098999999999999977e+00,4.730192481410225996e-02,-2.359857716753210183e-02,-3.101870943544046341e-02
1.100000000000000089e+00,4.453646351521960145e-02,-7.048381347411506945e-03,-4.126932688785660969e-02
1.100999999999999979e+00,2.091571795774824910e-02,-4.110450669086161343e-03,-3.708347818735305279e-02
1.102000000000000091e+00,8.309380339946026081e-03,-7.609034146755327922e-04,-1.942555646079598131e-02
1.102999999999999980e+00,7.067066115915649795e-03,4.336548741060060504e-03,-9.351366707019241609e-03
1.104000000000000092e+00,-2.290474249856549668e-02,4.124010024784398321e-02,1.314946248554703899e-02
1.104999999999999982e+00,-3.395200887757659353e-02,5.009530830448565009e-02,-9.056750195318914384e-03
1.106000000000000094e+00,-6.034796557125067518e-02,4.386973550395729948e-02,-1.241141123719901977e-02
1.106999999999999984e+00,-7.960325732030730517e-02,6.707381647268988167e-02,1.834446125107924014e-02
1.108000000000000096e+00,-7.774489249253450918e-02,6.865357609534208927e-02,2.088077498869786788e-02
1.108999999999999986e+00,-5.850039163219245691e-02,3.887956425437613661e-02,4.473727470421425684e-02
1.110000000000000098e+00,-4.996957359990893827e-02,4.285113451317792282e-02,4.512196847088190133e-02
1.110999999999999988e+00,-3.172413522672280772e-02,2.278628080699215269e-02,4.650770571773682471e-02
1.112000000000000099e+00,-1.113774705071552719e-02,2.196154988720276299e-02,6.396375504950047204e-03
1.112999999999999989e+00,8.871181507971668536e-04,-7.327144857389115279e-03,2.956256199501394732e-02
1.114000000000000101e+00,1.017474348372988946e-02,-1.793527946411758306e-02,1.427436082905722201e-02
1.114999999999999991e+00,3.730207343977511719e-02,-2.863676199370380690e-02,-1.055496170175185093e-02
1.116000000000000103e+00,5.839626639234998112e-02,-4.911712345570515975e-02,-1.691444565167803810e-02
1.116999999999999993e+00,3.235147867682492545e-02,-3.841577835388571005e-02,-4.061044629715688387e-02
1.118000000000000105e+00,4.377518942001357161e-02,-4.280905704967657294e-02,-4.665812551537166369e-02
1.118999999999999995e+00,4.578581362654497722e-02,-4.438121230952542934e-02,-4.991183721197385570e-02
1.120000000000000107e+00,4.382357701109767384e-02,-4.523500713114985555e-02,-5.691447701040522333e-02
1.120999999999999996e+00,5.993005134829870739e-02,-2.779154495137640263e-02,-2.590007598529711283e-02
1.122000000000000108e+00,1.576935244457092905e-02,-3.121142929161489429e-02,-1.346719950891786706e-02
1.122999999999999998e+00,5.349902486763613053e-03,-9.355857419844836823e-04,-2.019182348525646112e-02
1.124000000000000110e+00,2.259785892434472421e-02,1.524395347759158192e-02,-3.471776309074452171e-02
1.125000000000000000e+00,-3.232714926213270390e-02,1.721416032055714251e-02,-8.161305083323310700e-03
1.125999999999999890e+00,-3.071232632414599290e-02,4.685655631133643639e-02,-1.452194207371707534e-02
1.127000000000000002e+00,-2.030003486158547810e-02,6.188493831257824845e-02,2.090636374816693885e-02
1.127999999999999892e+00,-6.662428445457062309e-02,4.622836710473803706e-02,2.423351911001823261e-02
1.129000000000000004e+00,-6.663846559972169681e-02,2.522328407749228202e-02,1.655455483327393160e-02
1.129999999999999893e+00,-6.805297710095023489e-02,6.207447398935831556e-02,3.289087425702263284e-02
1.131000000000000005e+00,-5.347400479266789519e-02,1.385712416734181766e-02,4.038824786608100070e-02
1.131999999999999895e+00,-3.805422955727683076e-02,3.994503107105428635e-03,1.426154240106439208e-02
1.133000000000000007e+00,-8.248232779314799631e-03,-1.097591080735483161e-03,3.833211708094208525e-02
1.133999999999999897e+00,-2.172487908783478361e-02,8.096180105484317158e-03,4.239369785502734161e-02
1.135000000000000009e+00,2.787809047091565837e-02,-1.201139234648661465e-02,-8.417328948392196336e-03
1.135999999999999899e+00,5.830155748291461840e-03,-4.152727460100007206e-02,-1.147570508850446168e-02
1.137000000000000011e+00,5.848169010036906312e-02,-4.650265114881927536e-02,-1.051078308385850098e-02
1.137999999999999901e+00,2.944101607998114711e-02,-3.299507871534798631e-02,-1.780869322696562382e-02
1.139000000000000012e+00,5.880881632888472488e-02,-5.100971672979254246e-02,-3.285016251253027042e-02
1.139999999999999902e+00,5.672661677348724701e-02,-2.571828342494767577e-02,-2.545930993420742611e-02
1.141000000000000014e+00,6.038665299750520937e-02,-4.379168236452477686e-02,-2.641443416554083851e-02
1.141999999999999904e+00,4.281251341957314355e-02,-3.881962292589435926e-02,-5.996102844956141542e-02
1.143000000000000016e+00,3.724823489834917095e-02,-4.652770232435751718e-03,-3.853415681073640853e-02
1.143999999999999906e+00,1.744978759450997383e-02,-1.120177457537351214e-02,-1.032464193669040999e-02
1.145000000000000018e+00,3.103078336836396015e-02,1.156447787708386743e-02,-3.000223733798240699e-02
1.145999999999999908e+00,-1.824683229773288798e-02,1.062906643614755335e-02,-4.077240410196094310e-03
1.147000000000000020e+00,-1.895774256938733901e-02,3.358586520698649686e-02,-2.829958667668949247e-03
1.147999999999999909e+00,-3.315275486668736032e-02,3.173204990151449328e-02,-1.216187094275122949e-02
1.149000000000000021e+00,-2.961687225350633987e-02,2.607832613282345946e-02,-7.099890742489409559e-03
1.149999999999999911e+00,-6.470433920722147569e-02,6.620752050681560918e-02,1.525303426366428870e-02
1.151000000000000023e+00,-4.773123163442453271e-02,4.629551122063111507e-02,2.370206273430448124e-02
1.151999999999999913e+00,-6.020096979400772763e-02,4.743007304067909519e-02,1.884656294510553623e-02
1.153000000000000025e+00,-4.907287370412038302e-02,3.049429935961449345e-02,4.437847487402221680e-02
1.153999999999999915e+00,-3.813504296164744317e-02,4.275944593839970526e-02,3.868415118256637864e-02
1.155000000000000027e+00,-2.708695233846572861e-02,-1.949655128141933660e-02,2.177705481017020231e-02
1.155999999999999917e+00,-9.011072182989151788e-03,-4.474856380178878867e-04,1.811707815357968890e-02
1.157000000000000028e+00,-2.059005084241042564e-03,-1.706615381053784228e-02,4.201933249734616377e-02
1.157999999999999918e+00,1.830498480853927704e-02,-4.149852011032040267e-02,1.700029855417772243e-03
1.159000000000000030e+00,4.567966322635346604e-02,-3.377111056057736926e-02,-2.514619415489557225e-02
1.159999999999999920e+00,4.977527883630495503e-02,-4.486868291617308879e-02,-3.989968117656386010e-02
1.161000000000000032e+00,7.774089592110226821e-02,-4.742507252642094023e-02,3.952552623476206228e-03
1.161999999999999922e+00,4.555553298159167180e-02,-4.010406801474868110e-02,-3.409367969409530380e-02
1.163000000000000034e+00,6.834378935556263690e-02,-3.844127296019824586e-02,-3.144201422434873827e-02
1.163999999999999924e+00,8.827731755566095920e-03,2.500030175340379242e-03,-2.617258772309608364e-02
1.165000000000000036e+00,1.806464319303538110e-02,-1.137796758673630115e-02,-6.175179032302711285e-02
1.165999999999999925e+00,3.441447828833697070e-02,2.498766655663186079e-02,-2.531325351040520158e-02
1.167000000000000037e+00,-3.497430277598689418e-03,7.064405511516672065e-03,1.153495217317616200e-02
1.167999999999999927e+00,-1.918427088621569437e-02,4.758836796336224362e-02,-4.166596607022832882e-02
1.169000000000000039e+00,-1.068997066219564210e-02,4.513552830719244624e-02,1.354741079685306375e-02
1.169999999999999929e+00,-4.709011396698553620e-02,4.513937360734550375e-02,1.495548753453277910e-02
1.171000000000000041e+00,-7.235342056750686257e-02,5.206099265336222581e-02,1.359699870282937879e-02
1.171999999999999931e+00,-3.819159336310658931e-02,3.505144661122019945e-02,8.852518089813944668e-03
1.173000000000000043e+00,-5.909530688588609387e-02,2.501919647861350002e-02,2.764475068200463251e-02
1.173999999999999932e+00,-3.336685208590793594e-02,1.705742907617839588e-02,1.674832745946833830e-03
1.175000000000000044e+00,-5.802064954641872330e-02,1.969845235193542696e-02,3.610436795605714150e-02
1.175999999999999934e+00,-1.812394899072056545e-02,9.440285341393543292e-03,5.118437582817006448e-02
1.177000000000000046e+00,-1.244870999140695010e-02,1.054297158448410689e-02,9.687062910342082722e-03
1.177999999999999936e+00,-1.628040023015164470e-02,-1.794911520345210398e-02,9.828585087246762692e-03
1.179000000000000048e+00,2.483723377240793992e-02,-5.714701917365123951e-02,2.114057850865938906e-02
1.179999999999999938e+00,4.001773912952459600e-02,-5.638138318608190008e-02,2.518272869891910112e-02
1.181000000000000050e+00,4.829443679234600439e-02,-3.849360838094879195e-02,-1.557545944550463475e-02
