time,acc_x,acc_y,acc_z
0.000000000000000000e+00,-1.978685693738825579e-01,-9.426593070632996452e-02,-1.249493157114124897e-01
1.000000000000000021e-03,-7.354574538919409973e-03,1.461589947617169816e-01,-7.552541586693659048e-02
2.000000000000000042e-03,2.421260200884149949e-01,2.023065725424487149e-01,8.600836721463070433e-02
3.000000000000000062e-03,1.687372431891573377e-01,7.018913537516524581e-02,1.545655935274610204e-01
4.000000000000000083e-03,-5.984817538663372155e-02,-1.269347369208734810e-01,5.438920916095615898e-02
5.000000000000000104e-03,-2.143386969318634705e-01,-1.487075391898592391e-01,-9.786026236234082742e-02
6.000000000000000125e-03,-1.689548278302511752e-01,-4.037640251350126802e-02,-1.268667588268741209e-01
7.000000000000000146e-03,1.011116415151126352e-01,1.708013942069203650e-01,-2.398433197025736513e-02
8.000000000000000167e-03,2.098836440351141697e-01,1.817425471761577593e-01,1.385838327243979207e-01
8.999999999999999320e-03,1.213657432847346090e-01,-5.866366172651752732e-03,1.378696285257843546e-01
1.000000000000000021e-02,-1.219867400703150834e-01,-1.642498222917759265e-01,7.492924677537743557e-03
1.099999999999999936e-02,-2.431368389840949384e-01,-1.682619325697199686e-01,-1.003982068414439460e-01
1.200000000000000025e-02,-7.426753147184343706e-02,6.533505153354990380e-02,-1.206133451376372456e-01
1.299999999999999940e-02,1.687514660529551846e-01,2.067368783600635196e-01,-4.546278474629903907e-03
1.400000000000000029e-02,2.231140690471356269e-01,9.995785980603852372e-02,1.289165920809625387e-01
1.499999999999999944e-02,5.478303810561840209e-02,-8.322351550888214267e-02,1.344976517161480534e-01
1.600000000000000033e-02,-2.021407575860449390e-01,-1.974887972373507994e-01,-5.541570511930780929e-02
1.700000000000000122e-02,-2.086211871773292481e-01,-7.861480844200345597e-02,-1.484861882936284738e-01
1.799999999999999864e-02,9.328620362795482816e-04,1.421324053709289714e-01,-1.030576334948895695e-01
1.899999999999999953e-02,2.137773637550615113e-01,1.802643795326130116e-01,5.711984364816102833e-02
2.000000000000000042e-02,1.993069932028278812e-01,6.322527438419393853e-02,1.696171408329460450e-01
2.100000000000000130e-02,-3.437562611731499740e-02,-1.581813400470189201e-01,9.115086854126012994e-02
2.199999999999999872e-02,-2.301920661363379417e-01,-1.689323542509021669e-01,-1.121010123902643901e-01
2.299999999999999961e-02,-1.818333584563082139e-01,-2.876846338098065781e-02,-1.435184597802801332e-01
2.400000000000000050e-02,5.140122605612951201e-02,1.720363648068715390e-01,-6.302589000908111194e-02
2.500000000000000139e-02,2.509022627950288076e-01,1.433075074728989706e-01,6.685508182155484869e-02
2.599999999999999881e-02,1.427414216853836182e-01,-5.646366439302460266e-02,1.394854280460474660e-01
2.699999999999999969e-02,-1.098131251985123569e-01,-1.793539001370893227e-01,4.070881920745907101e-02
2.800000000000000058e-02,-2.521674899077469556e-01,-1.536157887326573546e-01,-1.233088250724308638e-01
2.900000000000000147e-02,-1.011338432467567827e-01,8.411794642225212115e-02,-1.360900301091624298e-01
2.999999999999999889e-02,1.832092216752636282e-01,1.920266907660195255e-01,-4.177111288785256837e-02
3.099999999999999978e-02,2.445337501479402376e-01,1.158032508009560480e-01,1.133709006302359712e-01
3.200000000000000067e-02,7.121684710003509111e-02,-1.186181917578106454e-01,1.382730448280492797e-01
3.300000000000000155e-02,-1.867498139973585436e-01,-1.808388919839775399e-01,1.489545341139795510e-02
3.400000000000000244e-02,-2.229455221729928771e-01,-4.928817099934636181e-02,-1.204682709378932515e-01
3.500000000000000333e-02,-6.123119735935365904e-02,1.298412196455653034e-01,-1.404020593271183559e-01
3.599999999999999728e-02,1.940840042962463652e-01,2.048144132344289214e-01,-7.305662839490648097e-03
3.699999999999999817e-02,2.164833313153921579e-01,-6.144472583179942486e-03,1.316622898371049566e-01
3.799999999999999906e-02,5.441455155173549781e-03,-1.868707959967366161e-01,1.194269335710305274e-01
3.899999999999999994e-02,-2.102721428838085493e-01,-1.820265183156947741e-01,-4.163098291642689658e-02
4.000000000000000083e-02,-2.028624592642933044e-01,1.846150414479140814e-02,-1.549769743224441165e-01
4.100000000000000172e-02,3.503890095318044212e-02,1.927940526693910916e-01,-6.047279649561176224e-02
4.200000000000000261e-02,2.365358283010497997e-01,1.354157044729602244e-01,5.059687676127048311e-02
4.299999999999999656e-02,1.773200121444055144e-01,-1.805173221162427108e-02,1.529984277308830687e-01
4.399999999999999745e-02,-6.471142510271120363e-02,-2.031203112537827149e-01,1.120257656862760492e-01
4.499999999999999833e-02,-2.778410695448904066e-01,-1.200488240500345166e-01,-4.419230547353258237e-02
4.599999999999999922e-02,-1.290754998992446334e-01,7.427543803980510284e-02,-1.513713661460675541e-01
4.700000000000000011e-02,1.295925949838966362e-01,1.839997385664429996e-01,-7.562311385499244365e-02
4.800000000000000100e-02,2.723195246727150298e-01,8.900526196836287818e-02,5.909810544054669434e-02
4.900000000000000189e-02,1.129129972946798371e-01,-1.218901004230955737e-01,1.190962964089689879e-01
5.000000000000000278e-02,-1.639274102773030373e-01,-1.776671025859094533e-01,5.737093889935612756e-02
5.099999999999999672e-02,-2.340797843382891319e-01,-3.264976208470454777e-02,-9.374993410522666770e-02
5.199999999999999761e-02,-3.687287446784705963e-02,1.604465697585616968e-01,-1.608888821203794672e-01
5.299999999999999850e-02,1.863385196200046667e-01,1.905421043868728292e-01,-4.540921747241843248e-02
5.399999999999999939e-02,2.056547192984159167e-01,2.848667928126960222e-02,9.749215301420488533e-02
5.500000000000000028e-02,2.861795500879988838e-02,-1.814104146038170995e-01,1.534246487962740157e-01
5.600000000000000117e-02,-1.928709929588791061e-01,-1.904803110659020471e-01,3.263621204719538427e-02
5.700000000000000205e-02,-2.263744650529359304e-01,1.984212129986906784e-02,-1.243951736972174482e-01
5.800000000000000294e-02,1.162420072101293111e-02,1.908050815441625914e-01,-1.245525344541110468e-01
5.899999999999999689e-02,2.391608509129716509e-01,1.367965453945161891e-01,-2.064436912137721652e-02
5.999999999999999778e-02,1.911264928758517057e-01,-6.395443315569551701e-02,1.236581993526266465e-01
6.099999999999999867e-02,-6.521870244778794901e-02,-2.077420506527982991e-01,1.240622369030712768e-01
6.199999999999999956e-02,-2.347947775166559503e-01,-1.169920257271079012e-01,-1.631868017701467973e-03
6.300000000000000044e-02,-1.701739792264740647e-01,1.073865139266225871e-01,-1.204820655561779225e-01
6.400000000000000133e-02,8.356598506465932885e-02,2.016692100080413608e-01,-1.095050821141260872e-01
6.500000000000000222e-02,2.487613853413496445e-01,6.104229737844178022e-02,5.381855378202779483e-02
6.600000000000000311e-02,1.385959824919955341e-01,-1.239631361782103647e-01,1.373659172250681904e-01
6.700000000000000400e-02,-1.480824295358596221e-01,-1.959200679436892412e-01,7.306728535260365032e-02
6.800000000000000488e-02,-2.296591953123823526e-01,-6.473505432016804506e-02,-3.621132265915372878e-02
6.900000000000000577e-02,-7.706863707743495662e-02,1.543379260172735856e-01,-1.684763554339656355e-01
7.000000000000000666e-02,1.789655848802002014e-01,1.437989005067409898e-01,-7.333222949766099452e-02
7.099999999999999367e-02,2.280510916571019397e-01,1.085589114240496401e-02,7.858780931839606798e-02
7.199999999999999456e-02,4.269695454643784166e-02,-1.795634247225749713e-01,1.643593300430795934e-01
7.299999999999999545e-02,-1.908056971529403512e-01,-1.611440455522588633e-01,5.435307107534195076e-02
7.399999999999999634e-02,-2.184798597628010430e-01,2.002867061652208180e-02,-9.538608280162499953e-02
7.499999999999999722e-02,-1.758678230548866434e-02,1.481753406511716886e-01,-1.558652074661230902e-01
7.599999999999999811e-02,2.125804944924944984e-01,1.228604918049665123e-01,-3.976519378203151323e-02
7.699999999999999900e-02,2.234030695452187965e-01,-6.839626778641655358e-02,1.102101257623909064e-01
7.799999999999999989e-02,-5.799715805031162991e-02,-2.176658549765735917e-01,1.405192576242550728e-01
7.900000000000000078e-02,-2.184913655218757855e-01,-1.018871715779971210e-01,2.365358754044626435e-02
8.000000000000000167e-02,-1.945842702153484649e-01,1.276920389912060971e-01,-1.476630560940616899e-01
8.100000000000000255e-02,8.375010044208239246e-02,1.989443639605779357e-01,-1.438241588952799410e-01
8.200000000000000344e-02,2.353419922748218873e-01,6.087659682722239285e-02,1.887906391527217724e-03
8.300000000000000433e-02,1.347354422276653141e-01,-1.747192962000422567e-01,1.354251222481931138e-01
8.400000000000000522e-02,-1.121540808795190303e-01,-1.966320105141799723e-01,1.016339847861008061e-01
8.500000000000000611e-02,-2.573677373693032955e-01,3.881640843458357849e-03,-2.330196552363113238e-02
8.599999999999999312e-02,-1.134036360593397158e-01,1.521663607355427383e-01,-1.252700821375321016e-01
8.699999999999999400e-02,1.386839926500568754e-01,1.656684362078576500e-01,-1.200300888604010491e-01
8.799999999999999489e-02,2.285025177140456998e-01,-2.055488748344283870e-02,5.545436388134708516e-02
8.899999999999999578e-02,6.964387494561356806e-02,-1.807024242641034895e-01,1.488456100209100408e-01
8.999999999999999667e-02,-1.714319805538873920e-01,-1.595618672387442150e-01,9.946653793129564547e-02
9.099999999999999756e-02,-2.243523553137080628e-01,7.657185864690853327e-02,-6.800547727411690446e-02
9.199999999999999845e-02,-4.093606377415204972e-02,1.881038204711035500e-01,-1.511681271677977889e-01
9.299999999999999933e-02,1.904851740436478424e-01,1.010899298376746469e-01,-8.443078348939829503e-02
9.400000000000000022e-02,2.243702678457865085e-01,-9.987879919948645935e-02,7.547696006908920230e-02
9.500000000000000111e-02,-3.728834865441030266e-02,-1.808727673687797188e-01,1.251164725583928383e-01
9.600000000000000200e-02,-2.288846952497907983e-01,-5.347796057745989734e-02,4.080134144825704051e-02
9.700000000000000289e-02,-2.000901821111005507e-01,1.142407293202092056e-01,-9.872472815659770473e-02
9.800000000000000377e-02,4.799890696957712088e-02,1.803697925361069654e-01,-1.603747178624894687e-01
9.900000000000000466e-02,2.290229624943402875e-01,4.668282411429870368e-03,-3.318471839973598930e-02
1.000000000000000056e-01,1.675768161314477311e-01,-1.363467905023976190e-01,8.555073525199367868e-02
1.010000000000000064e-01,-9.757912245246962157e-02,-1.809993002012716401e-01,1.543427710369207340e-01
1.019999999999999934e-01,-2.751214356424833696e-01,-2.484768707078180774e-02,1.651603519952432250e-02
1.029999999999999943e-01,-1.430196078575540486e-01,1.573242282028424477e-01,-1.029957411314701005e-01
1.039999999999999952e-01,1.493157159244875576e-01,1.601711076713805137e-01,-1.322854116894108534e-01
1.049999999999999961e-01,2.286275714343510290e-01,-3.893432037632148235e-02,-1.211472129300175150e-02
1.059999999999999970e-01,1.006632225789257234e-01,-1.894634678409366779e-01,1.465021590087004499e-01
1.069999999999999979e-01,-1.690661076839974908e-01,-1.247195678374003053e-01,1.286686797551298556e-01
1.079999999999999988e-01,-2.230988633115674191e-01,7.321306317347031634e-02,-1.605732179817601774e-02
1.089999999999999997e-01,-4.126914716952062578e-02,1.998892590283786186e-01,-1.287994165007514680e-01
1.100000000000000006e-01,1.918304971354907462e-01,8.849056174598354807e-02,-1.024920957787648496e-01
1.110000000000000014e-01,2.346558439416401298e-01,-1.280654426111852429e-01,2.960147723506932615e-02
1.120000000000000023e-01,-7.197732860140059093e-03,-1.867918289302204493e-01,1.309368114198726785e-01
1.130000000000000032e-01,-1.930906564944638026e-01,-6.004358590966007297e-02,5.610078151564051874e-02
1.140000000000000041e-01,-2.004326954654944426e-01,1.320833018429712069e-01,-8.384076448941576998e-02
1.150000000000000050e-01,1.013484610112940984e-02,1.920386518374951335e-01,-1.753365354361414719e-01
1.160000000000000059e-01,2.264664429301752047e-01,2.454685595637116739e-03,-8.597293923891519141e-02
1.170000000000000068e-01,1.558142502604048241e-01,-1.723394770158033773e-01,7.431200581162622498e-02
1.179999999999999938e-01,-7.622569637429787992e-02,-1.741595459673442037e-01,1.407056096060252670e-01
1.189999999999999947e-01,-2.081625366831125756e-01,2.326549890499487322e-02,5.147061073110693885e-02
1.199999999999999956e-01,-1.392188295264006614e-01,1.788654086160327561e-01,-9.141458253060524841e-02
1.209999999999999964e-01,1.091814602372669779e-01,1.345608121889121933e-01,-1.567118812191129751e-01
1.219999999999999973e-01,2.169640078396253002e-01,-4.584467809957622902e-02,-5.892673133730385454e-02
1.229999999999999982e-01,1.088783371769930786e-01,-1.935971608900534657e-01,1.188712618477295452e-01
1.239999999999999991e-01,-1.521258671343406477e-01,-1.113175601108500057e-01,1.402672538082772313e-01
1.250000000000000000e-01,-2.221279771529137692e-01,8.096912341725041873e-02,2.761899724654661228e-02
1.260000000000000009e-01,-7.686499244045899570e-02,1.961030844800534523e-01,-1.007760495342732293e-01
1.270000000000000018e-01,1.941921025458756278e-01,7.727744176755267647e-02,-1.174682215882457414e-01
1.280000000000000027e-01,2.212269305194892177e-01,-1.244019857691362474e-01,1.501705936062408542e-02
1.290000000000000036e-01,2.428272316129888656e-02,-1.950531227373268617e-01,1.457873592614570002e-01
1.300000000000000044e-01,-2.253311481341118416e-01,-3.422611940466290664e-02,1.111457653375380050e-01
1.310000000000000053e-01,-2.131546682641740353e-01,1.345519001892814259e-01,-2.028314595462271316e-02
1.320000000000000062e-01,6.724515797157328348e-03,1.642240627292842203e-01,-1.274742220027034467e-01
1.330000000000000071e-01,1.887412733447744462e-01,7.148385347131394965e-03,-1.095774302868452593e-01
1.340000000000000080e-01,2.061806792046328995e-01,-1.876457322650403603e-01,2.012791099623625554e-02
1.350000000000000089e-01,-3.942503500356563800e-02,-1.551717552283582435e-01,1.547256834044081486e-01
1.360000000000000098e-01,-2.022229213569808615e-01,2.413168018192114392e-02,1.086927758840915970e-01
1.370000000000000107e-01,-1.694361035100602209e-01,1.761420803023565351e-01,-3.710444019700375601e-02
1.380000000000000115e-01,8.661185194330095483e-02,1.301021496870835570e-01,-1.167982542264781043e-01
1.390000000000000124e-01,2.544880238983071030e-01,-8.658080033188038371e-02,-9.489329155453231357e-02
1.400000000000000133e-01,1.254356599836074226e-01,-2.054593871530096538e-01,5.405670195938803296e-02
1.409999999999999865e-01,-1.361089691603344642e-01,-1.108078321137838662e-01,1.437384845488536012e-01
1.419999999999999873e-01,-2.240032971825034469e-01,1.027737275722621912e-01,4.725703132989791250e-02
1.429999999999999882e-01,-9.764114557478431600e-02,1.586569687433578846e-01,-6.353804506698031151e-02
1.439999999999999891e-01,1.686978827659623981e-01,6.880182460481304441e-02,-1.265477072764909228e-01
1.449999999999999900e-01,2.448480327288521108e-01,-1.668064149770474291e-01,-2.242356035807652886e-02
1.459999999999999909e-01,4.679695120234583089e-02,-1.775538351774708090e-01,7.877734614106191025e-02
1.469999999999999918e-01,-2.012498865812048787e-01,-2.454953870162221788e-02,1.343926247730528323e-01
1.479999999999999927e-01,-2.377142659909902422e-01,1.720924003467190488e-01,3.424555113354133679e-02
1.489999999999999936e-01,-2.021387255253871001e-02,2.023604842666825998e-01,-8.238068410601662173e-02
1.499999999999999944e-01,2.047292806634987972e-01,-3.182666914517288947e-02,-1.452860213344484008e-01
1.509999999999999953e-01,1.942129779053194949e-01,-1.831123307137816902e-01,-1.103205726745307147e-02
1.519999999999999962e-01,-2.945115067763968628e-02,-1.293726043614139287e-01,1.275905927660278549e-01
1.529999999999999971e-01,-2.263027587105402583e-01,2.785722491657676575e-02,1.259664882319852242e-01
1.539999999999999980e-01,-1.752518437747366820e-01,2.114843298087661361e-01,-1.505339481364431284e-02
1.549999999999999989e-01,6.618029489296324563e-02,1.418118571441673026e-01,-1.449417942018673688e-01
1.559999999999999998e-01,2.288779032737066899e-01,-9.582424509933061552e-02,-1.053679416354360854e-01
1.570000000000000007e-01,1.577285932944444968e-01,-1.973250560571105372e-01,2.722993207084197301e-02
1.580000000000000016e-01,-8.888194686173346570e-02,-9.820674859004301094e-02,1.361559089980670378e-01
1.590000000000000024e-01,-2.475278518012810069e-01,1.044560505689998697e-01,7.726476937570471437e-02
1.600000000000000033e-01,-1.053306792448075041e-01,1.932307202479274510e-01,-6.735789439241096632e-02
1.610000000000000042e-01,1.351975912012766678e-01,5.802969583722412950e-02,-1.587504837110050859e-01
1.620000000000000051e-01,2.401272699733610905e-01,-1.160020945580542695e-01,-9.329655753047542965e-02
1.630000000000000060e-01,6.536219661958728167e-02,-1.817563370606052053e-01,6.371586569863992022e-02
1.640000000000000069e-01,-1.467023999854764615e-01,1.269791767221240854e-02,1.268691064164856053e-01
1.650000000000000078e-01,-2.165117096792190943e-01,1.679873847128050546e-01,8.169084845567983755e-02
1.660000000000000087e-01,-4.256187712490428626e-02,1.601304517709278563e-01,-7.107306765105002311e-02
1.670000000000000095e-01,1.849718608497089301e-01,-1.792225202594179695e-02,-1.793622780730361743e-01
1.680000000000000104e-01,2.238658438548903895e-01,-2.144620094730421977e-01,-2.955659749495703065e-02
1.690000000000000113e-01,-1.230819722747764078e-02,-1.248932198724635595e-01,9.785230064660183080e-02
1.700000000000000122e-01,-2.253117109915232508e-01,9.891112291464893014e-02,1.161580333170937618e-01
1.710000000000000131e-01,-1.889188318409313061e-01,1.910971433204484704e-01,2.263963548848746399e-02
1.719999999999999862e-01,3.837404912538172619e-02,1.309990362506891215e-01,-1.157803721477522890e-01
1.729999999999999871e-01,2.135737475745322911e-01,-9.161046676794822041e-02,-1.297107539891043659e-01
1.739999999999999880e-01,1.685413239640420335e-01,-1.731378631099177168e-01,3.310967504301985317e-03
1.749999999999999889e-01,-9.510799157374036361e-02,-5.621701890717636235e-02,1.401563406211586704e-01
1.759999999999999898e-01,-2.607499544717295503e-01,1.700925542082297737e-01,1.276835335956273687e-01
1.769999999999999907e-01,-9.478387246115002607e-02,1.846544035061128131e-01,-1.757592551182352025e-02
1.779999999999999916e-01,1.097395334693297836e-01,3.219360048593372658e-02,-1.150059582744710901e-01
1.789999999999999925e-01,2.226638064279789497e-01,-1.686656810210465929e-01,-1.109246214350766424e-01
1.799999999999999933e-01,9.891657822747815243e-02,-1.868468731985033215e-01,1.228065384474641419e-02
1.809999999999999942e-01,-1.706019935591260028e-01,9.643753079100456788e-03,1.344575551748206921e-01
1.819999999999999951e-01,-2.458310464336692647e-01,2.036630925888377741e-01,1.035515070266423282e-01
1.829999999999999960e-01,-2.768376559355128358e-02,1.255241825314520054e-01,-3.882786323145200058e-02
1.839999999999999969e-01,1.741925566807794035e-01,-3.708143525306917265e-02,-1.482206054739876322e-01
1.849999999999999978e-01,2.325212126111843303e-01,-1.806836277586228445e-01,-1.104408585672859433e-01
1.859999999999999987e-01,2.514665517754163804e-02,-1.368086965142053801e-01,8.583874548302955487e-02
1.869999999999999996e-01,-1.913145095489755254e-01,1.002301678446262528e-01,1.408819534474990975e-01
1.880000000000000004e-01,-2.038613897174464951e-01,1.826572273938666946e-01,7.788925498104005973e-02
1.890000000000000013e-01,-1.126541058271590331e-02,6.784142040084083225e-02,-8.099390994081206996e-02
1.900000000000000022e-01,2.157449891854366086e-01,-1.286879604682469314e-01,-1.632617375751302113e-01
1.910000000000000031e-01,1.995659024340212251e-01,-1.932121687730977977e-01,-5.822072444936965407e-02
1.920000000000000040e-01,-1.939927246869036295e-02,-2.989704086646669673e-02,9.898893732477877239e-02
1.930000000000000049e-01,-2.172410928846000011e-01,1.943320476889494330e-01,1.438370643464821907e-01
1.940000000000000058e-01,-1.491083828806120115e-01,1.536787214198917784e-01,1.567673107666060078e-02
1.950000000000000067e-01,1.113824759317998264e-01,3.117405957937191899e-02,-1.285130570619728296e-01
1.960000000000000075e-01,2.420857244745224235e-01,-1.663762094344805875e-01,-1.489210068727719327e-01
1.970000000000000084e-01,1.100926609943225915e-01,-1.720264406670688473e-01,-1.124994042348070530e-02
1.980000000000000093e-01,-1.640785233386858888e-01,2.476975171542389678e-02,9.685045453312988994e-02
1.990000000000000102e-01,-2.317694908194387338e-01,2.079521883876591648e-01,1.245841779648710762e-01
2.000000000000000111e-01,-7.641491400956247626e-02,1.374366768968687813e-01,-2.023851597529595717e-02
2.010000000000000120e-01,1.922630302231939370e-01,-6.768528375086146909e-02,-1.437715828143228403e-01
2.020000000000000129e-01,2.003980190483808932e-01,-2.423859591295131344e-01,-1.217843003742323515e-01
2.030000000000000138e-01,3.267674326576721494e-02,-7.220519684295458041e-02,2.387559780732018133e-02
2.039999999999999869e-01,-2.014169951509114098e-01,1.275181107989514506e-01,1.474544312219718822e-01
2.049999999999999878e-01,-2.243243554763564573e-01,1.905669830417234811e-01,1.145877112037442525e-01
2.059999999999999887e-01,-3.433206493800913632e-03,6.433332279345536919e-02,-4.074534494064551565e-02
2.069999999999999896e-01,2.231372463667303241e-01,-1.389663541829929960e-01,-1.491898893999211440e-01
2.079999999999999905e-01,2.230004258451568910e-01,-1.612375170759711429e-01,-9.344256244864597438e-02
2.089999999999999913e-01,-5.149578777916744704e-02,-9.867268126667057271e-03,5.819954281856794948e-02
2.099999999999999922e-01,-2.141370140809188694e-01,1.646354737604059648e-01,1.540568497503144452e-01
2.109999999999999931e-01,-1.740336278663848768e-01,1.790308914071473134e-01,6.032750088152964013e-02
2.119999999999999940e-01,5.157872360156369462e-02,8.901255649744788416e-04,-7.117199772070693931e-02
2.129999999999999949e-01,2.500261924583506712e-01,-1.878359204577680353e-01,-1.494867584773607594e-01
2.139999999999999958e-01,1.836948964098173986e-01,-1.565113162043317019e-01,-5.795612777827293532e-02
2.149999999999999967e-01,-1.320007000223057392e-01,5.695447086653897956e-02,1.161290629691221349e-01
2.159999999999999976e-01,-2.222996992284620721e-01,2.095496033872894237e-01,1.449448407166458175e-01
2.169999999999999984e-01,-1.044380728115239659e-01,1.339963603777561130e-01,4.730515562643758387e-02
2.179999999999999993e-01,1.543319566873218862e-01,-5.063015895453901877e-02,-8.943886387790900283e-02
2.190000000000000002e-01,2.597530657994170933e-01,-2.021875989158766485e-01,-1.316571164946434558e-01
2.200000000000000011e-01,5.908983689295669445e-02,-9.729250262369337765e-02,-2.932202243987276288e-02
2.210000000000000020e-01,-1.861615439027052010e-01,9.962460866431811779e-02,1.421788768950283388e-01
2.220000000000000029e-01,-2.478874222679015860e-01,1.884356460398740607e-01,1.397225975141934140e-01
2.230000000000000038e-01,-4.392078308883934357e-02,4.460641484370315990e-02,-5.996757362927086082e-03
2.240000000000000047e-01,2.256944474740417983e-01,-1.327335505483162037e-01,-1.424293821483108846e-01
2.250000000000000056e-01,2.200306733171695783e-01,-1.955440451724149709e-01,-1.141190771801488535e-01
2.260000000000000064e-01,-2.593605687888172334e-02,-3.209244058233436808e-02,2.943876917522306527e-02
2.270000000000000073e-01,-2.075208776744428829e-01,1.665133837609961975e-01,1.679973820452344557e-01
2.280000000000000082e-01,-1.775946772334508761e-01,1.782126777058652134e-01,1.282270054409500037e-01
2.290000000000000091e-01,5.955639805638984069e-02,-3.880923697475782003e-02,-3.749773198532859592e-02
2.300000000000000100e-01,2.304718228607784136e-01,-1.709086088875434728e-01,-1.564205468306981150e-01
2.310000000000000109e-01,1.655421222996378283e-01,-1.273181852644972023e-01,-9.114467276855103828e-02
2.320000000000000118e-01,-1.198469340833977909e-01,3.245715096311200393e-02,5.658196642885399835e-02
2.330000000000000127e-01,-2.632437524612419311e-01,1.847897140858789367e-01,1.455358672047136481e-01
2.340000000000000135e-01,-1.213340906849734030e-01,1.210331026619957395e-01,4.714847597831092058e-02
2.349999999999999867e-01,1.195175471005982398e-01,-1.104300728201499798e-01,-7.357474063336640058e-02
2.359999999999999876e-01,2.205141920743241557e-01,-1.913512715340031922e-01,-1.062196841095602862e-01
2.369999999999999885e-01,1.132634768711739126e-01,-4.484390335816746537e-02,-5.935716699337827140e-02
2.379999999999999893e-01,-1.479465074266073099e-01,1.146110787526865987e-01,9.106262932508539520e-02
2.389999999999999902e-01,-2.472625791563155262e-01,1.851976882250318257e-01,1.290548830751773457e-01
2.399999999999999911e-01,-3.827494724946994831e-02,3.759326878856261711e-02,4.828587175706518936e-02
2.409999999999999920e-01,1.970187352775724376e-01,-1.469159874026411405e-01,-1.181566920261576115e-01
2.419999999999999929e-01,2.219688929706560288e-01,-1.785638545780208752e-01,-1.725869441059177944e-01
2.429999999999999938e-01,1.129061840239491132e-02,7.899758238935615864e-03,-2.440090308400145059e-03
2.439999999999999947e-01,-2.012803360415652276e-01,1.744363089675665668e-01,1.305553572031791232e-01
2.449999999999999956e-01,-2.091604091974456625e-01,1.277959157460847595e-01,1.471887030634384808e-01
2.459999999999999964e-01,1.541111664282155021e-02,-5.014379679049294630e-02,-1.658760132924432668e-02
2.469999999999999973e-01,2.041352460700279203e-01,-1.997153962786295811e-01,-1.070070088142187070e-01
2.479999999999999982e-01,1.804903374989439702e-01,-1.343030847050273591e-01,-1.244274706623486465e-01
2.489999999999999991e-01,-6.959267851248827907e-02,6.792519682541663106e-02,1.017299314880968503e-02
2.500000000000000000e-01,-2.265253422008480788e-01,1.742393889047567368e-01,1.344153031024505063e-01
2.510000000000000009e-01,-1.477013349473192128e-01,7.571196402678269377e-02,1.134278635222591841e-01
2.520000000000000018e-01,1.105830814844044468e-01,-1.008158227944914859e-01,-3.994070580656222669e-02
2.530000000000000027e-01,2.470437529175160962e-01,-1.945871404105176117e-01,-1.704856794385196661e-01
2.540000000000000036e-01,1.183203632306713965e-01,-7.107518252089491118e-02,-1.130622773328350400e-01
2.550000000000000044e-01,-1.593020059794835186e-01,1.467153591630221132e-01,6.317776957216138245e-02
2.560000000000000053e-01,-2.183315104397093587e-01,2.087626545695434876e-01,1.684943734529964487e-01
2.570000000000000062e-01,-5.970239473905646077e-02,3.092588736595162577e-02,7.288072798335132330e-02
2.580000000000000071e-01,1.753603033942777722e-01,-1.804255079317867716e-01,-8.079877758324126302e-02
2.590000000000000080e-01,2.097877970067274500e-01,-1.682262983774648613e-01,-1.907972338806088186e-01
2.600000000000000089e-01,2.544537307475703072e-02,2.987597577637664259e-02,-4.598529420995807471e-02
2.610000000000000098e-01,-2.082372254200859640e-01,1.593434043017523394e-01,8.925362338027634235e-02
2.620000000000000107e-01,-2.001362629242269819e-01,1.521697409205922669e-01,1.482659013045068142e-01
2.630000000000000115e-01,2.178079506207447266e-02,-4.727345330300679327e-02,3.566663127578895143e-02
2.640000000000000124e-01,2.058313928681945182e-01,-1.804518601284099133e-01,-1.207760184858667485e-01
2.650000000000000133e-01,1.869799700977734791e-01,-1.117758704729651525e-01,-1.207664216594452472e-01
2.660000000000000142e-01,-4.597095718609044840e-02,1.004572265421250360e-01,-1.323980083513838155e-02
2.670000000000000151e-01,-2.170496964374649673e-01,1.953974288522857539e-01,1.366407184320150014e-01
2.680000000000000160e-01,-1.675183841658610395e-01,1.015880998227172427e-01,1.174714032826281590e-01
2.690000000000000169e-01,6.336467049660660100e-02,-1.138199027533487312e-01,-9.996575734260963395e-03
2.700000000000000178e-01,2.513787311017598447e-01,-1.504313184717196161e-01,-1.423890966479016695e-01
2.710000000000000187e-01,1.137050449590808476e-01,-5.587620529723394402e-02,-1.140531975510894885e-01
2.720000000000000195e-01,-1.149491764505413266e-01,1.688286043900578126e-01,1.319669626915180409e-02
2.730000000000000204e-01,-2.252007552136734703e-01,1.567936794282912827e-01,1.423607582679635719e-01
2.740000000000000213e-01,-1.083837651217718495e-01,4.367536629964270840e-03,8.954047593273795069e-02
2.750000000000000222e-01,1.363051100266768345e-01,-1.747800335109788716e-01,-4.314731447664371666e-02
2.760000000000000231e-01,2.284831242289303566e-01,-1.503109655528258315e-01,-1.564934687011846348e-01
2.770000000000000240e-01,3.815602348224922391e-02,4.636164263535233476e-02,-7.982827484220147984e-02
2.780000000000000249e-01,-1.866880229910572730e-01,1.572385226996762531e-01,6.012363466774759552e-02
2.790000000000000258e-01,-2.182995575770426688e-01,1.075813867751736069e-01,1.391009919994291577e-01
2.800000000000000266e-01,-4.431914004727648820e-02,-7.592005772809182207e-02,9.060544661929806343e-02
2.810000000000000275e-01,2.021208543990209161e-01,-1.905881576463599458e-01,-4.088517850197632281e-02
2.819999999999999729e-01,2.029644425810362696e-01,-1.040404896018510827e-01,-1.531475220402932769e-01
2.829999999999999738e-01,-3.672056465354369553e-02,1.129236375238288903e-01,-6.407975611645956582e-02
2.839999999999999747e-01,-2.197372407042820497e-01,1.753808249375532202e-01,8.326048642971886626e-02
2.849999999999999756e-01,-1.822941974720254932e-01,5.054955863104189373e-02,1.565358673221678987e-01
2.859999999999999765e-01,4.936455381850669150e-02,-1.437569425061076822e-01,3.957386777688279983e-02
2.869999999999999774e-01,2.355542086921243450e-01,-1.934693580533767554e-01,-9.691178462187846621e-02
2.879999999999999782e-01,1.395509610537364054e-01,-1.985647520039182656e-02,-1.251170058091969628e-01
2.889999999999999791e-01,-8.486075878416521334e-02,1.823966140783659373e-01,-1.537512938426744726e-02
2.899999999999999800e-01,-2.450698710569601257e-01,1.903584455883262361e-01,1.271029337895884515e-01
2.909999999999999809e-01,-1.222108693621337255e-01,1.159422468791283106e-02,1.068525937851469432e-01
2.919999999999999818e-01,1.758049825952219536e-01,-1.884614787747155296e-01,-9.326817549179151207e-03
2.929999999999999827e-01,2.532950084432996074e-01,-1.474655819298202608e-01,-1.227091747321649023e-01
2.939999999999999836e-01,8.808114002445915913e-02,7.416153966354113725e-02,-1.285645557345181100e-01
2.949999999999999845e-01,-1.455578207352904163e-01,2.121989757484779859e-01,1.169063395847884552e-02
2.959999999999999853e-01,-2.460546005236424749e-01,1.259972534100704533e-01,1.410691969900841058e-01
2.969999999999999862e-01,-3.188013832656880903e-02,-8.328648777549145510e-02,9.803410694851846796e-02
2.979999999999999871e-01,1.800573307029195991e-01,-1.905417901024366867e-01,-2.367292738719395384e-02
2.989999999999999880e-01,2.316652059429881172e-01,-9.711175832399307484e-02,-1.418421505910733293e-01
2.999999999999999889e-01,2.407537496229561480e-02,1.290535540445521545e-01,-1.055937875136642723e-01
3.009999999999999898e-01,-2.359440691373569376e-01,1.817104192297586407e-01,4.630491602861080969e-02
3.019999999999999907e-01,-2.223627617956427660e-01,1.135958059805300922e-02,1.470307552726779765e-01
3.029999999999999916e-01,2.177279211297016015e-02,-1.778369438255538171e-01,9.048854337423907490e-02
3.039999999999999925e-01,2.105751084091117831e-01,-1.783012792596090912e-01,-7.827814262859232597e-02
3.049999999999999933e-01,1.526206382622098956e-01,-3.650626897574999613e-02,-1.485067001474731641e-01
3.059999999999999942e-01,-6.179410197737590649e-02,1.732249485278523349e-01,-6.068291982203014023e-02
3.069999999999999951e-01,-2.407242854595166848e-01,1.688749122735860586e-01,8.053437907146795971e-02
3.079999999999999960e-01,-1.248514542856585668e-01,-4.323057369330245842e-02,1.368167959120132615e-01
3.089999999999999969e-01,1.174465385514098931e-01,-1.683232037362924205e-01,5.024625520601921913e-02
3.099999999999999978e-01,2.484481718978168163e-01,-1.185945954560815863e-01,-1.093279193709152108e-01
3.109999999999999987e-01,1.077064203091160910e-01,7.385579371859572750e-02,-1.273485495604019524e-01
3.119999999999999996e-01,-1.357275555174896065e-01,1.992460065922707912e-01,-1.256332221090870546e-02
3.130000000000000004e-01,-2.681922388756483588e-01,1.041178192785732759e-01,1.091526788273029930e-01
3.140000000000000013e-01,-6.760784533290374598e-02,-9.017086846080203666e-02,1.191685674811127083e-01
3.150000000000000022e-01,1.803467532893864578e-01,-1.812310945877169122e-01,-1.353240710808301973e-02
3.160000000000000031e-01,2.421204238209271886e-01,-7.219754052379423470e-02,-1.578412059453106198e-01
3.170000000000000040e-01,4.401533462635813521e-02,1.186002506028802361e-01,-1.051887614480561672e-01
3.180000000000000049e-01,-2.451213281350028417e-01,2.217700968989203547e-01,-3.140999468856947412e-03
3.190000000000000058e-01,-2.024372129724268943e-01,2.544863313536104357e-02,1.332330326669644849e-01
3.200000000000000067e-01,1.633266786620111641e-02,-1.562072752939162590e-01,9.562236092587748926e-02
3.210000000000000075e-01,2.094007970634799709e-01,-1.828391931455744801e-01,-2.435839163881492464e-02
3.220000000000000084e-01,1.861968432718908439e-01,1.938323307108815591e-02,-1.437934421001625107e-01
3.230000000000000093e-01,-6.396824340426740529e-02,1.734775854347813118e-01,-6.946393727269976892e-02
3.240000000000000102e-01,-2.625238915426900133e-01,1.312423385532143494e-01,6.756153908950698894e-02
3.250000000000000111e-01,-1.711616625738104081e-01,-4.831512969191562035e-02,1.367994328420047978e-01
3.260000000000000120e-01,9.380787218270450478e-02,-1.745395017174740937e-01,7.799886662075095067e-02
3.270000000000000129e-01,2.631404795454584944e-01,-1.244449698860620873e-01,-7.180443096949720716e-02
3.280000000000000138e-01,1.216726482369028944e-01,8.245988826801878280e-02,-1.541396361377769531e-01
3.290000000000000147e-01,-1.523236153113698144e-01,1.886660382334624797e-01,-5.488059128416486465e-02
3.300000000000000155e-01,-2.418841881506741120e-01,7.950289205734453746e-02,1.231652341460519468e-01
3.310000000000000164e-01,-8.310975971763566450e-02,-7.735940727993430299e-02,1.530959367847946617e-01
3.320000000000000173e-01,1.430291171083914459e-01,-1.943231018937899013e-01,2.913360633288232526e-02
3.330000000000000182e-01,2.204968514782188194e-01,-5.848921441263801868e-02,-9.173930223228569936e-02
3.340000000000000191e-01,4.349280470256355197e-02,1.568987516977475849e-01,-1.638819233537876230e-01
3.350000000000000200e-01,-1.760948312901199631e-01,1.999059765801211586e-01,-2.324482500281626479e-02
3.360000000000000209e-01,-2.376234064954078629e-01,-7.118086556978393993e-03,1.212315546754969831e-01
3.370000000000000218e-01,-4.073517474175937687e-03,-1.393548925948213113e-01,1.471620071464557755e-01
3.380000000000000226e-01,2.293840483767287941e-01,-1.716214105433730708e-01,1.801499503921108209e-04
3.390000000000000235e-01,1.984203174083086774e-01,1.495965408477748122e-02,-1.265893115932231472e-01
3.400000000000000244e-01,-2.996889186102576208e-02,1.818915318478367127e-01,-1.318356504133645912e-01
3.410000000000000253e-01,-2.095362309748720064e-01,1.215110155866722663e-01,-2.254115807670320059e-03
3.420000000000000262e-01,-1.827916293237330236e-01,-7.513597511282718577e-02,1.298540491673191022e-01
3.430000000000000271e-01,5.999085984769194496e-02,-1.905591382785872534e-01,8.180101987352153547e-02
3.439999999999999725e-01,2.456261861746082686e-01,-1.089040130565860076e-01,6.665787043170883809e-03
3.449999999999999734e-01,1.531383909265050247e-01,9.165909212525130689e-02,-1.607830354209704438e-01
3.459999999999999742e-01,-1.090644361563446046e-01,1.952941710602691117e-01,-1.042743736469958216e-01
3.469999999999999751e-01,-2.462922993446844122e-01,5.899363834483867947e-02,3.918820849615081703e-02
3.479999999999999760e-01,-1.205674628715923125e-01,-1.237794967639213317e-01,1.511497063820116948e-01
3.489999999999999769e-01,1.529513626957681449e-01,-2.072604482266078296e-01,8.711390419533168727e-02
3.499999999999999778e-01,2.622476851666677988e-01,-3.179445557571622394e-02,-5.608818704956170659e-02
3.509999999999999787e-01,8.768511799466530143e-02,1.594750319382086945e-01,-1.315353409593506551e-01
3.519999999999999796e-01,-1.704543510633827752e-01,1.740301168063588810e-01,-9.333864847578095258e-02
3.529999999999999805e-01,-2.234292680921931007e-01,1.471504326697338071e-04,8.745165989157839548e-02
3.539999999999999813e-01,-4.655062816080230564e-02,-1.845696321261955097e-01,1.460032176605083609e-01
3.549999999999999822e-01,2.303629157668634353e-01,-1.427535859653198957e-01,6.080885734136293880e-02
3.559999999999999831e-01,2.499397238939265187e-01,7.361674539381127258e-02,-7.001551110606525630e-02
3.569999999999999840e-01,1.757385411568570741e-02,2.076013031891598415e-01,-1.307420352758490167e-01
3.579999999999999849e-01,-2.446310920641784903e-01,1.348206495953720718e-01,-4.368869891085631202e-02
3.589999999999999858e-01,-1.863716596764539712e-01,-4.766223593735222086e-02,1.140122449729893961e-01
3.599999999999999867e-01,4.719118598792437086e-02,-1.914037427108347122e-01,1.438307913728048837e-01
3.609999999999999876e-01,2.419895221770871907e-01,-6.788130473637050966e-02,-8.739989622443641859e-03
3.619999999999999885e-01,1.496900370094827737e-01,1.260522218726524701e-01,-1.498471388312963559e-01
3.629999999999999893e-01,-9.435974221535954609e-02,1.924615629387670390e-01,-1.195032326877777940e-01
3.639999999999999902e-01,-2.361315559031668121e-01,5.709528620612678435e-02,1.284183595931238583e-02
3.649999999999999911e-01,-1.349706555757441417e-01,-1.489997223850521024e-01,1.336888144364839492e-01
3.659999999999999920e-01,1.320501026505362108e-01,-1.817298985644927867e-01,1.352500510094272468e-01
3.669999999999999929e-01,2.406989120374118385e-01,-2.358418528697908689e-02,-3.788718512038039693e-02
3.679999999999999938e-01,1.122518548312562148e-01,1.290105907463038326e-01,-1.508479157951961025e-01
3.689999999999999947e-01,-1.600398509481475162e-01,1.615083147976381361e-01,-9.938401556479227461e-02
3.699999999999999956e-01,-2.270953338940348842e-01,-3.782052005954322088e-02,5.209797629700631955e-02
3.709999999999999964e-01,-8.521592170638139785e-02,-1.768629137223042269e-01,1.396755155516707647e-01
3.719999999999999973e-01,1.951039417100366158e-01,-1.465863064567420881e-01,8.463751251552421861e-02
3.729999999999999982e-01,2.031276544159522079e-01,7.147921601143046588e-02,-6.584078668183035443e-02
3.739999999999999991e-01,3.767336063673007440e-02,1.903405769174711659e-01,-1.544438177805456114e-01
3.750000000000000000e-01,-1.881754765276851260e-01,1.049490470244881929e-01,-3.596947121632889516e-02
3.760000000000000009e-01,-2.004523964428013005e-01,-1.306459916303304714e-01,1.143984645163955288e-01
3.770000000000000018e-01,4.246964432858599259e-02,-1.985488255796876711e-01,1.264774008111552717e-01
3.780000000000000027e-01,2.493803440951198047e-01,-6.962705880252653690e-02,2.584316773140311191e-02
3.790000000000000036e-01,1.831815486178108854e-01,1.201821403450150511e-01,-1.177953479546340054e-01
3.800000000000000044e-01,-7.910422968517728803e-02,1.708124183216192804e-01,-1.652994417461801646e-01
3.810000000000000053e-01,-2.320135850572448977e-01,3.351005336547611957e-02,-2.612090436159598614e-02
3.820000000000000062e-01,-1.476410272082973596e-01,-1.504803476032991749e-01,9.013067494254295431e-02
3.830000000000000071e-01,1.148633680599579349e-01,-1.865018209387080683e-01,1.225122269254430712e-01
3.840000000000000080e-01,2.048165087202269419e-01,-3.347363210939485832e-03,1.321384708045928759e-02
3.850000000000000089e-01,1.448901408343474806e-01,1.555193687510145473e-01,-1.190346893718556148e-01
3.860000000000000098e-01,-1.395233997666881776e-01,1.465097625615017218e-01,-1.005082221798574427e-01
3.870000000000000107e-01,-2.365760750297522530e-01,-5.204638467128828994e-02,1.641388973947931120e-03
3.880000000000000115e-01,-7.269680796853957017e-02,-1.802517012018522991e-01,1.060303642515781491e-01
3.890000000000000124e-01,1.513373229137302545e-01,-1.439756791996985308e-01,1.310585049355708076e-01
3.900000000000000133e-01,2.235176467363390873e-01,9.484830591134210676e-02,-3.258481602491109658e-02
3.910000000000000142e-01,7.228123973830767601e-02,2.013235056309156945e-01,-1.690366612347351527e-01
3.920000000000000151e-01,-2.247553415292908585e-01,1.056681252123842091e-01,-1.053829386227417841e-01
3.930000000000000160e-01,-2.172851257752347887e-01,-1.176723435350089803e-01,4.858347586593213946e-02
3.940000000000000169e-01,2.944653666365780117e-02,-2.066871677155527331e-01,1.594747697821763954e-01
3.950000000000000178e-01,2.146089842322694285e-01,-5.530248568998576836e-02,9.987751471827342742e-02
3.960000000000000187e-01,1.909330207832492521e-01,1.391041511209572534e-01,-8.243413562952926765e-02
3.970000000000000195e-01,-2.557955220480207306e-02,1.658364466661338410e-01,-1.357613063426673095e-01
3.980000000000000204e-01,-2.085007383497096412e-01,1.817683478668742983e-02,-4.518480442168743699e-02
3.990000000000000213e-01,-1.865313598497372327e-01,-1.606757179287801873e-01,8.938175968956259265e-02
4.000000000000000222e-01,1.060713864861934919e-01,-1.909666163282734419e-01,1.654047971141185680e-01
4.010000000000000231e-01,2.525891251648813007e-01,2.911570346880278798e-02,6.687083901627853544e-02
4.020000000000000240e-01,1.235930998843961931e-01,1.932097791566309286e-01,-1.134275941588888392e-01
4.030000000000000249e-01,-1.004168380814619566e-01,1.261543072684939981e-01,-1.324303381046749162e-01
4.040000000000000258e-01,-2.402325338486465678e-01,-5.753611540220583687e-02,-2.863508004712008934e-02
4.050000000000000266e-01,-1.187986667278817798e-01,-1.955367895912437370e-01,1.103501751853823987e-01
4.060000000000000275e-01,1.294130825982876820e-01,-6.667603613712398680e-02,1.365688691095219565e-01
4.069999999999999729e-01,2.463225415528227102e-01,1.118946971302527266e-01,7.076460451567880006e-03
4.079999999999999738e-01,7.396449207723067298e-02,1.970820720151488237e-01,-1.322282592085383401e-01
4.089999999999999747e-01,-1.551281474198400179e-01,7.557528430502925831e-02,-1.587806276816357276e-01
4.099999999999999756e-01,-2.216986760228270292e-01,-1.223563484783250083e-01,1.459179713158705212e-02
4.109999999999999765e-01,-1.995984785305764120e-03,-1.958508294566380925e-01,1.264204395199206021e-01
4.119999999999999774e-01,2.000128924458537127e-01,-3.976556920066599138e-02,1.012888990723255084e-01
4.129999999999999782e-01,1.870865992702661906e-01,1.395849295716512506e-01,-2.310824431760464051e-02
4.139999999999999791e-01,-2.085680371308059125e-02,1.885441520350272238e-01,-1.383063961972985922e-01
4.149999999999999800e-01,-2.106773833057102863e-01,-1.346461187599813474e-02,-8.013998707815489508e-02
4.159999999999999809e-01,-1.808471907737911333e-01,-1.624014877985590910e-01,4.670568152991813604e-02
4.169999999999999818e-01,4.611831986152971352e-02,-1.493105506177243025e-01,1.510590547821793195e-01
4.179999999999999827e-01,2.358829195074893803e-01,4.432449311729315389e-02,1.120392290244479616e-01
4.189999999999999836e-01,1.867246091408377440e-01,1.954213623934326627e-01,-5.179049584426094477e-02
4.199999999999999845e-01,-1.084131540480875594e-01,1.332938315720918754e-01,-1.560011641872816601e-01
4.209999999999999853e-01,-2.561697992639551114e-01,-6.822543788474080828e-02,-9.524911780050489274e-02
4.219999999999999862e-01,-1.426715033100321162e-01,-1.710897348022109021e-01,7.627332465751231194e-02
4.229999999999999871e-01,1.257165804282736332e-01,-1.177885779271544697e-01,1.500653199693502415e-01
4.239999999999999880e-01,2.374519745761396461e-01,7.139792174007235370e-02,3.919941003292257836e-02
4.249999999999999889e-01,9.717717917866595945e-02,1.825869420977601354e-01,-8.208265889359370182e-02
4.259999999999999898e-01,-1.568060317955256855e-01,3.946131420571029336e-02,-1.494966188349805825e-01
4.269999999999999907e-01,-2.169924724809557393e-01,-1.395942517477230527e-01,-2.981310845420557382e-02
4.279999999999999916e-01,-2.956874049503110946e-02,-1.781001381686475593e-01,1.188863339045537898e-01
4.289999999999999925e-01,2.111594712189059919e-01,-9.060535783786899736e-03,1.272653263577102067e-01
4.299999999999999933e-01,2.435553082759287502e-01,1.519027619643595894e-01,1.119061989464063128e-02
4.309999999999999942e-01,-1.020954406369078971e-02,1.693513109066818456e-01,-1.361528353005519998e-01
4.319999999999999951e-01,-2.081042440035926477e-01,-8.064501434999976973e-03,-1.363862292973574142e-01
4.329999999999999960e-01,-2.275786649876286871e-01,-1.734728760708421080e-01,3.430968023572296410e-02
4.339999999999999969e-01,8.854858367473707886e-03,-1.325495231114913464e-01,1.430940789945392699e-01
4.349999999999999978e-01,2.560174227398758218e-01,7.810048402300293069e-02,8.603483748184942437e-02
4.359999999999999987e-01,1.926426448104906208e-01,2.064533563167823549e-01,-4.809380856701555434e-02
4.369999999999999996e-01,-7.348209852736385661e-02,1.146762104716499420e-01,-1.492770628663852572e-01
4.380000000000000004e-01,-2.422969975600426928e-01,-1.062068561763289537e-01,-7.349544693041000498e-02
4.390000000000000013e-01,-1.523133258500335985e-01,-2.325560718998563314e-01,3.625546630817531868e-02
4.400000000000000022e-01,1.181357102557498012e-01,-7.835166646040603311e-02,1.612776517775615925e-01
4.410000000000000031e-01,2.394580714859650961e-01,1.171538612222787074e-01,1.160174587983841543e-01
4.420000000000000040e-01,1.126979688571351362e-01,1.919053485961335626e-01,-4.841543618307338898e-02
4.430000000000000049e-01,-1.539813137682750355e-01,3.231041559941599112e-02,-1.503435428179797084e-01
4.440000000000000058e-01,-2.187280019280203047e-01,-1.294294414554297834e-01,-8.575553399147620159e-02
4.450000000000000067e-01,-3.761725476282739428e-02,-1.861775899711627102e-01,1.116020168802852597e-01
4.460000000000000075e-01,1.813376709562606326e-01,-3.089345113834818246e-02,1.636697741508399973e-01
4.470000000000000084e-01,2.395506994279222868e-01,1.750101498278284762e-01,4.327540269714207077e-02
4.480000000000000093e-01,1.782723181804918636e-02,1.411121009467490861e-01,-1.137212337796035810e-01
4.490000000000000102e-01,-1.938286524219393347e-01,-3.243958190765044297e-02,-1.448935995119375320e-01
4.500000000000000111e-01,-2.057437246768860917e-01,-2.059881244949966772e-01,-2.909601265511871024e-02
4.510000000000000120e-01,6.029638604795336566e-03,-1.371410001692234815e-01,1.130350450007032020e-01
4.520000000000000129e-01,2.202190111978117870e-01,5.428193072853318424e-02,1.570793308976073666e-01
4.530000000000000138e-01,1.959633521297229064e-01,2.100497668370729931e-01,2.930671642411310229e-02
4.540000000000000147e-01,-5.059031004262332792e-02,1.112888751119526787e-01,-1.308642557456729805e-01
4.550000000000000155e-01,-2.343645937567425397e-01,-8.780968862029819855e-02,-1.090579083372963526e-01
4.560000000000000164e-01,-1.500401858267284283e-01,-1.966463121059861263e-01,-3.832015342241387821e-03
4.570000000000000173e-01,7.979078405016325204e-02,-7.834758689809394328e-02,1.238730795566801574e-01
4.580000000000000182e-01,2.431477851200061213e-01,1.624153824846914784e-01,1.139117108865260047e-01
4.590000000000000191e-01,1.331357671482238381e-01,2.056175837627048919e-01,-2.848585983480412046e-02
4.600000000000000200e-01,-1.238645556728318886e-01,4.731752431676210235e-02,-1.374603144549753353e-01
4.610000000000000209e-01,-2.220537054454962689e-01,-1.748888835643921669e-01,-1.053311337896056660e-01
4.620000000000000218e-01,-1.009249444144898061e-01,-1.821585729351483940e-01,5.541899675053345298e-02
4.630000000000000226e-01,1.409106249672725797e-01,5.407644194245293107e-03,1.626212886154310144e-01
4.640000000000000235e-01,2.410175397349092474e-01,2.166033016467361350e-01,7.544402348678012904e-02
4.650000000000000244e-01,2.820346601166444714e-02,1.452274032841966989e-01,-7.655886902270332695e-02
4.660000000000000253e-01,-1.876329711513400889e-01,-6.976508214117857487e-02,-1.426235364083429380e-01
4.670000000000000262e-01,-2.224539900217443467e-01,-2.077853910400281889e-01,-7.788947179488585337e-02
4.680000000000000271e-01,6.906488346672897544e-03,-1.049056356577024313e-01,4.545595765394118415e-02
4.689999999999999725e-01,2.168143571114351520e-01,1.132359195786668410e-01,1.330502911272646027e-01
4.699999999999999734e-01,1.970369377217816298e-01,1.838977216284042038e-01,9.513120354317314287e-02
4.709999999999999742e-01,-3.902612721477011215e-02,9.727212484618086297e-02,-8.608496972750540044e-02
4.719999999999999751e-01,-2.324563818585292096e-01,-1.245418811142482707e-01,-1.340626495395798312e-01
4.729999999999999760e-01,-1.872388713221269374e-01,-2.051120429779097476e-01,-2.705785055177550510e-02
4.739999999999999769e-01,5.663409017080397317e-02,-5.113202222875511127e-02,1.141137362308552589e-01
4.749999999999999778e-01,2.372944946023855806e-01,1.476035367985104596e-01,1.570760605485431172e-01
4.759999999999999787e-01,1.526509801720505322e-01,1.843356693584431161e-01,3.813280383368882615e-02
4.769999999999999796e-01,-1.058076792137686573e-01,2.303316602689536169e-02,-1.009082959072601926e-01
4.779999999999999805e-01,-2.466296553115090717e-01,-1.561121508120911772e-01,-1.328862674963570967e-01
4.789999999999999813e-01,-1.220753897766232998e-01,-1.578780667503138779e-01,7.696434901820211651e-03
4.799999999999999822e-01,1.326373074707263566e-01,1.674481418101364527e-02,1.467269164994387254e-01
4.809999999999999831e-01,2.426371040227468523e-01,1.869237484501868607e-01,1.337745751532402882e-01
4.819999999999999840e-01,8.060743402234234189e-02,1.483969083587095561e-01,-5.721434703066902508e-03
4.829999999999999849e-01,-1.604322559284085958e-01,-5.807259240131848466e-02,-1.350694813107840564e-01
4.839999999999999858e-01,-2.280397208082607929e-01,-1.858746959394269593e-01,-1.096805971283043996e-01
4.849999999999999867e-01,-4.325384307777163650e-02,-1.006453077640473426e-01,2.314018148956305601e-02
4.859999999999999876e-01,1.824313046323062515e-01,1.090028047108121262e-01,1.549304061833567947e-01
4.869999999999999885e-01,2.186271948700620193e-01,2.149344596768922033e-01,9.569669945901752850e-02
4.879999999999999893e-01,-1.085336155093462145e-02,6.620056220338318975e-02,-2.427436667405467180e-02
4.889999999999999902e-01,-2.452805021448528355e-01,-1.318839759456778005e-01,-1.383616195238109581e-01
4.899999999999999911e-01,-1.848562452639197495e-01,-1.985049137405495157e-01,-7.489728933003438061e-02
4.909999999999999920e-01,7.866291387931156898e-02,-3.848030612158805097e-02,8.155082646523585665e-02
4.919999999999999929e-01,2.293229701534775233e-01,1.432984256515640042e-01,1.531232898164266998e-01
4.929999999999999938e-01,1.742111285236737361e-01,1.771282705889146436e-01,5.264534345231267065e-02
4.939999999999999947e-01,-8.429403431022459980e-02,-2.119876296009431255e-02,-1.011201987415499270e-01
4.949999999999999956e-01,-2.395739002949074381e-01,-1.721960417809627886e-01,-1.577284672279199440e-01
4.959999999999999964e-01,-1.552488823868745094e-01,-1.402300981515147704e-01,-4.220739422267812124e-02
4.969999999999999973e-01,1.410419760605174655e-01,3.501238805048538516e-02,1.057683383095916058e-01
4.979999999999999982e-01,2.645241233640642231e-01,1.756088082193532907e-01,1.227065754974617090e-01
4.989999999999999991e-01,8.266447523560151167e-02,1.257572767622508192e-01,-1.043148142577233865e-02
5.000000000000000000e-01,-1.390316157411476128e-01,-7.819064607359195451e-02,-1.265119886387622850e-01
5.010000000000000009e-01,-2.269391259143752615e-01,-1.963985788659854403e-01,-1.301955405577213953e-01
5.020000000000000018e-01,-4.860815139849342104e-02,-7.571488828976880026e-02,1.106000220807492988e-02
5.030000000000000027e-01,1.958859589649619148e-01,8.270283125606736618e-02,1.254399563722883859e-01
5.040000000000000036e-01,2.111328789943759388e-01,1.629812020860777755e-01,1.058396313218097767e-01
5.050000000000000044e-01,2.380949941672176693e-03,8.164824614582888440e-02,-2.204434878266544467e-02
5.060000000000000053e-01,-2.117260641034965363e-01,-1.391413009121904298e-01,-1.264210559575753567e-01
5.070000000000000062e-01,-1.843874508398615775e-01,-1.969573816741216343e-01,-9.455229335894994869e-02
5.080000000000000071e-01,5.179856830816256114e-03,-1.998274580268760356e-02,2.837081149084484319e-02
5.090000000000000080e-01,2.474289577138724383e-01,1.740572344157894080e-01,1.333609754268882674e-01
5.100000000000000089e-01,1.757153519271266451e-01,1.916631860263851572e-01,9.099979605427678531e-02
5.110000000000000098e-01,-6.169391113165861168e-02,-3.347977951102192734e-02,-5.561806711695205241e-02
5.120000000000000107e-01,-2.233900944161253399e-01,-1.708542643615333090e-01,-1.417692850339237476e-01
5.130000000000000115e-01,-1.391416060958008405e-01,-1.264165644072177686e-01,-7.823599819522522592e-02
5.140000000000000124e-01,7.952660076848969140e-02,6.158991539024576134e-02,7.838082183379793677e-02
5.150000000000000133e-01,2.622671366689820482e-01,1.882408980125300779e-01,1.195677922833398577e-01
5.160000000000000142e-01,1.375537946902968267e-01,1.021412014424171039e-01,7.174333214950631699e-02
5.170000000000000151e-01,-1.260736010562740206e-01,-9.338786493868495020e-02,-8.686721777466209493e-02
5.180000000000000160e-01,-2.662321500100082727e-01,-2.273188412919816270e-01,-1.422555456395788454e-01
5.190000000000000169e-01,-1.003225090398529307e-01,-8.120279641921203384e-02,-7.225232917315553560e-02
5.200000000000000178e-01,1.487041513551962679e-01,1.421859042368843751e-01,1.259194391008493508e-01
5.210000000000000187e-01,2.243608159427042115e-01,1.789342540285191463e-01,1.306657821018703813e-01
5.220000000000000195e-01,4.615636280971482236e-02,4.277183035783595211e-02,2.838229915901327449e-02
5.230000000000000204e-01,-1.824360255135894782e-01,-1.464567887056749951e-01,-1.014600708093194026e-01
5.240000000000000213e-01,-2.215043445428288849e-01,-1.615714615624719852e-01,-1.155729640917082801e-01
5.250000000000000222e-01,-1.127567327081153113e-02,-8.701232921404472402e-04,-4.262319919228111688e-03
5.260000000000000231e-01,1.988868506152067783e-01,2.065493233594508093e-01,1.391706608554511004e-01
5.270000000000000240e-01,2.063825815258678031e-01,1.355772978178650945e-01,1.328608084938624756e-01
5.280000000000000249e-01,-4.850846235001449874e-02,-2.527763026325714063e-02,-2.934919815195895232e-02
5.290000000000000258e-01,-2.233616528100195453e-01,-2.092835663518542999e-01,-1.398025164007336008e-01
5.300000000000000266e-01,-1.867554028192647542e-01,-1.339531571958424705e-01,-1.295092551264536429e-01
5.310000000000000275e-01,8.253092747265611262e-02,6.243762435052961635e-02,4.831111667116542996e-02
5.320000000000000284e-01,2.485805656944973518e-01,2.369161265487247925e-01,1.313407732975100106e-01
5.330000000000000293e-01,1.483691626260400243e-01,1.336625174992465692e-01,1.127694975051536097e-01
5.340000000000000302e-01,-1.299727241319744986e-01,-1.019647918442163625e-01,-4.448642784834245384e-02
5.350000000000000311e-01,-2.484422671212585809e-01,-1.868291609611635318e-01,-1.349251180304656961e-01
5.360000000000000320e-01,-1.047946351544066790e-01,-7.837131566646048098e-02,-9.821376834992663618e-02
5.370000000000000329e-01,1.600518922771640984e-01,1.496752528925901493e-01,7.859963786250558082e-02
5.380000000000000338e-01,2.080303931535592565e-01,1.951514304560131585e-01,1.319485880647403575e-01
5.390000000000000346e-01,7.833234081576810615e-02,2.578082628961810702e-02,8.143811585966001521e-02
5.400000000000000355e-01,-1.733195039244432023e-01,-1.501268082893859046e-01,-9.537932864960411983e-02
5.410000000000000364e-01,-2.401975136994039806e-01,-1.550249081192747735e-01,-1.670570091836084958e-01
5.420000000000000373e-01,-1.987845761146949872e-02,1.905008556662736094e-02,-4.089273921233533421e-02
5.430000000000000382e-01,1.800387688863420710e-01,1.678119680016116888e-01,1.045692744756583359e-01
5.440000000000000391e-01,2.244042926853133668e-01,1.293879931986939014e-01,1.333712157686391675e-01
5.450000000000000400e-01,2.354941052602818954e-02,-6.242745001121255410e-02,2.979713372616843783e-02
5.460000000000000409e-01,-2.425642890385325268e-01,-2.103214755383373824e-01,-1.102686446455980185e-01
5.470000000000000417e-01,-2.006955592990170567e-01,-1.338714817295673931e-01,-1.081058897513294814e-01
5.480000000000000426e-01,8.374661651179994559e-02,1.023444574043103905e-01,-9.721566851356939001e-03
5.490000000000000435e-01,2.563989674721746659e-01,2.022256704560121132e-01,1.230198137258841778e-01
5.500000000000000444e-01,1.662019270638226964e-01,7.588707993218167525e-02,1.149172084726880344e-01
5.510000000000000453e-01,-1.108645051946904603e-01,-1.413208210443199497e-01,-2.225591796144676948e-02
5.520000000000000462e-01,-2.513209013938540459e-01,-2.054429103634826947e-01,-1.277418625357687465e-01
5.530000000000000471e-01,-1.485492277282465523e-01,-5.306807158368356120e-02,-1.042390772515035535e-01
5.540000000000000480e-01,1.502515482430934468e-01,1.663456456552471763e-01,3.036049633340980394e-02
5.550000000000000488e-01,2.244563545325481968e-01,1.662075497681822500e-01,1.202919654719540321e-01
5.560000000000000497e-01,8.696763809669239009e-02,2.177421983408981115e-03,1.195085943476778545e-01
5.570000000000000506e-01,-1.626407502053382470e-01,-1.849219464580213745e-01,-4.361078252395910598e-02
5.580000000000000515e-01,-2.330706207189491841e-01,-1.595055888670215416e-01,-1.517315553514273774e-01
5.590000000000000524e-01,-6.268033970095125695e-02,3.857117949064031714e-02,-5.773023646158068761e-02
5.600000000000000533e-01,2.006535140721361909e-01,1.736125977585062652e-01,3.432602433317684387e-02
5.610000000000000542e-01,2.036592165320433301e-01,1.274803478545780133e-01,1.321566402486951675e-01
5.620000000000000551e-01,1.247182590538113527e-02,-7.909173389954267386e-02,6.971714957246702427e-02
5.629999999999999449e-01,-2.247354532469965638e-01,-2.175858898477553427e-01,-7.198210578296750095e-02
5.639999999999999458e-01,-1.997231038445238527e-01,-8.782788107643382802e-02,-1.523171227483442747e-01
5.649999999999999467e-01,1.595865953276683069e-02,1.092997507664775492e-01,-7.363943392883134931e-02
5.659999999999999476e-01,2.294590271580607133e-01,1.802732910707464387e-01,9.234941469698741690e-02
5.669999999999999485e-01,1.886019617500492296e-01,6.587860117809675453e-02,1.625411462685541764e-01
5.679999999999999494e-01,-6.923728540831938782e-02,-1.494171545453059080e-01,6.838817036656570647e-02
5.689999999999999503e-01,-2.363091302159925078e-01,-2.006769118804299368e-01,-1.115443920167277225e-01
5.699999999999999512e-01,-1.466948425492061447e-01,-4.152482516533400475e-02,-1.346287540477559275e-01
5.709999999999999520e-01,1.123996946789928564e-01,1.418038138266007608e-01,1.478229854899586020e-02
5.719999999999999529e-01,2.511482974922567002e-01,1.386149154090430546e-01,1.232398330721381358e-01
5.729999999999999538e-01,1.216173953264861191e-01,-1.587210053436249532e-02,1.238240515465815206e-01
5.739999999999999547e-01,-1.386369977846138857e-01,-1.429584991881657774e-01,-5.212059863419581281e-03
5.749999999999999556e-01,-2.356200052659172262e-01,-1.223992716953662824e-01,-1.737698498900533128e-01
5.759999999999999565e-01,-8.686991306320712702e-02,5.153503730747405892e-02,-1.449520905000682147e-01
5.769999999999999574e-01,1.748556128584676517e-01,1.887903968920657538e-01,3.094124689419980312e-02
5.779999999999999583e-01,2.133214042918084863e-01,1.360159513957479860e-01,1.372616776936259053e-01
5.789999999999999591e-01,4.545739381953212144e-02,-9.710161883999551824e-02,1.099563128365325798e-01
5.799999999999999600e-01,-2.068515027108660809e-01,-1.965387433768140402e-01,-4.285161431375229119e-02
5.809999999999999609e-01,-2.147656617448842897e-01,-9.724728142951315213e-02,-1.535307307470221150e-01
5.819999999999999618e-01,-2.386590316638099405e-05,1.477947415434087419e-01,-7.871300176544937521e-02
5.829999999999999627e-01,1.962920534101895709e-01,1.678576606652490977e-01,3.921033690303992597e-02
5.839999999999999636e-01,1.911254202774799182e-01,4.280307614432769803e-02,1.447244183486723346e-01
5.849999999999999645e-01,-3.062863832996906219e-02,-1.637913908082163639e-01,5.557893309420480071e-02
5.859999999999999654e-01,-2.377304412357853225e-01,-1.988607010725003676e-01,-7.788316034692116530e-02
5.869999999999999662e-01,-1.527987951452730586e-01,-3.586621161227039872e-03,-1.244223255031599445e-01
5.879999999999999671e-01,9.384122528508820338e-02,1.907494403788241588e-01,-3.276370734279319269e-02
5.889999999999999680e-01,2.394358213017783454e-01,1.657075158029922834e-01,1.178507182801366848e-01
5.899999999999999689e-01,1.160698029655408969e-01,-4.540111849241357245e-02,1.023426187580105812e-01
5.909999999999999698e-01,-1.231179819845378831e-01,-2.083570809493361375e-01,5.881794380960760765e-02
5.919999999999999707e-01,-2.749644498058669284e-01,-1.268029775141560345e-01,-1.066721539593804557e-01
5.929999999999999716e-01,-9.239843826407960481e-02,6.710997140118463156e-02,-1.426535194971625120e-01
5.939999999999999725e-01,1.813930004357756642e-01,1.963518011279150599e-01,-2.436598789387498659e-02
5.949999999999999734e-01,2.335428872479410611e-01,9.570562791540042358e-02,1.209323408497738478e-01
5.959999999999999742e-01,7.666316064896676330e-02,-9.313347951841861871e-02,1.417768749034638842e-01
5.969999999999999751e-01,-1.764718762193595303e-01,-1.990829300336849905e-01,1.730783798852321767e-02
5.979999999999999760e-01,-2.458322139298651510e-01,-7.975628067485344974e-02,-1.495907176426979901e-01
5.989999999999999769e-01,-3.296495633394735253e-02,1.331864140897026094e-01,-1.290286854604990041e-01
5.999999999999999778e-01,2.049401864883311497e-01,1.907279550212602204e-01,1.945366638386912886e-02
6.009999999999999787e-01,1.909008711040050543e-01,7.149147603498077694e-03,1.672960738291045801e-01
6.019999999999999796e-01,-3.864679077415578146e-02,-1.667790348745209761e-01,7.794310934445111694e-02
6.029999999999999805e-01,-2.219344732151649624e-01,-1.682999243251562804e-01,-2.673620132819959708e-02
6.039999999999999813e-01,-1.707668331552121554e-01,2.639588568729944740e-02,-1.486939236183243973e-01
6.049999999999999822e-01,6.252748965897521327e-02,1.798518042082590251e-01,-8.257308561360772459e-02
6.059999999999999831e-01,2.376445851985538871e-01,1.260448119591062455e-01,7.192050825589496599e-02
6.069999999999999840e-01,1.481541149492467124e-01,-5.219306587544503273e-02,1.615501888907591721e-01
6.079999999999999849e-01,-1.191877378732158765e-01,-1.800826231167986236e-01,7.611387723436713326e-02
6.089999999999999858e-01,-2.721053995961383865e-01,-1.237327150788480740e-01,-9.230818881508261187e-02
6.099999999999999867e-01,-1.325833879678901539e-01,7.035689288631437333e-02,-1.341055876034383532e-01
6.109999999999999876e-01,1.220492256646754231e-01,1.675997853622516187e-01,-8.800979464037678168e-02
6.119999999999999885e-01,2.008960492821114385e-01,8.076757674976024759e-02,1.055624542578249142e-01
6.129999999999999893e-01,8.906129205110278890e-02,-1.310615079926031878e-01,9.475859608952756641e-02
6.139999999999999902e-01,-1.637158779480562543e-01,-2.216455107503496891e-01,-6.647990486540071358e-04
6.149999999999999911e-01,-2.271637883852789530e-01,-6.470931677795385695e-02,-1.165816391936173452e-01
6.159999999999999920e-01,-4.814442173959920107e-02,1.452933311314595910e-01,-1.461575280989621251e-01
6.169999999999999929e-01,1.665912456287678145e-01,1.800326202800389686e-01,-3.757889300204794725e-02
6.179999999999999938e-01,2.352847039093813875e-01,-1.068245471377027040e-03,1.115490653454715431e-01
6.189999999999999947e-01,8.526102640371147415e-03,-1.736445381541493194e-01,1.289703230432001635e-01
6.199999999999999956e-01,-2.289307833421048155e-01,-1.718312912385293045e-01,-6.853367589937084392e-03
6.209999999999999964e-01,-2.025821714709902521e-01,4.459947897587920873e-02,-9.447397862180979822e-02
6.219999999999999973e-01,2.189633525798946947e-02,1.830683030652983101e-01,-1.384000050568179041e-01
6.229999999999999982e-01,2.233385218300407149e-01,1.213354943137697067e-01,1.202633667180657943e-02
6.239999999999999991e-01,1.708794253601363111e-01,-7.695094511702051110e-02,1.265726985376297575e-01
6.250000000000000000e-01,-7.095896580666828657e-02,-1.746526523317176172e-01,1.056536463641421092e-01
6.260000000000000009e-01,-2.291220731197273763e-01,-9.465633017256847026e-02,-4.318630800558061894e-02
6.270000000000000018e-01,-1.280355809206918660e-01,1.001447127214624977e-01,-1.572642292575278378e-01
6.280000000000000027e-01,8.995177903695920907e-02,1.809827747135241138e-01,-9.160363264906143388e-02
6.290000000000000036e-01,2.364004047971480227e-01,4.152062501420274859e-02,6.284235919128466907e-02
6.300000000000000044e-01,1.182673577091879202e-01,-1.501323259569390112e-01,1.593538825473090892e-01
6.310000000000000053e-01,-1.318487887808436065e-01,-1.699785425804247185e-01,7.704419785074279048e-02
6.320000000000000062e-01,-2.244871818166000454e-01,3.236792855593373982e-03,-9.279280830883365749e-02
6.330000000000000071e-01,-6.858419495397782839e-02,1.678562577859067650e-01,-1.528142983522687015e-01
6.340000000000000080e-01,1.676173512950551725e-01,1.658607089512087462e-01,-2.485677086456215476e-02
6.350000000000000089e-01,2.491265472683530657e-01,-2.679161571136872907e-02,8.351760466439595021e-02
6.360000000000000098e-01,5.279061562184746842e-02,-1.634387636881054762e-01,1.351169664955180483e-01
6.370000000000000107e-01,-2.244990653036628703e-01,-1.412258637487509016e-01,5.943766115183329174e-02
6.380000000000000115e-01,-2.043691708363135628e-01,7.193617315930260492e-02,-1.271465241910100519e-01
6.390000000000000124e-01,1.639224317419895119e-02,1.935357897252709680e-01,-1.267246338973506414e-01
6.400000000000000133e-01,2.080045729766912821e-01,1.010883648544906727e-01,-2.559071649682881713e-02
6.410000000000000142e-01,1.976768167167129442e-01,-9.919327948099974923e-02,1.336172552686860637e-01
6.420000000000000151e-01,-5.840514884353670277e-02,-1.772859154709404694e-01,1.010527217002901434e-01
6.430000000000000160e-01,-2.215679563227891391e-01,-9.129647786978090096e-02,-2.465151356867701250e-03
6.440000000000000169e-01,-1.489966594931811661e-01,9.367863263914195937e-02,-1.344496148301417005e-01
6.450000000000000178e-01,9.605763375706395657e-02,2.028498348370185722e-01,-1.032453400790246806e-01
6.460000000000000187e-01,2.517715345754096279e-01,5.205568782930600213e-02,2.306941529426961499e-02
6.470000000000000195e-01,1.263131295631195194e-01,-1.265640912999364542e-01,1.485363357126458783e-01
6.480000000000000204e-01,-1.354679865871681044e-01,-2.165449104257622659e-01,1.136117313050161448e-01
6.490000000000000213e-01,-2.570024829040606362e-01,-1.519511883762403835e-02,-2.341894821943347332e-02
6.500000000000000222e-01,-8.768518806387359810e-02,1.439837199885578012e-01,-1.840123957469408100e-01
6.510000000000000231e-01,1.795603275278474797e-01,1.708219945688958796e-01,-9.651960522815604404e-02
6.520000000000000240e-01,2.404849852153206624e-01,-3.030492360606347121e-02,4.923619075115687888e-02
6.530000000000000249e-01,4.623609407133310450e-02,-1.891770943998117016e-01,1.068179572116700199e-01
6.540000000000000258e-01,-1.874221890752600095e-01,-1.174468485524422651e-01,6.580050520165230121e-02
6.550000000000000266e-01,-2.088017790400290563e-01,8.188176881211968461e-02,-8.388415585948681696e-02
6.560000000000000275e-01,-1.718765780624619335e-02,2.009725498518825648e-01,-1.585222613978848338e-01
6.570000000000000284e-01,2.245927192175935228e-01,8.673571348309802587e-02,-5.704512683125487899e-02
6.580000000000000293e-01,1.926086390915651148e-01,-8.615768698666066705e-02,7.558734216254198168e-02
6.590000000000000302e-01,-2.873991972117533392e-02,-1.741310255886652503e-01,1.382300387025251764e-01
6.600000000000000311e-01,-2.217452961421772506e-01,-6.491917512464333295e-02,4.826834692578493152e-02
6.610000000000000320e-01,-1.581686221764991851e-01,1.236981149368995003e-01,-1.045866747827512433e-01
6.620000000000000329e-01,1.082044775408602943e-01,2.064469939329863224e-01,-1.491305088199425255e-01
6.630000000000000338e-01,2.295138320598959780e-01,5.302473447976149140e-02,-2.370701844516251780e-02
6.640000000000000346e-01,1.261445425463263992e-01,-1.585885496866283606e-01,9.332591860514363735e-02
6.650000000000000355e-01,-1.031201262222637277e-01,-1.777973741585663348e-01,1.593916575836104299e-01
6.660000000000000364e-01,-2.740533825576860205e-01,-7.230537537671400013e-03,7.642520298426640907e-03
6.670000000000000373e-01,-9.507625860459723022e-02,1.719973128559842412e-01,-1.453111331443568965e-01
6.680000000000000382e-01,1.505551631965175163e-01,1.581845805528307725e-01,-1.173670219352364874e-01
6.690000000000000391e-01,2.610827526430276047e-01,-3.595262601990689005e-02,2.157948230326170794e-02
6.700000000000000400e-01,9.055892700944988272e-02,-1.794788669582253471e-01,1.416366540032295562e-01
6.710000000000000409e-01,-1.477814647790645086e-01,-1.511890803584098053e-01,9.084580782189881354e-02
6.720000000000000417e-01,-2.473834794832929229e-01,8.752556743048205135e-02,-3.929098225517899112e-02
6.730000000000000426e-01,-3.204682828722336257e-02,2.259823880482642044e-01,-1.606757256422397806e-01
6.740000000000000435e-01,2.106217834276534473e-01,9.493560184934206336e-02,-1.286070309166338077e-01
6.750000000000000444e-01,2.069701804337857054e-01,-1.159747965103182926e-01,7.410695153080901210e-02
6.760000000000000453e-01,-6.066349859805365754e-04,-2.129517707028577844e-01,1.531243135171323766e-01
6.770000000000000462e-01,-2.064548293088306341e-01,-6.024004280528233446e-02,1.143291800093187011e-01
6.780000000000000471e-01,-1.838608726668344850e-01,1.464040253789083423e-01,-9.221011853777094647e-02
6.790000000000000480e-01,3.560356951906352985e-02,1.764638150232092917e-01,-1.258486592696538564e-01
6.800000000000000488e-01,2.245508279879968871e-01,1.577860958563130286e-02,-8.365091758784810871e-02
6.810000000000000497e-01,1.552955590534491892e-01,-1.687523093918909534e-01,1.049187809848310116e-01
6.820000000000000506e-01,-8.675641909380764349e-02,-1.468604923812743823e-01,1.428773628567069909e-01
6.830000000000000515e-01,-2.351239175576659846e-01,-4.955900460976908617e-03,4.670794221334711310e-02
6.840000000000000524e-01,-1.326193396005400094e-01,1.775318484698584220e-01,-8.434728901235941101e-02
6.850000000000000533e-01,1.354637538898761095e-01,1.369165791370444418e-01,-1.395409144150308312e-01
6.860000000000000542e-01,2.394167229330966817e-01,-6.062420060765069674e-02,-1.181000293914795385e-02
6.870000000000000551e-01,7.946608133679039510e-02,-1.706101315300471988e-01,1.157555743557806133e-01
6.879999999999999449e-01,-1.363007831625408228e-01,-9.435781422398356599e-02,1.465511316856482615e-01
6.889999999999999458e-01,-2.347426800426130056e-01,9.004420003271366990e-02,1.174120250792488537e-02
6.899999999999999467e-01,-5.367910347934098936e-02,1.981446030589731622e-01,-1.222118689124654933e-01
6.909999999999999476e-01,1.937558296526826207e-01,6.830663784233850788e-02,-1.095576930397089144e-01
6.919999999999999485e-01,2.237600934885319581e-01,-1.573664019955459403e-01,-9.580231315878732709e-03
6.929999999999999494e-01,-8.726463062884836502e-03,-1.780238948705411550e-01,1.566980296102511439e-01
6.939999999999999503e-01,-1.973648968993661490e-01,-5.075708907852794632e-02,8.690378479055481387e-02
6.949999999999999512e-01,-2.143600073295327535e-01,1.449978938969049835e-01,-4.231782349718275077e-02
6.959999999999999520e-01,2.655586496497236784e-02,1.773667757150290680e-01,-1.402076484985378957e-01
6.969999999999999529e-01,2.395137697329976778e-01,4.791364367665106906e-03,-1.136521291421388052e-01
6.979999999999999538e-01,1.744712911179285841e-01,-1.774850845091555107e-01,7.167854772375090167e-02
6.989999999999999547e-01,-6.683841296016616862e-02,-1.540359751285038103e-01,1.669025249180723092e-01
6.999999999999999556e-01,-2.495116658980066071e-01,2.692869498867435721e-02,7.569649583056969888e-02
7.009999999999999565e-01,-1.604738793207141911e-01,1.792969016796732984e-01,-7.243919965920887771e-02
7.019999999999999574e-01,1.028786640727839957e-01,9.843172648911539813e-02,-1.444479729793333722e-01
7.029999999999999583e-01,2.568794414790346869e-01,-6.804207431548980889e-02,-4.513613797572744307e-02
7.039999999999999591e-01,1.059974367546517998e-01,-2.048521047241083359e-01,7.045254299542019760e-02
7.049999999999999600e-01,-1.096511955500027169e-01,-1.121272527427066290e-01,1.375001723487832284e-01
7.059999999999999609e-01,-2.523598165472005217e-01,1.228198471749339243e-01,4.800034956314985085e-02
7.069999999999999618e-01,-7.511061355801702810e-02,1.854887111522685317e-01,-8.371060399876301128e-02
7.079999999999999627e-01,1.722923125807251377e-01,6.952159202590205145e-02,-1.430375432943740699e-01
7.089999999999999636e-01,2.038783013397919008e-01,-1.337740777363379263e-01,-3.608309252232472925e-02
7.099999999999999645e-01,3.065126024652999742e-02,-2.108583271284866223e-01,1.151964759699762447e-01
7.109999999999999654e-01,-2.081532669459067175e-01,-2.317532298659795084e-02,1.217493050022238621e-01
7.119999999999999662e-01,-1.961651482213339903e-01,1.672109995068769284e-01,-2.171006535179421937e-02
7.129999999999999671e-01,-4.199167518145118135e-03,1.686561959474496553e-01,-1.261843778351493250e-01
7.139999999999999680e-01,2.186701191751165008e-01,2.973276151808933003e-03,-1.362207088916854991e-01
7.149999999999999689e-01,2.209450795012475877e-01,-1.877607226718266686e-01,6.582534430058155014e-03
7.159999999999999698e-01,-3.370753058146448017e-02,-1.441378068723517258e-01,1.416786423544907636e-01
7.169999999999999707e-01,-2.381767653004462360e-01,7.239777903597814646e-02,1.091217446382169998e-01
7.179999999999999716e-01,-1.715823096814668158e-01,1.954428853825719015e-01,-3.031298081354599078e-02
7.189999999999999725e-01,7.114431791337701150e-02,1.317918206606639164e-01,-1.468808891860825805e-01
7.199999999999999734e-01,2.259296402108580959e-01,-8.141100821457757097e-02,-1.049612622920267496e-01
7.209999999999999742e-01,1.442796437485073802e-01,-1.920848924991793438e-01,1.789723971625622675e-02
7.219999999999999751e-01,-1.048173897060756671e-01,-9.417967945248281736e-02,1.640199482290020383e-01
7.229999999999999760e-01,-2.499358238874349880e-01,1.171158940858261083e-01,5.617317799666744771e-02
7.239999999999999769e-01,-1.055711859235650418e-01,1.639691022056034009e-01,-7.391060540462472683e-02
7.249999999999999778e-01,1.792554090527452293e-01,4.197331239914407763e-02,-1.514551729493052723e-01
7.259999999999999787e-01,2.170711411787709932e-01,-1.347812107345854327e-01,-7.088206912823108441e-02
7.269999999999999796e-01,5.152329843633165346e-02,-2.023913412528478561e-01,5.968078773360892958e-02
7.279999999999999805e-01,-1.646055177975312145e-01,-2.767340104779060853e-02,1.503762001314918606e-01
7.289999999999999813e-01,-2.177520389362374853e-01,1.360428945242303511e-01,6.279248498794692823e-02
7.299999999999999822e-01,-4.043716518828285866e-02,1.605258136473316222e-01,-8.612515620483869594e-02
7.309999999999999831e-01,1.799637538087019706e-01,-4.403440963484936410e-02,-1.440338975472456040e-01
7.319999999999999840e-01,2.027360302900990952e-01,-1.533234174265641903e-01,-3.232764807089477666e-02
7.329999999999999849e-01,-1.470299438174213665e-02,-1.302305839756000561e-01,1.393619067427638858e-01
7.339999999999999858e-01,-2.294250672386654588e-01,7.972771528664783502e-02,1.249588305819203243e-01
7.349999999999999867e-01,-1.796623729958742588e-01,2.111260450008533573e-01,1.968721892532041863e-03
7.359999999999999876e-01,4.517860183111467587e-02,9.726860510329003728e-02,-1.239242972712445018e-01
7.369999999999999885e-01,2.202814234638160173e-01,-9.420659416804166852e-02,-1.007219116572377060e-01
7.379999999999999893e-01,1.769891377273421496e-01,-1.985460758967704520e-01,1.757252725928614215e-02
7.389999999999999902e-01,-1.037288078210077263e-01,-7.405866067794183993e-02,1.477877636317485865e-01
7.399999999999999911e-01,-2.498223677382290786e-01,1.522516327239957223e-01,1.317319000902270054e-01
7.409999999999999920e-01,-1.282119012365348087e-01,1.781874183436970016e-01,-3.926072895364062648e-02
7.419999999999999929e-01,1.556820487293124611e-01,5.095733075008224838e-02,-1.697981035995974886e-01
7.429999999999999938e-01,2.445756103024420980e-01,-1.491281569631478787e-01,-1.074522292540054380e-01
7.439999999999999947e-01,9.480445024735432991e-02,-1.734255989813670018e-01,4.309133066986705479e-02
7.449999999999999956e-01,-1.510044246172816129e-01,1.112241418783024849e-02,1.596370674031430126e-01
7.459999999999999964e-01,-2.347384643011949656e-01,1.886799475892209366e-01,7.533916400302864691e-02
7.469999999999999973e-01,-7.024425662035044260e-02,1.730399379914342173e-01,-6.395887993619413237e-02
7.479999999999999982e-01,2.055585518110405741e-01,-4.349642929573640376e-02,-1.188632671541623304e-01
7.489999999999999991e-01,2.143830599332156028e-01,-1.981680211058659269e-01,-8.515478256949531033e-02
7.500000000000000000e-01,4.339714479255057239e-03,-1.547281629298625505e-01,8.881017224213337558e-02
7.510000000000000009e-01,-1.897156966994618665e-01,8.723432091232326269e-02,1.335445771582974561e-01
7.520000000000000018e-01,-2.155727168654086590e-01,1.919019160801596902e-01,5.044156708900357500e-02
7.530000000000000027e-01,3.723734249597542012e-02,5.388965558810088208e-02,-9.786143568781491275e-02
7.540000000000000036e-01,2.122866786134950390e-01,-1.197731831728003765e-01,-1.525483295316897303e-01
7.550000000000000044e-01,1.565831790606480867e-01,-1.705965500611748842e-01,-4.338486969368525459e-02
7.560000000000000053e-01,-6.608267556351551941e-02,-6.245169868177134764e-02,1.167604611370145901e-01
7.570000000000000062e-01,-2.338509498961001409e-01,1.432641967066536071e-01,1.714584981577340905e-01
7.580000000000000071e-01,-1.242202128809298256e-01,1.980996715592129587e-01,1.584986149351654341e-02
7.590000000000000080e-01,9.689883653364599059e-02,2.157996254054486349e-02,-1.302759136599057344e-01
7.600000000000000089e-01,2.239542411927316068e-01,-1.756758134227366652e-01,-1.182205682216069947e-01
7.610000000000000098e-01,9.048935042686655217e-02,-1.704048708582492078e-01,4.019661863563053425e-03
7.620000000000000107e-01,-1.596604898380176163e-01,2.152097967983606849e-02,1.261194352842595900e-01
7.630000000000000115e-01,-2.048592681134035198e-01,1.880230550278594037e-01,1.284328543260982169e-01
7.640000000000000124e-01,-3.967874754713420632e-02,1.097980456712226438e-01,-1.742450279016790129e-02
7.650000000000000133e-01,1.720208183229213206e-01,-6.844661840477464509e-02,-1.405117165555312686e-01
7.660000000000000142e-01,2.229711999423552582e-01,-1.998197840332129327e-01,-1.384007358876244709e-01
7.670000000000000151e-01,3.615226211537951595e-02,-1.010099278039533616e-01,3.937064059577069508e-02
7.680000000000000160e-01,-2.017621999858507931e-01,8.075801691740687460e-02,1.135287257321326848e-01
7.690000000000000169e-01,-2.079595848737006425e-01,2.248932974186656220e-01,9.243993893955114449e-02
7.700000000000000178e-01,-1.261779698094628310e-02,9.233353407209728136e-02,-6.183560163034935303e-02
7.710000000000000187e-01,2.310350363779913874e-01,-1.337454936223823609e-01,-1.625543491552636777e-01
7.720000000000000195e-01,1.781989056799748727e-01,-1.760368015167770861e-01,-9.413380520343028746e-02
7.730000000000000204e-01,-5.293201640331487295e-02,-1.744910842249647320e-02,7.664556980093439886e-02
7.740000000000000213e-01,-2.511803196983231068e-01,1.491081437472488724e-01,1.487151250583741147e-01
7.750000000000000222e-01,-1.651104555333406665e-01,2.038809877810677518e-01,4.962493324389846000e-02
7.760000000000000231e-01,8.704364364722126657e-02,-2.796242865687642229e-02,-1.085945649112953770e-01
7.770000000000000240e-01,2.412366589258316540e-01,-1.904147870657163510e-01,-1.089831278040015033e-01
7.780000000000000249e-01,1.345564235255178875e-01,-1.515691773701025868e-01,-5.544774816900190778e-02
7.790000000000000258e-01,-1.281968475270147956e-01,3.573568589372035087e-02,1.232946277726932188e-01
7.800000000000000266e-01,-2.535709530376826781e-01,2.169348273414932193e-01,1.539693469730923636e-01
7.810000000000000275e-01,-1.044461969237212851e-01,1.214941724892981412e-01,3.244182863826883950e-02
7.820000000000000284e-01,1.410895027191176043e-01,-7.687941431128944569e-02,-1.400093752982526640e-01
7.830000000000000293e-01,2.387157693704820838e-01,-2.042369401140773921e-01,-1.321021652280519876e-01
7.840000000000000302e-01,1.174811915713409177e-02,-9.668759645538414771e-02,-1.107465837281834849e-02
7.850000000000000311e-01,-1.934079050862029525e-01,9.167069219690424098e-02,1.074668721012774497e-01
7.860000000000000320e-01,-2.316650777415064089e-01,1.556992628854535765e-01,1.126433446651124159e-01
7.870000000000000329e-01,3.018882091025673620e-03,2.029947283118987283e-02,-4.996740556713049480e-02
7.880000000000000338e-01,2.068926228525492239e-01,-1.306735225229166131e-01,-1.373002405141140747e-01
7.890000000000000346e-01,2.050661801939516193e-01,-1.800469009622950312e-01,-8.956356111320694369e-02
7.900000000000000355e-01,-7.511490143728464033e-03,-1.817974069444450863e-02,5.270131661085989544e-02
7.910000000000000364e-01,-2.176755741803160504e-01,1.636792393512739308e-01,1.584049173708148850e-01
7.920000000000000373e-01,-1.756174940077896984e-01,1.366102131563932121e-01,9.941581686140711638e-02
7.930000000000000382e-01,8.801480475716608187e-02,-1.743785285708607594e-02,-5.791553746114576351e-02
7.940000000000000391e-01,2.766663560364418517e-01,-1.804169513359909216e-01,-1.349481568699786860e-01
7.950000000000000400e-01,1.569768658178260223e-01,-1.226361309450677284e-01,-8.995572534521195651e-02
7.960000000000000409e-01,-9.299344893896500930e-02,3.799472065200443227e-02,9.395992422098255192e-02
7.970000000000000417e-01,-2.428811096266278724e-01,1.973277590362372824e-01,1.202652320638610134e-01
7.980000000000000426e-01,-1.219810393647047797e-01,1.249586306900884736e-01,4.837927216308047368e-02
7.990000000000000435e-01,1.472375316667494938e-01,-1.159773346286633172e-01,-7.585937414378010613e-02
8.000000000000000444e-01,2.497462746411849011e-01,-1.680794697661482928e-01,-1.457127703664123641e-01
8.010000000000000453e-01,7.049991593672862156e-02,-6.933944250178815383e-02,-2.769592891597288942e-02
8.020000000000000462e-01,-1.681412408052436191e-01,1.307434262615735643e-01,1.007673078165752939e-01
8.030000000000000471e-01,-2.418793841638795239e-01,1.500907129988079680e-01,1.220543468762117223e-01
8.040000000000000480e-01,-4.938979390676916797e-02,4.862996630955306737e-02,1.475214055106629542e-02
8.050000000000000488e-01,2.051638359892472008e-01,-1.540231564548244503e-01,-1.289325493456943694e-01
8.060000000000000497e-01,2.127838527126597878e-01,-1.892739408735507334e-01,-1.505334000462918986e-01
8.070000000000000506e-01,2.532644725139498662e-02,1.022849596509968310e-02,-1.266555782812771661e-02
8.080000000000000515e-01,-2.317701908225299479e-01,1.715213489605122155e-01,1.410559983829960395e-01
8.090000000000000524e-01,-1.914522892426138156e-01,1.549085968491801246e-01,1.082004564658217011e-01
8.100000000000000533e-01,4.832715359896015000e-02,-3.507980056957316767e-02,-2.114064602808584173e-02
8.110000000000000542e-01,2.259607204641657374e-01,-1.905226724594552279e-01,-1.382000571990398274e-01
8.120000000000000551e-01,1.684219973367997725e-01,-1.360302536043778709e-01,-1.064084812946715503e-01
8.129999999999999449e-01,-1.125275889386657263e-01,8.620211824723406080e-02,4.742385457437247459e-02
8.139999999999999458e-01,-2.496573587170854147e-01,2.110266793804923824e-01,1.461510937905738383e-01
8.149999999999999467e-01,-1.372087853365329679e-01,9.416854637378235804e-02,9.579260500190117655e-02
8.159999999999999476e-01,1.223357442267595102e-01,-9.766039820068184163e-02,-6.789492502122219941e-02
8.169999999999999485e-01,2.346095519188194645e-01,-1.826462941377896554e-01,-1.193857979339059405e-01
8.179999999999999494e-01,1.026117074707477983e-01,-5.885285683310684940e-02,-7.128143274464028567e-02
8.189999999999999503e-01,-1.293076974608414198e-01,1.380874291679628774e-01,6.754228205977536037e-02
8.199999999999999512e-01,-2.342743717769301404e-01,1.948180704857250811e-01,1.398193164407769140e-01
8.209999999999999520e-01,-4.277084934585487219e-02,1.804836651860442995e-02,4.055810336972265340e-02
8.219999999999999529e-01,2.021053346936384776e-01,-1.796012745839855873e-01,-8.930526419852470588e-02
8.229999999999999538e-01,2.202681390146634943e-01,-1.485783703888064189e-01,-1.179131344167827777e-01
8.239999999999999547e-01,5.195621986276208887e-02,1.599070714595961229e-02,-6.372586385973968981e-02
8.249999999999999556e-01,-2.175446602349864755e-01,1.831394273600908118e-01,8.639964583356739281e-02
8.259999999999999565e-01,-1.711531928801528768e-01,1.623809207173588509e-01,1.286325298554550356e-01
8.269999999999999574e-01,2.002267534072953679e-03,-4.823700113975097625e-02,3.108360388782008613e-02
8.279999999999999583e-01,2.072213282424686109e-01,-2.263344260957675658e-01,-1.011158444072334378e-01
8.289999999999999591e-01,1.721194830226394357e-01,-9.270221564992964236e-02,-1.297922500658752754e-01
8.299999999999999600e-01,-7.158381520036041779e-02,1.078251901531897539e-01,-8.399251115871943923e-03
8.309999999999999609e-01,-2.504889966429505455e-01,1.916139841872890603e-01,1.043042246356104819e-01
8.319999999999999618e-01,-1.628985900515254326e-01,9.244017182648300857e-02,1.267885058333267090e-01
8.329999999999999627e-01,1.034138029037334205e-01,-1.154729172315503427e-01,-2.462616243432546106e-02
8.339999999999999636e-01,2.517734586241321404e-01,-2.002266121039103508e-01,-9.602989459869026856e-02
8.349999999999999645e-01,1.182097392662797980e-01,-5.035589629428124242e-02,-1.122832043482440145e-01
8.359999999999999654e-01,-1.135742337432656818e-01,1.529872225126243102e-01,-2.543929613599765511e-03
8.369999999999999662e-01,-2.326517937343220710e-01,1.486554497960207166e-01,1.525574347535877395e-01
8.379999999999999671e-01,-8.802692880339003934e-02,2.574409903453881918e-02,1.066032195107431413e-01
8.389999999999999680e-01,1.645318426859007643e-01,-2.076722806689542122e-01,-3.981265829341643775e-02
8.399999999999999689e-01,2.671412049398576016e-01,-1.355546242386686528e-01,-1.294796820220915357e-01
8.409999999999999698e-01,4.073258284826250519e-02,4.010940887660430221e-02,-6.001726099620011828e-02
8.419999999999999707e-01,-2.323060705216637156e-01,1.914609045183058855e-01,8.006172177946802027e-02
8.429999999999999716e-01,-2.136299605760053621e-01,1.110941536751739317e-01,1.138689641670785069e-01
8.439999999999999725e-01,-8.526167887274740953e-03,-4.988942340483071280e-02,8.927068872264651289e-02
8.449999999999999734e-01,2.050003288713791172e-01,-1.829148743892652085e-01,-8.244558950124025731e-02
8.459999999999999742e-01,2.064508621472269378e-01,-1.085735121461291752e-01,-1.527631685717492360e-01
8.469999999999999751e-01,-4.596494411504337130e-02,1.121500762153081338e-01,-4.112129880437456059e-02
8.479999999999999760e-01,-2.576606979960415211e-01,1.739195590677329595e-01,8.557801588958530159e-02
8.489999999999999769e-01,-1.756336383543001256e-01,5.123212582721110853e-02,1.529432545204055249e-01
8.499999999999999778e-01,7.265498284741107871e-02,-1.090535531922527390e-01,4.351237843400224126e-02
8.509999999999999787e-01,2.426674169702832951e-01,-1.886511501458544848e-01,-1.312457200179790451e-01
8.519999999999999796e-01,1.387977394680053322e-01,-2.521691915869544651e-02,-1.119045953074101346e-01
8.529999999999999805e-01,-8.317431925116081093e-02,1.574083756328429895e-01,-2.938501006213758721e-03
8.539999999999999813e-01,-2.533165614235495799e-01,1.813701513234584062e-01,1.314642286612240640e-01
8.549999999999999822e-01,-1.297806650547005669e-01,1.231781506323240214e-03,1.189454200654538052e-01
8.559999999999999831e-01,1.494308818300554009e-01,-2.235842571118727695e-01,-2.854058754445232011e-03
8.569999999999999840e-01,2.334695826694591914e-01,-1.323163652497837683e-01,-1.430535725136290459e-01
8.579999999999999849e-01,6.903404697360220055e-02,5.296548007509535583e-02,-1.039786425466959902e-01
8.589999999999999858e-01,-1.676201105888528720e-01,1.619567521144309463e-01,5.728824698270276045e-02
8.599999999999999867e-01,-2.287712950149628499e-01,9.454707599539725893e-02,1.411272545894637354e-01
8.609999999999999876e-01,-1.933551455696009723e-03,-7.055695943744023924e-02,1.437788433996177173e-01
8.619999999999999885e-01,2.207858567662182303e-01,-1.969375869407988533e-01,-4.396465356489891868e-02
8.629999999999999893e-01,2.206108584103030346e-01,-7.617928057933179287e-02,-1.568569839476782746e-01
8.639999999999999902e-01,-8.002438432807464086e-03,1.186052150977616182e-01,-5.811039801308152952e-02
8.649999999999999911e-01,-2.308159421913365539e-01,1.714830686754491573e-01,5.076590171052353107e-02
8.659999999999999920e-01,-1.819304626223942345e-01,4.526031765650218031e-02,1.630129788140465830e-01
8.669999999999999929e-01,6.222443506187669976e-02,-1.603915549891151704e-01,4.356457314691044441e-02
8.679999999999999938e-01,2.183721770860108657e-01,-1.647341538525863847e-01,-1.116509075316026861e-01
8.689999999999999947e-01,1.702467519352448555e-01,-7.504276622351097568e-03,-1.362861121744365633e-01
8.699999999999999956e-01,-1.019692944911686910e-01,1.771949240802026815e-01,-5.005543269064501033e-02
8.709999999999999964e-01,-2.166221340616567015e-01,1.730307002391009152e-01,1.043219338642953770e-01
8.719999999999999973e-01,-1.583115843716197679e-01,-2.999786334845752633e-02,1.452836759345152440e-01
8.729999999999999982e-01,1.191772060260431060e-01,-1.849855139962058304e-01,3.483251266315288280e-02
8.739999999999999991e-01,2.378814042802198658e-01,-1.307072749539178458e-01,-1.017761654154854811e-01
8.750000000000000000e-01,1.063945923853239217e-01,8.113212148070889085e-02,-1.292948885637170697e-01
8.760000000000000009e-01,-1.837700929953458295e-01,1.995601101426341673e-01,-3.376769017036931192e-02
8.770000000000000018e-01,-2.506368297363197328e-01,1.246275223472091825e-01,1.018383657788965169e-01
8.780000000000000027e-01,-4.421612916195770404e-02,-1.102688953472625716e-01,1.153970096308606919e-01
8.790000000000000036e-01,1.886549912989558819e-01,-2.089156994559378255e-01,-1.191457482146036223e-02
8.800000000000000044e-01,2.292668396209056603e-01,-7.166682189007476944e-02,-1.409267003634604443e-01
8.810000000000000053e-01,-7.075035823439742959e-03,1.559135643332371923e-01,-9.948717730333282716e-02
8.820000000000000062e-01,-1.987346538323181699e-01,1.761799227948868674e-01,4.861542763695204938e-02
8.830000000000000071e-01,-2.165287391125842176e-01,3.417498088866226941e-02,1.245957270426837765e-01
8.840000000000000080e-01,2.960656510267536609e-02,-1.194647700408893176e-01,6.628407396322931466e-02
8.850000000000000089e-01,2.434763826456660951e-01,-1.592449885899594741e-01,-2.305492717646584477e-02
8.860000000000000098e-01,2.047786350833495361e-01,8.434946640648036814e-03,-1.295350654632729803e-01
8.870000000000000107e-01,-8.642698910287116565e-02,2.017835486632943431e-01,-7.180777293788234705e-02
8.880000000000000115e-01,-2.352592331444202656e-01,1.733634719176503081e-01,8.751091810270276994e-02
8.890000000000000124e-01,-1.422465241513687917e-01,-3.534179519625692267e-02,1.524791170699529019e-01
8.900000000000000133e-01,1.114707763028255638e-01,-1.962283859937115904e-01,6.691584289320587353e-02
8.910000000000000142e-01,2.649433270724191880e-01,-1.164368371026223425e-01,-1.165735428355324788e-01
8.920000000000000151e-01,1.276876116551843576e-01,8.132354886518779191e-02,-1.004399654796159086e-01
8.930000000000000160e-01,-1.332898393807890325e-01,1.967753342310240294e-01,-6.771757995063358571e-02
8.940000000000000169e-01,-2.390784650213552132e-01,1.025296486474006619e-01,8.468078956120206335e-02
8.950000000000000178e-01,-7.194408695010226507e-02,-1.087938046029727907e-01,1.370323250321913988e-01
8.960000000000000187e-01,1.870174771781383527e-01,-2.075018802780955740e-01,3.684766836092984860e-02
8.970000000000000195e-01,2.036944477672891496e-01,-5.246905320267090250e-02,-1.306146784061951449e-01
8.980000000000000204e-01,6.157755572674876443e-02,1.650839731888435191e-01,-1.209237967868974084e-01
8.990000000000000213e-01,-1.736260625763687282e-01,1.701478624725440703e-01,4.071393100872367291e-03
9.000000000000000222e-01,-2.208180933792455725e-01,8.648542016068686694e-03,8.889524142703054965e-02
9.010000000000000231e-01,-1.937271558224124349e-02,-1.599576282421087126e-01,1.269005505082803631e-01
9.020000000000000240e-01,2.162228324238964217e-01,-1.408553059126884666e-01,-2.761711771472579249e-02
9.030000000000000249e-01,2.040152862624257935e-01,6.476564737961987284e-02,-1.148209478470914313e-01
9.040000000000000258e-01,-6.213830715464125493e-02,1.789969310254913293e-01,-1.059144178298756511e-01
9.050000000000000266e-01,-2.534061250774474194e-01,1.631823223530279032e-01,2.743961891724185781e-02
9.060000000000000275e-01,-1.465581174060230363e-01,-6.683254964734293424e-02,1.296419648932712332e-01
9.070000000000000284e-01,6.914692349550864703e-02,-1.711314779120640672e-01,1.035230736335617796e-01
9.080000000000000293e-01,2.183841783408615456e-01,-7.630696309335840977e-02,-4.239002099589096045e-02
9.090000000000000302e-01,1.325689420623720471e-01,1.070303106597097625e-01,-1.361268173659360148e-01
9.100000000000000311e-01,-1.366902964733270054e-01,2.005357063054736266e-01,-8.861782553370425863e-02
9.110000000000000320e-01,-2.542043873947444910e-01,7.001870458073704284e-02,4.149648652210288780e-02
9.120000000000000329e-01,-8.409871402661064921e-02,-1.395230033324750263e-01,1.666401806473356839e-01
9.130000000000000338e-01,1.630269656151885072e-01,-1.925885669712706638e-01,5.757321829657355283e-02
9.140000000000000346e-01,2.274277078173917999e-01,-2.475054783933162625e-02,-9.905157617396946612e-02
9.150000000000000355e-01,4.807062093852174783e-02,1.703065261434560107e-01,-1.662311939116574433e-01
9.160000000000000364e-01,-1.952137761794962845e-01,1.697149163202523459e-01,-4.052116545875603104e-02
9.170000000000000373e-01,-2.175940226963764268e-01,3.093677020952848369e-03,1.011812718611804773e-01
9.180000000000000382e-01,-3.135047998080485454e-02,-1.867581419407245702e-01,1.254211350645649814e-01
9.190000000000000391e-01,2.094566954920895063e-01,-1.497539511180461524e-01,4.244401069415554978e-02
9.200000000000000400e-01,2.183489525811490584e-01,4.621317655426985388e-02,-8.875980876014624710e-02
9.210000000000000409e-01,-1.517839997900053903e-02,1.776102601052122754e-01,-1.190966107624188697e-01
9.220000000000000417e-01,-2.007259661933569750e-01,9.362663728594346202e-02,7.235097045546534655e-03
9.230000000000000426e-01,-1.979808286554037844e-01,-6.802294236794446947e-02,1.141417612457103353e-01
9.240000000000000435e-01,3.897252215486674692e-02,-2.071848586294971206e-01,1.111695724813093894e-01
9.250000000000000444e-01,2.232708013597708707e-01,-9.209806484237448299e-02,4.741825154205661121e-03
9.260000000000000453e-01,1.554125162440168073e-01,1.216807509459712222e-01,-9.637905086329730253e-02
9.270000000000000462e-01,-8.199445729179818954e-02,1.729256826714108686e-01,-1.446842587499887200e-01
9.280000000000000471e-01,-2.628752442615170382e-01,5.850429301955159533e-02,2.906220004806850735e-02
9.290000000000000480e-01,-1.253870265289648567e-01,-1.379705037920069821e-01,1.290707306670839660e-01
9.300000000000000488e-01,1.411582556082783824e-01,-1.661478559510002062e-01,1.368450584044777207e-01
9.310000000000000497e-01,2.434049997160974699e-01,-4.255916828101372409e-03,-6.365767450234846581e-02
9.320000000000000506e-01,6.381721136018600471e-02,1.401603458744338226e-01,-1.434904742958364454e-01
9.330000000000000515e-01,-1.987033783069449278e-01,1.712310216719889200e-01,-8.928055394730093075e-02
9.340000000000000524e-01,-2.250814815757135323e-01,-1.002515631888917930e-02,7.833582464977095761e-02
9.350000000000000533e-01,-9.433857045103121244e-03,-1.554178375437693937e-01,1.473626802396038882e-01
9.360000000000000542e-01,1.980436785779502995e-01,-1.489386423864190456e-01,8.494296634837751603e-02
9.370000000000000551e-01,2.230838877336267234e-01,5.034194292701484746e-02,-6.365271961167591475e-02
9.379999999999999449e-01,-1.713166501746647002e-02,1.861612510352623762e-01,-1.600055611801581845e-01
9.389999999999999458e-01,-2.218805326010465651e-01,1.045563995331954543e-01,-5.886315199058456127e-02
9.399999999999999467e-01,-1.950492818553835883e-01,-8.105368149220348872e-02,9.540744406166090652e-02
9.409999999999999476e-01,3.161216672165467756e-02,-1.622085091767507259e-01,1.511372571759105610e-01
9.419999999999999485e-01,2.271030141897104060e-01,-5.075204957756792451e-02,2.117693157273818627e-02
9.429999999999999494e-01,1.659014974268961939e-01,1.599816308453202718e-01,-1.216780094715348703e-01
9.439999999999999503e-01,-5.402526151922380782e-02,1.814424561774141409e-01,-1.523581170966137599e-01
9.449999999999999512e-01,-2.593524813738545820e-01,6.730374623923450483e-02,-8.465656682522715651e-03
9.459999999999999520e-01,-1.792055594577707522e-01,-1.811295255629307710e-01,1.071898025233327528e-01
9.469999999999999529e-01,1.132741207589923610e-01,-1.791936463127242196e-01,1.518906687334678207e-01
9.479999999999999538e-01,2.434370934726459990e-01,2.872414712987745016e-03,-1.347910201059974306e-02
9.489999999999999547e-01,1.269440417579015823e-01,1.786780556066703274e-01,-1.467540537461489158e-01
9.499999999999999556e-01,-1.559812658030604315e-01,1.409788596780207626e-01,-1.174420252056311287e-01
9.509999999999999565e-01,-2.379579552717726032e-01,-3.902967589521631753e-02,4.963080090892427881e-02
9.519999999999999574e-01,-7.093183417809255376e-02,-1.997626004205233785e-01,1.395793956044899531e-01
9.529999999999999583e-01,1.837308557041079926e-01,-1.103056674683990657e-01,1.010704353278789880e-01
9.539999999999999591e-01,2.307521863638018200e-01,6.361646740322361715e-02,-5.352412598691250883e-02
9.549999999999999600e-01,2.277662457804538465e-02,2.032189025409446848e-01,-1.494017545991569718e-01
9.559999999999999609e-01,-2.040558367768327830e-01,9.550669011737360214e-02,-9.342948955040811243e-02
9.569999999999999618e-01,-2.287791748821904336e-01,-9.859231783163058260e-02,9.286798616537388085e-02
9.579999999999999627e-01,1.121280262572271584e-02,-2.049498897912334638e-01,1.480432478977979360e-01
9.589999999999999636e-01,2.185431113654802138e-01,-5.836416062474105576e-02,8.480064062227979371e-02
9.599999999999999645e-01,2.025692401370150220e-01,1.498200532170061994e-01,-5.403862518058107078e-02
9.609999999999999654e-01,-5.370862640093827106e-02,1.964123967444696139e-01,-1.496911973322373191e-01
9.619999999999999662e-01,-2.413940646453649475e-01,5.804315149326754082e-03,-5.785589876050103303e-02
9.629999999999999671e-01,-1.514801716477553739e-01,-1.667442002640456833e-01,1.064795305824184218e-01
9.639999999999999680e-01,8.658159195328973823e-02,-1.559734189596214127e-01,1.669973048551704198e-01
9.649999999999999689e-01,2.428485537912166425e-01,1.468682432807292583e-02,2.196126541899329210e-02
9.659999999999999698e-01,1.316468559728313503e-01,1.769855213799756133e-01,-1.036363288199947108e-01
9.669999999999999707e-01,-1.435825202061303540e-01,1.347139191139858083e-01,-1.733752223402019454e-01
9.679999999999999716e-01,-2.368901034931261140e-01,-5.318518822267538637e-02,-1.235079822342438280e-02
9.689999999999999725e-01,-9.322977024735860929e-02,-1.852457120396703849e-01,1.098288678302765664e-01
9.699999999999999734e-01,1.500339798336681185e-01,-1.017040807080684256e-01,1.162097970289596438e-01
9.709999999999999742e-01,2.539173102580871144e-01,1.147955388037632668e-01,1.761902559396543062e-03
9.719999999999999751e-01,5.802715074085948443e-02,1.830941650749905447e-01,-1.413329509861728228e-01
9.729999999999999760e-01,-2.047470402152302416e-01,7.147630897828628760e-02,-1.111410570288620531e-01
9.739999999999999769e-01,-2.208352156659293408e-01,-1.345334249952906680e-01,2.013645076008449900e-02
9.749999999999999778e-01,-1.293015797681656975e-02,-2.048717863001260908e-01,1.362576803115207458e-01
9.759999999999999787e-01,1.889516476931203393e-01,-3.256383597403528229e-02,1.147219883523601797e-01
9.769999999999999796e-01,2.128723629406971130e-01,1.459741153350784248e-01,-2.999852804576581822e-02
9.779999999999999805e-01,-1.497588778861506931e-02,1.737829176679801524e-01,-1.337797079320762472e-01
9.789999999999999813e-01,-2.344492443033081852e-01,6.500546875055476272e-03,-7.617860168483200911e-02
9.799999999999999822e-01,-1.715856498768822402e-01,-1.470017970477196789e-01,5.084634597509041232e-02
9.809999999999999831e-01,5.319219540231549803e-02,-1.374502224257817540e-01,1.722860762108171240e-01
9.819999999999999840e-01,2.516575541607415922e-01,3.406585763126784849e-02,9.921807849434452486e-02
9.829999999999999849e-01,1.672819231856012001e-01,1.767323187038531696e-01,-8.728267440530958210e-02
9.839999999999999858e-01,-1.084202333310753108e-01,1.134961898525886081e-01,-1.365618776092195064e-01
9.849999999999999867e-01,-2.708574019921379250e-01,-7.481291772708376087e-02,-6.015661539925055978e-02
9.859999999999999876e-01,-1.227974586771442417e-01,-1.899354209603188737e-01,6.514442953796380220e-02
9.869999999999999885e-01,1.210104511321957871e-01,-1.182931596341056102e-01,1.490344273583625034e-01
9.879999999999999893e-01,2.472235550168092877e-01,1.070964781376065184e-01,-6.160208799403712847e-03
9.889999999999999902e-01,5.368644175912393179e-02,1.943479786376877960e-01,-9.337438686476735861e-02
9.899999999999999911e-01,-2.142443442227275618e-01,7.125175041968348499e-02,-1.439783451965372385e-01
9.909999999999999920e-01,-2.355941675631924859e-01,-1.302506516889202215e-01,-2.804278554170320376e-02
9.919999999999999929e-01,-3.846099208611006987e-02,-1.790723304177016528e-01,1.566523500814634984e-01
9.929999999999999938e-01,2.031024639479474536e-01,1.576790777459474366e-02,1.116990194809751730e-01
9.939999999999999947e-01,2.108139202552213320e-01,1.665088961018433011e-01,1.231766762892490090e-02
9.949999999999999956e-01,-1.371103188437540346e-03,1.637284758742312829e-01,-1.325414018234407909e-01
9.959999999999999964e-01,-2.408423644837026367e-01,-7.555980459720832917e-03,-1.027513787412167312e-01
9.969999999999999973e-01,-2.352432196146079235e-01,-1.697728777368137376e-01,6.249026593150089348e-03
9.979999999999999982e-01,2.533600542353476107e-02,-1.527807805600982782e-01,1.594582386826998432e-01
9.989999999999999991e-01,2.109755658438923487e-01,4.584705524868530613e-02,1.209718505466468447e-01
1.000000000000000000e+00,1.614240509405546753e-01,1.841569538290143970e-01,-4.971442195182177587e-02
1.000999999999999890e+00,-1.004388310130762546e-01,1.138753756241207976e-01,-1.366365811400800379e-01
1.002000000000000002e+00,-2.396326901777384444e-01,-1.107780965933320566e-01,-8.480488270413499841e-02
1.002999999999999892e+00,-1.381313044944954271e-01,-1.967978341073559068e-01,4.402736790340896350e-02
1.004000000000000004e+00,1.319241495490208194e-01,-1.071282324074870895e-01,1.264725926233077058e-01
1.004999999999999893e+00,2.085974376237933470e-01,9.850140299435007629e-02,6.041330668634432161e-02
1.006000000000000005e+00,9.724172705746260414e-02,1.637751706034401011e-01,-6.331791677071882396e-02
1.006999999999999895e+00,-1.580885661558772137e-01,5.470834229198359017e-02,-1.648426071613902644e-01
1.008000000000000007e+00,-2.333971314262195118e-01,-1.754518156007436880e-01,-3.475263944444029890e-02
1.008999999999999897e+00,-2.793446649375142671e-02,-1.921552611856033321e-01,6.818665817277207164e-02
1.010000000000000009e+00,1.830364756961914141e-01,-5.330567064923289432e-03,1.475115102881850160e-01
1.010999999999999899e+00,2.377327173315738618e-01,1.566579013416043165e-01,3.752436826114555896e-02
1.012000000000000011e+00,-4.037441630595373782e-03,1.446567873406793547e-01,-7.855823214600322901e-02
1.012999999999999901e+00,-2.126756258631319341e-01,-3.664663631348900191e-02,-1.264147294418562495e-01
1.014000000000000012e+00,-1.801615856166988439e-01,-2.103357517040852775e-01,-8.003866553940188963e-03
1.014999999999999902e+00,1.972477228882413280e-02,-1.627210358973468773e-01,1.166350982183698703e-01
1.016000000000000014e+00,2.345035991714071177e-01,6.975796271587665631e-02,1.287344930638838481e-01
1.016999999999999904e+00,1.779653863881648368e-01,1.829332152747231710e-01,5.629300982686602506e-03
1.018000000000000016e+00,-6.108471035302184826e-02,7.929475076413074197e-02,-1.087649510564266814e-01
1.018999999999999906e+00,-2.538261024659836940e-01,-8.448637998178754049e-02,-1.182298709129363107e-01
1.020000000000000018e+00,-1.338490467945450679e-01,-1.918657955597377895e-01,1.515935017577122422e-02
1.020999999999999908e+00,8.826456992758614784e-02,-6.302255730539611800e-02,1.101169171039330374e-01
1.022000000000000020e+00,2.662429425481430134e-01,1.215663018745344603e-01,9.452310836681636352e-02
1.022999999999999909e+00,1.241348291241692742e-01,1.769685584991146921e-01,-6.161468262241656668e-02
1.024000000000000021e+00,-1.407950895223037124e-01,2.817789420829016830e-02,-1.246648700349834854e-01
1.024999999999999911e+00,-2.499651617618300625e-01,-1.646251131906980025e-01,-8.277911469359663932e-02
1.026000000000000023e+00,-7.676478139405470968e-02,-1.780534049510610339e-01,4.979665439381571884e-02
1.026999999999999913e+00,2.002866933244476233e-01,7.644634623139271931e-03,1.311158288089105117e-01
1.028000000000000025e+00,2.404114967378257472e-01,1.702822242137446151e-01,7.612317936736265334e-02
1.028999999999999915e+00,6.302883978190486347e-02,1.744771415021327543e-01,-5.404159632452586182e-02
1.030000000000000027e+00,-1.776629780653306845e-01,-5.516691818373031797e-02,-1.829637582674012719e-01
1.030999999999999917e+00,-2.384253240901332005e-01,-1.919263659260693478e-01,-5.707210558761370567e-02
1.032000000000000028e+00,4.364099001842984722e-03,-1.060948402629616344e-01,9.447256065906557698e-02
1.032999999999999918e+00,2.357434374941194677e-01,7.169344583534165150e-02,1.535461829731651906e-01
1.034000000000000030e+00,1.879876001062376067e-01,1.996986026701808303e-01,4.001512539324435236e-02
1.034999999999999920e+00,-4.308704512993806468e-02,7.292545049585193173e-02,-1.192686726405825098e-01
1.036000000000000032e+00,-2.272532861404055748e-01,-1.244094404525620950e-01,-1.152233761757100738e-01
1.036999999999999922e+00,-1.720771485163697656e-01,-1.726886447550574633e-01,-5.437785479924995419e-02
1.038000000000000034e+00,8.969553337066320242e-02,-5.834529177884115181e-02,9.452082306403655765e-02
1.038999999999999924e+00,2.655289150612266114e-01,1.328283623715376116e-01,1.362676641682091239e-01
1.040000000000000036e+00,1.394850798096578803e-01,1.489480680257066758e-01,-1.874643772368013439e-02
1.040999999999999925e+00,-8.879403885586559242e-02,-6.770879847958220831e-04,-9.658013389095176926e-02
1.042000000000000037e+00,-2.541871928978434170e-01,-1.807446977597212401e-01,-1.234407620663071636e-01
1.042999999999999927e+00,-1.041873678670121178e-01,-1.795190219867735804e-01,-3.002189087516084383e-03
1.044000000000000039e+00,1.467670708852618078e-01,1.274075747140843498e-02,1.241745171230876493e-01
1.044999999999999929e+00,2.410338084281683224e-01,1.504755356360970298e-01,1.353269133725601703e-01
1.046000000000000041e+00,3.510242813871905510e-02,1.302863181084010225e-01,-1.945226353259352572e-02
1.046999999999999931e+00,-1.749752755321443698e-01,-8.016377855251656526e-02,-1.198324536573047855e-01
1.048000000000000043e+00,-2.156640756490521560e-01,-2.177849146157950777e-01,-9.147268003678327153e-02
1.048999999999999932e+00,3.933945278537385321e-03,-9.807479000936002167e-02,5.102968575546115715e-02
1.050000000000000044e+00,2.292507619061100455e-01,7.723388953806475943e-02,1.246755446746417029e-01
1.050999999999999934e+00,2.222476747892849769e-01,2.215834694369935021e-01,9.629067982329464481e-02
1.052000000000000046e+00,-4.669104293425135194e-03,6.819207914534250459e-02,-8.413376274878198169e-02
1.052999999999999936e+00,-2.151998201881831219e-01,-1.229169085159863978e-01,-1.516411070878073697e-01
1.054000000000000048e+00,-1.728276155033501849e-01,-1.726317833352367936e-01,-5.735468084895097712e-02
1.054999999999999938e+00,5.917506492884533342e-02,-1.699208334460209149e-02,7.572925512644400337e-02
1.056000000000000050e+00,2.228794185771272307e-01,1.842047563937874444e-01,1.222667773177140982e-01
1.056999999999999940e+00,1.629972142691941406e-01,1.845879966406148709e-01,4.907217443959821512e-02
1.058000000000000052e+00,-1.000580510573337994e-01,6.945987154944692314e-03,-8.845451246802724099e-02
1.058999999999999941e+00,-2.449029893384467305e-01,-1.806727351217057298e-01,-1.532429649750502443e-01
1.060000000000000053e+00,-1.312652935996444781e-01,-1.530609480928490918e-01,-5.259898814501189762e-02
1.060999999999999943e+00,1.274108835311804633e-01,3.945369644468960796e-02,9.718832299536385444e-02
1.062000000000000055e+00,2.436870961708427763e-01,1.850155166121576211e-01,1.449265942670215079e-01
1.062999999999999945e+00,9.491615364188139836e-02,1.357068841833986850e-01,-6.073925761405285159e-03
1.064000000000000057e+00,-1.937343475465361509e-01,-8.630160842161195556e-02,-1.518172381808516880e-01
1.064999999999999947e+00,-2.597757342650816592e-01,-1.946208253078952621e-01,-9.567654882004464345e-02
1.066000000000000059e+00,-5.093235435297905483e-02,-1.008540526162307743e-01,-1.742143007408044264e-03
1.066999999999999948e+00,2.338694812279001611e-01,1.251448745867497492e-01,1.443101481295065436e-01
1.068000000000000060e+00,2.259828587592927485e-01,1.668028879917471397e-01,1.004499616006100382e-01
1.068999999999999950e+00,8.070492448781966741e-03,5.397220378951573388e-02,-1.498626981182066449e-02
1.070000000000000062e+00,-2.168375868392335148e-01,-1.450951446599358929e-01,-1.511546368784218719e-01
1.070999999999999952e+00,-2.103497625998602960e-01,-1.819647565806412071e-01,-9.181164870661118194e-02
1.072000000000000064e+00,3.365588901905318397e-02,-2.032226966524448494e-02,4.350962144345205118e-02
1.072999999999999954e+00,2.119044023727066350e-01,1.614461511550129569e-01,1.513007236990576987e-01
1.074000000000000066e+00,1.820604183309695312e-01,1.593391302429953416e-01,7.539134053479094877e-02
1.074999999999999956e+00,-8.427493285363213404e-02,1.860948400646719042e-02,-8.203302105116870580e-02
1.076000000000000068e+00,-2.135527741675356528e-01,-1.992648003854748107e-01,-1.244639186581734114e-01
1.076999999999999957e+00,-1.359621979803009584e-01,-1.508265961848576087e-01,-4.592762353659411712e-02
1.078000000000000069e+00,1.061778092548294056e-01,5.589438412794080907e-02,6.264512254672049973e-02
1.078999999999999959e+00,2.427696717887683764e-01,1.989575241205711886e-01,1.263965696049928200e-01
1.080000000000000071e+00,1.341214596651348345e-01,1.106001634780413023e-01,5.687515118084573301e-02
1.080999999999999961e+00,-1.341109074790246547e-01,-1.153469009344517543e-01,-7.244556741601183847e-02
1.082000000000000073e+00,-2.345537135222953984e-01,-1.982146898000779756e-01,-1.490466547120591623e-01
1.082999999999999963e+00,-6.786152276076470868e-02,-6.647552878427913370e-02,-2.407270223083504343e-02
1.084000000000000075e+00,1.713237409649999432e-01,1.413081652024502366e-01,1.086711944077583120e-01
1.084999999999999964e+00,2.529717958480892093e-01,1.876152327123007946e-01,1.570433435913007603e-01
1.086000000000000076e+00,2.102787871773535711e-02,-1.816679588008142474e-03,-8.504266535011909683e-03
1.086999999999999966e+00,-1.998161595411440672e-01,-1.460341922646258006e-01,-1.507581640722401584e-01
1.088000000000000078e+00,-2.245046065745544828e-01,-1.671001203229685039e-01,-1.167833719830961431e-01
1.088999999999999968e+00,1.117971231808003243e-02,1.109011538527057521e-02,-1.429343406264271463e-02
1.090000000000000080e+00,2.183210853108784877e-01,1.724009807832652674e-01,1.224925683553388933e-01
1.090999999999999970e+00,1.872333998666631250e-01,1.175477728388066023e-01,1.278060435099059033e-01
1.092000000000000082e+00,-8.791309194125830617e-02,-5.916347364775410150e-02,-3.926462663650739926e-02
1.092999999999999972e+00,-2.342907357884256581e-01,-1.826770737492847407e-01,-1.513752273134806592e-01
1.094000000000000083e+00,-1.659264615096817941e-01,-9.866203931627205714e-02,-6.611062122303322519e-02
1.094999999999999973e+00,7.341444043746522818e-02,7.212782001282579125e-02,6.052610357661818846e-02
1.096000000000000085e+00,2.551678044932275680e-01,1.762790549810952512e-01,1.221670081409680919e-01
1.096999999999999975e+00,1.465372035980444521e-01,8.716164864446655780e-02,8.263232263495631780e-02
1.098000000000000087e+00,-1.180903023396610574e-01,-1.059518176602726180e-01,-6.392812520018642530e-02
1.098999999999999977e+00,-2.294076503140494716e-01,-2.145594847353362311e-01,-1.409727030672552062e-01
1.100000000000000089e+00,-8.945726244470285360e-02,-5.193624321633686508e-02,-8.210429755660324236e-02
1.100999999999999979e+00,1.525365633349874406e-01,1.506001109569347907e-01,9.149926287013296355e-02
1.102000000000000091e+00,2.154374179634482300e-01,1.937554476245503809e-01,1.297590369524150578e-01
1.102999999999999980e+00,6.549161802391956222e-02,3.725347422988274648e-02,2.470646981452837357e-02
1.104000000000000092e+00,-1.843127081044349802e-01,-1.693414731689101282e-01,-1.402241223784450597e-01
1.104999999999999982e+00,-2.251823544253132303e-01,-1.742216597919369059e-01,-1.232827588675596275e-01
1.106000000000000094e+00,-2.171773273185577044e-02,1.549555325182552269e-02,-3.637617400727220784e-02
1.106999999999999984e+00,2.400067371141970662e-01,1.862023866779674852e-01,1.255103434663237538e-01
1.108000000000000096e+00,2.348406750994876668e-01,1.482958135509818975e-01,1.356825276055736440e-01
1.108999999999999986e+00,-3.455937701133921652e-02,-6.709849151307839543e-02,4.513001333795069701e-03
1.110000000000000098e+00,-2.303917231338377114e-01,-2.101449870272215081e-01,-1.345244041253928213e-01
1.110999999999999988e+00,-1.826675310093379134e-01,-9.819934694820067755e-02,-1.084840221552861861e-01
1.112000000000000099e+00,6.170383030196147089e-02,9.891527815928802259e-02,-7.066008164345819430e-03
1.112999999999999989e+00,2.625211724052801676e-01,2.015211146749225912e-01,1.433854797519440172e-01
1.114000000000000101e+00,1.719206049795265756e-01,8.871205288076718098e-02,1.248104311541438222e-01
1.114999999999999991e+00,-1.160514095221591019e-01,-1.141898641075767967e-01,-2.268923261045965867e-02
1.116000000000000103e+00,-2.504252223985241610e-01,-1.756837226739698943e-01,-1.306875268663184042e-01
1.116999999999999993e+00,-1.069721190943686701e-01,-5.534426222202008805e-02,-1.310836194449031822e-01
1.118000000000000105e+00,1.529138610404575660e-01,1.761130211017746805e-01,3.147807937686856322e-02
1.118999999999999995e+00,2.440637107511641757e-01,1.515463335923923349e-01,1.502978695348631266e-01
1.120000000000000107e+00,7.042388872324287230e-02,2.113938934052464382e-03,7.979420605259064658e-02
1.120999999999999996e+00,-1.670267627330228877e-01,-1.683090966124110299e-01,-6.336104047960307295e-02
1.122000000000000108e+00,-2.253763033471408717e-01,-1.488182454707331070e-01,-1.602742151443062313e-01
1.122999999999999998e+00,-4.563594737402155294e-02,1.212109554109156752e-02,-6.475202349117109568e-02
1.124000000000000110e+00,1.849462877790024606e-01,1.855604651494723312e-01,7.754878963648163814e-02
1.125000000000000000e+00,2.353581003262090465e-01,1.048649934087308444e-01,1.667058055920363491e-01
1.125999999999999890e+00,-1.268830513601207225e-03,-8.373939829403857782e-02,5.188844339819420615e-02
1.127000000000000002e+00,-2.323462166541275797e-01,-2.028685445165717693e-01,-1.009236775168076555e-01
1.127999999999999892e+00,-2.215232748319996281e-01,-1.127706477451156791e-01,-1.678555787882944073e-01
1.129000000000000004e+00,3.245788309096944713e-02,1.079614775530949311e-01,-3.280306336861876088e-02
1.129999999999999893e+00,2.206074212303901494e-01,1.916260910194526046e-01,8.669315373683243731e-02
1.131000000000000005e+00,1.792908703900612244e-01,8.203715634257467693e-02,1.449566544543487434e-01
1.131999999999999895e+00,-7.918004536367136137e-02,-1.343613535964825190e-01,2.852549225995424168e-02
1.133000000000000007e+00,-2.630748795169865484e-01,-1.791783496402443165e-01,-9.827969130826028077e-02
1.133999999999999897e+00,-1.564768181690198157e-01,-3.810080131763647626e-02,-1.355050878875734555e-01
1.135000000000000009e+00,1.295781072747001494e-01,1.596748357065224388e-01,3.039942853175917753e-02
1.135999999999999899e+00,2.336875794580424437e-01,1.662361320206775239e-01,1.362911197240480876e-01
1.137000000000000011e+00,7.567995051794632055e-02,-2.924251088515818567e-02,1.140318714061378247e-01
1.137999999999999901e+00,-1.701730011465481252e-01,-2.003973528654277581e-01,-2.522028331887199090e-02
1.139000000000000012e+00,-2.391925806374342323e-01,-1.433403750743717509e-01,-1.517385711579637142e-01
1.139999999999999902e+00,-4.506199071833606740e-02,5.410676466367783655e-02,-1.131837708736075504e-01
1.141000000000000014e+00,1.749297038784818348e-01,1.696103192362506673e-01,2.131430563370731099e-02
1.141999999999999904e+00,2.203281415880607164e-01,1.032691496547729348e-01,1.770224874717497010e-01
1.143000000000000016e+00,2.234732452340769046e-02,-1.021283223780164728e-01,6.888377286722675852e-02
1.143999999999999906e+00,-2.354287102278539157e-01,-1.849850268794563102e-01,-8.617237006074648931e-02
1.145000000000000018e+00,-2.275548337804408072e-01,-1.036223544242339117e-01,-1.341877252966980627e-01
1.145999999999999908e+00,1.171798956818033248e-02,1.131970245763875144e-01,-6.997346406910802397e-02
1.147000000000000020e+00,2.223851257300393791e-01,1.860117151932729751e-01,6.812006791214934853e-02
1.147999999999999909e+00,1.762341214993210226e-01,5.680428240839646009e-02,1.437861376454376006e-01
1.149000000000000021e+00,-5.333963688825826832e-02,-1.525488358214531770e-01,7.610373722648122730e-02
1.149999999999999911e+00,-2.624896474895935805e-01,-1.846782299038079167e-01,-8.716245471880382234e-02
1.151000000000000023e+00,-1.576773784762408037e-01,-1.560859725452002885e-03,-1.225188697033161023e-01
1.151999999999999913e+00,7.862511778374221827e-02,2.167684893866911877e-01,-3.411086236775994623e-02
1.153000000000000025e+00,2.456280741451379313e-01,1.766328020723481051e-01,1.079571020078568949e-01
1.153999999999999915e+00,1.078431447099783835e-01,-1.247578596452102520e-02,1.398447303285240417e-01
1.155000000000000027e+00,-1.283897925330707013e-01,-1.853188536396766228e-01,1.425846310605046428e-02
1.155999999999999917e+00,-2.485341614049094150e-01,-1.287895324696766708e-01,-1.357673938971479810e-01
1.157000000000000028e+00,-1.106846517937163932e-01,8.851811283439353639e-02,-1.159051304010101091e-01
1.157999999999999918e+00,1.496408065233604812e-01,1.854562242147590467e-01,1.181163895522905315e-02
1.159000000000000030e+00,2.218511853335069506e-01,9.202750583800942130e-02,1.420255132804075504e-01
1.159999999999999920e+00,2.688016703686381056e-02,-1.069311756572621647e-01,1.367744994904133149e-01
1.161000000000000032e+00,-1.912050164814557973e-01,-1.806061008451758654e-01,-3.848050718295050604e-02
1.161999999999999922e+00,-2.081270224107905076e-01,-6.605175548643410499e-02,-1.264156129052749766e-01
1.163000000000000034e+00,-1.539607661673689926e-04,1.494051166794463925e-01,-1.043745501819811211e-01
1.163999999999999924e+00,1.782182138016256689e-01,2.006849662050233796e-01,4.704374132897978095e-02
1.165000000000000036e+00,1.921655898872622059e-01,3.302868263574406521e-02,1.275886753769509274e-01
1.165999999999999925e+00,-3.283803611070924833e-02,-1.601924774669619411e-01,1.070969588237634662e-01
1.167000000000000037e+00,-2.250113305751789139e-01,-1.606012374509370455e-01,-6.545743134493388349e-02
1.167999999999999927e+00,-1.822686292173164302e-01,-8.655203150533467837e-03,-1.413687149236574625e-01
1.169000000000000039e+00,6.505292687648563110e-02,1.768969860656014470e-01,-9.145174956610556405e-02
1.169999999999999929e+00,2.220064031220997380e-01,1.491106047813680890e-01,6.632666172358579748e-02
1.171000000000000041e+00,1.536542264686654446e-01,-1.704493967798815721e-02,1.417665749543406684e-01
1.171999999999999931e+00,-1.291903027842594143e-01,-2.101778809956849348e-01,4.032678069638623297e-02
1.173000000000000043e+00,-2.439392035537423509e-01,-1.141354467700315678e-01,-6.296960753102068264e-02
1.173999999999999932e+00,-1.140381768286676256e-01,7.199497752503347670e-02,-1.347513891127601060e-01
1.175000000000000044e+00,1.365836242229326869e-01,2.140934063473102777e-01,-4.975052112133089566e-02
1.175999999999999934e+00,2.540674507476203270e-01,7.060700147552817496e-02,1.101685203039322464e-01
1.177000000000000046e+00,7.460145696993257525e-02,-1.226528653339894886e-01,1.456637588783241954e-01
1.177999999999999936e+00,-1.731668473232386429e-01,-2.016416904234746010e-01,9.445625003752381246e-03
1.179000000000000048e+00,-2.370562237200620204e-01,-5.819368611132705316e-02,-1.259060270640835755e-01
1.179999999999999938e+00,-2.852253348532291996e-02,1.368211480072141772e-01,-9.360122080910533715e-02
