time,acc_x,acc_y,acc_z
0.000000000000000000e+00,4.040798847694409557e-01,3.297850469486034442e-01,2.527953146295624509e-01
1.000000000000000021e-03,2.810160392058697054e-01,1.742828481669419505e-01,1.903461164078439072e-01
2.000000000000000042e-03,-1.641563504927985861e-01,-1.471010642522793399e-01,-4.582222389698860365e-02
3.000000000000000062e-03,-3.697513065020959222e-01,-2.815574018178072513e-01,-2.286399625090460297e-01
4.000000000000000083e-03,-1.303886503928932961e-01,-6.868870024639971150e-02,-1.352294164999647830e-01
5.000000000000000104e-03,1.932625012291021016e-01,1.924489179043337994e-01,8.555897687432621745e-02
6.000000000000000125e-03,2.508312753876715262e-01,1.936236499780731868e-01,1.699898538919488167e-01
7.000000000000000146e-03,2.426937391897715512e-02,-1.847997459246112500e-02,7.229812503555944903e-02
8.000000000000000167e-03,-1.892272935921004151e-01,-1.622527579885266191e-01,-8.642437097639706078e-02
8.999999999999999320e-03,-1.657236013744061431e-01,-5.701919148827828965e-02,-1.181461674977180437e-01
1.000000000000000021e-02,3.420116463175461308e-02,8.273808616023399509e-02,-1.945785796537262695e-04
1.099999999999999936e-02,1.525929703886117483e-01,6.630043326046071439e-02,1.190505560214795422e-01
1.200000000000000025e-02,-2.557173437827739600e-03,-3.377409297421892637e-02,5.065831948952311675e-02
1.299999999999999940e-02,-9.498044194530964879e-02,-1.216690814163789991e-01,-6.230058682845501794e-02
1.400000000000000029e-02,-6.737224394671190164e-02,-1.433242560353147586e-02,-4.771434619489773460e-02
1.499999999999999944e-02,6.944768857742297796e-02,1.142224207874904252e-01,1.643968792449789981e-02
1.600000000000000033e-02,1.074484656186184273e-01,4.783752132901088888e-02,8.142567474892965784e-02
1.700000000000000122e-02,-3.593264315264892150e-02,-8.589611091407835242e-02,3.016891559042158763e-02
1.799999999999999864e-02,-1.752962036130425727e-01,-1.349703460407583322e-01,-9.107398738885716383e-02
1.899999999999999953e-02,-4.452078001572042087e-02,6.287543823088138917e-02,-7.537065805114023798e-02
2.000000000000000042e-02,2.025082362931282798e-01,2.335473618094916493e-01,5.487000748965900621e-02
2.100000000000000130e-02,2.381766094124206368e-01,1.323868156164129950e-01,1.266484649422077724e-01
2.199999999999999872e-02,-2.403285290385483858e-02,-9.698958565288896827e-02,2.980169223882657079e-02
2.299999999999999961e-02,-3.527062763029429338e-01,-2.512544497417958933e-01,-1.287678483603477975e-01
2.400000000000000050e-02,-2.195432269712501994e-01,-5.083254461100045196e-02,-1.473451313831184717e-01
2.500000000000000139e-02,1.572942655134501599e-01,2.466116362510246407e-01,4.193613988266788398e-03
2.599999999999999881e-02,3.872939729043747281e-01,2.832039168365128590e-01,2.036054819369159663e-01
2.699999999999999969e-02,1.837786350156377368e-01,4.832937482009526733e-03,1.602572974083890656e-01
2.800000000000000058e-02,-2.633952778819608209e-01,-3.368186240237235896e-01,-6.930768639510954954e-02
2.900000000000000147e-02,-4.550494199020423403e-01,-2.564326860823644139e-01,-2.326230991075904642e-01
2.999999999999999889e-02,-7.335075242867761247e-02,1.219190236121339560e-01,-1.436454056442135752e-01
3.099999999999999978e-02,3.941271158473231839e-01,3.667961098755459504e-01,1.366578086879632059e-01
3.200000000000000067e-02,4.209847714589490808e-01,2.280839402143744754e-01,3.028566008737501591e-01
3.300000000000000155e-02,-5.075817812977218013e-02,-2.089679934939644157e-01,1.207127478828270151e-01
3.400000000000000244e-02,-5.002750932337588496e-01,-3.653754132601648164e-01,-1.894083597346747361e-01
3.500000000000000333e-02,-3.446187077986055391e-01,-1.302484054993811313e-01,-3.092962456572965757e-01
3.599999999999999728e-02,1.642934007982993494e-01,2.947942200017668601e-01,-7.330629107756279905e-02
3.699999999999999817e-02,5.447444290518885790e-01,3.755247034308143994e-01,2.258732585053059017e-01
3.799999999999999906e-02,2.769928304558756937e-01,2.665116319801296221e-02,2.652311346509686474e-01
3.899999999999999994e-02,-2.611028171661565200e-01,-3.602088218404987940e-01,2.088223530808820325e-02
4.000000000000000083e-02,-5.131653203613883996e-01,-2.811862302584669515e-01,-2.350785725215774058e-01
4.100000000000000172e-02,-1.647482640621976691e-01,8.326384448807841454e-02,-2.249967228312713674e-01
4.200000000000000261e-02,3.265791667707930168e-01,3.928996814357341716e-01,4.911668928562351599e-02
4.299999999999999656e-02,4.630961682715030170e-01,2.126284222406047975e-01,2.833733290323964815e-01
4.399999999999999745e-02,3.987397980073850712e-02,-1.890988125082309346e-01,1.801726642190118188e-01
4.499999999999999833e-02,-3.472534781107451396e-01,-3.679284884694719593e-01,-1.017630717036618754e-01
4.599999999999999922e-02,-3.479039628081089242e-01,-1.142389560579723795e-01,-2.796523596201286321e-01
4.700000000000000011e-02,3.790547835110573416e-02,2.333150311600604987e-01,-1.222721246027209108e-01
4.800000000000000100e-02,3.425059749836651402e-01,2.642746404871393895e-01,1.152086498702560857e-01
4.900000000000000189e-02,2.074835739930248890e-01,1.232324750978913697e-02,2.355022666036360457e-01
5.000000000000000278e-02,-1.444922776377214058e-01,-1.907025130616084585e-01,4.621985230902062730e-02
5.099999999999999672e-02,-2.753625607933945507e-01,-1.399994852091642483e-01,-1.489187548729905275e-01
5.199999999999999761e-02,-1.294459166961329233e-01,8.339612918215973114e-02,-1.652327350814656315e-01
5.299999999999999850e-02,1.372679557468470535e-01,1.427319837933789248e-01,-1.819142136588501515e-03
5.399999999999999939e-02,2.075418718098865078e-01,5.531811518869603206e-02,1.275251107597835942e-01
5.500000000000000028e-02,-1.580253274997438229e-02,-9.682831691762075477e-02,1.131799118590656045e-01
5.600000000000000117e-02,-1.374897683777473456e-01,-1.118196365407173598e-01,-4.235465701927352417e-02
5.700000000000000205e-02,-9.262811614684983430e-02,3.524511707734991756e-02,-9.055725377147813560e-02
5.800000000000000294e-02,6.531667112698785749e-02,6.576293611401355654e-02,-3.307223185562771506e-02
5.899999999999999689e-02,1.013608470166122572e-01,-1.596166070480921698e-02,7.513178008884781323e-02
5.999999999999999778e-02,-5.534721803749668295e-02,-8.174138109167133903e-02,4.341685674255065658e-02
6.099999999999999867e-02,-1.286269947214702669e-01,-1.188510184609682619e-03,-4.033928137029098304e-02
6.199999999999999956e-02,3.879439409246400461e-02,1.099571561243012363e-01,-5.086443755311870207e-02
6.300000000000000044e-02,1.291933005308320559e-01,1.026535073301036993e-01,-2.085098843567591634e-02
6.400000000000000133e-02,8.975337489915193034e-02,-5.549054836624399412e-02,5.796965609407052356e-02
6.500000000000000222e-02,-1.597815500299274161e-01,-1.779579660957930909e-01,4.255804732774661620e-02
6.600000000000000311e-02,-2.219933286272963990e-01,-8.651888812548409746e-02,-1.023318351311795771e-01
6.700000000000000400e-02,-6.059615120348318257e-02,1.947578164206573981e-01,-1.090918613365116641e-01
6.800000000000000488e-02,2.332101539772684917e-01,2.493545830553680898e-01,3.402317384428110714e-02
6.900000000000000577e-02,2.855384190606415351e-01,1.396315032830779297e-03,1.612394904028540965e-01
7.000000000000000666e-02,-6.529454791889117982e-02,-2.785283404783072125e-01,1.227551757286577255e-01
7.099999999999999367e-02,-3.609920545985415008e-01,-2.652279551100180099e-01,-6.091715252323118279e-02
7.199999999999999456e-02,-2.169509826626888627e-01,9.902849930080324936e-02,-2.309444039841498375e-01
7.299999999999999545e-02,2.017753155947305810e-01,3.438521140495973683e-01,-8.632545149168983911e-02
7.399999999999999634e-02,4.327148710143046695e-01,2.121770819439892375e-01,1.607008640244561859e-01
7.499999999999999722e-02,1.823767620712460902e-01,-2.081236165636585200e-01,2.512705127951135875e-01
7.599999999999999811e-02,-3.201663475573420237e-01,-3.961160982968555677e-01,8.109791322849142781e-02
7.699999999999999900e-02,-4.807394137783083110e-01,-1.099254124034500374e-01,-2.263281981471234883e-01
7.799999999999999989e-02,-7.402593739308441223e-02,2.946675907551405404e-01,-2.617268390642618625e-01
7.900000000000000078e-02,4.347253079865524006e-01,3.828234832637343876e-01,-1.598244289081911934e-02
8.000000000000000167e-02,4.710976655254095480e-01,2.297477253709842918e-02,2.495086607471003470e-01
8.100000000000000255e-02,-2.372819937106008734e-02,-3.597417465801208136e-01,2.379227782841377981e-01
8.200000000000000344e-02,-4.949596408037535422e-01,-3.419483961211571277e-01,-4.577482548474875318e-02
8.300000000000000433e-02,-4.025791441732767817e-01,7.911682406551057145e-02,-2.784774113733595735e-01
8.400000000000000522e-02,1.168782459387028017e-01,3.699001120947673638e-01,-2.047959917058639612e-01
8.500000000000000611e-02,5.001079428465493582e-01,2.687146478564284569e-01,9.847571887316801387e-02
8.599999999999999312e-02,2.888352997532024902e-01,-1.954079813877413752e-01,3.171047945977831239e-01
8.699999999999999400e-02,-2.791796505829856612e-01,-3.536126015183200799e-01,1.753945558581972430e-01
8.799999999999999489e-02,-5.059599109289856234e-01,-1.704357846484214067e-01,-1.502424757770237096e-01
8.899999999999999578e-02,-1.646857882424399011e-01,2.651678762718747695e-01,-2.788052532489883606e-01
8.999999999999999667e-02,3.158329077740985591e-01,2.844822358516697069e-01,-1.133505545693103966e-01
9.099999999999999756e-02,4.071438503247882257e-01,2.091227199256607758e-02,1.865516563844219211e-01
9.199999999999999845e-02,2.173153693516537838e-02,-2.894823687451508754e-01,2.491883177795387871e-01
9.299999999999999933e-02,-3.444998803912643903e-01,-2.127441053058572173e-01,5.229697219239835826e-02
9.400000000000000022e-02,-2.975042397417267392e-01,6.759524229118722694e-02,-1.943554701798864137e-01
9.500000000000000111e-02,5.461287240643689089e-02,2.173476830127896442e-01,-1.780501356097412280e-01
9.600000000000000200e-02,2.900239148723602334e-01,1.040935789943448625e-01,5.577712222340487462e-03
9.700000000000000289e-02,1.747510075068526292e-01,-8.087737494549630812e-02,1.909350116233791972e-01
9.800000000000000377e-02,-1.151593043614167755e-01,-1.783966233561150583e-01,1.393118287631648355e-01
9.900000000000000466e-02,-2.285654718912949468e-01,1.623979094274663817e-02,-7.428552216941745889e-02
1.000000000000000056e-01,-2.770920102368604893e-02,1.111108094830747101e-01,-1.276226593765874551e-01
1.010000000000000064e-01,1.232640691961659207e-01,5.647820301881213700e-02,-1.004059100323492250e-02
1.019999999999999934e-01,1.198601971426703910e-01,-6.022633172277766511e-02,8.220930238602722206e-02
1.029999999999999943e-01,-4.366390915578034770e-02,-9.800392503640835418e-02,1.273253752402057626e-01
1.039999999999999952e-01,-7.605332841797154964e-02,4.204892246395774275e-02,-1.535878545423378580e-02
1.049999999999999961e-01,1.423687896039454483e-02,7.919463604562648751e-02,-6.719669218276551337e-02
1.059999999999999970e-01,1.280666982881491223e-01,-4.417175899866293554e-02,-4.743105654032445800e-02
1.069999999999999979e-01,1.955768641160951157e-02,-1.380866792891903005e-01,8.017709680343883261e-02
1.079999999999999988e-01,-1.321690929112813162e-01,-7.034493193042137826e-02,7.826410520548530980e-02
1.089999999999999997e-01,-1.119226995928259416e-01,1.132107974652890453e-01,-5.289741321337283753e-02
1.100000000000000006e-01,9.194733353483025562e-02,2.266368313868394879e-01,-7.286355686276653476e-02
1.110000000000000014e-01,2.210254326293919769e-01,2.880058065093791739e-02,2.780593261964697262e-04
1.120000000000000023e-01,8.853433964937267031e-02,-2.150180312307993225e-01,1.262038316031031671e-01
1.130000000000000032e-01,-2.100159393041166611e-01,-2.273918105381739219e-01,1.027325941168867190e-01
1.140000000000000041e-01,-3.148831055407699808e-01,6.650746724602837889e-02,-6.542315570912564382e-02
1.150000000000000050e-01,-2.944502303293569830e-03,3.317861912836319038e-01,-1.668049766663425304e-01
1.160000000000000059e-01,2.885211127393890185e-01,1.746311225362840447e-01,-7.160266025044681459e-02
1.170000000000000068e-01,3.165820464211821506e-01,-1.881559961956029703e-01,1.482279809167897089e-01
1.179999999999999938e-01,-1.043194700120097795e-01,-3.287623985841386931e-01,2.007548340131917186e-01
1.189999999999999947e-01,-4.283314728157318063e-01,-1.257376791202021449e-01,4.117868410426096110e-02
1.199999999999999956e-01,-2.873752873874693137e-01,2.914596884039250546e-01,-1.823928668450533752e-01
1.209999999999999964e-01,2.129718438131680824e-01,3.599055720825826143e-01,-2.314653420148743146e-01
1.219999999999999973e-01,4.561338435914787937e-01,5.770095796392682094e-03,-7.147152629787070950e-03
1.229999999999999982e-01,1.876312640410544852e-01,-3.412147781092162990e-01,2.695391063255812014e-01
1.239999999999999991e-01,-3.393660613309793517e-01,-3.071810952001229333e-01,1.769139793891556511e-01
1.250000000000000000e-01,-4.924276144013355894e-01,8.645595903352992773e-02,-6.661121485036540502e-02
1.260000000000000009e-01,-9.385378794074751563e-02,4.143378074543804801e-01,-3.002123475508898798e-01
1.270000000000000018e-01,4.131750848561492884e-01,2.213615917821102064e-01,-1.973217161975271139e-01
1.280000000000000027e-01,4.623243950133078539e-01,-1.771085971097619005e-01,1.462856317312048737e-01
1.290000000000000036e-01,-5.270328044664407408e-02,-3.992441585613414334e-01,3.074135258686103156e-01
1.300000000000000044e-01,-4.506166905111664844e-01,-1.610710741664152512e-01,1.091557595160030369e-01
1.310000000000000053e-01,-3.867839378826937180e-01,2.742204270612256245e-01,-2.024590986274701354e-01
1.320000000000000062e-01,1.553604728375758137e-01,3.399334813732342031e-01,-3.141000694072741961e-01
1.330000000000000071e-01,4.846667448420134972e-01,4.194237820306454673e-02,-4.452805446991281446e-02
1.340000000000000080e-01,2.763598947134160433e-01,-2.937510049694435632e-01,2.453761846332016827e-01
1.350000000000000089e-01,-2.099018269972437456e-01,-2.720805047003497235e-01,2.567954436289417441e-01
1.360000000000000098e-01,-4.289622184028763496e-01,4.802113273031334562e-02,6.511646212059679986e-03
1.370000000000000107e-01,-1.481229412181778726e-01,2.826021760015005047e-01,-2.505676449243148252e-01
1.380000000000000115e-01,2.871573363219063757e-01,1.808886511319864610e-01,-1.973148495057319152e-01
1.390000000000000124e-01,3.612591685868625779e-01,-1.211386992373135879e-01,6.123473231221630148e-02
1.400000000000000133e-01,2.864656365643440325e-02,-2.554279088820658461e-01,2.806755544045139716e-01
1.409999999999999865e-01,-2.790075887249429121e-01,-7.491516602558745408e-02,1.590034738975760198e-01
1.419999999999999873e-01,-2.507577144654152268e-01,1.557367659498124779e-01,-7.462656703716752382e-02
1.429999999999999882e-01,2.834330150596747408e-02,1.480680988777391405e-01,-1.906734015230660551e-01
1.439999999999999891e-01,2.421341201012866540e-01,-4.292719370419527912e-03,-1.090875351096646378e-01
1.449999999999999900e-01,1.141086474003705498e-01,-1.430877807746530894e-01,8.263579882320556957e-02
1.459999999999999909e-01,-1.100871875659343441e-01,-6.752139870151073475e-02,1.381429894778036238e-01
1.469999999999999918e-01,-1.339699291341043541e-01,6.011149545195667437e-02,1.229137783974579810e-02
1.479999999999999927e-01,2.840219703431077439e-03,4.126322344048999335e-02,-6.162764704200843907e-02
1.489999999999999936e-01,1.063176791144869737e-01,-7.598335454487245566e-02,-5.529744669804104867e-02
1.499999999999999944e-01,1.583522892630053261e-02,-8.835292630013717730e-02,3.227182493110497541e-02
1.509999999999999953e-01,-9.936773654766503650e-02,2.676534259256273252e-02,8.510259518118508393e-02
1.519999999999999962e-01,-7.915153692948662112e-02,1.207337269212975100e-01,1.731801595009184545e-03
1.529999999999999971e-01,1.036645423406991895e-01,1.803339378937573664e-02,-5.656644458409645221e-02
1.539999999999999980e-01,1.664053043255200870e-01,-1.343918424780613241e-01,-4.903023413481880088e-02
1.549999999999999989e-01,-3.571511055558438796e-03,-1.591830680242592722e-01,6.375747023017654114e-02
1.559999999999999998e-01,-1.957775509307231043e-01,2.651480897592748895e-02,5.108815928921831007e-02
1.570000000000000007e-01,-1.393058311148760720e-01,2.427462245815029673e-01,-3.449900214227018952e-02
1.580000000000000016e-01,1.503178039226119589e-01,1.238003677630098304e-01,-1.608316829190777619e-01
1.590000000000000024e-01,3.063337532933341212e-01,-1.432020251105915187e-01,-4.245468786342173478e-02
1.600000000000000033e-01,1.032149549707200853e-01,-2.986098936820561489e-01,1.068326474868635800e-01
1.610000000000000042e-01,-2.804076374141585837e-01,-1.054793528845544559e-01,1.573963645011003110e-01
1.620000000000000051e-01,-3.423351587638963633e-01,2.441714732719299230e-01,-9.284689035347137159e-03
1.630000000000000060e-01,-6.124219281921889670e-03,3.267384382688342526e-01,-2.024370205550127255e-01
1.640000000000000069e-01,3.539585244768719274e-01,6.835338853750725328e-03,-1.861728860363436044e-01
1.650000000000000078e-01,3.484141399645823145e-01,-3.409626735047126544e-01,7.766124686746617156e-02
1.660000000000000087e-01,-1.316706231573676333e-01,-3.367054703845016039e-01,2.562944283731080630e-01
1.670000000000000095e-01,-4.753047690000650749e-01,8.083402418174268078e-02,1.469967257727757826e-01
1.680000000000000104e-01,-2.895769330004476227e-01,3.652043308718220249e-01,-1.474850914346863551e-01
1.690000000000000113e-01,2.166186665723556781e-01,2.547008883557142500e-01,-2.940816275005252445e-01
1.700000000000000122e-01,5.151962373207011892e-01,-2.079385891145535126e-01,-1.366516233989461815e-01
1.710000000000000131e-01,2.062191302928312597e-01,-4.185918536083275132e-01,1.851494930501945690e-01
1.719999999999999862e-01,-3.224387203400223001e-01,-1.659199261635744549e-01,3.059628169637439998e-01
1.729999999999999871e-01,-5.107627799421572412e-01,2.997919486680876155e-01,7.294317432095308307e-02
1.739999999999999880e-01,-8.257716508754836537e-02,3.739478551610203594e-01,-2.440330556908110182e-01
1.749999999999999889e-01,3.829150671617211343e-01,5.030103010841677907e-02,-3.223306257615682902e-01
1.759999999999999898e-01,4.473343595663064609e-01,-3.261245976883442310e-01,-3.283427882197406927e-03
1.769999999999999907e-01,-1.714029140238360407e-02,-3.017873727856283939e-01,2.422996240010425462e-01
1.779999999999999916e-01,-4.272236310207875865e-01,3.457448767470585466e-02,2.620219605510470395e-01
1.789999999999999925e-01,-3.742599191981000883e-01,3.402444167040979961e-01,-7.355343388965845941e-02
1.799999999999999933e-01,1.117038797852528131e-01,2.190706954149914676e-01,-2.793025803493175974e-01
1.809999999999999942e-01,4.422618547907206099e-01,-1.207354383670928011e-01,-1.868169753554601298e-01
1.819999999999999951e-01,2.392604319066760077e-01,-3.143192219644981300e-01,1.022004534560369271e-01
1.829999999999999960e-01,-2.062713184372876318e-01,-1.120813244608984682e-01,2.743413155617568933e-01
1.839999999999999969e-01,-3.801444812885805824e-01,1.997756576818497387e-01,1.271438366111766194e-01
1.849999999999999978e-01,-1.280255736330486172e-01,2.334502524921003019e-01,-1.310535870467068598e-01
1.859999999999999987e-01,2.398900908641559415e-01,-2.334414287882420581e-04,-2.271136460809873026e-01
1.869999999999999996e-01,2.672308907222955554e-01,-2.082973439441921926e-01,-9.134628859559015823e-02
1.880000000000000004e-01,5.195776321174451007e-04,-1.076994271423986210e-01,1.529453726138548797e-01
1.890000000000000013e-01,-2.349818875987140787e-01,6.336096816908538820e-02,1.756508740617293562e-01
1.900000000000000022e-01,-1.611714008539970322e-01,1.124420978870527693e-01,2.356248312947296572e-02
1.910000000000000031e-01,8.906504928002562105e-02,-1.733856512085548210e-03,-1.351599340256702808e-01
1.920000000000000040e-01,1.795579973931223372e-01,-8.389434332214959489e-02,-1.045478121338098004e-01
1.930000000000000049e-01,1.383572194455815092e-02,-5.455420231481795945e-02,6.217274732882286520e-02
1.940000000000000058e-01,-9.076369956989317755e-02,7.201114950762657618e-02,1.310686184981164626e-01
1.950000000000000067e-01,-8.023453733895345719e-02,5.898025106791569133e-02,4.432856607973061080e-02
1.960000000000000075e-01,6.880105380052084496e-02,-8.074149247971758314e-02,-3.241493584214852341e-02
1.970000000000000084e-01,9.217214700107474734e-02,-1.450350243819822083e-01,-4.731074610183236273e-02
1.980000000000000093e-01,-1.176511468445125795e-02,1.512157609192910090e-02,7.130268536548389421e-03
1.990000000000000102e-01,-1.301370603106853929e-01,1.535526323507037105e-01,6.811825241847885293e-02
2.000000000000000111e-01,-3.313723348860007217e-02,1.360260613547702446e-01,-1.422597656177066600e-02
2.010000000000000120e-01,1.913180903112429720e-01,-1.037134379057253197e-01,-7.311067225379183632e-02
2.020000000000000129e-01,1.928015399513041961e-01,-2.595628894933577624e-01,-1.848591134715971487e-02
2.030000000000000138e-01,-6.501127602856186793e-02,-1.132295149813128537e-01,7.233159009494956326e-02
2.039999999999999869e-01,-2.798339321828758330e-01,2.075329148608388574e-01,9.302169950970730350e-02
2.049999999999999878e-01,-1.701660788091920729e-01,3.015234976341641948e-01,-1.448493684629208536e-02
2.059999999999999887e-01,1.737571416947973069e-01,4.194507791183867129e-02,-1.288546688436294219e-01
2.069999999999999896e-01,3.765925423063886113e-01,-2.914711558559907045e-01,-1.017844360871638099e-01
2.079999999999999905e-01,1.221057603816141368e-01,-3.186085726854477329e-01,5.568756748475201662e-02
2.089999999999999913e-01,-3.173020693673162529e-01,6.573760873298503671e-02,2.040730435718261515e-01
2.099999999999999922e-01,-3.853437332299712859e-01,3.655897843437735384e-01,1.111695390552456114e-01
2.109999999999999931e-01,-1.287033225427598911e-02,2.670715851833572185e-01,-1.421728089156289732e-01
2.119999999999999940e-01,3.671317482064740956e-01,-2.015845899471190028e-01,-2.578720233397672756e-01
2.129999999999999949e-01,3.653117119480383534e-01,-4.106267543678724374e-01,-8.130767910382913355e-02
2.139999999999999958e-01,-8.554045969731216559e-02,-1.483517354870910465e-01,1.768863013180655142e-01
2.149999999999999967e-01,-4.904720333220169981e-01,2.785987328615954217e-01,2.764569131784523348e-01
2.159999999999999976e-01,-3.021077013896402153e-01,3.975929176462820736e-01,3.952915860380829677e-02
2.169999999999999984e-01,2.178231586129103781e-01,2.509745911158206555e-02,-2.451739112923556618e-01
2.179999999999999993e-01,5.080019548612787483e-01,-3.542185538267806910e-01,-2.706776933718863520e-01
2.190000000000000002e-01,2.060390593104694246e-01,-3.701280788704334745e-01,3.296567579028061162e-02
2.200000000000000011e-01,-3.293262941260391430e-01,6.862909892424103042e-02,2.913888829031848204e-01
2.210000000000000020e-01,-5.113576703304506532e-01,3.753129678566917704e-01,2.048884626114284846e-01
2.220000000000000029e-01,-9.072450131005156682e-02,2.494665449688852621e-01,-7.520287507972744923e-02
2.230000000000000038e-01,3.966760954862898481e-01,-1.582860122733634189e-01,-3.292739288692975719e-01
2.240000000000000047e-01,4.284997119550116307e-01,-3.639808703806337586e-01,-1.613693057790046848e-01
2.250000000000000056e-01,-1.687409432272319893e-03,-1.462944400836394265e-01,1.642694152993695034e-01
2.260000000000000064e-01,-4.282891702574408987e-01,2.260447852399926072e-01,2.779799060835507207e-01
2.270000000000000073e-01,-3.166112028086059960e-01,2.967343187592654252e-01,1.369060616966540911e-01
2.280000000000000082e-01,1.130471343218725916e-01,2.813973019374196860e-02,-1.691173226707878841e-01
2.290000000000000091e-01,3.943278511903637873e-01,-2.250736841928950571e-01,-2.540692345066695723e-01
2.300000000000000100e-01,2.189042382378711682e-01,-1.677642853268502543e-01,-7.133925258428146232e-02
2.310000000000000109e-01,-2.045270032812589733e-01,4.494920897232448226e-02,2.065989901420806907e-01
2.320000000000000118e-01,-3.287114000762522137e-01,1.888014140289872855e-01,2.095328472260969410e-01
2.330000000000000127e-01,-5.958941441468294103e-02,9.293403624887333625e-02,-9.832835794242003602e-03
2.340000000000000135e-01,2.454458708377913745e-01,-8.894139221319308231e-02,-1.968647974736905115e-01
2.349999999999999867e-01,1.987422493206370822e-01,-1.172780372319485731e-01,-1.664326539238575042e-01
2.359999999999999876e-01,-3.392378949664649757e-02,1.526140758098231374e-03,7.234465553000267446e-02
2.369999999999999885e-01,-1.536031859804327659e-01,8.701191163344809687e-02,1.707256319350210771e-01
2.379999999999999893e-01,-9.585080799053534439e-02,2.298945281642483449e-02,6.865424941318554186e-02
2.389999999999999902e-01,8.422398380488825553e-02,-8.310790020761543717e-02,-7.297419715762554215e-02
2.399999999999999911e-01,9.328248463203879515e-02,-2.131647550547423678e-02,-1.269255299356500666e-01
2.409999999999999920e-01,-2.193839694388971528e-02,1.174596151917858267e-01,-9.357378694547370535e-03
2.419999999999999929e-01,-1.119492148124852093e-01,1.197628336118499170e-01,6.958424989880365730e-02
2.429999999999999938e-01,2.102599916401479835e-02,-4.740812010804880405e-02,2.693581359495676036e-02
2.439999999999999947e-01,1.280462238592720292e-01,-1.929823079617160875e-01,-5.663088718416935813e-02
2.449999999999999956e-01,7.070080221529073672e-02,-7.874491304546347992e-02,-5.258598707336328143e-02
2.459999999999999964e-01,-1.213464467611103381e-01,1.404521798163990975e-01,-3.928302036062331776e-03
2.469999999999999973e-01,-1.898336458568592178e-01,2.450210078086611232e-01,5.683884889802391649e-02
2.479999999999999982e-01,-2.688455924878518227e-02,2.530857817379457420e-02,7.559917546516395706e-03
2.489999999999999991e-01,2.493740325697650639e-01,-2.441280510445523189e-01,-8.923034948910023301e-02
2.500000000000000000e-01,1.888387612782854164e-01,-2.632918400863343278e-01,-1.138865766180408440e-01
2.510000000000000009e-01,-1.132184505117891926e-01,5.409407321417813302e-02,5.454157889287110372e-02
2.520000000000000018e-01,-3.444344535040247401e-01,3.168999659090789289e-01,1.399697727208836229e-01
2.530000000000000027e-01,-1.786852339729768369e-01,1.923649997656864397e-01,7.896529979875481497e-02
2.540000000000000036e-01,2.260607885857992272e-01,-1.763902080458593369e-01,-1.322694670766006997e-01
2.550000000000000044e-01,4.020632285122224259e-01,-3.745284269252056042e-01,-1.968741658888671919e-01
2.560000000000000053e-01,1.161357503892340021e-01,-1.419325417907941478e-01,-1.106738655843476048e-02
2.570000000000000062e-01,-3.505044116769340246e-01,2.772826161309155379e-01,1.908065632055932492e-01
2.580000000000000071e-01,-4.127621535074595394e-01,3.925338203978878671e-01,2.033798679283997934e-01
2.590000000000000080e-01,-8.701554728678888295e-03,5.637065482892528873e-02,-6.053842223904676995e-02
2.600000000000000089e-01,4.310861274217306915e-01,-3.691713437542695764e-01,-2.593870721373456867e-01
2.610000000000000098e-01,4.005672895572569558e-01,-3.735531635793965521e-01,-2.251607942814912999e-01
2.620000000000000107e-01,-1.182582326635101960e-01,5.984190798934163613e-02,7.835083736239620289e-02
2.630000000000000115e-01,-4.755693011481663679e-01,4.177333650196660697e-01,2.874945984750457706e-01
2.640000000000000124e-01,-3.138108018657327913e-01,2.582574693317753467e-01,1.785226731504112596e-01
2.650000000000000133e-01,2.081535516869824354e-01,-1.379521903983289555e-01,-1.149385591399087470e-01
2.660000000000000142e-01,5.224476458674119916e-01,-4.048870126325864738e-01,-3.051991798320981553e-01
2.670000000000000151e-01,2.178809258955048678e-01,-1.537320979675264043e-01,-1.163384847957618651e-01
2.680000000000000160e-01,-3.301235876343341369e-01,2.263324148457927509e-01,1.801085886456149088e-01
2.690000000000000169e-01,-4.825175995278354057e-01,3.238923720879635093e-01,2.664030303399569366e-01
2.700000000000000178e-01,-8.412478485193154720e-02,4.810096127889103290e-02,5.241997181330270567e-02
2.710000000000000187e-01,4.103022281369668178e-01,-2.481493286782672780e-01,-2.221492921199055559e-01
2.720000000000000195e-01,4.150291762885904290e-01,-2.413360104918687021e-01,-2.653130054122300741e-01
2.730000000000000204e-01,-2.759989924639659562e-03,2.212042742356089275e-02,-1.485325856913415413e-02
2.740000000000000213e-01,-3.751413471632614183e-01,2.412336932461626171e-01,2.302981556879006575e-01
2.750000000000000222e-01,-3.041753791925552175e-01,1.397920081184501617e-01,2.251765265734387844e-01
2.760000000000000231e-01,1.179370738632861682e-01,-1.066575855773180814e-01,-3.231156480157933164e-02
2.770000000000000240e-01,3.455152845815983031e-01,-2.004429978619640118e-01,-2.125638440909622118e-01
2.780000000000000249e-01,1.509601260241219545e-01,-5.765812433197960163e-02,-1.495913191011597754e-01
2.790000000000000258e-01,-2.008643936259968121e-01,1.145281977120135575e-01,8.548500207588420607e-02
2.800000000000000266e-01,-2.717420344662135334e-01,1.174900648647681928e-01,2.221285538046596508e-01
2.810000000000000275e-01,-1.698732566245085215e-02,-3.252993035782108383e-02,7.251336160149292331e-02
2.819999999999999729e-01,1.548210102061731985e-01,-9.044655815865960957e-02,-1.284368902820116898e-01
2.829999999999999738e-01,1.359829336193750515e-01,2.141046937084938734e-02,-1.697725558909789489e-01
2.839999999999999747e-01,-3.894218408774574591e-02,7.006912967951012261e-02,-2.358215489404873189e-02
2.849999999999999756e-01,-1.214887472726562528e-01,3.228334100025211095e-02,1.244474319277184826e-01
2.859999999999999765e-01,-2.214364716442765099e-02,-9.006447076496011672e-02,8.848752768391167367e-02
2.869999999999999774e-01,9.695198753181170914e-02,-7.020126463826460717e-02,-9.191082633594740633e-03
2.879999999999999782e-01,2.636734224580363981e-02,8.846980676480548089e-02,-8.008892040671090895e-02
2.889999999999999791e-01,-1.344824691999507715e-01,1.796205097721398358e-01,-2.769596519961367923e-02
2.899999999999999800e-01,-8.976034042396556500e-02,5.197391729742084632e-02,4.226114614570995742e-02
2.909999999999999809e-01,8.227164251359110614e-02,-2.392325054447678456e-01,3.628622671016611817e-02
2.919999999999999818e-01,1.801406515157869814e-01,-2.096891905595535677e-01,-5.091361446571567723e-02
2.929999999999999827e-01,7.535033300929125377e-02,4.200501659646192071e-02,-5.319032429377198307e-02
2.939999999999999836e-01,-1.845155357297287302e-01,2.892774113787738854e-01,3.779221717470296338e-02
2.949999999999999845e-01,-2.292280734147786603e-01,1.953292634071879252e-01,1.144180766005434696e-01
2.959999999999999853e-01,4.196556101088098206e-02,-1.446772688355415781e-01,4.336657516471795898e-02
2.969999999999999862e-01,3.040161016248899561e-01,-3.227253119170983564e-01,-9.616003064178080262e-02
2.979999999999999871e-01,2.472249379194824404e-01,-1.345844223204953893e-01,-1.531010741843803202e-01
2.989999999999999880e-01,-1.232440013422318736e-01,2.676865449746972381e-01,3.189899928908152167e-03
2.999999999999999889e-01,-3.864150741788915933e-01,3.740797038512149730e-01,1.484150486564490279e-01
3.009999999999999898e-01,-2.010627198902021073e-01,5.269483631063868329e-02,1.418663904586077440e-01
3.019999999999999907e-01,2.490009187381366784e-01,-3.539200968936913050e-01,-4.038130160201854058e-02
3.029999999999999916e-01,4.715618332145948832e-01,-3.460484080676298202e-01,-2.265627403830431374e-01
3.039999999999999925e-01,1.459903411179247767e-01,3.687144734987064104e-02,-1.617006227555096987e-01
3.049999999999999933e-01,-3.986539770378667580e-01,3.956606470606884862e-01,1.181395129637222569e-01
3.059999999999999942e-01,-4.401441770918635421e-01,3.075486778837708823e-01,2.497498765512809749e-01
3.069999999999999951e-01,-1.112508196083072942e-02,-1.559729536704460018e-01,1.434948339207931245e-01
3.079999999999999960e-01,4.516257518138285243e-01,-4.450460946223837588e-01,-1.915843360719185207e-01
3.089999999999999969e-01,4.402551510159172232e-01,-2.000636497259207780e-01,-2.898443568620860389e-01
3.099999999999999978e-01,-1.001080498681923558e-01,1.977076328436429831e-01,-7.334082214277974632e-02
3.109999999999999987e-01,-5.051071807845944894e-01,3.704548380949781450e-01,2.183585811666429732e-01
3.119999999999999996e-01,-3.281298066268507063e-01,7.902832940117916760e-02,2.770117963982164921e-01
3.130000000000000004e-01,1.748413016412334042e-01,-3.062960417937808932e-01,1.831315132276165394e-02
3.140000000000000013e-01,4.962888211177392539e-01,-2.804032383744127777e-01,-2.506973357938449554e-01
3.150000000000000022e-01,2.158909175324463525e-01,2.627194511652412856e-02,-2.805389146070709216e-01
3.160000000000000031e-01,-3.279866608785580451e-01,3.027018400442826329e-01,3.833865360719083959e-02
3.170000000000000040e-01,-4.458697656080264360e-01,2.057768071175622993e-01,2.727127341893658685e-01
3.180000000000000049e-01,-8.360069336829610565e-02,-1.004874941253280640e-01,1.987611546191841716e-01
3.190000000000000058e-01,3.326519684082119288e-01,-2.399085227340858884e-01,-1.222756171004840964e-01
3.200000000000000067e-01,3.533405572449134224e-01,-7.954174422762287644e-02,-2.717721263963728262e-01
3.210000000000000075e-01,-4.291233580810590448e-02,1.598411919179200391e-01,-1.392352726851112388e-01
3.220000000000000084e-01,-3.362701368268062319e-01,1.462673964214260824e-01,1.470391068991401262e-01
3.230000000000000093e-01,-2.416404708414330305e-01,3.103359088699118168e-02,2.790586593085289113e-01
3.240000000000000102e-01,9.423412766881993086e-02,-1.457233403300268182e-01,7.582511156273670505e-02
3.250000000000000111e-01,2.561012534592527756e-01,-6.752849750070702428e-02,-1.652314530910519719e-01
3.260000000000000120e-01,1.283136159564926548e-01,4.641051745886941304e-02,-2.075607403645246263e-01
3.270000000000000129e-01,-1.164612847249477806e-01,5.789439107375900229e-02,-2.345101539176510513e-02
3.280000000000000138e-01,-1.452964772086094980e-01,-1.432007142676754684e-02,1.324513402436108545e-01
3.290000000000000147e-01,-3.299969189284873011e-02,-8.320446716105775464e-02,1.018635283543550679e-01
3.300000000000000155e-01,1.170772877929992239e-01,3.684825043349885827e-03,-1.447029878147313396e-02
3.310000000000000164e-01,5.651447688398911900e-02,1.115747930984292008e-01,-1.434243631185935786e-01
3.320000000000000173e-01,-6.274082130444706695e-02,6.075670850756692554e-02,-3.683982830274578485e-02
3.330000000000000182e-01,-4.947566883437707480e-02,-1.111341601307182375e-01,4.482772133400187570e-02
3.340000000000000191e-01,5.532845678322698829e-02,-1.545662127585789858e-01,9.585086596592218289e-02
3.350000000000000200e-01,1.472191192053684539e-01,2.371252995862008217e-04,-9.419694530112238118e-03
3.360000000000000209e-01,-3.511363261780280770e-02,1.807306425865629340e-01,-5.413116711444670992e-02
3.370000000000000218e-01,-1.791515373470124184e-01,1.864105801502902449e-01,-3.593491700681560735e-02
3.380000000000000226e-01,-1.107862196443669400e-01,-1.208399001079190488e-01,4.559735494236379083e-02
3.390000000000000235e-01,1.402426053506317383e-01,-2.825885724553122147e-01,5.948658734421744670e-02
3.400000000000000244e-01,2.644197296992442658e-01,-1.257171979504506099e-01,-8.260982004168841708e-02
3.410000000000000253e-01,5.348168883255761258e-02,2.160922405892573561e-01,-8.975234809176642348e-02
3.420000000000000262e-01,-2.831738135013635027e-01,3.434446614929499986e-01,2.515978847609528710e-02
3.430000000000000271e-01,-3.210756386242509253e-01,6.032402351069506008e-02,1.364688544123967839e-01
3.439999999999999725e-01,5.811357449275248582e-02,-3.072508455697067209e-01,1.069736759760182843e-01
3.449999999999999734e-01,3.462668335242963802e-01,-3.234882276492729858e-01,-3.285910054374772266e-02
3.459999999999999742e-01,2.681071882156906283e-01,4.109912215357703485e-02,-1.941474034810704297e-01
3.469999999999999751e-01,-1.474896127288012060e-01,3.922128633843675605e-01,-9.288105618975506239e-02
3.479999999999999760e-01,-4.524032446641578775e-01,2.412706311077362775e-01,1.173923499329987546e-01
3.489999999999999769e-01,-2.302487314419822684e-01,-1.768647938292248201e-01,2.310344017819583595e-01
3.499999999999999778e-01,2.845434742508698989e-01,-4.178018468245810468e-01,6.322890911965546590e-02
3.509999999999999787e-01,4.944037496786655717e-01,-1.833065343864083152e-01,-1.594329375501757629e-01
3.519999999999999796e-01,1.442362463040548215e-01,2.673500017507380311e-01,-2.538435768399583958e-01
3.529999999999999805e-01,-3.991105411043359141e-01,3.885550496201126136e-01,-2.447183263860637503e-02
3.539999999999999813e-01,-4.830443148096058570e-01,4.924269711098321761e-02,2.399772988758464287e-01
3.549999999999999822e-01,1.760994418050313435e-03,-3.303757126827891466e-01,2.565233603284104436e-01
3.559999999999999831e-01,4.624058148808986579e-01,-3.495114505444233965e-01,-6.203938424631339627e-02
3.569999999999999840e-01,4.192875852844180073e-01,3.191675979896568816e-02,-2.971720463796992395e-01
3.579999999999999849e-01,-9.165469507758783330e-02,3.579256055136565418e-01,-2.228040105969234241e-01
3.589999999999999858e-01,-4.561012208844150706e-01,2.607404968664331357e-01,1.001394702913411122e-01
3.599999999999999867e-01,-3.246216510999375138e-01,-8.313123487269104273e-02,3.139342636259342401e-01
3.609999999999999876e-01,1.882272093582172123e-01,-3.043194880952301840e-01,1.815623398620547502e-01
3.619999999999999885e-01,4.879048290116317910e-01,-1.494739295403112178e-01,-1.551874264514606638e-01
3.629999999999999893e-01,1.981806498893362023e-01,1.787360436167879651e-01,-3.039818005047842386e-01
3.639999999999999902e-01,-2.544228727626255959e-01,2.660711264412751187e-01,-1.554997865388728640e-01
3.649999999999999911e-01,-3.888231809846393605e-01,4.131273311916155294e-02,1.920186467687178822e-01
3.659999999999999920e-01,-5.600762088993267024e-02,-2.117323820437859994e-01,2.890645030166086871e-01
3.669999999999999929e-01,2.863766836480873268e-01,-1.604839806741275021e-01,6.146257053756644384e-02
3.679999999999999938e-01,2.832995641262553432e-01,6.684360858866254806e-02,-2.141814312433840684e-01
3.689999999999999947e-01,-5.138906373541199391e-02,1.575759633626058198e-01,-2.396693935392260333e-01
3.699999999999999956e-01,-2.850826010576709146e-01,3.256055289588009188e-02,1.054382412169121118e-02
3.709999999999999964e-01,-1.649451580992931654e-01,-6.687718899467082201e-02,2.065566356653443236e-01
3.719999999999999973e-01,8.088533669331464393e-02,-6.646417958945004256e-02,1.791181520093904078e-01
3.729999999999999982e-01,2.028552609140820695e-01,5.117602609852023310e-02,-5.425219912862982302e-02
3.739999999999999991e-01,3.582141291035843139e-02,6.478868318757152744e-02,-1.833116203732918503e-01
3.750000000000000000e-01,-1.273836548017541204e-01,-1.947330154115957737e-02,-8.959847385711895706e-02
3.760000000000000009e-01,-7.684359585372251000e-02,-1.361183246734076202e-01,7.083163413361520666e-02
3.770000000000000018e-01,3.633566888431992437e-02,-5.001792652948137269e-02,1.285907245989997005e-01
3.780000000000000027e-01,1.016407578848456117e-01,1.588431718433871709e-01,2.495588317414219534e-02
3.790000000000000036e-01,-2.319380631784740548e-02,1.582319298563160670e-01,-8.495240746523444186e-02
3.800000000000000044e-01,-1.283209826830668532e-01,-6.353955906376751450e-02,-8.097114904772480248e-02
3.810000000000000053e-01,-2.142348251841122778e-02,-2.116319867795215803e-01,3.426351458537491707e-02
3.820000000000000062e-01,1.385416109084819380e-01,-1.056942394792188128e-01,3.418712856344308798e-02
3.830000000000000071e-01,1.460690174090351345e-01,1.546959550942181294e-01,8.552223608396953766e-03
3.840000000000000080e-01,-8.960674487725067694e-02,2.773941245989457460e-01,-5.710010305743928177e-02
3.850000000000000089e-01,-2.874246531314695319e-01,3.924804356208869138e-02,-1.949436057638883821e-02
3.860000000000000098e-01,-1.081793494187153482e-01,-2.669016885587814358e-01,7.541444458159446418e-02
3.870000000000000107e-01,2.309499915025923222e-01,-3.051462183101099068e-01,6.640277623594044443e-02
3.880000000000000115e-01,3.033196041566761925e-01,6.082040508384543853e-02,-5.098573921993398289e-02
3.890000000000000124e-01,4.219252084455846208e-02,3.421222216517538772e-01,-1.205754664299134027e-01
3.900000000000000133e-01,-3.314959991261739458e-01,2.533668515074301020e-01,-8.277301578826999628e-02
3.910000000000000142e-01,-3.332139032686833313e-01,-1.535720763200334738e-01,1.161229508569424917e-01
3.920000000000000151e-01,6.282414651479482914e-02,-4.027004258106968160e-01,1.797094268374066772e-01
3.930000000000000160e-01,4.338925007981840887e-01,-2.025199485207940520e-01,3.309437543634601714e-02
3.940000000000000169e-01,3.201612757506522855e-01,2.287412489199636412e-01,-1.906844662476653574e-01
3.950000000000000178e-01,-1.907352231087256211e-01,3.735128857300109573e-01,-2.469422333939581826e-01
3.960000000000000187e-01,-5.066284298028500555e-01,6.125954031559273372e-02,6.959053539853462915e-03
3.970000000000000195e-01,-2.482611663446754602e-01,-3.029708939892603592e-01,2.370906081316083436e-01
3.980000000000000204e-01,2.776121977727848411e-01,-3.480746834805700241e-01,1.996193694304478905e-01
3.990000000000000213e-01,4.965137483137090912e-01,3.601101875101102995e-02,-7.412690890082901385e-02
4.000000000000000222e-01,1.522552631059841954e-01,3.860551690664071334e-01,-2.806165702604813683e-01
4.010000000000000231e-01,-4.034071872906333511e-01,2.655787793299525523e-01,-2.056549490331286423e-01
4.020000000000000240e-01,-4.606332228955504760e-01,-1.268991860453635434e-01,1.227752505786966208e-01
4.030000000000000249e-01,-2.261875749567448732e-02,-3.536836485011194964e-01,3.068208113948152627e-01
4.040000000000000258e-01,4.654389457940034669e-01,-2.068148409167276935e-01,1.630882123718256638e-01
4.050000000000000266e-01,4.353493744513125541e-01,2.013091177603802961e-01,-2.040101900648403077e-01
4.060000000000000275e-01,-7.544582844579433845e-02,3.101516612924156147e-01,-3.065748218854941753e-01
4.069999999999999729e-01,-4.579666100402707274e-01,7.825153823597284786e-02,-7.220678848675377015e-02
4.079999999999999738e-01,-3.105179923648915818e-01,-1.990430678804769316e-01,2.337556804712880021e-01
4.089999999999999747e-01,1.855306170597077753e-01,-2.254686221008350699e-01,2.876842495591998006e-01
4.099999999999999756e-01,4.203851371543413373e-01,4.011983227050622269e-02,5.595143305109230754e-03
4.109999999999999765e-01,1.906461271895369403e-01,1.916838711767800407e-01,-2.446421881056707881e-01
4.119999999999999774e-01,-2.211266926806448319e-01,1.185564476594724304e-01,-2.244897167651106473e-01
4.129999999999999782e-01,-3.352458431139079820e-01,-6.492824933176945257e-02,3.807759724389740696e-02
4.139999999999999791e-01,-5.901171774007316073e-02,-1.585144563034570353e-01,2.438250165793705015e-01
4.149999999999999800e-01,2.378122986811097017e-01,-3.341052804401768717e-02,1.629053486646996063e-01
4.159999999999999809e-01,1.908707116147684568e-01,7.411244504544454992e-02,-1.122615328873633744e-01
4.169999999999999818e-01,-7.295972375262800569e-02,5.593012570176756487e-02,-2.269911075623612939e-01
4.179999999999999827e-01,-1.874004011918133095e-01,-5.511456435369768009e-02,-1.120468421675166609e-01
4.189999999999999836e-01,-9.982690681622190254e-02,-7.018648579329644921e-02,9.762648638804848067e-02
4.199999999999999845e-01,8.267228029388065669e-02,5.291491697243571463e-02,1.614564946816665070e-01
4.209999999999999853e-01,1.307089795058773984e-01,1.126551187544922034e-01,3.610281013198723965e-02
4.219999999999999862e-01,-2.655641802938178003e-02,4.136693530189943478e-03,-1.134500802791215124e-01
4.229999999999999871e-01,-1.055565676506040884e-01,-1.638898430635339076e-01,-1.295335292971772079e-01
4.239999999999999880e-01,2.502606310226224151e-02,-9.878540852652863136e-02,3.121891875135091032e-02
4.249999999999999889e-01,1.108139349179591837e-01,9.562975132594857264e-02,8.421253876304914121e-02
4.259999999999999898e-01,7.584892058917669377e-02,2.302254177545703107e-01,3.196625056787439495e-02
4.269999999999999907e-01,-1.192214495357824949e-01,7.692131335326507502e-02,-4.960505587399116623e-02
4.279999999999999916e-01,-1.618490304335869212e-01,-2.038943484319196142e-01,-3.330406535629858861e-02
4.289999999999999925e-01,2.261505263600386076e-02,-2.556561585775353751e-01,3.066359021801943682e-02
4.299999999999999933e-01,2.608061336256968232e-01,1.053894376539766566e-02,4.160162968399896272e-02
4.309999999999999942e-01,1.529897549210575969e-01,3.147359643431871246e-01,-1.211124514914459216e-02
4.319999999999999951e-01,-1.377674897913886420e-01,2.217815186889505463e-01,-8.327293596672337428e-02
4.329999999999999960e-01,-3.127434730787139738e-01,-1.494623727943582558e-01,-4.914952954541740304e-02
4.339999999999999969e-01,-1.590233432215026332e-01,-3.590235521668119212e-01,7.625019063532291475e-02
4.349999999999999978e-01,2.477296888043812317e-01,-1.895109727602733440e-01,1.491369183330762405e-01
4.359999999999999987e-01,3.967593144624108614e-01,2.529518879102185536e-01,5.085378110831200588e-02
4.369999999999999996e-01,6.034744844921269280e-02,3.874921267086268162e-01,-1.224894837846503409e-01
4.380000000000000004e-01,-3.541806918333838539e-01,8.199106072105999399e-02,-1.631011319030192808e-01
4.390000000000000013e-01,-4.039819405766830740e-01,-3.516725674857299477e-01,2.941299976801150379e-02
4.400000000000000022e-01,8.190596162838197081e-02,-3.690667560663360436e-01,2.301633587746496346e-01
4.410000000000000031e-01,4.861485883044293632e-01,4.767141918867560946e-02,1.601424500411974816e-01
4.420000000000000040e-01,3.368160141861861745e-01,3.887423757081186482e-01,-9.881883305903298165e-02
4.430000000000000049e-01,-1.826538952368334245e-01,3.357548334902314968e-01,-2.557743242733332978e-01
4.440000000000000058e-01,-4.680144965569784099e-01,-1.343202165944494819e-01,-1.229665454214960013e-01
4.450000000000000067e-01,-2.487642200256024450e-01,-3.649351008114412598e-01,1.632259392241339757e-01
4.460000000000000075e-01,2.828964699332153776e-01,-1.948797772252549854e-01,2.700863551798915463e-01
4.470000000000000084e-01,5.412229704451819723e-01,2.371154536001260915e-01,7.204538602571762540e-02
4.480000000000000093e-01,1.379525673274887843e-01,3.967731135790111274e-01,-2.228047615037619389e-01
4.490000000000000102e-01,-3.799504494235528829e-01,9.636564911454288673e-02,-3.004606840384146382e-01
4.500000000000000111e-01,-4.759445125306536184e-01,-2.560085169001929395e-01,-3.796232165835013161e-02
4.510000000000000120e-01,-1.471547661085037713e-02,-2.546710726269177383e-01,2.660514081136077236e-01
4.520000000000000129e-01,4.031394628197196295e-01,3.211212046191631170e-02,2.737020161908083615e-01
4.530000000000000138e-01,3.843635493764085420e-01,2.281032063612392913e-01,-4.256137901041257693e-02
4.540000000000000147e-01,-8.347074208455325384e-02,2.066464607861994707e-01,-2.971684688095164728e-01
4.550000000000000155e-01,-4.005996531795458226e-01,-9.601406812926892298e-02,-2.045352668414723574e-01
4.560000000000000164e-01,-2.689484605907790371e-01,-2.046361226451727522e-01,9.163236675301238143e-02
4.570000000000000173e-01,1.889590587534352439e-01,-5.677189994111866284e-02,2.839924278304762906e-01
4.580000000000000182e-01,3.627937529818194839e-01,7.712352288167788339e-02,1.486590459462920344e-01
4.590000000000000191e-01,1.210443361139086904e-01,1.202761374129898697e-01,-1.470698040340298052e-01
4.600000000000000200e-01,-1.951852535603749716e-01,1.118388638603420859e-02,-2.627034298269331214e-01
4.610000000000000209e-01,-2.633995455577097244e-01,-8.992885284963458847e-02,-8.004889271307148724e-02
4.620000000000000218e-01,-2.892402337222584746e-02,-4.392872552008127846e-02,1.679441670682872978e-01
4.630000000000000226e-01,2.026595935753530697e-01,8.451161249318148161e-02,2.128987211289494474e-01
4.640000000000000235e-01,1.726148343564590515e-01,4.164903615785631869e-02,1.363459679851214586e-02
4.650000000000000244e-01,-4.152777563841982683e-02,-6.828973324411787005e-02,-1.640089903137057770e-01
4.660000000000000253e-01,-1.173209964592435428e-01,-7.787262029770487815e-02,-1.709171434993105310e-01
4.670000000000000262e-01,-1.264462654072229068e-02,4.480712016109188178e-02,3.200259471384346577e-02
4.680000000000000271e-01,8.139481318684205213e-02,1.650480712975054554e-01,1.463839849544093796e-01
4.689999999999999725e-01,5.229736920758620844e-02,5.741848833918660605e-02,7.533760059046708257e-02
4.699999999999999734e-01,-9.667642149302806132e-02,-1.573217370513921298e-01,-7.276560054073484551e-02
4.709999999999999742e-01,-1.031539975065457193e-01,-2.029224050415320280e-01,-7.274542083858386021e-02
4.719999999999999751e-01,5.543964981155104915e-02,2.507223220061642610e-02,-1.251450905959767233e-02
4.729999999999999760e-01,1.647926978940200404e-01,2.375524159837549276e-01,5.712214564653803062e-02
4.739999999999999769e-01,2.229386612501029971e-02,1.974277817840308924e-01,7.084189647928517547e-03
4.749999999999999778e-01,-2.191670883236252754e-01,-9.683798465125730004e-02,-3.908161614024058955e-02
4.759999999999999787e-01,-2.151870127931867771e-01,-3.016278173538641250e-01,-2.612114824765554913e-02
4.769999999999999796e-01,4.896263617185225847e-02,-1.503043398481783144e-01,5.357065080983082483e-02
4.779999999999999805e-01,3.028549989197772407e-01,2.375066139725004744e-01,1.045265958476472717e-01
4.789999999999999813e-01,1.960278558930190207e-01,3.680869718509151012e-01,3.285903422633987964e-02
4.799999999999999822e-01,-1.829620806465303562e-01,9.759154035972432417e-02,-1.260270779618573034e-01
4.809999999999999831e-01,-3.889545688437417437e-01,-2.996308017367025345e-01,-9.489404444538065975e-02
4.819999999999999840e-01,-1.405288003326920776e-01,-3.755715181050415241e-01,6.588794380951223939e-02
4.829999999999999849e-01,2.930694875371353536e-01,5.219523285156085074e-02,1.792121562783071664e-01
4.839999999999999858e-01,4.375418651824114491e-01,3.932446534518104775e-01,1.118394153676809666e-01
4.849999999999999867e-01,5.643385735302512696e-02,2.998828113210574298e-01,-1.103172267377152127e-01
4.859999999999999876e-01,-4.096931550897193186e-01,-1.398278529548076243e-01,-2.012674078100829267e-01
4.869999999999999885e-01,-4.330004990424090594e-01,-4.196012389372169027e-01,-9.776084911393528865e-02
4.879999999999999893e-01,4.939002564723358329e-02,-2.227629958164867030e-01,1.554730310542169203e-01
4.889999999999999902e-01,5.100800910005197641e-01,2.168076201550284687e-01,2.040503471258491297e-01
4.899999999999999911e-01,3.816863461995015361e-01,3.978413732999570018e-01,3.155911323640140514e-02
4.909999999999999920e-01,-1.648000427723222139e-01,1.082428370949862911e-01,-2.620157034654535533e-01
4.919999999999999929e-01,-5.151489889700051616e-01,-2.722308566108521122e-01,-2.184401412182952751e-01
4.929999999999999938e-01,-2.690042871009275527e-01,-3.468686620820388145e-01,4.223787872383395758e-02
4.939999999999999947e-01,2.799160686351908067e-01,-1.321714037612354772e-02,2.632901953715957588e-01
4.949999999999999956e-01,4.922069084074554568e-01,2.802732352738753208e-01,2.408329750334806396e-01
4.959999999999999964e-01,1.434619717151908447e-01,2.173129526822365487e-01,-7.692620304472110038e-02
4.969999999999999973e-01,-3.539222360322941130e-01,-1.117883468239272704e-01,-3.037687629602768280e-01
4.979999999999999982e-01,-4.621217094886031496e-01,-3.035668287989799485e-01,-2.059858658843263524e-01
4.989999999999999991e-01,-2.537519677592523643e-02,-1.413859847210280352e-01,1.300489167431165272e-01
5.000000000000000000e-01,3.823639547084736745e-01,1.380950436823991379e-01,3.228267376869028982e-01
5.010000000000000009e-01,3.454770226698141711e-01,2.390824725425029496e-01,9.280718115219066533e-02
5.020000000000000018e-01,-8.266713882279692893e-02,5.027005164864215697e-02,-1.697748113845278239e-01
5.030000000000000027e-01,-3.903478935077416279e-01,-1.244630670690121538e-01,-2.715274673669550443e-01
5.040000000000000036e-01,-2.181537085838183287e-01,-1.092915665674041720e-01,-5.917843594335724100e-02
5.050000000000000044e-01,1.634007579294071699e-01,4.338957156495438366e-02,2.233045919767190357e-01
5.060000000000000053e-01,2.657921383132074156e-01,1.278218479902453464e-01,2.244954439388391343e-01
5.070000000000000062e-01,1.181034462147059760e-01,3.363508332168484855e-03,-1.570906474201091974e-02
5.080000000000000071e-01,-1.945958612177365044e-01,-7.879675542942873867e-02,-2.238514672072791645e-01
5.090000000000000080e-01,-1.736675313549985999e-01,-3.916627740458784174e-02,-1.658350484470826613e-01
5.100000000000000089e-01,1.105171526486729491e-02,1.039179836741048746e-01,5.880304008411777611e-02
5.110000000000000098e-01,1.301703730319705155e-01,7.063319597208608802e-02,2.078793314280203142e-01
5.120000000000000107e-01,6.566793926846566098e-02,-8.432591430967482926e-02,9.173804014894508529e-02
5.130000000000000115e-01,-6.301467797081328204e-02,-1.469592932686763775e-01,-7.381805654259041005e-02
5.140000000000000124e-01,-7.145486958132767075e-02,-6.227116412112427939e-03,-1.336458067636497604e-01
5.150000000000000133e-01,5.754918940596224358e-02,1.691505961155602977e-01,-3.613393515601908551e-02
5.160000000000000142e-01,1.079938097745662545e-01,1.621389524791194414e-01,7.810172958252435682e-02
5.170000000000000151e-01,1.422465308347480202e-02,-6.332438095216619267e-02,7.234795468952978648e-02
5.180000000000000160e-01,-1.440796853521145726e-01,-2.753810531484752189e-01,-3.199931332592680089e-02
5.190000000000000169e-01,-8.164497886696872597e-02,-1.319378388792241119e-01,-4.894368707781174971e-02
5.200000000000000178e-01,1.398501648113352758e-01,1.870353670952890901e-01,-4.354238750843806259e-03
5.210000000000000187e-01,2.153372928249296103e-01,3.246354526558948295e-01,6.524442468245711391e-02
5.220000000000000195e-01,-1.679227931272641097e-02,6.633192755468365898e-02,3.846852276254264513e-02
5.230000000000000204e-01,-2.681478783715989245e-01,-2.515912211585865643e-01,-6.817155215193457241e-02
5.240000000000000213e-01,-2.356626955324008788e-01,-3.269628162570444307e-01,-8.805890649010508775e-02
5.250000000000000222e-01,1.019003378752194738e-01,1.153563701754260068e-02,3.090831464003616913e-02
5.260000000000000231e-01,3.648596991773332965e-01,3.678931920652991350e-01,1.182439530237759107e-01
5.270000000000000240e-01,2.392330099037854041e-01,2.984105426869582134e-01,8.605740452020500808e-02
5.280000000000000249e-01,-2.102862560150053073e-01,-1.197626853514181106e-01,-1.056928457252239578e-01
5.290000000000000258e-01,-4.620913057744075458e-01,-4.223905421361701107e-01,-1.823352177621943293e-01
5.300000000000000266e-01,-1.739355151431543900e-01,-2.195766560309881932e-01,-2.461462002197003368e-02
5.310000000000000275e-01,3.549890906797802392e-01,2.062861109477243382e-01,1.737760040265202699e-01
5.320000000000000284e-01,4.458466738276987140e-01,4.055439501309178185e-01,1.939608847041704442e-01
5.330000000000000293e-01,5.697918851731693241e-02,1.091388156206590798e-01,-2.541905842447914066e-03
5.340000000000000302e-01,-4.455100024775979772e-01,-2.823780159158805203e-01,-2.177659318680386646e-01
5.350000000000000311e-01,-4.426476721681870674e-01,-3.483262701570767894e-01,-2.318776747314204023e-01
5.360000000000000320e-01,6.322689454604919768e-02,1.669495562380661838e-02,6.035320109528252708e-02
5.370000000000000329e-01,4.771843478438554387e-01,3.609279139832408667e-01,2.478608483719056677e-01
5.380000000000000338e-01,3.570794135848649464e-01,2.690656247841389792e-01,1.443392677545232983e-01
5.390000000000000346e-01,-1.902783380043477635e-01,-8.734402398153180702e-02,-1.233042670232153692e-01
5.400000000000000355e-01,-4.738135819227807799e-01,-3.069998408382523247e-01,-3.232501027161395202e-01
5.410000000000000364e-01,-2.717647215660354276e-01,-1.708274890275169600e-01,-1.325760669260947489e-01
5.420000000000000373e-01,2.583187874412589680e-01,1.427974781882974387e-01,1.879891817520811803e-01
5.430000000000000382e-01,4.363616704105309219e-01,2.746016591529346074e-01,3.071678070416152817e-01
5.440000000000000391e-01,1.445890625932159113e-01,9.024749980615709433e-02,9.404551029512482618e-02
5.450000000000000400e-01,-3.263847360338483217e-01,-1.797692142950877980e-01,-2.411653972279899361e-01
5.460000000000000409e-01,-4.160455567836426338e-01,-1.911140618951422121e-01,-2.538857581694979881e-01
5.470000000000000417e-01,-3.661114620784054058e-02,4.971419701563809662e-02,-4.098516574708083171e-03
5.480000000000000426e-01,3.333137166548192920e-01,1.678749092324158254e-01,2.464848354186621460e-01
5.490000000000000435e-01,2.788726616450662443e-01,1.064846647384855294e-01,2.304138831890909789e-01
5.500000000000000444e-01,-1.019568474234299332e-01,-8.794377437159250910e-02,-4.980872565295830362e-02
5.510000000000000453e-01,-3.066553610105542393e-01,-1.044588616479713850e-01,-2.647584796302072108e-01
5.520000000000000462e-01,-1.651280736690812212e-01,2.919641158382724547e-02,-1.891583810597772530e-01
5.530000000000000471e-01,1.335767963324737961e-01,6.294900275613653229e-02,8.972365341796251226e-02
5.540000000000000480e-01,2.075859431586970227e-01,1.227025220071522498e-03,2.252113586898574771e-01
5.550000000000000488e-01,4.501063542877555695e-02,-8.768646884091263471e-02,1.249992122503314623e-01
5.560000000000000497e-01,-1.536060289603200790e-01,-7.462602006272726907e-02,-1.491296237206883035e-01
5.570000000000000506e-01,-9.147973179015891909e-02,7.212599220757695551e-02,-1.836027041637936230e-01
5.580000000000000515e-01,5.996171039559660548e-02,1.013270715241329917e-01,-4.021326277390857573e-02
5.590000000000000524e-01,1.118870797958650687e-01,-2.924261727106745173e-02,9.424345427943807418e-02
5.600000000000000533e-01,-2.514994542716787046e-02,-2.005249473540889060e-01,1.483715634310515119e-01
5.610000000000000542e-01,-1.339252298528781637e-01,-9.671079705818090566e-02,-2.082007241846448378e-02
5.620000000000000551e-01,-1.271093127771893462e-02,1.411820741110143829e-01,-9.391397538688639468e-02
5.629999999999999449e-01,1.521549973139278422e-01,2.510515109565733538e-01,-3.559164645152293471e-02
5.639999999999999458e-01,1.442567402556397260e-01,3.452733297473198348e-02,5.279767457535555070e-02
5.649999999999999467e-01,-1.032254502115399486e-01,-2.038301125950967019e-01,5.128499549628617177e-02
5.659999999999999476e-01,-2.303561125214192984e-01,-2.886033228117146354e-01,6.276306463124148131e-03
5.669999999999999485e-01,-8.416837987938566301e-02,2.549254611189980500e-03,-5.589923790528038977e-02
5.679999999999999494e-01,2.258831749934800126e-01,3.066211141608694013e-01,-3.133416288587403953e-02
5.689999999999999503e-01,2.858069978410432421e-01,2.795325154338885731e-01,6.950013495057028035e-02
5.699999999999999512e-01,-6.442390730624908760e-03,-1.302335730773836187e-01,8.296902791775730146e-02
5.709999999999999520e-01,-3.312867308993162618e-01,-3.830345981887837703e-01,-6.598528074770546037e-02
5.719999999999999529e-01,-3.207373896033685057e-01,-2.003679766674427709e-01,-1.277104874783934474e-01
5.729999999999999538e-01,1.139540874960752320e-01,1.899618346125158952e-01,-4.273412098929244007e-02
5.739999999999999547e-01,4.256722772185039805e-01,4.115703771579607984e-01,1.350931296757224009e-01
5.749999999999999556e-01,2.704193243739397290e-01,1.175585614552711738e-01,1.514125143513345428e-01
5.759999999999999565e-01,-2.434605927051874119e-01,-2.871970243190695715e-01,-1.949214540348142080e-02
5.769999999999999574e-01,-4.694219900734744599e-01,-3.870891826095539945e-01,-2.096040330327025303e-01
5.779999999999999583e-01,-1.772821728631359672e-01,1.294981724175533512e-04,-1.244470561971522948e-01
5.789999999999999591e-01,3.596025551847778501e-01,3.801539966956614669e-01,8.649114973102051129e-02
5.799999999999999600e-01,4.869640485360685056e-01,2.877999735844301576e-01,2.433470718128464272e-01
5.809999999999999609e-01,4.332034092330942776e-02,-9.381539650524628460e-02,1.363660585118908197e-01
5.819999999999999618e-01,-4.295221775249178919e-01,-3.673061924448035587e-01,-1.665391593713094753e-01
5.829999999999999627e-01,-4.469910187955258851e-01,-2.011022395109964001e-01,-2.691685123920930511e-01
5.839999999999999636e-01,5.090910234491537872e-02,1.932893133726376333e-01,-8.260412646275501480e-02
5.849999999999999645e-01,4.837190507389990124e-01,3.335940020134641193e-01,2.185323593061272718e-01
5.859999999999999654e-01,3.430962792968220709e-01,8.951361312520163260e-02,2.816238478563650727e-01
5.869999999999999662e-01,-1.742306367333823769e-01,-2.226191133889462714e-01,1.427230064198701555e-02
5.879999999999999671e-01,-5.042320761074243762e-01,-2.674010801510071644e-01,-2.473773358009458689e-01
5.889999999999999680e-01,-2.642856816584571722e-01,8.900666721410783327e-03,-2.708069139105457324e-01
5.899999999999999689e-01,2.482941031157983591e-01,2.059901657578978029e-01,1.804065370866166432e-02
5.909999999999999698e-01,4.270456025558188595e-01,1.689782144090780647e-01,2.866650272669331034e-01
5.919999999999999707e-01,1.216882451811026472e-01,-6.044278325489774867e-02,1.776525292328680339e-01
5.929999999999999716e-01,-3.146325325935949158e-01,-1.763015726587300325e-01,-1.083890380596191083e-01
5.939999999999999725e-01,-3.414754455782277320e-01,-8.698898690600515016e-02,-2.870337296918408776e-01
5.949999999999999734e-01,-1.516298498365996165e-02,1.067946405831514262e-01,-1.897593025822821022e-01
5.959999999999999742e-01,3.142941270150954036e-01,9.602216541589679577e-02,1.412038061689309398e-01
5.969999999999999751e-01,2.283481062764171066e-01,-2.275002246651185514e-02,2.705151770183824578e-01
5.979999999999999760e-01,-6.166560548460177371e-02,-7.018148432682815019e-02,1.049970984381356220e-01
5.989999999999999769e-01,-2.507967686370018434e-01,1.412310721409767121e-02,-1.586302642204537316e-01
5.999999999999999778e-01,-1.164890165091611168e-01,1.095660297240955011e-01,-2.266327350447009670e-01
6.009999999999999787e-01,1.140460786541802052e-01,5.431398563350023356e-03,-4.607631057243197215e-02
6.019999999999999796e-01,1.371012679471773077e-01,-1.072549607604683791e-01,1.662600091340791231e-01
6.029999999999999805e-01,-3.848224610262195727e-02,-9.768396679568182306e-02,1.750618797393863890e-01
6.039999999999999813e-01,-1.353411478619813701e-01,9.813316016246310947e-02,-3.518007721887259770e-02
6.049999999999999822e-01,-1.638381853770897942e-02,1.839223014000692102e-01,-1.468280247348030809e-01
6.059999999999999831e-01,1.019329643483566084e-01,7.606352443936459373e-02,-7.220885082871761340e-02
6.069999999999999840e-01,7.346956950253784313e-02,-1.790136581085725320e-01,7.128520643174497684e-02
6.079999999999999849e-01,-9.248320038622073747e-02,-2.474852854236476440e-01,9.343870762044786948e-02
6.089999999999999858e-01,-1.347893872330450937e-01,2.390999802678268546e-02,3.498612734803099172e-02
6.099999999999999867e-01,3.975780299348449093e-02,2.576315945383577111e-01,-7.572851468452043711e-02
6.109999999999999876e-01,2.201760646962171997e-01,2.543372975476536069e-01,-4.249988436344606657e-02
6.119999999999999885e-01,9.821002997940450618e-02,-1.024328447278647497e-01,2.293155173478696879e-02
6.129999999999999893e-01,-1.477456255360924120e-01,-3.403224302660841638e-01,5.805963348188324102e-02
6.139999999999999902e-01,-3.277750658121251215e-01,-1.987551015739366933e-01,-1.548241010840451654e-02
6.149999999999999911e-01,-8.084479339302529100e-02,1.863457509453712024e-01,-5.407360368695782182e-02
6.159999999999999920e-01,2.795068109796350897e-01,4.000734690452238951e-01,-7.507601644095077652e-04
6.169999999999999929e-01,3.311460571459958202e-01,1.329605462865061094e-01,1.146584098442434696e-01
6.179999999999999938e-01,-6.461278357801161516e-04,-3.353760998849265040e-01,8.571194391316500072e-02
6.189999999999999947e-01,-4.108365095332260353e-01,-3.463227159908793817e-01,-2.355308970709078104e-02
6.199999999999999956e-01,-3.222458616475801785e-01,1.169213114364910447e-02,-1.418220343576223064e-01
6.209999999999999964e-01,1.439605623464195461e-01,3.641205589147308297e-01,-1.160553005606339005e-01
6.219999999999999973e-01,4.680582247432778509e-01,3.104977228961561808e-01,1.044485972290104675e-01
6.229999999999999982e-01,2.692073397682944180e-01,-1.352122670860380904e-01,2.214811451279032617e-01
6.239999999999999991e-01,-2.521032971531155797e-01,-3.983530846531991298e-01,8.171754040748371861e-02
6.250000000000000000e-01,-5.147508962768314600e-01,-2.407952216859736982e-01,-1.557671041019172697e-01
6.260000000000000009e-01,-1.916365174233361779e-01,1.900769481013758477e-01,-2.551404258758960819e-01
6.270000000000000018e-01,3.626705091899324884e-01,3.741278707323660302e-01,-1.056596149799953616e-02
6.280000000000000027e-01,4.968886242651396334e-01,1.008261407844984331e-01,2.655836772679206481e-01
6.290000000000000036e-01,6.743252017070806847e-02,-2.470902339315992624e-01,2.379492106196813839e-01
6.300000000000000044e-01,-4.380009270223637063e-01,-3.279291690922589431e-01,-6.763960905037281514e-03
6.310000000000000053e-01,-4.526279289758426971e-01,-6.453140132589922119e-03,-2.847911007961944629e-01
6.320000000000000062e-01,3.679791007008690468e-02,2.449439693375559668e-01,-1.910359049253272656e-01
6.330000000000000071e-01,4.518622199643511639e-01,2.350096646724829375e-01,6.988303940060862363e-02
6.340000000000000080e-01,3.235657189885415841e-01,-4.669034997659891190e-02,3.165931566019911658e-01
6.350000000000000089e-01,-1.317370054464384599e-01,-2.432035900705760978e-01,1.962549693548110985e-01
6.360000000000000098e-01,-4.464472023478280316e-01,-1.226985868571035115e-01,-1.659926558151434139e-01
6.370000000000000107e-01,-2.277920300437801249e-01,1.174390455068155120e-01,-3.230671404984848394e-01
6.380000000000000115e-01,2.147740169127416443e-01,1.524053213366407256e-01,-1.081860566491656406e-01
6.390000000000000124e-01,3.778892280038012030e-01,2.583122993169171058e-02,1.693494259478972586e-01
6.400000000000000133e-01,8.904028457356971682e-02,-1.263083467443757990e-01,2.961735705667355445e-01
6.410000000000000142e-01,-2.739226741652527886e-01,-6.052282330398243981e-02,5.625228187340569619e-02
6.420000000000000151e-01,-2.864787108731923215e-01,6.820378089860172632e-02,-2.128853238933680614e-01
6.430000000000000160e-01,2.388173883369120419e-03,1.063619741363776711e-01,-2.303616847182714811e-01
6.440000000000000169e-01,2.300786185771611092e-01,-3.368885234102430432e-02,-1.043328280835507937e-02
6.450000000000000178e-01,1.458198189547114665e-01,-9.818661258432909156e-02,1.827057260682194428e-01
6.460000000000000187e-01,-7.852550311006972761e-02,-2.285199270267862515e-02,1.772470373567161250e-01
6.470000000000000195e-01,-1.746408181870852949e-01,9.941816915335423277e-02,-9.828958759189919750e-03
6.480000000000000204e-01,-3.650573498325396932e-02,7.156169815735449746e-02,-1.855967607970019084e-01
6.490000000000000213e-01,9.672189239894636581e-02,-9.026670242196477290e-02,-1.145974966514745619e-01
6.500000000000000222e-01,5.363928476975918236e-02,-1.635493714767553841e-01,5.715947506813576912e-02
6.510000000000000231e-01,-9.583188141143347827e-02,-9.625831097360719804e-03,1.628303139187863846e-01
6.520000000000000240e-01,-6.455517798737198110e-02,2.237290869702707186e-01,6.297455897036063899e-02
6.530000000000000249e-01,5.884276565958748706e-02,1.963670497633844547e-01,-7.185122174636980608e-02
6.540000000000000258e-01,1.914800000677891190e-01,-8.494251825295566494e-02,-1.197674225642435114e-01
6.550000000000000266e-01,-6.494406890163533473e-03,-2.945523669096750119e-01,-2.263508153062359501e-02
6.560000000000000275e-01,-1.794397264114895585e-01,-1.875381802940552789e-01,8.801981572330153103e-02
6.570000000000000284e-01,-1.584859060568218347e-01,2.035468424066770587e-01,3.174784225980720881e-02
6.580000000000000293e-01,8.957640124233456902e-02,3.431564442373256085e-01,-3.894447586625131297e-02
6.590000000000000302e-01,3.056176875904882406e-01,1.039206005629376567e-01,-4.468643248272360230e-02
6.600000000000000311e-01,1.573933399130053590e-01,-2.640087526336475920e-01,4.244945647377974113e-02
6.610000000000000320e-01,-2.013534408383814978e-01,-3.686854364623657898e-01,8.964384137563058408e-02
6.620000000000000329e-01,-3.593229784713343200e-01,-1.152161294510542326e-02,-1.342586793123486631e-02
6.630000000000000338e-01,-1.004743773517902256e-01,3.692302575483351057e-01,-1.161737796399627681e-01
6.640000000000000346e-01,3.107589115556633752e-01,3.238995659396088356e-01,-6.788247326354282518e-02
6.650000000000000355e-01,3.777120145278952679e-01,-1.082185644512936723e-01,6.610051113630295572e-02
6.660000000000000364e-01,-1.547102783462759104e-02,-3.881891011994004770e-01,1.396995503316648957e-01
6.670000000000000373e-01,-4.134917180295370476e-01,-2.410649065210376529e-01,6.309850229346164463e-02
6.680000000000000382e-01,-3.655450984918246493e-01,2.107453359263489756e-01,-1.525561209884025993e-01
6.690000000000000391e-01,1.495455444601728745e-01,4.018903375904869235e-01,-1.824464066146987695e-01
6.700000000000000400e-01,4.794451640329385200e-01,1.424646295998934775e-01,8.848543781868512155e-04
6.710000000000000409e-01,3.030024023798192911e-01,-2.717549008557837431e-01,2.208482648080236643e-01
6.720000000000000417e-01,-2.648250029485896273e-01,-3.575625303159091772e-01,2.109557967066865991e-01
6.730000000000000426e-01,-4.812329744342646043e-01,-1.261573484931879062e-02,-6.353585369408419614e-02
6.740000000000000435e-01,-1.816372314876478211e-01,3.168455850210309954e-01,-2.538630911400359125e-01
6.750000000000000444e-01,3.617514742251992099e-01,2.866366936946441735e-01,-2.239244573909072167e-01
6.760000000000000453e-01,4.924316104739259181e-01,-4.539356984557879615e-02,1.296879655300953171e-01
6.770000000000000462e-01,5.154762236634519157e-02,-2.892837593624710268e-01,2.899267621569755482e-01
6.780000000000000471e-01,-3.962893088756597182e-01,-1.490345879926221750e-01,1.598686856109360621e-01
6.790000000000000480e-01,-4.148565148381662682e-01,1.092249750884674991e-01,-1.883079159745011111e-01
6.800000000000000488e-01,6.151916186405295695e-02,2.109376921048636000e-01,-3.146828886470913189e-01
6.810000000000000497e-01,4.360060802995218143e-01,4.271607499895994919e-02,-1.166541379850974253e-01
6.820000000000000506e-01,2.847897791745440665e-01,-1.222238686225867316e-01,2.240182050825599014e-01
6.830000000000000515e-01,-1.587068470610455140e-01,-1.654437929897910053e-01,2.800369018624367379e-01
6.840000000000000524e-01,-3.979352752313592423e-01,5.958691553925637464e-03,1.704724760327986505e-02
6.850000000000000533e-01,-1.906581188383739134e-01,1.193955545788235179e-01,-2.460348779277072850e-01
6.860000000000000542e-01,1.994479850623663841e-01,6.093923881892272104e-02,-2.230509021131204250e-01
6.870000000000000551e-01,2.955546313686581161e-01,-8.806732818005380548e-02,3.132417817215759487e-02
6.879999999999999449e-01,7.606185735603419873e-02,-1.028164568865256034e-01,2.697612673399009120e-01
6.889999999999999458e-01,-2.015640487802431158e-01,6.117236249084906374e-02,1.990297533185420298e-01
6.899999999999999467e-01,-2.461530819543695792e-01,9.622232658720149268e-02,-4.833444370256062550e-02
6.909999999999999476e-01,4.154406314116008622e-03,-4.034147238613677161e-02,-2.472618367251945837e-01
6.919999999999999485e-01,1.618583556077108909e-01,-1.286083880233321597e-01,-1.195902430894419943e-01
6.929999999999999494e-01,7.760003777871303521e-02,-8.140500753225182046e-03,1.120980498153495986e-01
6.939999999999999503e-01,-1.025654571202700704e-01,1.273475393558144431e-01,2.138400832195679890e-01
6.949999999999999512e-01,-7.716742029899947841e-02,1.785318282154688962e-01,6.176196629702756374e-02
6.959999999999999520e-01,5.167335130412429450e-02,-7.646488373732206190e-02,-1.358048746654205996e-01
6.969999999999999529e-01,9.818794852629501857e-02,-2.334603789034728760e-01,-1.372392786474587734e-01
6.979999999999999538e-01,-1.694744810081761505e-02,-1.369955718099263864e-01,-3.485963338559331520e-02
6.989999999999999547e-01,-1.362159327057210212e-01,1.121589661092081414e-01,1.230609832963399652e-01
6.999999999999999556e-01,-6.469755395040781287e-02,2.887492822307679563e-01,7.910557692647882111e-02
7.009999999999999565e-01,1.534788135496649164e-01,1.233366428272254373e-01,-3.423708115170880084e-02
7.019999999999999574e-01,1.960279622342724348e-01,-2.551490391056298601e-01,-8.184913548009860318e-02
7.029999999999999583e-01,-1.052185845382246250e-02,-3.263415684443265463e-01,-8.349844596102199215e-03
7.039999999999999591e-01,-2.462043741434780109e-01,-1.058020866959879722e-02,7.320637834146417888e-02
7.049999999999999600e-01,-2.201451916401286346e-01,3.449056950810827082e-01,2.508011331041605507e-02
7.059999999999999609e-01,1.264303844974511981e-01,3.048540466960268369e-01,-3.635825210995855677e-02
7.069999999999999618e-01,3.719287160397727887e-01,-1.095471752637877244e-01,-4.446462672478706385e-02
7.079999999999999627e-01,1.693116103455422350e-01,-4.032685819072227562e-01,7.478115307851865290e-02
7.089999999999999636e-01,-2.712725373695278330e-01,-2.660600839916457683e-01,1.250490819928104236e-01
7.099999999999999645e-01,-3.957626333234169347e-01,1.746722183619053015e-01,2.147568930774521392e-02
7.109999999999999654e-01,-8.668233750951459538e-02,4.327056571111559391e-01,-1.130940543113364977e-01
7.119999999999999662e-01,3.624753120601431067e-01,1.366149750706228960e-01,-1.689967084162891930e-01
7.129999999999999671e-01,4.192730733779763685e-01,-3.113229887803002360e-01,1.435028075326765656e-02
7.139999999999999680e-01,-2.447957334902113591e-02,-4.141437032432559451e-01,1.847570382489473195e-01
7.149999999999999689e-01,-4.687050948031972197e-01,-1.540093690604183406e-02,1.431661753668156956e-01
7.159999999999999698e-01,-3.876183444136009904e-01,3.434133382047434013e-01,-6.507686759553153732e-02
7.169999999999999707e-01,9.593868824530918382e-02,3.176093121022864341e-01,-2.502426695703055537e-01
7.179999999999999716e-01,4.940975773177222474e-01,-7.969297875676173426e-02,-1.519849776638490246e-01
7.189999999999999725e-01,3.071923031090461609e-01,-3.608717812734955066e-01,1.503434350394360908e-01
7.199999999999999734e-01,-2.595770303719083794e-01,-2.223305616310249366e-01,3.079616622753056920e-01
7.209999999999999742e-01,-5.307977081867771840e-01,1.524862842712295663e-01,9.935655258765854758e-02
7.219999999999999751e-01,-1.870108233652750807e-01,2.721367594758669073e-01,-2.026115182579682483e-01
7.229999999999999760e-01,3.401659394284176630e-01,1.272096606168745814e-01,-2.744428722960234324e-01
7.239999999999999769e-01,4.723611671188207572e-01,-2.168619750193231110e-01,-4.328850335853965531e-02
7.249999999999999778e-01,6.092482674862593345e-02,-2.445256492741706422e-01,2.673782703917390591e-01
7.259999999999999787e-01,-3.757922397457802433e-01,-1.384898201229794144e-02,2.429062975010533032e-01
7.269999999999999796e-01,-3.848028157831722140e-01,1.779709860589161752e-01,6.034482167687086306e-03
7.279999999999999805e-01,3.606077032484346356e-02,1.105659739503244282e-01,-2.874786943516877691e-01
7.289999999999999813e-01,3.734527952454037014e-01,-4.066078642050321296e-02,-2.499453959634918288e-01
7.299999999999999822e-01,2.402549199501069765e-01,-1.196173301352891488e-01,7.383679780534294079e-02
7.309999999999999831e-01,-1.208301877138532737e-01,-3.229715401786605045e-02,3.099181376918212494e-01
7.319999999999999840e-01,-3.336002850301508782e-01,1.128792668307688485e-01,1.940631619375575712e-01
7.329999999999999849e-01,-1.465523174247947147e-01,5.764686187555563557e-02,-1.324960259091320369e-01
7.339999999999999858e-01,1.434547976056058938e-01,-5.235100718991433227e-02,-2.734421375936697540e-01
7.349999999999999867e-01,2.128369998479360814e-01,-7.589221858592015701e-02,-8.735367986797103190e-02
7.359999999999999876e-01,4.103185671183284811e-02,6.886087043554491027e-02,1.670784389513449708e-01
7.369999999999999885e-01,-1.595952521501031729e-01,1.022754472229122358e-01,2.620887856510882852e-01
7.379999999999999893e-01,-9.754645428507739691e-02,-7.585262443265889006e-03,1.974946182907423922e-02
7.389999999999999902e-01,6.408889378728145625e-02,-1.516373730811225173e-01,-2.022311485354083282e-01
7.399999999999999911e-01,1.308757176554515289e-01,-1.174782980709264402e-01,-1.706864589521221998e-01
7.409999999999999920e-01,4.198156214279397808e-03,9.365751945563913217e-02,-8.490627110018586846e-03
7.419999999999999929e-01,-9.619903391908483925e-02,2.470872445015473151e-01,1.547625794243676356e-01
7.429999999999999938e-01,-1.001954949373342653e-02,9.108969985795896396e-02,1.043232061012862311e-01
7.439999999999999947e-01,1.299258795666325406e-01,-1.955499204696398152e-01,-4.575175939156966159e-02
7.449999999999999956e-01,8.787842961408494358e-02,-2.862063694705676564e-01,-1.374551952419784118e-01
7.459999999999999964e-01,-7.460230091093585092e-02,-3.694325661456741156e-02,-5.314445665859979934e-02
7.469999999999999973e-01,-1.983433794803749761e-01,3.061515952018115660e-01,9.346949311190662357e-02
7.479999999999999982e-01,-4.903262131998826351e-02,2.740725031388834831e-01,4.378158714430471776e-02
7.489999999999999991e-01,2.209692756901628363e-01,-1.133672069908251562e-01,-2.372447743398346798e-02
7.500000000000000000e-01,2.455516909247962565e-01,-3.579387470991328146e-01,-6.201853146743085965e-02
7.510000000000000009e-01,-2.994944677216702933e-02,-2.613539654055894723e-01,8.844336434839204092e-03
7.520000000000000018e-01,-3.131108499753242902e-01,1.768349191783218644e-01,6.740699806782692038e-02
7.530000000000000027e-01,-2.239774422180945135e-01,4.227917735135666710e-01,2.203630339723100517e-02
7.540000000000000036e-01,1.494865722949086095e-01,1.458805774257221355e-01,-7.003240039412263196e-02
7.550000000000000044e-01,3.970749033773472991e-01,-3.044305623022561247e-01,-1.063633553247660540e-01
7.560000000000000053e-01,1.915839285386107538e-01,-3.825301340112987614e-01,1.101813005720491540e-02
7.570000000000000062e-01,-2.819543793761328243e-01,-3.530290392358659268e-02,1.456519590544370080e-01
7.580000000000000071e-01,-4.516478328673180220e-01,3.504624386357169663e-01,1.305642796041495413e-01
7.590000000000000080e-01,-8.922491485435607439e-02,3.465495809364348423e-01,-8.120504468150191446e-02
7.600000000000000089e-01,4.125967705236025518e-01,-7.350146028817554356e-02,-1.885623219551019469e-01
7.610000000000000098e-01,4.690046974985958017e-01,-3.906049144888034119e-01,-7.673336304544603470e-02
7.620000000000000107e-01,-1.504729245904889469e-02,-2.314035818341355910e-01,1.557006272962192794e-01
7.630000000000000115e-01,-4.760739437968652954e-01,1.601786124178168902e-01,2.313599894104778620e-01
7.640000000000000124e-01,-3.899018882010634179e-01,3.490966914600422411e-01,4.586224631905614496e-02
7.650000000000000133e-01,1.462471737658486981e-01,1.438505422341045115e-01,-2.156783009161127029e-01
7.660000000000000142e-01,5.212656516413646246e-01,-2.091114455922065130e-01,-2.109381769585401689e-01
7.670000000000000151e-01,2.874292061754319949e-01,-2.712984843518340683e-01,2.507567809084877697e-02
7.680000000000000160e-01,-2.079462248180500572e-01,-3.378275118558642098e-02,2.719702964780126853e-01
7.690000000000000169e-01,-5.312901130003964134e-01,2.231857337122888640e-01,2.585206051736645416e-01
7.700000000000000178e-01,-1.812718581459739631e-01,2.021242355441646432e-01,-7.037740248950076494e-02
7.710000000000000187e-01,3.322601854271440835e-01,-5.326855291336792669e-02,-3.033266756030961186e-01
7.720000000000000195e-01,4.332339895434370591e-01,-1.829720190204758568e-01,-1.755325645600683548e-01
7.730000000000000204e-01,5.280643743686010139e-02,-1.096904415070359962e-01,1.349249914124484861e-01
7.740000000000000213e-01,-3.775919296855162477e-01,8.584066150340582957e-02,2.804823015833473043e-01
7.750000000000000222e-01,-3.267738439262707906e-01,1.038374596613989842e-01,1.285141819675371944e-01
7.760000000000000231e-01,5.344773378623016158e-02,-2.432417313797905975e-02,-1.871000199318534618e-01
7.770000000000000240e-01,3.407578790503515975e-01,-1.005855279641740402e-01,-3.034049402650661476e-01
7.780000000000000249e-01,2.172603010313038929e-01,-5.074377033450816477e-03,-7.722580084384085553e-02
7.790000000000000258e-01,-1.364096881068185552e-01,1.041027870231273772e-01,2.112612111920773861e-01
7.800000000000000266e-01,-2.592733622755123424e-01,2.967963214318440276e-02,2.642802729962217545e-01
7.810000000000000275e-01,-8.283035636258884171e-02,-8.254715125231147643e-02,3.042921644102862533e-02
7.820000000000000284e-01,1.604708426013186917e-01,-1.086218901882904653e-01,-2.314594175532785347e-01
7.830000000000000293e-01,1.527887844855815580e-01,2.278724029272531648e-02,-2.050428842055194156e-01
7.840000000000000302e-01,5.469685319196029806e-04,1.610004998754094030e-01,4.153325188314182376e-02
7.850000000000000311e-01,-1.318136878027882375e-01,9.922082784077061735e-02,2.191465282506501466e-01
7.860000000000000320e-01,-1.844330133550792575e-02,-1.438208450265960614e-01,1.388543641619063573e-01
7.870000000000000329e-01,8.163126169552387124e-02,-2.080257190672400447e-01,-6.285824192647447572e-02
7.880000000000000338e-01,4.644488618235248500e-02,-2.182355448795342268e-02,-1.779397244684745583e-01
7.890000000000000346e-01,-6.283340908136379743e-02,2.606901977001416792e-01,-6.968344460821533637e-02
7.900000000000000355e-01,-1.154065809530469416e-01,2.401543796696024580e-01,1.129533712406153995e-01
7.910000000000000364e-01,4.513834175147544286e-02,-6.841631768400435742e-02,1.075602428615205775e-01
7.920000000000000373e-01,1.883510381114325838e-01,-3.301542816170537908e-01,4.428880334829762497e-03
7.930000000000000382e-01,1.000167766474661379e-01,-1.971146303459985205e-01,-8.553035065731237618e-02
7.940000000000000391e-01,-1.794087770788770353e-01,1.593360278752758985e-01,-5.194048511595921597e-02
7.950000000000000400e-01,-2.563604443613903827e-01,3.645906851080785716e-01,3.069558972247686188e-02
7.960000000000000409e-01,-1.584726013111146040e-02,1.258288491508894325e-01,4.427783129828830044e-02
7.970000000000000417e-01,2.979234466341286747e-01,-2.673683692384629107e-01,-3.420828447922801691e-02
7.980000000000000426e-01,2.849625410561257843e-01,-4.114219020397010262e-01,-5.695532642854286842e-02
7.990000000000000435e-01,-7.035325201423453523e-02,-5.433340025408792823e-02,3.345117531770425319e-03
8.000000000000000444e-01,-3.945428721778548864e-01,3.573716087478088221e-01,8.433406494790136876e-02
8.010000000000000453e-01,-2.972915992923783612e-01,3.445572179390091749e-01,8.531389202544732708e-02
8.020000000000000462e-01,2.044960990481205221e-01,-6.461557666779456366e-02,-6.260974731100145407e-02
8.030000000000000471e-01,4.751285183303647908e-01,-3.923669471558983157e-01,-1.353448312192866432e-01
8.040000000000000480e-01,2.221973108229872707e-01,-2.700637100396126589e-01,-5.260610037573435621e-02
8.050000000000000488e-01,-2.903047703537230961e-01,1.660655000715128005e-01,1.461172514260569710e-01
8.060000000000000497e-01,-4.868342137054013086e-01,4.197247328564039370e-01,1.639686522291894377e-01
8.070000000000000506e-01,-1.388077905529537248e-01,1.567974092415060083e-01,9.229306905806190092e-03
8.080000000000000515e-01,3.993143062065256377e-01,-2.352355673851471707e-01,-1.859883104050646663e-01
8.090000000000000524e-01,4.598503679383992293e-01,-3.326014976118769617e-01,-1.730162932599152437e-01
8.100000000000000533e-01,2.630962717454560316e-03,-5.922448417791579406e-02,7.172057375817246505e-02
8.110000000000000542e-01,-4.659925247290799821e-01,2.570640845345102399e-01,2.623441834312916221e-01
8.120000000000000551e-01,-3.810525737167113625e-01,2.629512229831610370e-01,1.620157383548753993e-01
8.129999999999999449e-01,1.325451185532260656e-01,-1.585146325735610137e-02,-1.034042949574390663e-01
8.139999999999999458e-01,4.716068732488084003e-01,-2.552287280993014162e-01,-3.227132715687803799e-01
8.149999999999999467e-01,2.818088511183059475e-01,-1.465095814502442861e-01,-1.393176003273596253e-01
8.159999999999999476e-01,-1.869601590523838341e-01,1.313094542382924057e-01,1.885491772634438623e-01
8.169999999999999485e-01,-4.576439243333655371e-01,2.091366560420532816e-01,3.271111026756244322e-01
8.179999999999999494e-01,-1.843543054510959345e-01,3.395566121865722931e-02,1.065379973630421334e-01
8.189999999999999503e-01,3.083326712458205887e-01,-1.111710244655390312e-01,-2.219084816604741384e-01
8.199999999999999512e-01,4.048390601095369079e-01,-9.965069944253883427e-02,-2.608091918068029536e-01
8.209999999999999520e-01,3.921647441803376155e-02,3.318740565465513881e-02,-7.054575756332630287e-02
8.219999999999999529e-01,-2.820573242813237957e-01,8.477220192256151865e-02,2.641635279798028035e-01
8.229999999999999538e-01,-3.056038010576163089e-01,3.327892236313290120e-02,2.386899747137674888e-01
8.239999999999999547e-01,4.209804357584406853e-02,-8.887885397991582281e-02,-2.957685684081102703e-02
8.249999999999999556e-01,2.762117597360816967e-01,-2.199117174179176029e-02,-2.473717944342603281e-01
8.259999999999999565e-01,1.505544358378761993e-01,7.100631364355265707e-02,-1.782020694355001544e-01
8.269999999999999574e-01,-1.063723274741631281e-01,7.892231371467818557e-02,9.127997111876071101e-02
8.279999999999999583e-01,-2.070163795654596239e-01,-9.896535174110400457e-02,2.680564700673371270e-01
8.289999999999999591e-01,-4.801185364181433102e-02,-1.839391736063503702e-01,1.440444960622153381e-01
8.299999999999999600e-01,1.522468907632735236e-01,-4.067550307033495488e-02,-1.096694528114101064e-01
8.309999999999999609e-01,9.438597544271422335e-02,1.738495244052357669e-01,-2.229680071375733652e-01
8.319999999999999618e-01,-4.845810248176716378e-02,2.192306940226384782e-01,-6.286303157440568945e-02
8.329999999999999627e-01,-1.134636379820569835e-01,-2.705105871197854145e-02,1.320826628813223935e-01
8.339999999999999636e-01,6.544634074968599946e-02,-2.764567722159571583e-01,1.902530165399984596e-01
8.349999999999999645e-01,1.108284380729186031e-01,-1.965799758131851205e-01,2.234966409079123389e-02
8.359999999999999654e-01,1.687155825813104262e-02,1.378466045108034388e-01,-1.253897953340386284e-01
8.369999999999999662e-01,-2.164379025431603376e-01,3.348554617671054001e-01,-7.594961412441580961e-02
8.379999999999999671e-01,-1.084333372896870290e-01,1.343603459811915091e-01,-9.253092554100947938e-04
8.389999999999999680e-01,9.077626003708361146e-02,-2.631609649718701927e-01,9.874669638564863294e-02
8.399999999999999689e-01,2.604585008984645067e-01,-3.616277705465670289e-01,6.878248942546032543e-03
8.409999999999999698e-01,9.328638736933386744e-02,-5.523278613470121445e-02,-7.621186714324162947e-02
8.419999999999999707e-01,-2.025271653895651114e-01,3.074790578811861796e-01,-3.507754196668850383e-02
8.429999999999999716e-01,-3.173041545875703862e-01,3.489643018906621874e-01,4.766772912484649322e-02
8.439999999999999725e-01,-2.245494464768249890e-02,-5.585211860872411893e-02,3.631304384919939454e-02
8.449999999999999734e-01,3.645839426372878833e-01,-3.686759381026975535e-01,-1.766577585628100258e-02
8.459999999999999742e-01,3.461419569522171669e-01,-2.584024397285560326e-01,-8.607155464862084604e-02
8.469999999999999751e-01,-6.094178869176299085e-02,1.852328184992113047e-01,-4.245502878758163762e-02
8.479999999999999760e-01,-4.471039785639281394e-01,4.072043683146831516e-01,7.986450942853222379e-02
8.489999999999999769e-01,-2.813496831351912641e-01,1.712437264578093865e-01,1.388218739329757923e-01
8.499999999999999778e-01,2.348655940836512079e-01,-2.477388682229035577e-01,1.110883611952075654e-02
8.509999999999999787e-01,5.058032674788194294e-01,-3.759276331817156258e-01,-1.725431591954045274e-01
8.519999999999999796e-01,1.752549287935732669e-01,-5.753592318694387975e-02,-1.508975824974340685e-01
8.529999999999999805e-01,-3.257605959337809831e-01,3.164805960736540857e-01,6.721661723898614271e-02
8.539999999999999813e-01,-5.156425533313941933e-01,3.037382369403607285e-01,2.308380929394257819e-01
8.549999999999999822e-01,-1.318884338546863488e-01,-2.962657807726008438e-02,1.221085015852339389e-01
8.559999999999999831e-01,3.932953626157600358e-01,-2.979000187299065683e-01,-1.547367901038790572e-01
8.569999999999999840e-01,4.472547660987787888e-01,-1.932886962992626245e-01,-2.886011516072019556e-01
8.579999999999999849e-01,7.956884808521609911e-03,1.152910613157453606e-01,-1.089328445767809433e-01
8.589999999999999858e-01,-4.673456869022928339e-01,2.412551291038399215e-01,1.963088472836219400e-01
8.599999999999999867e-01,-3.719492679455967399e-01,8.301405109784430747e-02,2.762831082619184864e-01
8.609999999999999876e-01,1.006000808842669181e-01,-1.535438192023190207e-01,4.959220720750635164e-02
8.619999999999999885e-01,4.311490122151040438e-01,-1.707657280599942651e-01,-2.406578004674124194e-01
8.629999999999999893e-01,2.791099050122030634e-01,-1.972824259311401970e-02,-2.508055272963574112e-01
8.639999999999999902e-01,-2.085869893221579119e-01,1.314688305723627770e-01,3.345349910993843795e-02
8.649999999999999911e-01,-4.156159157152088390e-01,8.150924800899626843e-02,2.663349521134539266e-01
8.659999999999999920e-01,-1.255647768208371373e-01,-6.497816259546761175e-02,2.482708422487196198e-01
8.669999999999999929e-01,2.608694336133386416e-01,-9.875782750379921704e-02,-6.657394539877753425e-02
8.679999999999999938e-01,3.161405536306397535e-01,4.330987884600239098e-03,-2.932642403335633530e-01
8.689999999999999947e-01,2.585215604769710782e-02,5.387301743794516151e-02,-1.704117131839883448e-01
8.699999999999999956e-01,-2.515211874811921766e-01,-1.862416621358045643e-02,1.466640546328042694e-01
8.709999999999999964e-01,-2.296895707752971416e-01,-1.136761818238222754e-01,2.552791606243469680e-01
8.719999999999999973e-01,7.957484063842587552e-02,-6.595423269698302837e-02,1.060161829903606412e-01
8.729999999999999982e-01,1.908350273728120217e-01,7.922991531443604463e-02,-1.651077091376782213e-01
8.739999999999999991e-01,8.687528335353714160e-02,1.467329220777336685e-01,-2.757716628664018121e-01
8.750000000000000000e-01,-1.149759751594165713e-01,-1.179894326506049883e-02,-5.025744308058022192e-02
8.760000000000000009e-01,-1.598718001748606066e-01,-2.062214063240036810e-01,1.770250222791015793e-01
8.770000000000000018e-01,7.175008762483794933e-02,-1.645650154741364890e-01,2.033661103810870396e-01
8.780000000000000027e-01,9.261299794068425517e-02,1.053522686816915771e-01,-1.433909208858604595e-03
8.790000000000000036e-01,-1.056103246102690560e-02,2.713618059031638885e-01,-1.650706912925923864e-01
8.800000000000000044e-01,-1.343713582387995320e-01,1.243799183746276127e-01,-1.283786222583882808e-01
8.810000000000000053e-01,-5.368936074360064481e-02,-2.033504983471400573e-01,3.444116498381714214e-02
8.820000000000000062e-01,1.391515577485238631e-01,-3.149064400523365337e-01,1.246330202553916772e-01
8.830000000000000071e-01,1.363047786723366184e-01,-8.947849966919297141e-03,6.821884618397304478e-02
8.840000000000000080e-01,-4.619814081620944590e-02,3.318457516169401877e-01,-5.132138235669651827e-02
8.850000000000000089e-01,-2.295282425464803266e-01,2.929199862066261817e-01,-6.907489181676965129e-02
8.860000000000000098e-01,-1.518968854809870372e-01,-5.262226921454336848e-02,2.380693942051988893e-02
8.870000000000000107e-01,1.341230775756646065e-01,-3.598811263633221458e-01,6.252761586017435702e-02
8.880000000000000115e-01,3.030775281039340685e-01,-2.518249970487309031e-01,1.766984066863633296e-02
8.890000000000000124e-01,1.282358589305760133e-01,1.505911990531158817e-01,-5.492971739151272098e-02
8.900000000000000133e-01,-2.791291403556702688e-01,4.113726401562835533e-01,-4.106606815839816682e-02
8.910000000000000142e-01,-3.740204501965360695e-01,1.605502633002349744e-01,6.674361689233107575e-02
8.920000000000000151e-01,-5.618416627422580939e-02,-2.838055884664537620e-01,1.156549364710504069e-01
8.930000000000000160e-01,3.930566462919715121e-01,-3.953207554599424411e-01,-2.905512845390885793e-02
8.940000000000000169e-01,3.699351815868673343e-01,-5.468217035674003551e-02,-1.477967883709358221e-01
8.950000000000000178e-01,-8.427700296858485485e-02,3.099902676742500307e-01,-9.695310500869043502e-02
8.960000000000000187e-01,-4.752571364732108283e-01,3.232478172418369877e-01,7.346684710968057197e-02
8.970000000000000195e-01,-3.278121426645298486e-01,-3.968250477945745036e-02,1.808220057400885539e-01
8.980000000000000204e-01,2.295424166298878910e-01,-3.519089698929572796e-01,8.856342268844029364e-02
8.990000000000000213e-01,4.974402664001031371e-01,-2.559087321786802094e-01,-1.081444558570728298e-01
9.000000000000000222e-01,1.934163515831603397e-01,1.068960731132417297e-01,-2.337079897145787621e-01
9.010000000000000231e-01,-3.286169716443549382e-01,3.244369819881248174e-01,-7.855415604065975332e-02
9.020000000000000240e-01,-5.172536716441737958e-01,1.245406400029830385e-01,1.762135319503583264e-01
9.030000000000000249e-01,-1.137193128368143569e-01,-1.686741670027118167e-01,2.246961975543521062e-01
9.040000000000000258e-01,4.211277168727937670e-01,-2.607764619348919566e-01,-7.298091006319872183e-03
9.050000000000000266e-01,4.478797301928223451e-01,-4.784683534250409181e-02,-2.908009722715399481e-01
9.060000000000000275e-01,-6.239814297396230683e-03,1.773614214271972689e-01,-2.451242833047529435e-01
9.070000000000000284e-01,-4.368339772627630180e-01,1.640152969325454346e-01,6.051279948563918765e-02
9.080000000000000293e-01,-3.499734322025626621e-01,-2.710682162556194916e-02,3.201235382829495935e-01
9.090000000000000302e-01,1.238232587645597543e-01,-1.332151866207620106e-01,2.114911484702095001e-01
9.100000000000000311e-01,3.971819812917438686e-01,-5.878527792172119626e-02,-1.341590521858045393e-01
9.110000000000000320e-01,2.217228061108318660e-01,8.260499871900894853e-02,-3.039605464684957403e-01
9.120000000000000329e-01,-1.949599422658690184e-01,9.591108262356860814e-02,-1.205942132129902700e-01
9.130000000000000338e-01,-3.594624662934154946e-01,-2.217259746149843197e-02,1.643761011526935212e-01
9.140000000000000346e-01,-9.576193073973914005e-02,-8.159397784627250849e-02,2.981453403957188830e-01
9.150000000000000355e-01,2.270665736659534528e-01,1.817600699871464026e-02,1.007767642079692022e-01
9.160000000000000364e-01,2.456507708428267156e-01,1.149034413200917815e-01,-2.234981469537139498e-01
9.170000000000000373e-01,-2.549289752702758784e-03,5.652476905704676563e-02,-2.480433748340422906e-01
9.180000000000000382e-01,-2.063041367712709073e-01,-1.509465027660838732e-01,-2.652540129835252378e-02
9.190000000000000391e-01,-1.268010647046695638e-01,-1.228606241497262469e-01,2.332343116405846684e-01
9.200000000000000400e-01,8.139242879423644328e-02,1.796696717190109441e-02,2.183402616875796121e-01
9.210000000000000409e-01,1.433005420084641768e-01,2.015027429541924320e-01,-4.071248629149683967e-02
9.220000000000000417e-01,7.488449316601882184e-03,1.135231741854128285e-01,-2.139905265416731095e-01
9.230000000000000426e-01,-9.968156440620457026e-02,-1.567713881983345270e-01,-1.535828241551850382e-01
9.240000000000000435e-01,-2.907457505986360199e-02,-2.425585241854436858e-01,6.469487662678320705e-02
9.250000000000000444e-01,1.089483662749961418e-01,-5.337440724195146452e-02,1.582215631524878097e-01
9.260000000000000453e-01,6.604227495224744560e-02,2.615151009411282312e-01,7.652355344653131997e-02
9.270000000000000462e-01,-8.490152310684738468e-02,3.020252686630984229e-01,-1.000243272916636755e-01
9.280000000000000471e-01,-1.756058543514878167e-01,-5.692957534209950460e-02,-1.360264206030115663e-01
9.290000000000000480e-01,-1.037214669999913380e-02,-3.353191081875676605e-01,2.360531640524071023e-02
9.300000000000000488e-01,2.097431322244422136e-01,-2.504811080655429678e-01,1.156808135079682304e-01
9.310000000000000497e-01,2.314998285004931100e-01,1.678299209363968980e-01,3.769451331290677581e-02
9.320000000000000506e-01,-9.579021668623857733e-02,3.961516128470442544e-01,-4.538041515698823525e-02
9.330000000000000515e-01,-3.166167649961107999e-01,2.020079450018137657e-01,-6.092400322078259101e-02
9.340000000000000524e-01,-1.898748162097966263e-01,-2.285977123985448167e-01,2.708090854075415749e-02
9.350000000000000533e-01,1.816593327893389620e-01,-3.830343552074892410e-01,7.962396657810599798e-02
9.360000000000000542e-01,3.797908327017144869e-01,-5.285809065236701104e-02,-6.854087282193935780e-03
9.370000000000000551e-01,1.015670137632387199e-01,3.567212241200627409e-01,-8.743095503602546503e-02
9.379999999999999449e-01,-3.210177607456329851e-01,3.839942232804127165e-01,-7.127810636181147741e-02
9.389999999999999458e-01,-4.279722081430062386e-01,-3.242013552105171142e-02,1.764219568442001312e-02
9.399999999999999467e-01,-2.756589986218107788e-02,-3.943231727519433960e-01,1.414093867326292886e-01
9.409999999999999476e-01,4.180246364266325121e-01,-2.702813343897479403e-01,3.793144981817719863e-02
9.419999999999999485e-01,4.107837698668880266e-01,1.135628289619994014e-01,-1.457584011964548065e-01
9.429999999999999494e-01,-9.543374775144955469e-02,3.633544787698522738e-01,-1.830212797232388944e-01
9.439999999999999503e-01,-4.636011790778089003e-01,1.449105658010981235e-01,7.700342151368900698e-03
9.449999999999999512e-01,-3.284881603960527197e-01,-1.776591567431865526e-01,1.796729012111236701e-01
9.459999999999999520e-01,2.222033186879074362e-01,-3.240252470821102238e-01,1.659186961026720974e-01
9.469999999999999529e-01,5.064795851185509568e-01,-6.993977359359659918e-02,-9.264495856781537406e-03
9.479999999999999538e-01,2.224232441688767381e-01,2.336868140508163438e-01,-2.494158910040826793e-01
9.489999999999999547e-01,-3.142601127701653563e-01,2.146728669551600244e-01,-1.712890226583939357e-01
9.499999999999999556e-01,-5.047564378277554775e-01,-5.010963020770970583e-02,1.190096176384119048e-01
9.509999999999999565e-01,-8.890984007126011279e-02,-2.263723485089161047e-01,2.872625598501828970e-01
9.519999999999999574e-01,3.893192211344754239e-01,-1.240466760352346293e-01,1.442303271662954689e-01
9.529999999999999583e-01,4.174694329295813300e-01,7.208885680558849152e-02,-1.473482232137302006e-01
9.539999999999999591e-01,-7.108819394224806174e-03,1.498177268863218614e-01,-3.048204021717015877e-01
9.549999999999999600e-01,-4.141134044566381345e-01,2.897859461439813641e-02,-9.648374710777456176e-02
9.559999999999999609e-01,-3.278584267671952879e-01,-1.364223777593487619e-01,2.141192718363411351e-01
9.569999999999999618e-01,9.687054355309167308e-02,-5.747251062346404871e-02,2.806144648007788955e-01
9.579999999999999627e-01,3.591727263654784785e-01,4.683694979886404708e-02,2.963299867448948924e-02
9.589999999999999636e-01,2.191366501551232637e-01,8.327658468168103179e-02,-2.553453315813471458e-01
9.599999999999999645e-01,-1.579703843648143646e-01,-3.736804541647760491e-02,-2.479065904590984915e-01
9.609999999999999654e-01,-3.245448270878685260e-01,-1.019279655317042177e-01,-9.255420848042382942e-04
9.619999999999999662e-01,-8.742050522376294819e-02,-4.415747047544106053e-03,2.611235876724884442e-01
9.629999999999999671e-01,1.671906738961473626e-01,1.177174576144942586e-01,2.092876299019824360e-01
9.639999999999999680e-01,1.755908333740852922e-01,9.077638648446324787e-02,-9.584357399170531644e-02
9.649999999999999689e-01,2.342086889068716385e-03,-8.250229781952818364e-02,-2.461504627052884531e-01
9.659999999999999698e-01,-1.520234474988658990e-01,-2.220933967414228383e-01,-1.409732858249563014e-01
9.669999999999999707e-01,-5.757315064531388915e-02,-2.558016887369288575e-02,1.536609845458661583e-01
9.679999999999999716e-01,7.034255230964131522e-02,2.042994704455398103e-01,2.161567294735945721e-01
9.689999999999999725e-01,9.386038540778127159e-02,2.449214398616184063e-01,4.874143372827274834e-02
9.699999999999999734e-01,-6.019305086855523262e-02,-3.672794555063454286e-02,-1.426543017143143965e-01
9.709999999999999742e-01,-1.009701149211904292e-01,-3.113315007692771252e-01,-1.634492795018477607e-01
9.719999999999999751e-01,5.098890312162153438e-02,-2.082899323368138100e-01,-2.238268109547684320e-02
9.729999999999999760e-01,1.619238857546917432e-01,1.273001421321217908e-01,1.528717005484343805e-01
9.739999999999999769e-01,7.446028446449469429e-02,3.359263787077588215e-01,1.450511807534930475e-01
9.749999999999999778e-01,-1.621747707264722671e-01,1.884962686272069199e-01,-2.772704307039152230e-02
9.759999999999999787e-01,-2.328045859449842658e-01,-2.514146351650484723e-01,-8.106017312765054217e-02
9.769999999999999796e-01,-9.550259603190437013e-03,-4.006360278074644898e-01,-4.195504826046683039e-02
9.779999999999999805e-01,2.828237224617696222e-01,-8.479935368783042549e-02,6.879697926399024055e-02
9.789999999999999813e-01,2.620772901803887223e-01,3.360348239424676420e-01,3.033208094675520633e-02
9.799999999999999822e-01,-1.385210010778985257e-01,3.576619186106102521e-01,-5.012567286467700667e-02
9.809999999999999831e-01,-3.398590981197592287e-01,-1.874147500319027493e-02,-5.026853048069351848e-02
9.819999999999999840e-01,-1.904692236667295813e-01,-3.882677882988802009e-01,1.018695001341275719e-02
9.829999999999999849e-01,2.598430011512143922e-01,-2.890376363672113036e-01,6.659499356663393932e-02
9.839999999999999858e-01,4.577112137896314770e-01,1.178299075028118037e-01,3.142851598022181059e-02
9.849999999999999867e-01,1.312730402873672209e-01,4.088129876442603838e-01,-7.299314966435689611e-02
9.859999999999999876e-01,-3.523569242300385040e-01,2.110783908905785877e-01,-1.330533437204650393e-01
9.869999999999999885e-01,-4.407498514017724744e-01,-2.254636672502177419e-01,-7.109811104137943663e-03
9.879999999999999893e-01,-3.801803793598954040e-02,-3.922349499418300023e-01,1.683377885442522426e-01
9.889999999999999902e-01,4.722497774855314856e-01,-7.768604080749967611e-02,1.531637343209708013e-01
9.899999999999999911e-01,4.060248475198935947e-01,2.665017244951487507e-01,-6.051315841546463237e-02
9.909999999999999920e-01,-1.173103082350900050e-01,2.952032377965693732e-01,-2.207664057296236659e-01
9.919999999999999929e-01,-5.109757990493444257e-01,-8.374365585108622945e-03,-1.362018038136493525e-01
9.929999999999999938e-01,-3.485371386666088478e-01,-2.825923404828952212e-01,1.316130139526829612e-01
9.939999999999999947e-01,2.111615064654143448e-01,-1.783916249652470754e-01,2.772453156379869332e-01
9.949999999999999956e-01,5.155448351689556619e-01,1.000913195651663284e-01,8.967646668542596233e-02
9.959999999999999964e-01,2.370012830588398844e-01,2.260821973282907682e-01,-1.727321891041912749e-01
9.969999999999999973e-01,-3.173771866170657652e-01,7.343394483898410541e-02,-2.795741017074899193e-01
9.979999999999999982e-01,-4.613794671251460477e-01,-1.025703876881136345e-01,-3.896253271937839824e-02
9.989999999999999991e-01,-1.011871085707342771e-01,-1.511561393977840784e-01,2.416522981625559841e-01
1.000000000000000000e+00,3.476700188299723382e-01,2.496640292327008404e-02,2.466873577199831247e-01
1.000999999999999890e+00,3.922323184131258356e-01,1.080068165357589705e-01,-3.445281024895840288e-02
1.002000000000000002e+00,-6.214586829979319021e-03,1.117531324613842483e-02,-2.734982969191183111e-01
1.002999999999999892e+00,-3.736075867418775509e-01,-5.381733397882531439e-02,-2.261389597253139205e-01
1.004000000000000004e+00,-2.838765296371842384e-01,-6.174807058943563437e-02,8.245430741761114457e-02
1.004999999999999893e+00,9.839502908443535645e-02,8.099138442326324350e-02,3.066602875119625593e-01
1.006000000000000005e+00,2.913310009786091448e-01,8.634559110243308910e-02,1.752292346799424194e-01
1.006999999999999895e+00,1.524297993359584324e-01,-4.502454385588875591e-02,-1.013650956814240028e-01
1.008000000000000007e+00,-1.328243347596388957e-01,-1.753981844054384176e-01,-2.811438421430296764e-01
1.008999999999999897e+00,-2.328492007858265767e-01,-6.682090585418895556e-02,-1.260755623741340314e-01
1.010000000000000009e+00,-1.286740465215547094e-02,1.223285464968305869e-01,1.651247868391464424e-01
1.010999999999999899e+00,1.782661215379810482e-01,2.072906362023646809e-01,2.681974666742992786e-01
1.012000000000000011e+00,1.023295641961116803e-01,-1.252575402017952651e-02,7.689597902948996921e-02
1.012999999999999901e+00,-5.828488192908105880e-02,-2.192702957471347747e-01,-2.091524136019358160e-01
1.014000000000000012e+00,-7.418543825652700041e-02,-1.764359265115686137e-01,-2.514626608552517628e-01
1.014999999999999902e+00,1.992322454400939982e-02,1.143179069588474150e-01,-5.323192468993559294e-03
1.016000000000000014e+00,1.216008407289562859e-01,2.832445479314392722e-01,1.645038296498538832e-01
1.016999999999999904e+00,3.412801117892042078e-03,1.464903022637473184e-01,1.514738092763994182e-01
1.018000000000000016e+00,-1.140569375866360841e-01,-2.252919554032370431e-01,-3.674701138144893103e-02
1.018999999999999906e+00,-1.317230621155940362e-01,-3.356502970536068275e-01,-1.535239874546800165e-01
1.020000000000000018e+00,1.037789956200785152e-01,-5.834520936090273335e-02,-8.594261592628013591e-02
1.020999999999999908e+00,2.016510378741010190e-01,3.214313001437777984e-01,3.984087562766652768e-02
1.022000000000000020e+00,8.107024362290700392e-02,3.375487308442965406e-01,9.487031481099589270e-02
1.022999999999999909e+00,-2.389994930991700683e-01,-2.957103262344670455e-02,8.305005006463927336e-03
1.024000000000000021e+00,-2.702696784074553049e-01,-3.667988329586091556e-01,-6.420965815473136939e-02
1.024999999999999911e+00,2.296837491147553020e-02,-2.646572023453238054e-01,-5.418301692743250630e-02
1.026000000000000023e+00,3.636189450404053725e-01,1.658190947845071539e-01,5.307441669391033817e-02
1.026999999999999913e+00,2.771513841974516112e-01,4.269141922680795287e-01,6.277307658565303705e-02
1.028000000000000025e+00,-1.091840404866466496e-01,1.811103516579544714e-01,-5.974627112630320064e-02
1.028999999999999915e+00,-4.487859624529851321e-01,-2.780045488641580409e-01,-9.782509862619538643e-02
1.030000000000000027e+00,-2.475421329243341906e-01,-3.602345679674285317e-01,-8.506952511212046136e-04
1.030999999999999917e+00,2.656958534938120287e-01,-1.092727254350889798e-01,1.284141854851037490e-01
1.032000000000000028e+00,4.920693214681370331e-01,3.139156851637674994e-01,1.394598803651558860e-01
1.032999999999999918e+00,1.739455854301417137e-01,3.416878213475415538e-01,-6.314090071964019446e-02
1.034000000000000030e+00,-3.651661899758960050e-01,-2.270327229515350584e-02,-1.765250131256229649e-01
1.034999999999999920e+00,-4.628866977390069803e-01,-2.955995950221567692e-01,-8.830670952645358618e-02
1.036000000000000032e+00,-1.574335944434359508e-02,-2.302274031856702263e-01,1.314141658718119277e-01
1.036999999999999922e+00,4.256997783404746771e-01,1.015334905650436270e-01,2.080507733179126628e-01
1.038000000000000034e+00,4.549822565970609300e-01,3.159306796130392225e-01,5.672248185633702727e-02
1.038999999999999924e+00,-7.466485281750641356e-02,1.188757598267822652e-01,-1.761096878567104396e-01
1.040000000000000036e+00,-4.725806916735296737e-01,-1.577739743696370545e-01,-2.372728827952919617e-01
1.040999999999999925e+00,-3.462780156556539701e-01,-2.178610818289042073e-01,1.217322856704816138e-02
1.042000000000000037e+00,1.867574166804110147e-01,-4.704063022595442872e-02,2.333613113791151439e-01
1.042999999999999927e+00,4.660143380204978536e-01,1.553864432955161801e-01,2.373498398435366641e-01
1.044000000000000039e+00,2.088430518097430522e-01,1.117943058978050352e-01,-8.102166435652155552e-02
1.044999999999999929e+00,-2.866452121872302139e-01,-3.159646463646409442e-02,-2.799725593391189649e-01
1.046000000000000041e+00,-4.322119817591936197e-01,-9.477758694415200358e-02,-2.156472368038136189e-01
1.046999999999999931e+00,-9.068795586875040560e-02,-2.921454367140446581e-02,1.242899374133759893e-01
1.048000000000000043e+00,3.122121531149695262e-01,7.568198691393990263e-02,2.954466995661112483e-01
1.048999999999999932e+00,3.235980399150411579e-01,2.774876259710011214e-02,1.509971724439319318e-01
1.050000000000000044e+00,-1.143356456445820783e-02,-6.536114180167498788e-02,-1.412571325600011918e-01
1.050999999999999934e+00,-3.075750107818463475e-01,-4.500400781788319038e-02,-3.293868358389873685e-01
1.052000000000000046e+00,-2.075461741675775906e-01,4.284224411733517091e-02,-6.363995641364393607e-02
1.052999999999999936e+00,6.323946275549764684e-02,1.318466185666166968e-01,2.549582247313598726e-01
1.054000000000000048e+00,2.415927127231416727e-01,2.239457031301641046e-02,2.791495414277981868e-01
1.054999999999999938e+00,9.303769362536774834e-02,-1.601724552428763493e-01,1.380719091225746271e-02
1.056000000000000050e+00,-1.207684536046200602e-01,-1.844135397287002820e-01,-2.237064171268225987e-01
1.056999999999999940e+00,-1.395025674802945759e-01,5.543227904547299439e-02,-2.032387014631210631e-01
1.058000000000000052e+00,4.797096445060468339e-03,2.582443145431586595e-01,1.698979759842087975e-02
1.058999999999999941e+00,1.029594324658982263e-01,1.324739013913352470e-01,2.303642584831013529e-01
1.060000000000000053e+00,2.313885461756380255e-02,-1.412604559441882346e-01,1.271645014013852715e-01
1.060999999999999943e+00,-1.233131059918264466e-01,-3.075719066768101140e-01,-8.040807866095317502e-02
1.062000000000000055e+00,-5.567595885867631517e-02,-4.762636823108028217e-02,-2.122597694636071397e-01
1.062999999999999945e+00,1.044179140455030880e-01,2.777770303729066304e-01,-1.028168918626387457e-01
1.064000000000000057e+00,1.642644788689481272e-01,3.247758603205241346e-01,1.040089424382837774e-01
1.064999999999999947e+00,-4.547834523993718459e-02,-2.487433669949881687e-02,1.713328144688965327e-01
1.066000000000000059e+00,-2.502956833346365317e-01,-3.716145826386335616e-01,7.594358093207147567e-03
1.066999999999999948e+00,-1.415544790094030170e-01,-2.848797409340180220e-01,-1.046454548377096228e-01
1.068000000000000060e+00,1.951010209592345945e-01,1.577325282669972406e-01,-9.666004206064371385e-02
1.068999999999999950e+00,2.913682437297503980e-01,4.317101917857504301e-01,-1.296974926619544506e-02
1.070000000000000062e+00,7.379423204674770420e-02,2.260302729853565229e-01,9.496969012427686208e-02
1.070999999999999952e+00,-3.124190158103138937e-01,-2.540053718625586154e-01,6.739344116328074320e-03
1.072000000000000064e+00,-3.309862665567055440e-01,-4.107580620162319396e-01,-2.596628146084902292e-02
1.072999999999999954e+00,2.726987673109558877e-02,-1.132619431010931516e-01,-1.341515262993187539e-02
1.074000000000000066e+00,4.025141483010020726e-01,2.996005962585763793e-01,7.878801460602266604e-02
1.074999999999999956e+00,3.081160046685608722e-01,3.876348780101727121e-01,9.067289336836591163e-02
1.076000000000000068e+00,-1.504748229348463473e-01,4.099669459225759700e-05,-6.187807629191865999e-02
1.076999999999999957e+00,-4.532745537552243520e-01,-3.365834014397648954e-01,-1.353437816398180005e-01
1.078000000000000069e+00,-2.585785951327799759e-01,-2.818252815668456090e-01,-6.176915432614304285e-02
1.078999999999999959e+00,2.545531765692696236e-01,1.116095115503171198e-01,1.237490064931166256e-01
1.080000000000000071e+00,5.031032912186130801e-01,3.475179567033808148e-01,1.600838375676742475e-01
1.080999999999999961e+00,1.881387838956247449e-01,1.832052733495452279e-01,2.922816146735795345e-02
1.082000000000000073e+00,-3.863375363976055965e-01,-1.406812208281116028e-01,-1.963445446663182603e-01
1.082999999999999963e+00,-4.788271849296438232e-01,-3.205913896599679735e-01,-1.762401076007655831e-01
1.084000000000000075e+00,-4.083020345223601494e-02,-7.494745181301654124e-02,9.084921134373601798e-03
1.084999999999999964e+00,4.040050865269005365e-01,1.969016814297814000e-01,2.440288044550823765e-01
1.086000000000000076e+00,4.270610248846146151e-01,1.909955468986783977e-01,1.758528311374619180e-01
1.086999999999999966e+00,-9.783736230838756265e-02,-2.764476172084076588e-02,-1.074224579640956079e-01
1.088000000000000078e+00,-5.018192928204587844e-01,-1.487786218646321157e-01,-2.931957501940489208e-01
1.088999999999999968e+00,-3.288929305803799941e-01,-7.147342134010839509e-02,-1.557975133377597354e-01
1.090000000000000080e+00,2.009915079273495164e-01,4.176465234269319260e-02,1.703682163507285741e-01
1.090999999999999970e+00,4.185188525678799065e-01,1.166929079607381958e-01,3.001447158312950392e-01
1.092000000000000082e+00,1.917574809821238069e-01,-5.699095570254199272e-03,9.174767997898315708e-02
1.092999999999999972e+00,-2.471175308938893533e-01,-6.402784062629066075e-02,-2.173677659324212974e-01
1.094000000000000083e+00,-3.765934448093427589e-01,3.550453013727751430e-03,-2.791149588039253393e-01
1.094999999999999973e+00,-7.976585386877808881e-02,7.174588071920978694e-02,-6.486640685887086477e-02
1.096000000000000085e+00,2.534869422143276596e-01,5.804861955968792370e-02,2.302182892936899261e-01
1.096999999999999975e+00,2.844895133136327581e-01,-9.510825208367278127e-02,2.696773476805691683e-01
1.098000000000000087e+00,-3.703505232351681636e-02,-1.031545943166705948e-01,-2.380470437034642311e-02
1.098999999999999977e+00,-2.373015759002096436e-01,2.726916350005943041e-02,-2.668557314496357025e-01
1.100000000000000089e+00,-1.525173347765226839e-01,1.692834793927421866e-01,-2.448282273760849226e-01
1.100999999999999979e+00,8.194294669672697040e-02,1.080820508667581364e-01,8.236679995375296992e-02
1.102000000000000091e+00,1.415008032981859842e-01,-1.364125029175092541e-01,2.833249574261853532e-01
1.102999999999999980e+00,1.412221423053967688e-03,-2.477057429690637524e-01,1.474033239743895440e-01
1.104000000000000092e+00,-7.765845091517928345e-02,-6.949308020677465170e-02,-1.407219345992362924e-01
1.104999999999999982e+00,-5.140427763553087614e-02,2.130109824692175968e-01,-2.201835745283347856e-01
1.106000000000000094e+00,6.805900244449604453e-02,2.636161944949733660e-01,-1.018263649806238347e-01
1.106999999999999984e+00,9.901978603565879389e-02,-1.465648984858962216e-02,1.350032548429637436e-01
1.108000000000000096e+00,-4.493846931434087449e-02,-3.429411097480672965e-01,1.919116839174138389e-01
1.108999999999999986e+00,-1.521978648556515379e-01,-2.806269013879863494e-01,2.016132715188907742e-02
1.110000000000000098e+00,-8.278987150721769939e-03,1.286476894825588635e-01,-1.364858388013250878e-01
1.110999999999999988e+00,1.798851189758408076e-01,4.000054080175055038e-01,-1.328285246637407047e-01
1.112000000000000099e+00,1.675146960538513308e-01,2.104610230172800356e-01,-2.744635204260131422e-03
1.112999999999999989e+00,-9.432521274879750173e-02,-2.218845734368055933e-01,1.200714337817846006e-01
1.114000000000000101e+00,-2.913245874939192626e-01,-3.803687540860120619e-01,7.164848483374794408e-02
1.114999999999999991e+00,-1.370618993604743319e-01,-1.068922011152611123e-01,-1.513937931119523420e-02
1.116000000000000103e+00,2.491632097626883535e-01,3.068783265173670172e-01,-3.694160917746800582e-02
1.116999999999999993e+00,3.546044174260559734e-01,3.694966350804610444e-01,6.421689171517935661e-03
1.118000000000000105e+00,4.844304173922164142e-02,-3.267493661942163195e-03,7.325780440632261026e-02
1.118999999999999995e+00,-3.320253714812330670e-01,-3.757168893569132750e-01,9.077789241717173357e-03
1.120000000000000107e+00,-3.829926012942568847e-01,-2.893041742885025247e-01,-9.957974164024260832e-02
1.120999999999999996e+00,3.826346975233527181e-02,9.159529115043009428e-02,-7.816491833976563219e-02
1.122000000000000108e+00,4.319396021418858700e-01,3.744541935590827153e-01,8.253805906644247348e-02
1.122999999999999998e+00,3.631743603882571780e-01,2.225046945347242677e-01,9.134779068910009459e-02
1.124000000000000110e+00,-1.857447096470329073e-01,-2.151153598918685850e-01,2.343090418693162535e-02
1.125000000000000000e+00,-5.006421645811365284e-01,-3.484443937583013295e-01,-1.336958069199045696e-01
1.125999999999999890e+00,-2.597800224759947985e-01,-9.801461101677919063e-02,-1.199588502682638336e-01
1.127000000000000002e+00,3.089016703632765926e-01,1.945575190178327196e-01,5.010074718748434158e-02
1.127999999999999892e+00,5.046995297059543306e-01,2.403954942094521652e-01,2.160622880736751406e-01
1.129000000000000004e+00,1.655180562714760051e-01,-1.461241361016247207e-02,1.406027333510125321e-01
1.129999999999999893e+00,-3.748915833190178959e-01,-2.442341257405306609e-01,-1.400605365587799245e-01
1.131000000000000005e+00,-4.782105276321590992e-01,-1.819085287316997701e-01,-2.456095688471117977e-01
1.131999999999999895e+00,-6.415994160645273336e-02,7.491772042152802791e-02,-1.029840417664076024e-01
1.133000000000000007e+00,4.380030930208632101e-01,2.028576640648223628e-01,1.660134587253437599e-01
1.133999999999999897e+00,4.073971316791749619e-01,4.444558623612895887e-02,2.885898439067813293e-01
1.135000000000000009e+00,-4.966944242688757505e-02,-7.258803412457758009e-02,5.124994287805613447e-02
1.135999999999999899e+00,-4.381126318569381617e-01,-1.030908421133651665e-01,-2.115988758680849291e-01
1.137000000000000011e+00,-2.781501607060866132e-01,3.353312109030617133e-02,-2.780054165509521780e-01
1.137999999999999901e+00,1.643194823403967553e-01,8.151056343856441511e-02,5.715138737627079892e-03
1.139000000000000012e+00,3.873279698513882874e-01,-1.071103465919996146e-02,2.660048275566690990e-01
1.139999999999999902e+00,1.614084146646245221e-01,-1.001544814937392197e-01,2.336844680001119723e-01
1.141000000000000014e+00,-2.194945864844261019e-01,-2.868975354378714218e-02,-4.787566014473531445e-02
1.141999999999999904e+00,-2.978607314184892885e-01,1.186833383482208265e-01,-2.916470601975371113e-01
1.143000000000000016e+00,-8.003043691729903875e-02,8.801020358626014672e-02,-1.660260631368122575e-01
1.143999999999999906e+00,2.187213102816860655e-01,-6.825697627567749171e-02,1.381760647069838199e-01
1.145000000000000018e+00,2.042399199604652826e-01,-1.796981568702739340e-01,2.798152440147543274e-01
1.145999999999999908e+00,-3.197095449974785702e-02,-5.912749366614789698e-02,1.410211854658535990e-01
1.147000000000000020e+00,-1.733085636557548104e-01,1.907728067649430703e-01,-1.595627790125687395e-01
1.147999999999999909e+00,-6.122158217117925488e-02,2.219319478004560808e-01,-2.516806237508326660e-01
1.149000000000000021e+00,9.399292735097818097e-02,-1.409850249624191448e-02,-9.237917820607952080e-02
1.149999999999999911e+00,8.073878094358603874e-02,-2.720041916648598956e-01,1.822605980456485919e-01
1.151000000000000023e+00,-5.718990042975233279e-02,-1.939577750574488502e-01,2.343300041940047929e-01
1.151999999999999913e+00,-9.333335047658111727e-02,9.414871604127809934e-02,-4.615904373060236883e-03
1.153000000000000025e+00,2.997535963825855021e-02,3.570486703245855931e-01,-1.950891464065420688e-01
1.153999999999999915e+00,1.641706533516794075e-01,1.991638733306922981e-01,-1.692228519425433841e-01
1.155000000000000027e+00,5.797441095536010058e-02,-1.922463970591196669e-01,2.866505147514463239e-02
1.155999999999999917e+00,-1.948406769870165145e-01,-4.008902288703281025e-01,1.609748878036638409e-01
1.157000000000000028e+00,-2.084084016156155239e-01,-1.215287398167177596e-01,7.371478645669264640e-02
1.157999999999999918e+00,4.174094993485261140e-02,3.178854596728544757e-01,-1.002859763302612062e-01
1.159000000000000030e+00,2.566916652528085652e-01,3.741380286849843584e-01,-1.100691206249419241e-01
1.159999999999999920e+00,2.172876187882795684e-01,-5.651203056038603054e-03,-7.003146584415698150e-03
1.161000000000000032e+00,-1.232548680912247119e-01,-3.663013875986742551e-01,5.747748526276804520e-02
1.161999999999999922e+00,-3.569557876930480322e-01,-3.036145401736310978e-01,5.199263280454190228e-02
1.163000000000000034e+00,-1.425955991537360967e-01,1.158219642819316303e-01,-3.651034120656657112e-02
1.163999999999999924e+00,2.533750892093922791e-01,4.016728217460897588e-01,-7.403180783973048462e-02
1.165000000000000036e+00,4.137945751318993226e-01,2.180436478905496689e-01,2.633120103298938752e-02
1.165999999999999925e+00,5.202489787865677284e-02,-2.256761146480504021e-01,5.928415418351702659e-02
1.167000000000000037e+00,-3.753992894674286207e-01,-3.595325351540331615e-01,6.012364415481529466e-03
1.167999999999999927e+00,-4.106862590570989902e-01,-1.216467830231139358e-01,-7.835156058664270728e-02
1.169000000000000039e+00,5.206884657644705178e-02,2.447694182715405287e-01,-1.140409133463359953e-01
1.169999999999999929e+00,4.827366750690192942e-01,3.015593516231901972e-01,5.378782052003364123e-02
1.171000000000000041e+00,3.645085572861314072e-01,-1.259869666716117650e-02,1.836027837548299402e-01
1.171999999999999931e+00,-1.484363372161229544e-01,-2.836759081248601544e-01,8.531331881696721520e-02
1.173000000000000043e+00,-4.965184446288675169e-01,-2.334875798019276916e-01,-1.184436754072927533e-01
1.173999999999999932e+00,-2.767708423760460446e-01,4.917737717449624513e-02,-2.080689376772972554e-01
1.175000000000000044e+00,2.678013522492664888e-01,2.371782913170075169e-01,-4.228911163693539754e-02
1.175999999999999934e+00,5.116293132571595459e-01,9.874780741100133707e-02,1.806572593540045346e-01
1.177000000000000046e+00,1.264057946178226977e-01,-9.953936779088295994e-02,1.837847793120071238e-01
1.177999999999999936e+00,-3.541641186302357247e-01,-1.538002098452120048e-01,-8.061204207899245328e-03
1.179000000000000048e+00,-4.587086083938042846e-01,-2.280683282049010205e-02,-2.342131875266231789e-01
1.179999999999999938e+00,-4.166857192325366249e-02,1.031834734746481935e-01,-2.303869647469365678e-01
