time,acc_x,acc_y,acc_z
0.000000000000000000e+00,-7.902272569540309821e-02,-9.584117828319906052e-02,-1.127501851530732582e-02
1.000000000000000021e-03,-1.262369200682014747e-01,-9.465578718256889568e-02,-3.344980257228946652e-02
2.000000000000000042e-03,-1.238900152984620251e-01,-1.362065501786946520e-01,-5.904878981900286983e-02
3.000000000000000062e-03,-1.380098314876199161e-01,-6.939397343764019954e-02,-8.179769369406758583e-02
4.000000000000000083e-03,-1.430753804863917900e-01,-3.555494945605339185e-02,-6.777159612168030811e-02
5.000000000000000104e-03,-6.450297406629094954e-02,-2.165793144691936876e-03,-5.852611623930282364e-02
6.000000000000000125e-03,9.674197706623158255e-03,5.802339159469090124e-02,-1.100488396740512478e-02
7.000000000000000146e-03,6.096881104510755434e-02,1.131129051649479855e-01,1.513073288398828972e-02
8.000000000000000167e-03,1.373962484584947130e-01,1.297578522614447061e-01,4.264257584695368281e-02
8.999999999999999320e-03,1.463035069251883702e-01,7.318934325667250662e-02,6.408882397873150172e-02
1.000000000000000021e-02,1.046600727475721360e-01,7.657874914410153777e-02,8.657893670160450583e-02
1.099999999999999936e-02,7.944880154981882880e-02,2.028610018559694889e-02,6.346983344797606230e-02
1.200000000000000025e-02,2.921464627640717182e-02,-1.444216567163101629e-02,6.781375929508198785e-02
1.299999999999999940e-02,-2.760528822702075502e-02,-9.097896999572654964e-02,3.488774022847977718e-02
1.400000000000000029e-02,-8.429522779904524699e-02,-8.079874347966650716e-02,-2.366010202619083305e-02
1.499999999999999944e-02,-1.270407912157836827e-01,-1.246462324704048219e-01,-4.809503234992287823e-02
1.600000000000000033e-02,-1.280037177976004470e-01,-9.803858128993986343e-02,-7.167249468795991452e-02
1.700000000000000122e-02,-1.028393643767698679e-01,-7.120847949160805102e-02,-7.765390932428084536e-02
1.799999999999999864e-02,-7.231597858294479264e-02,-4.247362823872134763e-03,-5.237372989340652318e-02
1.899999999999999953e-02,-1.300228834815605160e-02,3.774186390767262506e-02,-4.939184102253188491e-02
2.000000000000000042e-02,5.067037537500092281e-02,8.819948293181578691e-02,-2.036489116224411353e-02
2.100000000000000130e-02,1.185192525748405695e-01,8.565231571190397297e-02,9.771908139636820492e-03
2.199999999999999872e-02,1.215191089286501158e-01,9.275027427162584048e-02,6.416322293979973002e-02
2.299999999999999961e-02,1.471914496085188762e-01,1.153031038582987555e-01,7.872724288845975305e-02
2.400000000000000050e-02,9.265335586767092790e-02,7.507389777306246181e-02,6.739188865642820048e-02
2.500000000000000139e-02,5.802890911307740512e-02,-2.226120869858910084e-02,6.959757080013544150e-02
2.599999999999999881e-02,1.608389263387869500e-02,-5.621678008268803789e-02,4.153400068858429522e-02
2.699999999999999969e-02,-7.381346157192510138e-02,-9.310169795820534555e-02,-3.365551915769753044e-02
2.800000000000000058e-02,-1.048410177361029372e-01,-1.149871030221202434e-01,-3.366567105618166467e-02
2.900000000000000147e-02,-1.330646798083411630e-01,-9.373923374959719501e-02,-5.998155377952600620e-02
2.999999999999999889e-02,-1.334419664347320233e-01,-6.916312478472358416e-02,-7.002048912908721834e-02
3.099999999999999978e-02,-9.484273102768890629e-02,-2.700321467640944689e-02,-7.448937081144767214e-02
3.200000000000000067e-02,-3.516710643337241093e-02,2.201816727541517152e-02,-6.428492960033614645e-02
3.300000000000000155e-02,2.209427413417306904e-02,5.776169797376558973e-02,-1.849557305891412484e-02
3.400000000000000244e-02,5.537586249137271821e-02,1.083381738671958111e-01,1.485232049209245057e-02
3.500000000000000333e-02,1.047183456248598210e-01,9.781728312016838012e-02,2.364096086472574493e-02
3.599999999999999728e-02,1.218084767619991016e-01,9.117636862801446751e-02,5.512830213035367632e-02
3.699999999999999817e-02,1.020758589098988145e-01,5.569243495268305644e-02,6.051859561504591145e-02
3.799999999999999906e-02,8.607002072629749145e-02,-1.567640122672577657e-02,4.097557178997413008e-02
3.899999999999999994e-02,1.220848844138790711e-02,-3.681936341697692600e-02,6.088871871232297978e-02
4.000000000000000083e-02,-2.407618266623535314e-02,-9.143223844262959865e-02,1.183766854126499894e-02
4.100000000000000172e-02,-1.023085831382720828e-01,-1.048661212477467741e-01,-2.399998222950271501e-02
4.200000000000000261e-02,-1.241510720820607899e-01,-1.180753039074180638e-01,-4.914380355731115535e-02
4.299999999999999656e-02,-1.476702016380033455e-01,-9.667246929091015406e-02,-6.972067954705196691e-02
4.399999999999999745e-02,-1.002069343368033744e-01,-3.797986738038445359e-02,-7.768790923284052408e-02
4.499999999999999833e-02,-9.812549584544631720e-02,8.806568607378039218e-03,-6.679307724641474209e-02
4.599999999999999922e-02,-1.665020766674452438e-02,6.534366268653180043e-02,-3.184795261281555406e-02
4.700000000000000011e-02,7.701548133285240905e-02,1.083275465373788049e-01,-1.572826935705311235e-02
4.800000000000000100e-02,1.146177082093750021e-01,9.152324301378923777e-02,1.300956282847825704e-02
4.900000000000000189e-02,1.357826724692516585e-01,8.990482516715984918e-02,6.257333531064888932e-02
5.000000000000000278e-02,1.343366193852633395e-01,6.991098665125959621e-02,7.199811536723502159e-02
5.099999999999999672e-02,8.886641872370767969e-02,6.307607458555084326e-03,7.217016827178236726e-02
5.199999999999999761e-02,5.701116671178858147e-02,-1.744755148958615498e-02,5.045355379635937942e-02
5.299999999999999850e-02,-4.434015609801574172e-03,-8.118003652964476957e-02,3.325801649843233843e-02
5.399999999999999939e-02,-7.498397283717399275e-02,-9.452667963527694450e-02,1.063405323988217757e-02
5.500000000000000028e-02,-1.089303668026840588e-01,-1.098652711395638748e-01,-1.878892037881712065e-02
5.600000000000000117e-02,-1.292064761468564305e-01,-9.441245580868377896e-02,-4.904266902185488997e-02
5.700000000000000205e-02,-1.288722908433216352e-01,-3.779213929407116562e-02,-8.333852478100385597e-02
5.800000000000000294e-02,-8.667006206495926623e-02,8.635063497917500747e-03,-8.536447443471500973e-02
5.899999999999999689e-02,-5.427838337906024102e-02,4.263410132163742566e-02,-6.939356964827401997e-02
5.999999999999999778e-02,4.893378459359117895e-03,8.600923051121396601e-02,-2.489849144469809608e-02
6.099999999999999867e-02,9.065722023607108992e-02,9.780737132381084331e-02,-2.016809550302933740e-02
6.199999999999999956e-02,1.190517418500278007e-01,9.520831448896498184e-02,4.321654450771892503e-02
6.300000000000000044e-02,1.213973112345141658e-01,8.561244878422206994e-02,5.845609396782155270e-02
6.400000000000000133e-02,1.276600278989772075e-01,2.669469411178698737e-02,5.887889544475735648e-02
6.500000000000000222e-02,8.801931793929720915e-02,7.706553890726022989e-03,6.582605895470895752e-02
6.600000000000000311e-02,4.275220665859396849e-03,-3.066966039967756671e-02,6.077761378871331110e-02
6.700000000000000400e-02,-5.069219574051360422e-02,-8.216977449851041448e-02,1.909794804037280927e-02
6.800000000000000488e-02,-9.388519948583003150e-02,-1.227062098857365502e-01,-1.681368148287531658e-02
6.900000000000000577e-02,-1.296610993738042117e-01,-1.070908409278961276e-01,-4.234277435868176453e-02
7.000000000000000666e-02,-1.181436085902915906e-01,-6.362337514539062600e-02,-7.173479853934613959e-02
7.099999999999999367e-02,-1.116097603106790820e-01,-3.889211537345954595e-02,-6.644663886452202572e-02
7.199999999999999456e-02,-5.843678968376860711e-02,1.135233057206705767e-02,-7.685774097939561400e-02
7.299999999999999545e-02,-4.004692784130882421e-03,6.298240237805832753e-02,-5.205572263177335457e-02
7.399999999999999634e-02,2.548312351487927452e-02,1.049566126255969817e-01,-3.982444719409421185e-02
7.499999999999999722e-02,1.279003311302976120e-01,1.065661728067241465e-01,5.726699744660165153e-03
7.599999999999999811e-02,1.106764080179521020e-01,7.279338731432596910e-02,5.038292058174834165e-02
7.699999999999999900e-02,1.409039777871204935e-01,7.842272630566060609e-02,7.820417640142511562e-02
7.799999999999999989e-02,1.007638353281951754e-01,1.603087087264061864e-02,8.072045842586288156e-02
7.900000000000000078e-02,2.598764645834711340e-02,-5.016867808588071354e-02,6.621177573951213258e-02
8.000000000000000167e-02,-1.118570218147165243e-02,-7.796363422306633317e-02,3.747635629544549679e-02
8.100000000000000255e-02,-6.798196104753330415e-02,-9.319570454555368977e-02,1.667400837674178418e-02
8.200000000000000344e-02,-1.302636260102504606e-01,-8.685288214077889479e-02,-2.590597581375848543e-02
8.300000000000000433e-02,-1.374931995575432164e-01,-1.032297533917665988e-01,-5.922682226065428823e-02
8.400000000000000522e-02,-1.267236727444125133e-01,-6.398605266305569528e-02,-7.027794953258742483e-02
8.500000000000000611e-02,-8.911735604942583322e-02,-2.529117042388274311e-03,-6.560418368641496301e-02
8.599999999999999312e-02,-2.705097567618631668e-02,4.606659216697493037e-02,-6.564990686421409705e-02
8.699999999999999400e-02,3.393719455172897193e-02,8.407337642491484464e-02,-5.145179361900133891e-02
8.799999999999999489e-02,8.739248835692836614e-02,1.038994033679579709e-01,-2.049441605564032709e-02
8.899999999999999578e-02,1.145699027500900330e-01,8.445303882123995909e-02,2.347049919244532587e-02
8.999999999999999667e-02,1.313966331377017793e-01,8.023403965749073552e-02,6.027298104947870910e-02
9.099999999999999756e-02,1.188587610997211552e-01,4.141547544521972934e-02,9.620788350344872120e-02
9.199999999999999845e-02,7.563810484654677480e-02,6.898629631662137399e-03,7.920942363225778882e-02
9.299999999999999933e-02,6.651619217629272350e-03,-9.012377716379949000e-02,5.953075933780799939e-02
9.400000000000000022e-02,-1.523094379658906060e-02,-8.608487049923224665e-02,4.070452488301742888e-02
9.500000000000000111e-02,-6.954141208619869785e-02,-1.028097710910021861e-01,-4.299358468723995033e-03
9.600000000000000200e-02,-1.284794816127319550e-01,-1.106577779216865870e-01,-1.702023095561739502e-02
9.700000000000000289e-02,-1.397261651754755640e-01,-5.199188168210707589e-02,-6.467868116341810025e-02
9.800000000000000377e-02,-1.273767515325713306e-01,-3.421773119465262858e-02,-8.452623225274666363e-02
9.900000000000000466e-02,-5.812025135332452019e-02,2.083046983747816397e-02,-7.367922586768657633e-02
1.000000000000000056e-01,-2.841253010481150157e-02,6.108120583224139338e-02,-6.446337251678058156e-02
1.010000000000000064e-01,4.564932505933212009e-02,1.085145610309954795e-01,-5.737051725887662434e-02
1.019999999999999934e-01,6.878930106436155489e-02,1.087972216402069703e-01,8.636348776368972871e-03
1.029999999999999943e-01,1.485603381543494916e-01,8.196972744549663181e-02,4.432567927185898649e-02
1.039999999999999952e-01,1.327108798282684854e-01,4.348136654400001216e-02,9.321366182858395466e-02
1.049999999999999961e-01,8.697980932107964025e-02,1.798514769457913026e-02,8.943530490827834856e-02
1.059999999999999970e-01,6.792527667947731440e-02,-5.785412925339789014e-02,7.879908793013443158e-02
1.069999999999999979e-01,1.425115506794000664e-03,-7.695048404223581162e-02,4.381496624689502906e-02
1.079999999999999988e-01,-6.463549180958104434e-02,-1.158706697672915870e-01,2.517855632415371206e-02
1.089999999999999997e-01,-1.189237771131028826e-01,-9.702349041582510047e-02,-2.222268448584884676e-02
1.100000000000000006e-01,-1.160691019591557349e-01,-8.805758987803513627e-02,-6.160891977796464219e-02
1.110000000000000014e-01,-1.493927632352822776e-01,-4.055500412398273941e-02,-5.644393599104886861e-02
1.120000000000000023e-01,-1.239659253223180241e-01,2.552181057361561575e-02,-1.006466083875393880e-01
1.130000000000000032e-01,-1.701153041932085622e-02,4.433037365345924435e-02,-6.684975566863453345e-02
1.140000000000000041e-01,1.654068977089889064e-02,6.949503017137037553e-02,-5.517985900917376368e-02
1.150000000000000050e-01,7.764668152053262606e-02,1.040286042188270088e-01,-4.594346255627772269e-02
1.160000000000000059e-01,1.034479093817247675e-01,9.367617849046173950e-02,7.951002271967126320e-03
1.170000000000000068e-01,1.281611450405657771e-01,4.568823756907688938e-02,7.487822130649107732e-02
1.179999999999999938e-01,1.020781837990175495e-01,3.451274904007027577e-02,8.502529261825642060e-02
1.189999999999999947e-01,7.159342813152370921e-02,-4.261959566428184798e-02,7.129668127084348717e-02
1.199999999999999956e-01,2.995950404918418242e-02,-7.236356170643967745e-02,8.291903332247628489e-02
1.209999999999999964e-01,-4.931224463794279395e-02,-1.074981315480339622e-01,3.772522330557270820e-02
1.219999999999999973e-01,-1.157741994264982754e-01,-1.334740265009718152e-01,3.010601045907176573e-02
1.229999999999999982e-01,-1.300359952066809655e-01,-1.035952417471176640e-01,-3.579785209401580015e-02
1.239999999999999991e-01,-1.159246934259052231e-01,-6.184659119767813712e-02,-5.162388442439606179e-02
1.250000000000000000e-01,-1.313377953815834109e-01,-4.386529725716552947e-03,-6.982491122494256797e-02
1.260000000000000009e-01,-9.113334871916971280e-02,3.017350422983858249e-02,-8.815931934296029893e-02
1.270000000000000018e-01,-2.722657814209034077e-02,6.882180705622906181e-02,-4.851215580764275948e-02
1.280000000000000027e-01,6.077104291573730277e-02,9.997638074793127605e-02,-7.536410252743400151e-02
1.290000000000000036e-01,9.765879044405278986e-02,1.114309250880241020e-01,-9.841792738684346578e-03
1.300000000000000044e-01,1.176649931086009293e-01,6.624552820935700193e-02,3.564138311143984217e-02
1.310000000000000053e-01,1.252020064735044069e-01,3.624848369482400190e-02,5.199867354367455202e-02
1.320000000000000062e-01,9.492951824189542476e-02,-4.131778943860674636e-04,7.213953228956827834e-02
1.330000000000000071e-01,7.583079857672632429e-02,-7.766907305079441548e-02,7.980618627142008203e-02
1.340000000000000080e-01,-1.048541174805261685e-03,-8.817740959559569602e-02,6.732349716954960650e-02
1.350000000000000089e-01,-8.981189838219717780e-02,-1.137624286202827545e-01,3.429471734249387588e-02
1.360000000000000098e-01,-1.159885294332759359e-01,-9.906981654678718996e-02,-4.911553735016519796e-03
1.370000000000000107e-01,-1.396286661965632225e-01,-5.854807513768558319e-02,-2.071299588578657744e-02
1.380000000000000115e-01,-1.100674009236776718e-01,-2.254875402332308723e-02,-6.932974531881148927e-02
1.390000000000000124e-01,-9.762945363002402399e-02,3.762888817699789473e-02,-8.702098577873930429e-02
1.400000000000000133e-01,-5.200643710138812270e-02,7.982786872701164160e-02,-6.656363244469061524e-02
1.409999999999999865e-01,1.555304852786234572e-02,9.941016462569818302e-02,-7.126154353935748587e-02
1.419999999999999873e-01,5.326098730972347872e-02,1.064815239759912546e-01,-2.140040527142612198e-02
1.429999999999999882e-01,1.226009589585947551e-01,9.620869818503104132e-02,1.802613486733148362e-02
1.439999999999999891e-01,1.422280726122565342e-01,6.665214452375825549e-02,3.192891182051702664e-02
1.449999999999999900e-01,1.248788145941041178e-01,2.618243758306362801e-02,4.878442754218381000e-02
1.459999999999999909e-01,8.756177829718692074e-02,-4.245407663461461117e-02,1.002202529164299138e-01
1.469999999999999918e-01,1.888808324136072997e-02,-6.194141234587659944e-02,9.623410564600778927e-02
1.479999999999999927e-01,-3.183979556412327994e-02,-1.049446232947705421e-01,5.737097586269477439e-02
1.489999999999999936e-01,-9.359334102819931445e-02,-1.060412071960753766e-01,3.139438230957306009e-02
1.499999999999999944e-01,-1.287788191854513653e-01,-9.133955865541938668e-02,-9.887489808117072565e-03
1.509999999999999953e-01,-1.158144015669657634e-01,-5.928564300753824678e-02,-6.628274019971189257e-02
1.519999999999999962e-01,-1.193174158984320887e-01,2.288383185114548080e-02,-7.791960263793798469e-02
1.529999999999999971e-01,-5.867159537692523408e-02,3.983019491263584122e-02,-8.553370709245818049e-02
1.539999999999999980e-01,-1.158178563030019988e-02,1.096471508405962442e-01,-7.170724915870244076e-02
1.549999999999999989e-01,5.400474700168010622e-02,1.212297204343383977e-01,-6.564507574556771585e-02
1.559999999999999998e-01,1.005448164782599685e-01,9.975441323400285887e-02,-1.624850997046608028e-02
1.570000000000000007e-01,1.340523202056055907e-01,5.845175977198883988e-02,2.134038409200757561e-02
1.580000000000000016e-01,1.199929315733447716e-01,2.938419359078554144e-02,5.124876418601454625e-02
1.590000000000000024e-01,1.193520706941977733e-01,-6.804592028472614823e-03,7.461047305050576284e-02
1.600000000000000033e-01,4.483690910447739320e-02,-6.506318627187770987e-02,7.037602139196987017e-02
1.610000000000000042e-01,3.583812574011093453e-03,-9.486761733098163230e-02,8.837846596288252699e-02
1.620000000000000051e-01,-5.608825892315450617e-02,-1.011969763526871097e-01,4.087670052855227332e-02
1.630000000000000060e-01,-1.114388086044292986e-01,-1.144628340916898079e-01,3.476567774438034386e-02
1.640000000000000069e-01,-1.311495344821832776e-01,-6.587107303294453819e-02,-1.022006577871251327e-02
1.650000000000000078e-01,-1.380139305583258091e-01,-1.309079881581794169e-02,-7.607663850330798061e-02
1.660000000000000087e-01,-1.109288799393812891e-01,6.103015763237764485e-02,-5.278373103096164337e-02
1.670000000000000095e-01,-4.580307607629254679e-02,6.622271568683874010e-02,-7.501820912565573818e-02
1.680000000000000104e-01,7.480050172747927315e-03,1.161673915493694337e-01,-5.721082233874053707e-02
1.690000000000000113e-01,9.210762865106100761e-02,1.043350845664297311e-01,-5.653344348941950759e-02
1.700000000000000122e-01,1.132379679815340295e-01,4.767335793870899202e-02,-1.635641791964261710e-03
1.710000000000000131e-01,1.301232078724826047e-01,5.063629188080489424e-02,2.445968174404965917e-02
1.719999999999999862e-01,1.217653361819670960e-01,-7.785337862189967671e-03,7.958190139547210995e-02
1.729999999999999871e-01,8.834056707921583707e-02,-8.335668251543036644e-02,7.314867421354163957e-02
1.739999999999999880e-01,4.353925767806436642e-02,-8.126119937734033183e-02,9.065267769315629720e-02
1.749999999999999889e-01,-6.210842423806528512e-02,-1.171220423693533769e-01,4.853211808853544890e-02
1.759999999999999898e-01,-8.920465152301743084e-02,-7.909620444197140721e-02,4.334005854337390218e-02
1.769999999999999907e-01,-1.459570100040804286e-01,-6.027287825545287608e-02,-2.800473744723201708e-02
1.779999999999999916e-01,-1.313203653118160952e-01,-4.226262220138196635e-02,-3.822753544536374587e-02
1.789999999999999925e-01,-1.379615342411647516e-01,3.895416337097931669e-02,-6.396041128826143729e-02
1.799999999999999933e-01,-7.365997867795273657e-02,5.691839242914863151e-02,-8.503778230132094662e-02
1.809999999999999942e-01,-1.069973136134655216e-02,8.930774685729990503e-02,-7.660220550837032460e-02
1.819999999999999951e-01,5.460851408391350498e-02,1.185220243485532177e-01,-5.889119219065598598e-02
1.829999999999999960e-01,9.558980113178895677e-02,1.075285461829882383e-01,-1.974335628664524583e-02
1.839999999999999969e-01,1.215214963214459459e-01,5.534116787615978722e-02,-4.428014965116624721e-03
1.849999999999999978e-01,1.145974180396512609e-01,7.362545996253551731e-03,5.338769669489600023e-02
1.859999999999999987e-01,7.818975773974870536e-02,-3.511631008782208768e-02,6.646917177637799712e-02
1.869999999999999996e-01,6.577720324012042985e-02,-8.388183311000704800e-02,8.567720178963224298e-02
1.880000000000000004e-01,-1.619928448878025368e-02,-1.067468443453665622e-01,9.266661488346301934e-02
1.890000000000000013e-01,-5.017479347807156376e-02,-1.165113269490128112e-01,7.981613252636715616e-02
1.900000000000000022e-01,-1.209042718167921415e-01,-6.794616760944913181e-02,8.959525849799828898e-03
1.910000000000000031e-01,-1.620851391305159483e-01,-3.331579911030043556e-02,-2.296805440551881808e-02
1.920000000000000040e-01,-1.257388790216852625e-01,1.083219687040566474e-02,-5.191385036692709037e-02
1.930000000000000049e-01,-9.897748164550974892e-02,4.169027023162980017e-02,-6.737716515559395714e-02
1.940000000000000058e-01,-1.789949025064782942e-02,6.748801557193845335e-02,-7.880064213417141417e-02
1.950000000000000067e-01,2.390865104527284402e-02,1.509755009767365097e-01,-8.333020257111031781e-02
1.960000000000000075e-01,8.407532132249757872e-02,9.986338418197962530e-02,-6.049047220920675955e-02
1.970000000000000084e-01,1.088777020291230857e-01,6.169681386816779078e-02,1.814194408835919856e-02
1.980000000000000093e-01,1.413094715575839433e-01,2.175460624479368110e-02,2.342980569833605017e-02
1.990000000000000102e-01,1.247504909219120384e-01,-1.269957753353347790e-02,1.376852021804925857e-02
2.000000000000000111e-01,7.582905538468470708e-02,-4.711983634777225372e-02,7.216467709129870123e-02
2.010000000000000120e-01,3.399353491669131200e-02,-8.950467252589996980e-02,1.107911628490818867e-01
2.020000000000000129e-01,-1.600074088780060327e-02,-1.156932835066657728e-01,6.398646634695120961e-02
2.030000000000000138e-01,-8.810348076579554988e-02,-1.045863096893655253e-01,4.073474749623573476e-02
2.039999999999999869e-01,-1.266563241140940543e-01,-5.333119211128333620e-02,2.936786856294323553e-02
2.049999999999999878e-01,-1.553216333212732725e-01,3.152409839612889311e-03,-2.260605246681542807e-02
2.059999999999999887e-01,-1.191578605429712834e-01,4.528780496023768198e-02,-4.437802845874950358e-02
2.069999999999999896e-01,-9.720564135601499067e-02,6.124439012905176505e-02,-5.780308598990746560e-02
2.079999999999999905e-01,-1.142048226971918538e-02,1.167420303484096727e-01,-8.643472732101266376e-02
2.089999999999999913e-01,4.932411190579506777e-02,9.585846335087010173e-02,-5.137943522288259540e-02
2.099999999999999922e-01,1.000854126630230656e-01,9.856856864733766488e-02,-5.484120789360058534e-02
2.109999999999999931e-01,1.389098383639277290e-01,5.222223725069367883e-02,1.384892804070515272e-02
2.119999999999999940e-01,1.238214334622914359e-01,1.558768740639604987e-02,2.211636178137245043e-02
2.129999999999999949e-01,9.297670584159542506e-02,-4.053465636456337479e-02,6.827691234122422459e-02
2.139999999999999958e-01,4.915761343917854354e-02,-8.351477844276726514e-02,8.973316275343101722e-02
2.149999999999999967e-01,-8.284518020771544904e-04,-8.466370486643412518e-02,6.886986725231837581e-02
2.159999999999999976e-01,-6.632055300304326440e-02,-9.424177346825625412e-02,5.391727916661261805e-02
2.169999999999999984e-01,-1.026979003783302091e-01,-9.172605191418771453e-02,2.297430618952294584e-02
2.179999999999999993e-01,-1.205439500753096166e-01,-2.248209068093977997e-02,4.698122288888703646e-03
2.190000000000000002e-01,-1.450195509742666922e-01,9.814307703012883563e-03,-3.318863101353487083e-02
2.200000000000000011e-01,-1.093262455900193414e-01,5.245377715462685997e-02,-5.432779036958414881e-02
2.210000000000000020e-01,-2.204332291818951114e-02,1.076388313004730257e-01,-8.204422538274711019e-02
2.220000000000000029e-01,2.325338097017270317e-02,1.072502371494910983e-01,-7.803445613016959936e-02
2.230000000000000038e-01,9.913730747667598431e-02,1.037755543995741436e-01,-5.662498629368532821e-02
2.240000000000000047e-01,1.322000777016167083e-01,4.621241876822864553e-02,-7.239990288905529675e-03
2.250000000000000056e-01,1.456062506638048648e-01,1.775982876048174883e-02,2.932714994764153496e-02
2.260000000000000064e-01,1.390613257574344064e-01,-3.387976064480387184e-02,3.877616260949390964e-02
2.270000000000000073e-01,9.730150840339123197e-02,-7.685257997430794408e-02,7.470533344858855396e-02
2.280000000000000082e-01,1.898069035736121499e-02,-8.920466743663578446e-02,1.084055290384875053e-01
2.290000000000000091e-01,-4.905717645692406897e-02,-8.728487091131344189e-02,4.891028599221183132e-02
2.300000000000000100e-01,-1.073529547692625291e-01,-7.747320356717986300e-02,7.329845117773942098e-02
2.310000000000000109e-01,-1.137448678525155160e-01,-5.267958477569792408e-02,-2.025975668189482215e-03
2.320000000000000118e-01,-1.499369986092038698e-01,-1.784118898126406394e-02,-3.872189788535485705e-02
2.330000000000000127e-01,-1.344225545229340291e-01,6.172223040198866056e-02,-5.719121796351323700e-02
2.340000000000000135e-01,-7.860141124884510722e-02,8.164650154811178839e-02,-4.945098005311596850e-02
2.349999999999999867e-01,-2.765196997078829544e-02,1.177324072745516842e-01,-8.759776172114314141e-02
2.359999999999999876e-01,3.628182717600883511e-02,1.335777166273824923e-01,-6.348013424763979118e-02
2.369999999999999885e-01,1.132509501505176291e-01,9.834813036628613225e-02,-4.472656820137751316e-02
2.379999999999999893e-01,1.521140301745320389e-01,6.389900531394279715e-02,-5.277143061960179807e-03
2.389999999999999902e-01,1.246194403972400722e-01,-2.609579078832357027e-02,2.507929245875472821e-02
2.399999999999999911e-01,1.265824047451192536e-01,-3.924192351719662381e-02,5.344050982898873592e-02
2.409999999999999920e-01,5.807079109992101251e-02,-9.915655146537104281e-02,1.020956342186483401e-01
2.419999999999999929e-01,-1.398304182604004700e-02,-8.217842658802212985e-02,6.124801203134472988e-02
2.429999999999999938e-01,-4.365732772468959577e-02,-9.680583766550369951e-02,7.165165653860113004e-02
2.439999999999999947e-01,-9.391887189895771482e-02,-6.618055148003264276e-02,2.514472007520899416e-02
2.449999999999999956e-01,-1.154668231475171197e-01,-3.853409358740290946e-02,2.757827190924780347e-03
2.459999999999999964e-01,-1.337574458249889964e-01,1.392255465652394303e-02,-3.486858017238928659e-02
2.469999999999999973e-01,-1.035590895987623244e-01,5.810436158622574176e-02,-6.094374397416285616e-02
2.479999999999999982e-01,-4.223682404360690895e-02,9.573928721519164853e-02,-6.453638705553713106e-02
2.489999999999999991e-01,3.546014636324138630e-02,1.191608522511131696e-01,-8.056975922687302505e-02
2.500000000000000000e-01,7.155937663544145733e-02,9.814681852097548176e-02,-7.643153711649657012e-02
2.510000000000000009e-01,1.392927869672636876e-01,5.189050415551459128e-02,1.860022412376886522e-02
2.520000000000000018e-01,1.618039797486404419e-01,1.066847171367914758e-02,2.633677873029366401e-02
2.530000000000000027e-01,1.153610246757259400e-01,-6.132682313827689941e-02,4.495859513117467232e-02
2.540000000000000036e-01,4.555188988489428104e-02,-9.419658114005188820e-02,5.712157061699124627e-02
2.550000000000000044e-01,3.792292180355595621e-02,-1.144116259352074977e-01,7.246729601227555606e-02
2.560000000000000053e-01,-4.783975990614647983e-02,-1.011552997114615327e-01,8.296385991225091461e-02
2.570000000000000062e-01,-7.936161670621169617e-02,-9.942025504243399980e-02,5.663661225125116161e-02
2.580000000000000071e-01,-1.239860096179128818e-01,-5.213928820574947193e-02,4.261164691873350202e-02
2.590000000000000080e-01,-1.283834038934865973e-01,3.464065014324581998e-02,-1.656761254464110544e-02
2.600000000000000089e-01,-1.046368869963307663e-01,4.658801284448666619e-02,-3.967565158320344315e-02
2.610000000000000098e-01,-8.398636924245954372e-02,8.853319690527952646e-02,-7.950632587328888834e-02
2.620000000000000107e-01,-2.556258349398031395e-03,1.019475099720450750e-01,-7.195602481709553744e-02
2.630000000000000115e-01,5.824524825150152046e-02,1.175814040574687247e-01,-6.903023607438608933e-02
2.640000000000000124e-01,1.072042958924726563e-01,4.842658153631866635e-02,-5.743218464811004897e-02
2.650000000000000133e-01,1.301234920523570704e-01,1.514974576023977136e-02,-2.908005126930855028e-02
2.660000000000000142e-01,1.158469658185792006e-01,-1.837610286044018965e-02,-5.518399453602389378e-03
2.670000000000000151e-01,1.253023929949870219e-01,-5.079559628878036609e-02,3.683463692884796081e-02
2.680000000000000160e-01,6.505096567259452400e-02,-9.763517571071278489e-02,7.831185690254902076e-02
2.690000000000000169e-01,2.861667440711879347e-04,-9.317248659705124059e-02,7.346971539060553891e-02
2.700000000000000178e-01,-7.115215384448077274e-02,-9.017300334176482635e-02,6.258032878109734409e-02
2.710000000000000187e-01,-9.989644742180657511e-02,-6.413966941634173524e-02,5.701804184340902859e-02
2.720000000000000195e-01,-1.250639142959277528e-01,-9.012017222528692292e-03,6.094002947988142252e-03
2.730000000000000204e-01,-1.328573736159310292e-01,5.476684409853943558e-02,-1.981421945374888319e-02
2.740000000000000213e-01,-1.071166356445265727e-01,9.700926979203811085e-02,-5.236235527830884057e-02
2.750000000000000222e-01,-4.893538122743374547e-02,9.840332066374293807e-02,-1.250560833759034596e-01
2.760000000000000231e-01,1.378616026314995711e-02,1.095191128737170866e-01,-9.193980510927002303e-02
2.770000000000000240e-01,5.964555725111218842e-02,8.048443272157188022e-02,-6.976025516643448443e-02
2.780000000000000249e-01,1.201246044815806185e-01,3.384715310017214623e-02,-6.247999868790990452e-02
2.790000000000000258e-01,1.372541098565114304e-01,-6.245674943418245972e-03,5.682857677126872294e-03
2.800000000000000266e-01,1.596475634668116927e-01,-2.787669477418839095e-02,2.161418757058831963e-02
2.810000000000000275e-01,8.627915343035218176e-02,-8.380303500169737629e-02,6.122300257631386328e-02
2.819999999999999729e-01,3.220269192750740972e-02,-1.081890649929165837e-01,7.028630208057089213e-02
2.829999999999999738e-01,-3.013917235140539663e-02,-9.117495964625436933e-02,9.252735307617215854e-02
2.839999999999999747e-01,-7.431264324552407097e-02,-8.347365819689228639e-02,7.757096606408611650e-02
2.849999999999999756e-01,-1.194773451996556657e-01,-6.008427974042509362e-02,3.196573779361420314e-02
2.859999999999999765e-01,-1.459023510745892371e-01,-1.506396248414090117e-02,-1.152030684654227997e-02
2.869999999999999774e-01,-1.138404171651548058e-01,6.115087511625720562e-02,-5.580359469949445345e-02
2.879999999999999782e-01,-7.284703804262278315e-02,8.861158130154259127e-02,-6.708039313226735190e-02
2.889999999999999791e-01,-3.016410563236320355e-02,8.970751913662146360e-02,-8.254265493611755156e-02
2.899999999999999800e-01,6.252581715138240404e-02,1.054010736706839785e-01,-7.120699622679012297e-02
2.909999999999999809e-01,1.028457904115595983e-01,8.192953511768391595e-02,-3.986698495249241248e-02
2.919999999999999818e-01,1.131732463697650293e-01,3.541513840394671514e-02,-2.930069785109762695e-02
2.929999999999999827e-01,1.330302636933455573e-01,-3.709784622898240625e-02,-1.602775236681223091e-03
2.939999999999999836e-01,1.129199696049650453e-01,-1.057912883490605277e-01,6.069273052527897339e-02
2.949999999999999845e-01,5.748854334537300409e-02,-7.811868245065416161e-02,7.310606549035306156e-02
2.959999999999999853e-01,-3.436377108213623660e-02,-9.080562046981635604e-02,8.298325740228504332e-02
2.969999999999999862e-01,-7.148467886473312827e-02,-1.059877607413658579e-01,6.076677994508887515e-02
2.979999999999999871e-01,-1.200352144921384701e-01,-5.042453847590591676e-02,8.399956582514621350e-02
2.989999999999999880e-01,-1.216579198630769187e-01,-9.147961237584096086e-03,2.071600843571383757e-02
2.999999999999999889e-01,-1.567355195413472346e-01,7.701891978284597373e-02,-1.838957603798906451e-02
3.009999999999999898e-01,-9.628596343753687004e-02,7.477135455782589479e-02,-4.276591430512964587e-02
3.019999999999999907e-01,-3.895962540503967314e-02,1.315548262726327911e-01,-6.448362901716742090e-02
3.029999999999999916e-01,-5.996304754848209156e-03,1.047156079380456850e-01,-7.959140909879239278e-02
3.039999999999999925e-01,7.716273258278801006e-02,8.080000872312832760e-02,-5.638396531443864990e-02
3.049999999999999933e-01,1.007773646439612675e-01,1.281162683675796457e-02,-8.583978729276395270e-02
3.059999999999999942e-01,1.444469048591643934e-01,-3.261237919226502024e-02,-3.632309255965440742e-02
3.069999999999999951e-01,1.014166592470202022e-01,-7.805126005119970845e-02,-4.695578738880557164e-03
3.079999999999999960e-01,6.898564005815663314e-02,-1.061420156223710498e-01,4.947191973848608093e-02
3.089999999999999969e-01,2.190549588264535316e-02,-1.032444401747652507e-01,5.475686960416533550e-02
3.099999999999999978e-01,-3.535649643142137200e-02,-8.472752432784923238e-02,9.334047882057275314e-02
3.109999999999999987e-01,-6.405689940481582023e-02,-6.193714892635147212e-02,6.488179744793635961e-02
3.119999999999999996e-01,-1.612288690120472490e-01,5.692613232184532898e-03,4.766988304548266941e-02
3.130000000000000004e-01,-1.265568518171739099e-01,3.032376377130722653e-02,2.054263329945044993e-03
3.140000000000000013e-01,-1.366359854054665646e-01,5.791693909887983549e-02,-3.507909623077306790e-03
3.150000000000000022e-01,-7.203850310799075896e-02,9.468766470841979976e-02,-7.665904990758888593e-02
3.160000000000000031e-01,-3.686576535476807082e-02,9.658252890453200568e-02,-8.784085282103090697e-02
3.170000000000000040e-01,6.238176599539083100e-02,9.654174860719831608e-02,-6.525310068043052580e-02
3.180000000000000049e-01,9.545805555659869768e-02,4.401854636400946708e-02,-1.134085568772315034e-01
3.190000000000000058e-01,1.244775748984663921e-01,-3.220216743948377952e-02,-4.116638410851315016e-02
3.200000000000000067e-01,1.371405237430083635e-01,-6.582286464936495940e-02,-3.944261740084769631e-03
3.210000000000000075e-01,1.101121060454890721e-01,-7.499297754980387143e-02,1.346118281197346625e-02
3.220000000000000084e-01,5.895850714479046462e-02,-1.081745783779673592e-01,6.019369937794188247e-02
3.230000000000000093e-01,-1.830805032809445718e-02,-1.099558154999985687e-01,6.973477958447142633e-02
3.240000000000000102e-01,-3.881770168347343369e-02,-4.605624066978516312e-02,9.614961881966221924e-02
3.250000000000000111e-01,-1.111495481262036039e-01,-4.361733682312992494e-02,5.698310145262008852e-02
3.260000000000000120e-01,-1.291063887091158657e-01,3.703005057489611174e-02,3.614948531644772423e-02
3.270000000000000129e-01,-1.317299021865487585e-01,6.414498286339148647e-02,-1.701628861725233005e-02
3.280000000000000138e-01,-1.036502990480740322e-01,8.766616573523736133e-02,-4.545318012333835617e-02
3.290000000000000147e-01,-7.594004946589119620e-02,9.251512908945852542e-02,-5.109287757126283747e-02
3.300000000000000155e-01,1.868201721806813168e-02,8.608706892043532788e-02,-8.794052947911044915e-02
3.310000000000000164e-01,7.934236064461133719e-02,5.732833815992362247e-02,-4.428814065375255571e-02
3.320000000000000173e-01,1.106589611309964499e-01,1.324051705155813476e-02,-7.632936948957247392e-02
3.330000000000000182e-01,1.220622381704350168e-01,-4.835327783296480830e-02,-3.738009476447769208e-02
3.340000000000000191e-01,1.195689615488911423e-01,-9.323597297465577305e-02,4.987333185599600836e-03
3.350000000000000200e-01,8.070331136115027615e-02,-7.876323593472428497e-02,3.937511408680319236e-02
3.360000000000000209e-01,2.260070563561559359e-02,-9.341345786037991150e-02,6.493589149673625882e-02
3.370000000000000218e-01,-2.052081358081708773e-02,-1.095026017881028657e-01,7.166062745215955043e-02
3.380000000000000226e-01,-9.807555675401455342e-02,-4.416828180193343306e-02,7.279387360961803166e-02
3.390000000000000235e-01,-1.231297293250441099e-01,-1.366070652295062193e-03,6.504967751458851088e-02
3.400000000000000244e-01,-1.361470801065795544e-01,5.412461964722095620e-02,2.832703391304257357e-02
3.410000000000000253e-01,-1.283536722985658685e-01,1.054200546996779675e-01,-1.978674057868660963e-02
3.420000000000000262e-01,-8.042330328872077105e-02,9.763076032472008114e-02,-6.234271133145698196e-02
3.430000000000000271e-01,-3.143139111488577747e-02,1.094727297911568392e-01,-6.652338712466970838e-02
3.439999999999999725e-01,8.004278581750544352e-02,6.723990555055256446e-02,-7.326117154235388396e-02
3.449999999999999734e-01,1.011097927434080890e-01,6.219115368411845535e-02,-6.602186656104805373e-02
3.459999999999999742e-01,1.313820008140550166e-01,-2.536895027626443616e-02,-4.964912517071170400e-02
3.469999999999999751e-01,1.292222844933767212e-01,-7.060084545961113622e-02,-1.222351526548913839e-02
3.479999999999999760e-01,8.940074122197697037e-02,-1.049554976074392743e-01,2.865727847467080744e-02
3.489999999999999769e-01,6.432341107766571808e-02,-9.601812845127234708e-02,6.116785489240488677e-02
3.499999999999999778e-01,9.802185994184994464e-03,-1.127209216432960986e-01,7.768549314573362785e-02
3.509999999999999787e-01,-4.508190694944692878e-02,-8.013807763537836304e-02,8.572639335952263184e-02
3.519999999999999796e-01,-1.041888157371675533e-01,-1.172975262387522706e-02,7.743078473721203003e-02
3.529999999999999805e-01,-1.381307042487743830e-01,3.095220228232599055e-02,3.814215387052334594e-02
3.539999999999999813e-01,-1.208504444532911698e-01,7.766082519490566383e-02,2.746176497943417227e-02
3.549999999999999822e-01,-9.980237602764768789e-02,1.017297459985867097e-01,-2.277966130808598000e-02
3.559999999999999831e-01,-4.864040722375525400e-02,9.792188762086430354e-02,-5.356974738324752489e-02
3.569999999999999840e-01,4.198500644986841168e-02,1.089508637143587338e-01,-8.911961002564751377e-02
3.579999999999999849e-01,6.868248863036784113e-02,6.622413127193542415e-02,-8.306615041757998974e-02
3.589999999999999858e-01,1.168382739173765422e-01,-7.439129033824707846e-03,-6.997035946348392765e-02
3.599999999999999867e-01,1.164103427221754861e-01,-4.292414706525893991e-02,-2.458204888463678267e-02
3.609999999999999876e-01,1.227589869885249291e-01,-8.983250223110404720e-02,1.872442256245629520e-03
3.619999999999999885e-01,6.974356563784969709e-02,-1.194802860710863363e-01,2.229070889029078489e-02
3.629999999999999893e-01,3.045029259789464385e-02,-8.725175057705487902e-02,6.628902920272730648e-02
3.639999999999999902e-01,-1.437196564349457577e-02,-9.235767034154099275e-02,6.361965257964530274e-02
3.649999999999999911e-01,-9.824968205457429438e-02,-2.492181993225537837e-02,9.018567899624561901e-02
3.659999999999999920e-01,-1.105458744657821651e-01,2.287141730062132190e-03,6.097340773700919703e-02
3.669999999999999929e-01,-1.233183013262900002e-01,5.732450927162847237e-02,5.107583792384456228e-02
3.679999999999999938e-01,-1.213655033976989012e-01,9.104357193299048023e-02,1.217884366336652487e-02
3.689999999999999947e-01,-9.578820000072675589e-02,1.266412633287265499e-01,-3.022846778776636101e-02
3.699999999999999956e-01,-1.447785545654722839e-02,6.631849292374093763e-02,-7.510389913890462565e-02
3.709999999999999964e-01,3.868816449389245876e-02,4.866990993152031653e-02,-1.075834033915754190e-01
3.719999999999999973e-01,1.020422887817644397e-01,3.561149563354756853e-02,-9.569883447386871855e-02
3.729999999999999982e-01,1.303553836727546766e-01,-2.064412800265301440e-02,-5.224510128990562247e-02
3.739999999999999991e-01,1.158074320014096104e-01,-8.652073555710219910e-02,-2.384480839399891194e-02
3.750000000000000000e-01,8.976273911702530028e-02,-8.368770655348657661e-02,-2.988191366321907121e-03
3.760000000000000009e-01,3.889027699063724725e-02,-9.384187108611954931e-02,5.688167127510668913e-02
3.770000000000000018e-01,-5.510327423799757200e-03,-8.733304572618179329e-02,6.596679596141402646e-02
3.780000000000000027e-01,-5.612010044594149816e-02,-6.680784818405409442e-02,7.916499762826199882e-02
3.790000000000000036e-01,-9.319364552837793025e-02,-9.047800317615969923e-03,7.078941540598562843e-02
3.800000000000000044e-01,-1.311347363165980273e-01,2.554650017198050946e-02,5.258508112335501944e-02
3.810000000000000053e-01,-1.360941890743741223e-01,9.698480681959290028e-02,9.070854754640662182e-03
3.820000000000000062e-01,-9.072049014871950978e-02,1.213302150359743259e-01,-4.602784839744723799e-03
3.830000000000000071e-01,-6.603802410637955866e-02,9.900507895880152065e-02,-6.298854116117587332e-02
3.840000000000000080e-01,2.051220077674026712e-02,6.858141370036886786e-02,-8.110259756109677864e-02
3.850000000000000089e-01,7.407067422026751558e-02,3.640464617490234839e-02,-5.845763697762105388e-02
3.860000000000000098e-01,1.385456843243833558e-01,-1.404794433314694680e-03,-7.417066916336217952e-02
3.870000000000000107e-01,1.591611593996402896e-01,-5.337778682933826818e-02,-5.671045596876186923e-02
3.880000000000000115e-01,1.296595511305488335e-01,-7.028252314887745156e-02,1.161445710423496822e-03
3.890000000000000124e-01,8.961166080245004661e-02,-9.168683604226787742e-02,-1.292936287338845858e-02
3.900000000000000133e-01,1.836856882861781851e-02,-1.210686143904143586e-01,5.629129254830567142e-02
3.910000000000000142e-01,-4.271124387384758747e-02,-7.009169200579094816e-02,7.391215816827849394e-02
3.920000000000000151e-01,-9.189768290375774362e-02,-2.148652111023290068e-02,7.768282393560210775e-02
3.930000000000000160e-01,-1.354949575167072873e-01,-1.047552090091302332e-02,7.143132163256754597e-02
3.940000000000000169e-01,-1.439469890078358127e-01,6.457498943871468888e-02,4.844299856857610387e-02
3.950000000000000178e-01,-1.252279509804190283e-01,9.115040724111153625e-02,-9.425590612681652991e-03
3.960000000000000187e-01,-7.311492833129619451e-02,1.198969333005510673e-01,-4.083749800703916077e-02
3.970000000000000195e-01,4.795970062745453892e-03,8.481153168407966347e-02,-6.825894968765859605e-02
3.980000000000000204e-01,4.749728661667637630e-02,6.521786508163207596e-02,-7.661051190143339240e-02
3.990000000000000213e-01,8.121029132086514390e-02,3.302039751036409815e-02,-7.148638583219252274e-02
4.000000000000000222e-01,1.237929618459936987e-01,-6.513981113488584440e-02,-5.101926178951256968e-02
4.010000000000000231e-01,1.232358523333217382e-01,-1.068895513660005070e-01,-4.049277142050081851e-02
4.020000000000000240e-01,1.033112974693857072e-01,-9.813209999563811403e-02,3.622277722535088753e-03
4.030000000000000249e-01,4.031156810364571602e-02,-9.739556600630626393e-02,5.483693390857633659e-02
4.040000000000000258e-01,-1.668419958001730657e-03,-7.015621317325168582e-02,2.301102774368083900e-02
4.050000000000000266e-01,-6.381207151212307804e-02,-4.747229433071911697e-02,7.267967579948875212e-02
4.060000000000000275e-01,-1.330490167457710204e-01,2.127813646769593364e-02,8.008245767741499488e-02
4.069999999999999729e-01,-1.389082797726823582e-01,8.587285721557430529e-02,6.465297977952368103e-02
4.079999999999999738e-01,-1.247103707526303201e-01,1.080418484960144615e-01,2.950841400954119093e-02
4.089999999999999747e-01,-9.498201558254626420e-02,1.060132919244455157e-01,-2.108304816019860098e-02
4.099999999999999756e-01,-3.954134603961694666e-02,9.375440339000820633e-02,-7.669730844798179625e-02
4.109999999999999765e-01,3.407883558813028235e-02,6.947256413333340042e-02,-5.986019940423244201e-02
4.119999999999999774e-01,7.730693388378051534e-02,2.258705202132497286e-02,-1.030342329192945050e-01
4.129999999999999782e-01,1.054719275496052294e-01,-1.294966355442905316e-02,-8.890743252311392175e-02
4.139999999999999791e-01,1.431480541136844753e-01,-8.210201610080475332e-02,-8.036873150192976045e-02
4.149999999999999800e-01,1.357108029003757932e-01,-8.356631207967571418e-02,-2.056103687704378610e-02
4.159999999999999809e-01,9.833223237834812225e-02,-1.193196655758778230e-01,4.344701904730743740e-03
4.169999999999999818e-01,5.693485449230659134e-02,-1.155072401650098918e-01,4.840400957796941322e-02
4.179999999999999827e-01,-2.859329040479672082e-02,-3.299927900428363536e-02,8.799028650368861948e-02
4.189999999999999836e-01,-6.358535202346783655e-02,-6.434654340199162832e-03,6.912589568355324843e-02
4.199999999999999845e-01,-1.112385037367645407e-01,1.071024488422339660e-02,8.864523369429092026e-02
4.209999999999999853e-01,-1.275470183876220021e-01,8.581007620279201831e-02,5.663585414840036775e-02
4.219999999999999862e-01,-1.201226413129741905e-01,1.031822149205613992e-01,1.048878518864894936e-02
4.229999999999999871e-01,-6.707392457919086892e-02,1.112745418981597872e-01,-1.259885477337157819e-02
4.239999999999999880e-01,-1.952671781021309699e-02,8.777113478282584647e-02,-4.746301755916243481e-02
4.249999999999999889e-01,1.839463101049419388e-02,3.379448352280414042e-02,-5.427260830504293532e-02
4.259999999999999898e-01,1.063395118232920988e-01,7.416348823139675903e-03,-9.759099713363697526e-02
4.269999999999999907e-01,1.079372436603581314e-01,-4.934451202465438974e-02,-6.517385638238029633e-02
4.279999999999999916e-01,1.195945912398553024e-01,-9.241002067185684343e-02,-2.657870472424957858e-02
4.289999999999999925e-01,1.068988992387009396e-01,-1.283167089243877623e-01,-1.660882428716597622e-02
4.299999999999999933e-01,8.188679172775938098e-02,-1.183375936246148785e-01,6.788857300147239232e-03
4.309999999999999942e-01,6.074508797751661092e-05,-8.916823594419572008e-02,8.830280556265987513e-02
4.319999999999999951e-01,-6.543344888649091362e-02,-2.168467360295969412e-02,8.878581173574826013e-02
4.329999999999999960e-01,-1.140182712360137823e-01,7.265207941323590345e-03,7.380722845948013700e-02
4.339999999999999969e-01,-1.378938291213482881e-01,5.199635024505658287e-02,9.286876222678913662e-02
4.349999999999999978e-01,-1.225354517212503963e-01,9.386066537511535135e-02,3.968661500619226346e-02
4.359999999999999987e-01,-7.961148443253264484e-02,1.036802801247115463e-01,2.713254113638384479e-02
4.369999999999999996e-01,-2.215660544186709088e-02,9.448165667596264417e-02,-3.573429722665981412e-02
4.380000000000000004e-01,3.087486414028756121e-02,5.842065327762294841e-02,-6.303554230885440035e-02
4.390000000000000013e-01,6.437918040032068745e-02,-2.116330250234036217e-03,-8.093213547133072672e-02
4.400000000000000022e-01,1.184105998860544434e-01,-6.139056563051772247e-02,-6.850651045248591642e-02
4.410000000000000031e-01,1.078863271690463643e-01,-5.852937921351684947e-02,-6.405963711911072389e-02
4.420000000000000040e-01,1.174155861755718788e-01,-1.158795175015060602e-01,-9.097196020015350590e-03
4.430000000000000049e-01,8.409464077863693099e-02,-1.033325842974223557e-01,-5.402835346921601618e-03
4.440000000000000058e-01,5.561205537650731195e-02,-7.795137609301087955e-02,2.046208342978121653e-02
4.450000000000000067e-01,-3.245147828492159908e-02,-4.428462107764588596e-02,5.419234326475827479e-02
4.460000000000000075e-01,-9.067623803020201378e-02,-8.730314414546413992e-03,7.118421632082495842e-02
4.470000000000000084e-01,-1.188495758370985422e-01,4.398447541004756739e-02,6.416225280693278743e-02
4.480000000000000093e-01,-1.360763695701734666e-01,8.324248317506528771e-02,6.328679571797848902e-02
4.490000000000000102e-01,-1.238910671877360287e-01,1.166150286564907601e-01,4.540471442754710762e-02
4.500000000000000111e-01,-7.767699882371228992e-02,8.397326752924610949e-02,-7.885806222855278047e-03
4.510000000000000120e-01,-1.726229246904449968e-02,7.257563123364474400e-02,-4.316546327442103564e-02
4.520000000000000129e-01,6.580579820853019180e-02,2.371347757507128243e-02,-5.776811917956028997e-02
4.530000000000000138e-01,1.176506945003296806e-01,-2.157771016215438709e-02,-8.402614978470841767e-02
4.540000000000000147e-01,1.132929537923271918e-01,-5.714025294286060458e-02,-9.217575548541817598e-02
4.550000000000000155e-01,1.455183965578871197e-01,-9.673350371745642606e-02,-6.224343401945917065e-02
4.560000000000000164e-01,1.270661663732347846e-01,-9.738375483778310970e-02,-8.253323589744036501e-03
4.570000000000000173e-01,6.291220242287555442e-02,-5.625220159344035409e-02,8.905229916222685144e-03
4.580000000000000182e-01,-2.761588614084482113e-02,-6.068237434442119022e-02,6.483677727757110321e-02
4.590000000000000191e-01,-5.585814477702418651e-02,-3.124504582867988073e-02,7.099113677081543561e-02
4.600000000000000200e-01,-1.033697865938690980e-01,4.022414871559839428e-02,6.089686256776705858e-02
4.610000000000000209e-01,-1.425248126671996296e-01,6.927938308288768277e-02,7.111187267472078577e-02
4.620000000000000218e-01,-1.275520290666199708e-01,1.128711339753205034e-01,2.815216163741430036e-02
4.630000000000000226e-01,-9.289405213487626767e-02,1.011138015784733279e-01,2.042692470246156022e-02
4.640000000000000235e-01,-4.595425349797868653e-02,9.834312560485464205e-02,-1.901873907647449666e-02
4.650000000000000244e-01,9.882839923398036019e-03,2.469329022921167710e-02,-6.870086499943135749e-02
4.660000000000000253e-01,6.879790975582264489e-02,5.174950707066481095e-03,-9.289252207362937164e-02
4.670000000000000262e-01,1.105069444791264704e-01,-6.994110660506470956e-02,-7.964289566000494480e-02
4.680000000000000271e-01,1.239851141261892886e-01,-7.806642967861489313e-02,-5.597758074289931746e-02
4.689999999999999725e-01,1.491089422575893331e-01,-1.100738832361941449e-01,-4.310813370180895804e-02
4.699999999999999734e-01,9.613121280458870876e-02,-1.059802473274388812e-01,-4.891910896195918439e-04
4.709999999999999742e-01,1.774577311136273441e-02,-9.419794005754369981e-02,1.834593958725448670e-02
4.719999999999999751e-01,-3.462705743973738814e-02,-4.406909204825187887e-02,4.263676913679279035e-02
4.729999999999999760e-01,-8.041900852299699309e-02,2.199037479278924748e-03,7.369165540551847471e-02
4.739999999999999769e-01,-1.478637801151189424e-01,4.442265850464911792e-02,7.167278493464229738e-02
4.749999999999999778e-01,-1.302424242522566833e-01,9.752490303037045227e-02,7.232009571471281761e-02
4.759999999999999787e-01,-1.098779384973676415e-01,1.102052488997506269e-01,6.198953954842188058e-02
4.769999999999999796e-01,-8.117628767980067384e-02,1.010169431202611739e-01,9.691151191264572168e-03
4.779999999999999805e-01,-1.383984331612370285e-02,7.906988473263978912e-02,-2.460142076639439818e-02
4.789999999999999813e-01,2.682749842034183943e-02,7.399698805897377170e-03,-6.033985044278399740e-02
4.799999999999999822e-01,6.407560044037827196e-02,-3.614614568453227567e-02,-7.656181074300974498e-02
4.809999999999999831e-01,1.314116160673666212e-01,-7.406628680596480385e-02,-9.010819951136714301e-02
4.819999999999999840e-01,1.339401122268364108e-01,-9.992246143009381187e-02,-7.807412363389268362e-02
4.829999999999999849e-01,1.275279557680358000e-01,-1.140358193676554444e-01,-4.753942555171426082e-02
4.839999999999999858e-01,7.721783984985033933e-02,-7.679728115362466356e-02,-1.886312550142397668e-02
4.849999999999999867e-01,-1.192939962136038874e-02,-4.657401336823940863e-02,4.563774049776269520e-02
4.859999999999999876e-01,-5.545551342416535356e-02,-8.012166592044152671e-03,6.965472210177416079e-02
4.869999999999999885e-01,-1.143838542894023563e-01,3.050349925833772957e-02,8.636801556055002937e-02
4.879999999999999893e-01,-1.313131455530292535e-01,9.414776208167667526e-02,6.031310553974589261e-02
4.889999999999999902e-01,-1.250755570031102104e-01,1.133061901927593790e-01,8.337623129359006402e-02
4.899999999999999911e-01,-1.042387793127927953e-01,9.447713362361923051e-02,3.151471500421591104e-02
4.909999999999999920e-01,-3.991739740422839411e-02,1.003952610900219894e-01,-2.510655557679017640e-03
4.919999999999999929e-01,1.427923186271135188e-02,4.740845193029730870e-02,-6.002669573854122614e-02
4.929999999999999938e-01,6.702880583277930071e-02,-1.845842178682449708e-02,-6.963385919325379425e-02
4.939999999999999947e-01,1.169801706644304218e-01,-8.182353678007850406e-02,-6.614680565478556207e-02
4.949999999999999956e-01,1.461805663784167819e-01,-6.905462550470285732e-02,-8.804414030242121991e-02
4.959999999999999964e-01,1.206129773923538817e-01,-8.332457070470489224e-02,-5.342143982078365744e-02
4.969999999999999973e-01,9.728352948477961282e-02,-8.629792164730210047e-02,1.315660513951040760e-03
4.979999999999999982e-01,2.435793972009273056e-02,-6.636203587901338963e-02,4.579411960100196466e-02
4.989999999999999991e-01,-2.521157435405646519e-02,-2.741442176159853555e-02,3.514700690993941001e-02
5.000000000000000000e-01,-8.823615456417249758e-02,3.384949492923517052e-04,6.731639505667773304e-02
5.010000000000000009e-01,-1.064708206188660494e-01,5.195644418016331922e-02,4.888543934008886260e-02
5.020000000000000018e-01,-1.023085456281875860e-01,9.885444759898635858e-02,4.670668433897043337e-02
5.030000000000000027e-01,-1.179052263256714639e-01,1.255206365114683309e-01,2.680046433332202577e-02
5.040000000000000036e-01,-7.108981238072395459e-02,9.195915611345199803e-02,-5.800107082890533505e-03
5.050000000000000044e-01,-2.195462127131676822e-02,4.491930947639827948e-02,-1.422415552110791771e-02
5.060000000000000053e-01,5.055618998497700411e-02,1.190704505718859565e-02,-7.805262281747753217e-02
5.070000000000000062e-01,9.090996266809651949e-02,-5.816899119559807568e-02,-9.968694931507456058e-02
5.080000000000000071e-01,1.237174785331064536e-01,-7.836927680218597203e-02,-7.754110401389691098e-02
5.090000000000000080e-01,1.239595557231801815e-01,-1.190421053496736881e-01,-8.098668712415361959e-02
5.100000000000000089e-01,1.111297516284728837e-01,-1.052786566866743129e-01,-2.273873327307463291e-02
5.110000000000000098e-01,7.429226756617757221e-02,-5.928034673001572608e-02,-8.681544201697529578e-03
5.120000000000000107e-01,-1.218947439846835949e-02,-2.516282401145032710e-02,2.225959524801251685e-02
5.130000000000000115e-01,-6.918022428742444385e-02,2.752297408595992013e-03,5.667704045535850582e-02
5.140000000000000124e-01,-1.199884926535867841e-01,3.896619546210352419e-02,8.229792562003211687e-02
5.150000000000000133e-01,-1.429309842022312427e-01,9.837818356628479088e-02,5.713187274608040600e-02
5.160000000000000142e-01,-1.327993207402093367e-01,1.088113645510035005e-01,6.447646346599417155e-02
5.170000000000000151e-01,-1.017259632805096736e-01,9.648734732910722867e-02,3.020440255797658333e-02
5.180000000000000160e-01,-4.339895640553238787e-02,8.609081114980514371e-02,4.368214289327054106e-03
5.190000000000000169e-01,2.634829798705893514e-03,-1.493078506847647993e-02,-3.976931852663977141e-02
5.200000000000000178e-01,7.240543033881373380e-02,-2.254371574733497058e-02,-6.144376172847425960e-02
5.210000000000000187e-01,9.951648101685642289e-02,-7.740309213423389456e-02,-8.691505154039272374e-02
5.220000000000000195e-01,1.227145603271369984e-01,-7.753695638650708044e-02,-6.676244897316103988e-02
5.230000000000000204e-01,1.334487366253135632e-01,-1.112514330314053751e-01,-6.426940244289407189e-02
5.240000000000000213e-01,9.186006912920216538e-02,-6.493692514268689653e-02,-3.850811205863770986e-02
5.250000000000000222e-01,4.091743770599137742e-02,-4.519519083382586566e-02,-1.012454937928174235e-03
5.260000000000000231e-01,-5.814025085923153063e-02,-3.092419759877178959e-02,3.052170022302334862e-02
5.270000000000000240e-01,-7.277772462971249245e-02,5.122748920193351263e-02,5.955956535728915147e-02
5.280000000000000249e-01,-1.358695582024404547e-01,8.210483660202753942e-02,7.666679316752456064e-02
5.290000000000000258e-01,-1.128438888201080265e-01,9.617592539794503348e-02,9.365629158753717431e-02
5.300000000000000266e-01,-1.013838380183459814e-01,1.178402475093274920e-01,4.467815080138926032e-02
5.310000000000000275e-01,-6.518468151674738920e-02,1.102044028909216489e-01,4.024106644974280445e-02
5.320000000000000284e-01,-3.528385009781770387e-02,3.418166633235766166e-02,2.848665092040252814e-03
5.330000000000000293e-01,3.599497272079462545e-02,-8.211303679464576274e-03,-8.684344781625494281e-02
5.340000000000000302e-01,9.233300685169293365e-02,-4.909863411834873570e-02,-7.268731089345586982e-02
5.350000000000000311e-01,1.483347835074897980e-01,-8.724705809402494294e-02,-8.333261724821590388e-02
5.360000000000000320e-01,1.293752765699442142e-01,-1.181740255513123450e-01,-7.929698710117197291e-02
5.370000000000000329e-01,8.648781345230824313e-02,-9.140858480086369586e-02,-4.453496417861857459e-02
5.380000000000000338e-01,4.005224397625390537e-02,-9.790701678253044271e-02,3.148015317938607617e-05
5.390000000000000346e-01,-1.652477079353929443e-02,-2.418823329836355604e-02,2.993037103213080918e-02
5.400000000000000355e-01,-6.953238759598538710e-02,1.884188550555921174e-02,5.575569229068259164e-02
5.410000000000000364e-01,-1.229374623695239921e-01,6.142384101886740055e-02,6.078687275921911687e-02
5.420000000000000373e-01,-1.060210986987465270e-01,1.069987582517517299e-01,7.259147361290826939e-02
5.430000000000000382e-01,-1.420919849777384225e-01,1.102057412893523852e-01,5.831388894684358393e-02
5.440000000000000391e-01,-9.087651619641763656e-02,1.033794716656939033e-01,5.182179724083529199e-02
5.450000000000000400e-01,-4.327569714061697131e-02,6.663105093846349858e-02,3.880350803391022837e-03
5.460000000000000409e-01,2.367322566390901370e-02,-3.613615836901522185e-03,-7.599665936042380131e-03
5.470000000000000417e-01,7.639809986736041669e-02,-4.658126704712491767e-02,-6.345970682357934822e-02
5.480000000000000426e-01,1.163087843309897063e-01,-5.705925160765642351e-02,-7.665763181835058560e-02
5.490000000000000435e-01,1.152472190825682835e-01,-1.106769193348553504e-01,-7.105172255343258914e-02
5.500000000000000444e-01,1.565238630436066591e-01,-1.011260626115160627e-01,-6.967200536190594484e-02
5.510000000000000453e-01,8.549335136883629005e-02,-7.448197270904889644e-02,-3.877216301369683371e-02
5.520000000000000462e-01,5.191652717269478780e-03,-7.713184531542889577e-02,8.300517977364750208e-03
5.530000000000000471e-01,-1.858037732377901263e-02,1.631960491204787964e-02,2.393649389853015966e-02
5.540000000000000480e-01,-1.052025439209311602e-01,6.982009281849040072e-02,5.448801742632088108e-02
5.550000000000000488e-01,-1.145851068642473602e-01,7.991767667574255218e-02,8.504459251717773338e-02
5.560000000000000497e-01,-1.090910665833506599e-01,1.189577192665398492e-01,7.327248088611766630e-02
5.570000000000000506e-01,-1.017203253889375214e-01,1.171829769640125307e-01,7.111470470493090612e-02
5.580000000000000515e-01,-7.735303602243678855e-02,7.831969488502678323e-02,3.966211153148104657e-02
5.590000000000000524e-01,3.215394870647242560e-03,3.950103320673135215e-02,2.095274334362347540e-03
5.600000000000000533e-01,5.416619900666072573e-02,4.349468673333140543e-03,-3.115706966392805047e-02
5.610000000000000542e-01,1.166475357316388572e-01,-5.899573121450075314e-02,-6.338821009873597812e-02
5.620000000000000551e-01,1.097550355452132920e-01,-8.918001543297486566e-02,-8.469521093304716031e-02
5.629999999999999449e-01,1.260261490623771907e-01,-1.103226175588438163e-01,-9.045504590400413325e-02
5.639999999999999458e-01,1.003952200715168969e-01,-8.852924533754907843e-02,-4.124993294066064964e-02
5.649999999999999467e-01,5.460209218437221679e-02,-6.692114851086594651e-02,-1.186519814077844313e-02
5.659999999999999476e-01,1.726614916146952325e-02,-3.123924372665077068e-02,1.710407644014645331e-02
5.669999999999999485e-01,-3.740701133242745058e-02,4.095645460794849341e-02,7.907348183470974678e-02
5.679999999999999494e-01,-8.643135650979212603e-02,7.795457642686348665e-02,7.713345288917448916e-02
5.689999999999999503e-01,-1.268216933005900104e-01,1.035506097867544828e-01,9.108501571866935154e-02
5.699999999999999512e-01,-1.422382493429242001e-01,1.013073389858019230e-01,7.492053199747417125e-02
5.709999999999999520e-01,-8.876512655208491920e-02,9.275823390189062712e-02,7.201704008742472463e-02
5.719999999999999529e-01,-5.253849282614295874e-02,4.503559467187245868e-02,2.965359000822761701e-02
5.729999999999999538e-01,2.211924300154852890e-02,7.172126636183495663e-03,-8.608207062883002289e-03
5.739999999999999547e-01,6.568225568229341116e-02,-6.428673814414535836e-02,-4.579317356996169541e-02
5.749999999999999556e-01,1.147653956652224111e-01,-9.808311391462502804e-02,-5.313608051354257872e-02
5.759999999999999565e-01,1.381920492484098040e-01,-1.224984293257057044e-01,-6.113214378378321878e-02
5.769999999999999574e-01,1.181379436791275134e-01,-1.082861263505919130e-01,-7.472007995910538714e-02
5.779999999999999583e-01,7.603981274637040821e-02,-6.481066676524060988e-02,-4.408013042506525592e-02
5.789999999999999591e-01,1.609705471777689084e-03,-3.293945299488436340e-02,-3.391603979334185948e-02
5.799999999999999600e-01,-1.211011447628843399e-02,1.397251993868224053e-02,2.657177673257036729e-02
5.809999999999999609e-01,-8.434387766570573819e-02,8.123023020630129598e-02,7.059922411297177292e-02
5.819999999999999618e-01,-1.262840029088624916e-01,9.060589162373891559e-02,5.370356947375808793e-02
5.829999999999999627e-01,-1.055572977395892453e-01,9.918378395851788765e-02,7.310352293528156464e-02
5.839999999999999636e-01,-9.676087745522342354e-02,1.061707227135950393e-01,7.086011883139213541e-02
5.849999999999999645e-01,-8.519066102282922548e-02,7.219143371565202305e-02,5.675142409240325342e-02
5.859999999999999654e-01,-1.362532085123072979e-02,3.279864923426221296e-02,-9.794788059301494723e-03
5.869999999999999662e-01,3.882362082203438813e-02,-1.715674359947007288e-02,-8.628306210034993387e-03
5.879999999999999671e-01,8.379958246089180829e-02,-2.816957209488180763e-02,-6.929433059860376498e-02
5.889999999999999680e-01,1.353597798469274027e-01,-9.808841566107631693e-02,-4.840417569645010659e-02
5.899999999999999689e-01,1.373066466165908661e-01,-9.638139323483499443e-02,-1.034698228548138338e-01
5.909999999999999698e-01,1.017310163374906123e-01,-1.001007680518527926e-01,-7.512717064217222518e-02
5.919999999999999707e-01,5.197178647628247772e-02,-5.267700309884659066e-02,-4.332897804340819781e-02
5.929999999999999716e-01,-1.749376232277430679e-02,-1.063187322590405069e-02,4.741360032607117546e-03
5.939999999999999725e-01,-6.578741294060874711e-02,2.330840994461904486e-02,3.088605721473276430e-02
5.949999999999999734e-01,-1.047978666319746011e-01,8.841004184950990163e-02,6.924853243641558576e-02
5.959999999999999742e-01,-1.337075639015530559e-01,1.108873652634075890e-01,6.315093409634943422e-02
5.969999999999999751e-01,-1.133609377126099382e-01,1.182929576870469096e-01,7.802753110331811515e-02
5.979999999999999760e-01,-1.142037888773332066e-01,9.448966595935900936e-02,5.967331488210397827e-02
5.989999999999999769e-01,-1.673104943513668841e-02,1.802533989924539823e-02,3.292860022557982103e-02
5.999999999999999778e-01,2.029436721257416379e-02,-1.648791429490574501e-02,-4.347310597317568625e-04
6.009999999999999787e-01,6.024843867083624904e-02,-4.373404937928187380e-02,-5.498590066689186540e-02
6.019999999999999796e-01,1.035224560555096790e-01,-9.684957715823140634e-02,-5.521018957936348753e-02
6.029999999999999805e-01,1.456157499287772938e-01,-1.102630510520845042e-01,-9.137415206967090808e-02
6.039999999999999813e-01,1.071838765945919980e-01,-9.612134449583502327e-02,-8.291506447017521486e-02
6.049999999999999822e-01,1.044818492020286732e-01,-5.678491468993746016e-02,-3.693516396948320207e-02
6.059999999999999831e-01,5.452918562519526446e-02,-1.521180972765616771e-02,-2.097658023501564398e-02
6.069999999999999840e-01,-3.299881449562416108e-02,2.995287364591674856e-02,2.421543946698994851e-02
6.079999999999999849e-01,-1.029855252922505793e-01,6.983602028417344731e-02,3.626830484940826022e-02
6.089999999999999858e-01,-1.300956777704339040e-01,1.008037715067285345e-01,7.023357928970992703e-02
6.099999999999999867e-01,-1.246479478162376697e-01,9.454823081156275844e-02,8.179438693636120750e-02
6.109999999999999876e-01,-1.251430484451871439e-01,9.562011411635278069e-02,6.910487448322673310e-02
6.119999999999999885e-01,-6.516129779543088085e-02,4.715696530808186071e-02,3.458035403700390059e-02
6.129999999999999893e-01,1.002791567969085230e-02,1.331224837174866185e-02,1.774384287108758673e-02
6.139999999999999902e-01,3.861983312323190309e-02,-3.919504064448148944e-02,1.228285981768297529e-02
6.149999999999999911e-01,8.400169165981759278e-02,-7.715199797738248044e-02,-3.121503978683436500e-02
6.159999999999999920e-01,1.410324889406069093e-01,-9.714761388716927626e-02,-7.361772287664633541e-02
6.169999999999999929e-01,1.269463445511320177e-01,-9.531487148220041394e-02,-8.228632785577109920e-02
6.179999999999999938e-01,1.077850471004233868e-01,-8.310376132143303118e-02,-7.496205640138868531e-02
6.189999999999999947e-01,5.954931011196443191e-02,-3.058359889995349024e-02,-3.876592944125331619e-02
6.199999999999999956e-01,2.813341812471730971e-02,4.637094206867967876e-04,-1.156090038744978475e-02
6.209999999999999964e-01,-4.150010081854827587e-02,6.364214970424791895e-02,7.642876160445281897e-03
6.219999999999999973e-01,-1.243329813582624149e-01,1.175362300411812583e-01,4.097376436813664896e-02
6.229999999999999982e-01,-1.413217342645068930e-01,1.074188528612546462e-01,7.354562155129598655e-02
6.239999999999999991e-01,-1.086152113502993483e-01,9.759359664504892173e-02,9.111820355521640935e-02
6.250000000000000000e-01,-1.044585580832673860e-01,7.321021777711940459e-02,5.483122783219666896e-02
6.260000000000000009e-01,-5.278050164234406733e-02,3.642880482635611761e-02,2.178395523196857350e-02
6.270000000000000018e-01,1.607931304359611763e-02,-2.999280601900907242e-02,-3.513874580177263167e-03
6.280000000000000027e-01,9.548813562187066784e-02,-6.265750062540657861e-02,-9.674249476775287002e-03
6.290000000000000036e-01,1.122608750531144950e-01,-1.049595906507017756e-01,-7.034001065811130993e-02
6.300000000000000044e-01,1.214553095960650558e-01,-1.087887723844405269e-01,-9.086481661047078606e-02
6.310000000000000053e-01,1.321056313941842419e-01,-8.938549967421194342e-02,-8.111196407731599556e-02
6.320000000000000062e-01,9.680338908078159332e-02,-5.822425610368765075e-02,-6.254999185154820618e-02
6.330000000000000071e-01,5.997646293507324922e-02,5.731842983671999771e-03,-4.257349399033551890e-02
6.340000000000000080e-01,-4.336481037403925459e-02,6.581155648420831950e-02,-1.112364093153342393e-02
6.350000000000000089e-01,-9.355754400881913235e-02,9.421182026536822907e-02,4.018005971370762486e-02
6.360000000000000098e-01,-1.371305606176011771e-01,8.994862714697628159e-02,5.545902421379014097e-02
6.370000000000000107e-01,-1.295767095246054823e-01,8.501366326631312753e-02,9.470929575492988139e-02
6.380000000000000115e-01,-1.232552284382198993e-01,7.239072851713666823e-02,1.140791629818343617e-01
6.390000000000000124e-01,-5.006741068688160684e-02,3.996202992673031362e-02,5.726422366683545789e-02
6.400000000000000133e-01,-6.232633996998060942e-03,1.340634766974917180e-02,1.244210984182783815e-03
6.410000000000000142e-01,4.007922805826351353e-02,-6.186534914485784797e-02,-7.950792354800041706e-03
6.420000000000000151e-01,1.104621148903890127e-01,-8.006808320110787858e-02,-3.940707455533506293e-02
6.430000000000000160e-01,1.298601556959113890e-01,-9.385355393815780767e-02,-7.211029331190427216e-02
6.440000000000000169e-01,1.341412065309174617e-01,-8.798665145782874619e-02,-7.806224758354220195e-02
6.450000000000000178e-01,1.194544438336162667e-01,-7.892502314825239340e-02,-8.409264779772905596e-02
6.460000000000000187e-01,6.389685786545321045e-02,-3.347606551935438518e-02,-5.970243299990232039e-02
6.470000000000000195e-01,-3.135564925826106464e-02,1.952534614743454966e-02,-1.998097927605379034e-02
6.480000000000000204e-01,-5.097919071548782932e-02,8.217606566385890488e-02,-8.150397617429774172e-03
6.490000000000000213e-01,-1.055918975088729755e-01,9.087871292451710215e-02,6.735154211760714660e-02
6.500000000000000222e-01,-1.112368155089328292e-01,9.161490759556747965e-02,5.516530299006788818e-02
6.510000000000000231e-01,-9.910953883312136059e-02,9.018829012101517439e-02,7.908879991114277364e-02
6.520000000000000240e-01,-9.632044691556111704e-02,5.943477678326417046e-02,5.460163978358821557e-02
6.530000000000000249e-01,-5.146075861862788037e-02,2.900068703745343687e-02,2.368615999523019169e-02
6.540000000000000258e-01,-2.494081360753534760e-02,-4.226151293066766901e-02,-9.994140664198809115e-03
6.550000000000000266e-01,9.273666655701649775e-02,-7.989826108893653689e-02,-4.346213045653833651e-02
6.560000000000000275e-01,1.066090866034423851e-01,-1.068403180061284624e-01,-6.663178435405238409e-02
6.570000000000000284e-01,1.282406419489402760e-01,-9.502410450257715857e-02,-6.058687256471850802e-02
6.580000000000000293e-01,1.198842526727011554e-01,-8.573034037910920446e-02,-8.509542624097733710e-02
6.590000000000000302e-01,8.807939424463159805e-02,-3.914286453179112446e-02,-5.731949024888523259e-02
6.600000000000000311e-01,4.853939677452642071e-02,1.430803384021944215e-02,-2.818258150449777164e-02
6.610000000000000320e-01,-6.313816679298898948e-02,7.251844152633217522e-02,-5.721000614672764467e-03
6.620000000000000329e-01,-1.060856329389700814e-01,7.282138809382208977e-02,2.795798191527552878e-02
6.630000000000000338e-01,-1.241163558395751154e-01,1.001383765706796991e-01,3.327536474313139842e-02
6.640000000000000346e-01,-1.156572542594364733e-01,8.309878992597401204e-02,6.502345509615643782e-02
6.650000000000000355e-01,-1.270898792074944550e-01,8.510179045232713069e-02,8.419915976767636256e-02
6.660000000000000364e-01,-6.349528294655651384e-02,2.126724681375244744e-02,4.741125277750664335e-02
6.670000000000000373e-01,-2.188532773344600488e-02,-6.786229815015755798e-03,1.842738164215731306e-03
6.680000000000000382e-01,4.630398017557723483e-02,-5.464617765202290506e-02,1.070321067176763577e-02
6.690000000000000391e-01,9.109717298125785678e-02,-1.077164651223699449e-01,-7.302671812208242665e-03
6.700000000000000400e-01,1.319773064623940839e-01,-8.935509281780726343e-02,-6.516873576201522023e-02
6.710000000000000409e-01,1.516699601747185655e-01,-1.068610803713857804e-01,-8.878459758869300389e-02
6.720000000000000417e-01,1.065364030524637573e-01,-8.191563219608412327e-02,-9.783357117518211299e-02
6.730000000000000426e-01,6.272825614141754047e-02,-7.910735372835117282e-03,-4.124141818611243987e-02
6.740000000000000435e-01,2.881979903634572515e-02,3.160606949354893142e-02,-2.321513650091179201e-02
6.750000000000000444e-01,-6.513813013596345125e-02,7.166568803983840164e-02,-1.175748060229440690e-03
6.760000000000000453e-01,-1.018716350572464041e-01,1.182939927502181521e-01,1.858407469053483321e-02
6.770000000000000462e-01,-1.455760114030719976e-01,9.754277620319551367e-02,6.652433333145391092e-02
6.780000000000000471e-01,-1.182461516602916485e-01,8.606336268393992295e-02,8.574292266126329332e-02
6.790000000000000480e-01,-8.523838015276385960e-02,2.239158512680686913e-02,7.564730863067320454e-02
6.800000000000000488e-01,-4.021898420888772585e-02,-2.709004798892914942e-02,3.406552272674422122e-02
6.810000000000000497e-01,1.445765486139376915e-02,-3.885503356979359835e-02,2.244507699968556133e-02
6.820000000000000506e-01,5.350247465541283637e-02,-1.083661669167661767e-01,-3.800445110212117162e-03
6.830000000000000515e-01,1.026513883161293411e-01,-1.070931643203433814e-01,-4.164664898875167220e-02
6.840000000000000524e-01,1.463039938353325464e-01,-1.177811035547069451e-01,-8.602270461627491149e-02
6.850000000000000533e-01,1.117290857399915599e-01,-7.537927582041499541e-02,-9.891263537116407045e-02
6.860000000000000542e-01,8.463590991209779535e-02,-1.192371149286184859e-02,-7.393732449125642314e-02
6.870000000000000551e-01,4.539857883214971218e-02,3.152344741271471962e-02,-4.077376150133157212e-02
6.879999999999999449e-01,-1.651185368360873554e-02,7.061650478487499494e-02,-1.470604368784007854e-02
6.889999999999999458e-01,-9.330814892046687681e-02,9.566268890841110595e-02,7.250371902494543754e-03
6.899999999999999467e-01,-1.164424196275574558e-01,1.055068450478107156e-01,2.798662959779159298e-02
6.909999999999999476e-01,-1.309326628807414294e-01,9.579867771660170728e-02,7.701696756842427161e-02
6.919999999999999485e-01,-1.144090526192579754e-01,6.978559161123858157e-02,8.099139460982249239e-02
6.929999999999999494e-01,-8.659080626123538682e-02,1.616497054361568098e-02,4.266059875972087745e-02
6.939999999999999503e-01,-9.409243467854894877e-03,-3.072877916818416918e-02,2.422721076928691444e-02
6.949999999999999512e-01,5.718896772815412755e-02,-8.818807814678306101e-02,-6.819886319736106128e-04
6.959999999999999520e-01,8.698758522578894925e-02,-1.083508186634505599e-01,-2.077801552216777467e-02
6.969999999999999529e-01,9.579946646870340921e-02,-1.423682638207569295e-01,-7.281278249681698289e-02
6.979999999999999538e-01,1.160593353687313783e-01,-1.026980252173376879e-01,-8.561889377433885839e-02
6.989999999999999547e-01,1.123828612924849535e-01,-7.272651744891824033e-02,-8.758507592285653953e-02
6.999999999999999556e-01,6.472661302723765886e-02,-4.295412050613587295e-03,-6.840028439305004260e-02
7.009999999999999565e-01,3.285525093629616117e-02,4.346097510531156394e-02,-6.552689591374938338e-02
7.019999999999999574e-01,-5.791076681493216582e-02,6.769393876604362648e-02,1.751052873421732629e-03
7.029999999999999583e-01,-9.359935309182365604e-02,1.138100531253169179e-01,2.819097937700429032e-02
7.039999999999999591e-01,-1.471094690814150341e-01,9.093292752441756166e-02,5.785872064312286983e-02
7.049999999999999600e-01,-1.439952536761693602e-01,7.890079926746819405e-02,5.355772193782464691e-02
7.059999999999999609e-01,-1.043106626981502166e-01,3.690524136793343207e-02,7.624307046189911230e-02
7.069999999999999618e-01,-5.723696124106143757e-02,-2.717833002192471259e-02,6.671006224314854349e-02
7.079999999999999627e-01,2.826756515730282152e-02,-5.585455781791312524e-02,2.629281341027796259e-02
7.089999999999999636e-01,8.966411786974892717e-02,-9.211673657810592886e-02,1.033592926193169226e-02
7.099999999999999645e-01,1.039196790355881028e-01,-1.144231291941857909e-01,-1.843230438011561265e-02
7.109999999999999654e-01,1.579889745532769840e-01,-7.794374662405192944e-02,-8.958556348170733374e-02
7.119999999999999662e-01,1.071809068771596152e-01,-8.006137720060900465e-02,-9.594029794722555571e-02
7.129999999999999671e-01,8.823442846202997347e-02,-1.674376160787041656e-02,-7.762323952798713678e-02
7.139999999999999680e-01,5.439497577243539855e-02,1.889952005626625506e-02,-6.645499974849790326e-02
7.149999999999999689e-01,-2.086092071388264899e-02,9.780644267833749073e-02,-2.310942532976185265e-02
7.159999999999999698e-01,-9.450454245138599496e-02,9.408521910379893938e-02,8.640477019355831748e-03
7.169999999999999707e-01,-9.428362719235629241e-02,1.130114655477497121e-01,5.439197303929081684e-02
7.179999999999999716e-01,-1.271972771710380423e-01,9.928053001453915338e-02,7.115118937067455018e-02
7.189999999999999725e-01,-1.390458781569196833e-01,6.980034306466492700e-02,9.027369281084342278e-02
7.199999999999999734e-01,-8.953810990371866008e-02,3.119609601980048458e-03,1.032810506739905015e-01
7.209999999999999742e-01,-1.100396413928244645e-02,-7.213388061895971426e-02,5.409853118173996861e-02
7.219999999999999751e-01,3.230673417232226424e-02,-8.157401514177765878e-02,1.723402278317997388e-02
7.229999999999999760e-01,1.136075309553111895e-01,-8.880467911708564421e-02,-1.566615347171820827e-02
7.239999999999999769e-01,1.306301736296289762e-01,-1.264910214042112568e-01,-4.168283234740743221e-02
7.249999999999999778e-01,1.283833185667906940e-01,-7.839317367572590234e-02,-6.435261851055204541e-02
7.259999999999999787e-01,1.028632676152574921e-01,-4.548352726576879862e-02,-1.108520541773422158e-01
7.269999999999999796e-01,9.269483153346463888e-02,-4.471839746302927465e-02,-7.513833744278573812e-02
7.279999999999999805e-01,1.166094835611338615e-02,3.820280207992032134e-02,-4.659307926724960691e-02
7.289999999999999813e-01,-8.169785791743172654e-02,9.403662068067418500e-02,1.626795782313663133e-02
7.299999999999999822e-01,-9.743268025203392912e-02,9.853514093417541087e-02,6.770984886856693842e-03
7.309999999999999831e-01,-1.377799647177472830e-01,1.209785838688955395e-01,4.620319654699393819e-02
7.319999999999999840e-01,-1.339309105455704918e-01,7.656649069605575564e-02,7.534958882269057745e-02
7.329999999999999849e-01,-8.682344866777015613e-02,2.569744762578078656e-02,7.609307829588313199e-02
7.339999999999999858e-01,-3.782504566097576876e-02,-2.696877729573787796e-02,1.000081182046765188e-01
7.349999999999999867e-01,3.501951302891061213e-02,-8.175231195849456955e-02,3.655775889056650518e-02
7.359999999999999876e-01,6.583825467576974455e-02,-1.192476158275039000e-01,1.371152360204829293e-02
7.369999999999999885e-01,1.109476853265752572e-01,-1.126132516919925997e-01,-5.800107456997838362e-02
7.379999999999999893e-01,1.349127914578602538e-01,-1.190850463474381338e-01,-6.485947418316267976e-02
7.389999999999999902e-01,1.291090742411995784e-01,-5.361469583619656032e-02,-8.191298517557918379e-02
7.399999999999999911e-01,1.083365575750914050e-01,2.862732086693802955e-03,-9.056768331870505839e-02
7.409999999999999920e-01,5.574110159734582508e-03,3.433224687581123286e-02,-8.574399550129634118e-02
7.419999999999999929e-01,-3.729408846405081468e-02,8.902849177298119421e-02,-3.978457589629359747e-02
7.429999999999999938e-01,-9.621780557653347721e-02,9.422752303904913251e-02,-1.575013392387864322e-02
7.439999999999999947e-01,-1.322679288523515018e-01,1.173808006515729141e-01,1.647820687538616852e-02
7.449999999999999956e-01,-1.459061574665523331e-01,5.877448144168503225e-02,6.739185673956679667e-02
7.459999999999999964e-01,-1.103380616684853655e-01,2.581788244861812215e-02,6.589496027482323603e-02
7.469999999999999973e-01,-8.065936195914510942e-02,-1.059664284923950497e-02,8.779554668022349073e-02
7.479999999999999982e-01,-1.252885167107144898e-02,-4.924718429538481324e-02,7.173798513375176378e-02
7.489999999999999991e-01,6.522636297993647525e-02,-8.589937387174056971e-02,2.154855787160495084e-02
7.500000000000000000e-01,1.048691586336833598e-01,-9.981245296381667520e-02,-5.755772793128096330e-03
7.510000000000000009e-01,1.267049816445032784e-01,-1.139434565610179667e-01,-2.826871895046058694e-02
7.520000000000000018e-01,1.371776606482937311e-01,-7.419441716093481964e-02,-9.225325210285444111e-02
7.530000000000000027e-01,1.064127969025548820e-01,-2.523390839902386884e-02,-1.016916172151513392e-01
7.540000000000000036e-01,5.674147973880588891e-02,4.696892003198439164e-02,-8.917302939119831073e-02
7.550000000000000044e-01,1.483514936889321519e-02,9.017220909587750355e-02,-5.068116406523519302e-02
7.560000000000000053e-01,-5.620922522166331425e-02,8.633450690895960733e-02,-3.970897439388946376e-02
7.570000000000000062e-01,-9.204844120930330553e-02,9.588505923689819022e-02,1.122859435724148786e-02
7.580000000000000071e-01,-1.426528040934812169e-01,8.564834096431257759e-02,7.025522960110154591e-02
7.590000000000000080e-01,-1.421752143772871957e-01,4.883187656125511505e-02,5.739388339887101231e-02
7.600000000000000089e-01,-9.733514524368540310e-02,1.857041244611744996e-02,7.968689826968035350e-02
7.610000000000000098e-01,-6.719694999225386822e-02,-6.436677187140789347e-02,9.776744894664331220e-02
7.620000000000000107e-01,-1.742217996991092185e-02,-9.713172978631126608e-02,6.050177672317219590e-02
7.630000000000000115e-01,7.065913980700384844e-02,-9.656634851265247232e-02,-1.800666339377567527e-03
7.640000000000000124e-01,1.161799932656770312e-01,-1.215244435154858998e-01,1.482533277325872407e-03
7.650000000000000133e-01,1.405338636909317096e-01,-8.276231446546469805e-02,-5.730152951639037179e-02
7.660000000000000142e-01,1.205620821571442153e-01,-3.580067373930273522e-02,-8.690699555239667085e-02
7.670000000000000151e-01,9.281037343518819260e-02,-4.258005328943384286e-03,-6.118597137420068305e-02
7.680000000000000160e-01,2.330990127267745099e-02,4.364580822760005807e-02,-8.994561505596018747e-02
7.690000000000000169e-01,-2.207264048015776178e-02,7.395665477645910202e-02,-5.392939418332960699e-02
7.700000000000000178e-01,-9.811140838720631974e-02,8.671824373474683323e-02,-1.407437008161551220e-02
7.710000000000000187e-01,-1.050159691950474511e-01,8.208170938210938850e-02,7.961421709014256803e-03
7.720000000000000195e-01,-1.200293543986239442e-01,4.538360243559677598e-02,4.104970221044820095e-02
7.730000000000000204e-01,-1.077337998070686531e-01,1.096504486762252565e-03,5.957581012628029860e-02
7.740000000000000213e-01,-8.925977190289602348e-02,-2.343712015294985990e-02,5.996423179966198225e-02
7.750000000000000222e-01,-2.400103750849913800e-02,-5.066252680795103186e-02,7.602955933356032869e-02
7.760000000000000231e-01,3.794090099667391663e-02,-1.085313077545840554e-01,2.486155901263517945e-02
7.770000000000000240e-01,7.659822403421363834e-02,-1.028368828651758243e-01,1.483364340062546388e-02
7.780000000000000249e-01,1.241100837072374591e-01,-7.325389837510760949e-02,-3.851817794923861893e-02
7.790000000000000258e-01,1.368057060922370505e-01,-5.789489152887669632e-02,-5.240811172023746717e-02
7.800000000000000266e-01,1.186705677375711337e-01,-1.069121828208193480e-02,-7.348866265736046788e-02
7.810000000000000275e-01,5.700435820309335266e-02,2.230235291277583853e-02,-8.081627037626094856e-02
7.820000000000000284e-01,3.180294974879933900e-02,8.790978353660612588e-02,-6.344888476009034883e-02
7.830000000000000293e-01,-4.201445975496961860e-02,1.038127708249633324e-01,-2.708619945567630402e-02
7.840000000000000302e-01,-9.260393449086813666e-02,1.194376256837918482e-01,4.889343917919847758e-03
7.850000000000000311e-01,-1.459767998034480763e-01,1.112001544830520799e-01,4.631688832552305346e-02
7.860000000000000320e-01,-1.491698424587352134e-01,3.589566276503761144e-02,7.805848181950798825e-02
7.870000000000000329e-01,-9.770097031866233073e-02,-7.314609914437348454e-03,9.245591871474224954e-02
7.880000000000000338e-01,-6.239107504447431729e-02,-6.181243446890215959e-02,9.486639933404966696e-02
7.890000000000000346e-01,2.268624948824591453e-02,-9.291524514780540034e-02,5.148514328081962854e-02
7.900000000000000355e-01,8.048334006069313151e-02,-1.075817420871611751e-01,2.445694359138007520e-02
7.910000000000000364e-01,1.247906379021452433e-01,-1.004399819851731490e-01,-4.388755855976027732e-04
7.920000000000000373e-01,1.189070518361933226e-01,-7.243983393537416215e-02,-2.294546737717945845e-02
7.930000000000000382e-01,1.383069403768419359e-01,-2.221118888111139542e-02,-6.961218941382057990e-02
7.940000000000000391e-01,9.028982045863560846e-02,3.481648228928190675e-02,-7.677352152791723505e-02
7.950000000000000400e-01,2.880867858180879071e-04,7.556428634727174742e-02,-6.740404101864995445e-02
7.960000000000000409e-01,-5.517389114197418509e-02,1.059046885904733615e-01,-8.443714271668391336e-02
7.970000000000000417e-01,-8.089410988080997233e-02,1.137637384714233757e-01,-3.502875243674537925e-02
7.980000000000000426e-01,-1.396914748032366815e-01,1.014349024328003585e-01,3.881258099070130415e-03
7.990000000000000435e-01,-1.073649690071313417e-01,5.776589972841249948e-02,5.679489737395302523e-02
8.000000000000000444e-01,-1.490063640908790565e-01,1.224339230870888189e-02,8.671760674325740270e-02
8.010000000000000453e-01,-4.695424104957614947e-02,-2.574302568207367803e-02,8.794683032408927292e-02
8.020000000000000462e-01,-4.743382627874678098e-02,-7.122510664642628386e-02,8.978253009936149054e-02
8.030000000000000471e-01,3.626244041674896862e-02,-1.101076070620548158e-01,5.694885570183028101e-02
8.040000000000000480e-01,9.375628997735398207e-02,-1.213340772021863773e-01,6.045331331116130316e-03
8.050000000000000488e-01,1.125011159999457916e-01,-1.102944211798748270e-01,-2.792154664635836114e-02
8.060000000000000497e-01,1.367109816633227670e-01,-4.008488362826912593e-02,-4.004991970354228326e-02
8.070000000000000506e-01,1.098151470242915567e-01,-1.258306988160639954e-02,-6.547969987793791913e-02
8.080000000000000515e-01,5.661943111510167603e-02,5.348247033428504826e-02,-1.055095300762114441e-01
8.090000000000000524e-01,8.589141815858153395e-03,6.662311516719265914e-02,-5.467233229072847311e-02
8.100000000000000533e-01,-3.613017179165058101e-02,1.081571302865948631e-01,-3.841726751719775484e-02
8.110000000000000542e-01,-1.095382241064267459e-01,1.071680865947027550e-01,-2.013617619613876711e-02
8.120000000000000551e-01,-1.169616766748902553e-01,8.794721789462706107e-02,3.880678575901905236e-02
8.129999999999999449e-01,-1.369174248402809102e-01,2.058699272234990399e-02,6.791567585670062190e-02
8.139999999999999458e-01,-9.779872467020205018e-02,-3.590708261247312766e-02,5.804058193237494195e-02
8.149999999999999467e-01,-3.288564048348726482e-02,-5.144448452504164077e-02,8.268617099011849048e-02
8.159999999999999476e-01,-1.152911928908613784e-02,-7.863803471406603796e-02,7.676753244016805422e-02
8.169999999999999485e-01,7.132486572443846873e-02,-1.225388801607762007e-01,4.769267614557960028e-02
8.179999999999999494e-01,1.325382591778710428e-01,-9.050433226577618562e-02,-3.486366099641290302e-03
8.189999999999999503e-01,1.452197063240599495e-01,-5.426015656975578805e-02,-4.456164374246233267e-02
8.199999999999999512e-01,1.313687296597314813e-01,-3.647759325049497459e-02,-7.188508216984815236e-02
8.209999999999999520e-01,8.781256176699138438e-02,2.832506624724714928e-02,-9.724598762661394724e-02
8.219999999999999529e-01,6.294819568403615950e-02,9.735965962610160229e-02,-7.239168019245163788e-02
8.229999999999999538e-01,-4.097064413174290876e-02,1.048193617827541946e-01,-5.377081895223873031e-02
8.239999999999999547e-01,-8.632677607592369184e-02,1.156314103226026291e-01,-3.008969264325253579e-02
8.249999999999999556e-01,-1.386587063748138393e-01,9.959389716945496462e-02,4.045284913610567440e-02
8.259999999999999565e-01,-1.327799448985232666e-01,6.138852533228484482e-02,3.335554645598323709e-02
8.269999999999999574e-01,-1.296617525674989557e-01,2.185587764498257354e-03,7.923044340634977090e-02
8.279999999999999583e-01,-6.522951144811992008e-02,-7.043275447037368464e-02,1.045128833529537088e-01
8.289999999999999591e-01,-4.801687490188336072e-02,-1.023822214565322380e-01,7.981191514698358913e-02
8.299999999999999600e-01,4.340318270246822790e-02,-1.100981892530134149e-01,6.017257180581325055e-02
8.309999999999999609e-01,9.186309309027469727e-02,-1.147012268642925575e-01,2.633757687634810316e-02
8.319999999999999618e-01,1.212508532628155666e-01,-8.719436779234548962e-02,-7.450516244865631153e-03
8.329999999999999627e-01,1.491669634905676278e-01,-2.622943662105324189e-02,-4.754648215094568753e-02
8.339999999999999636e-01,1.173840441382155153e-01,-6.688411709075620278e-03,-7.375323267293916463e-02
8.349999999999999645e-01,6.779773031474278788e-02,5.417970868506880727e-02,-8.955556426856879637e-02
8.359999999999999654e-01,1.822927628691668051e-02,1.151115561426617057e-01,-7.236507173328567133e-02
8.369999999999999662e-01,-4.913577884312949479e-02,1.088535099517108501e-01,-5.519226394379497802e-02
8.379999999999999671e-01,-8.338468100486612355e-02,8.515209561100352265e-02,-1.184396712883677497e-02
8.389999999999999680e-01,-1.262498990507136820e-01,8.023417895816029044e-02,7.450253358414950927e-03
8.399999999999999689e-01,-1.258283581410480911e-01,1.366077610805652327e-02,6.188053182798109592e-02
8.409999999999999698e-01,-1.083357019026481433e-01,-2.537390280192718117e-02,5.786094015216518283e-02
8.419999999999999707e-01,-4.835458209003257873e-02,-6.161354619119702170e-02,8.217628900195243780e-02
8.429999999999999716e-01,5.149310970758881091e-03,-9.372415407669809628e-02,9.448538776812645534e-02
8.439999999999999725e-01,6.724208049859600744e-02,-1.163435008591476860e-01,4.661063754982990720e-02
8.449999999999999734e-01,1.151830844719572144e-01,-1.312537651140749384e-01,1.633825105111125914e-02
8.459999999999999742e-01,1.290053407201046387e-01,-6.313954771952093314e-02,-1.786915614248129822e-02
8.469999999999999751e-01,1.351373182994666244e-01,-2.244119776908117675e-02,-5.923277244689044430e-02
8.479999999999999760e-01,9.563028281794587471e-02,4.367686326788884632e-02,-7.001331874711695658e-02
8.489999999999999769e-01,3.284965149143732194e-02,9.797312930319948543e-02,-8.941665631505985035e-02
8.499999999999999778e-01,-1.527611609456966217e-02,1.140353445706118185e-01,-7.569206672989370333e-02
8.509999999999999787e-01,-9.148559182392265732e-02,9.679436545516242885e-02,-4.931714527797429609e-02
8.519999999999999796e-01,-1.068795535394022334e-01,8.190006070881256095e-02,-4.845177282414335831e-03
8.529999999999999805e-01,-1.408231038131652069e-01,3.210806306049289460e-02,3.872470710455488269e-02
8.539999999999999813e-01,-1.230766447113487705e-01,-2.786448880173426944e-04,8.163586377467567379e-02
8.549999999999999822e-01,-7.328104040948074660e-02,-7.223191123825545290e-02,8.987547584168603665e-02
8.559999999999999831e-01,-3.610463031217368834e-02,-1.199020884098851158e-01,7.507603319204861347e-02
8.569999999999999840e-01,4.157317454454490663e-02,-9.334380630626083752e-02,6.733818842281064088e-02
8.579999999999999849e-01,9.712118252361602588e-02,-1.224755218134296886e-01,4.579965776796421362e-02
8.589999999999999858e-01,1.394606619285465587e-01,-6.400432791524508780e-02,1.535994712589726190e-02
8.599999999999999867e-01,1.171085714455587928e-01,-1.712190637159408113e-02,-4.551387271123245870e-02
8.609999999999999876e-01,1.125284102581883966e-01,2.435728608199479867e-02,-8.475707176259432429e-02
8.619999999999999885e-01,5.730783059806660029e-02,7.691248239984392610e-02,-8.421448405999031050e-02
8.629999999999999893e-01,-8.721702183234786299e-03,1.056741426963632713e-01,-6.757562533102894065e-02
8.639999999999999902e-01,-5.114860680857369335e-02,1.451321442001560214e-01,-7.505260906957793299e-02
8.649999999999999911e-01,-1.020835806861110362e-01,7.755670726409599758e-02,-3.489150956153384137e-02
8.659999999999999920e-01,-1.139205903088923721e-01,4.966388936746008592e-02,2.683719455504209039e-02
8.669999999999999929e-01,-1.280008250491523614e-01,3.879007289530130714e-02,2.910526654962167226e-02
8.679999999999999938e-01,-1.028113738491076984e-01,-3.513097207970163061e-02,8.670548206693888538e-02
8.689999999999999947e-01,-6.840569658018200161e-02,-8.496601572933350222e-02,1.155119142598508286e-01
8.699999999999999956e-01,1.350344431802357609e-03,-1.170138978845988442e-01,6.400321115033323627e-02
8.709999999999999964e-01,7.245680555659771149e-02,-9.763656688859057020e-02,4.079173275180454639e-02
8.719999999999999973e-01,1.058475380104472452e-01,-7.925248228454297161e-02,2.481228373009344498e-02
8.729999999999999982e-01,1.170837721854916802e-01,-5.029417427391968259e-02,-1.676536513622708252e-02
8.739999999999999991e-01,1.290044854705574839e-01,1.737804160656291480e-02,-5.281345146115941358e-02
8.750000000000000000e-01,1.174476237043480392e-01,4.125333509183432695e-02,-7.578000324614588001e-02
8.760000000000000009e-01,1.598002903188650362e-02,9.190606900541722912e-02,-7.206062628062095965e-02
8.770000000000000018e-01,-3.495203075212209576e-02,9.304505483958452894e-02,-9.925441506198241781e-02
8.780000000000000027e-01,-7.498968208260094193e-02,9.415685812747946748e-02,-5.993547619678421534e-02
8.790000000000000036e-01,-1.262436211421414101e-01,9.758592375429318844e-02,-4.601515238068914875e-03
8.800000000000000044e-01,-1.496609738464106110e-01,1.321004530698255929e-02,1.661859032635341557e-02
8.810000000000000053e-01,-1.256887631199022637e-01,-2.190432758927119208e-02,4.558442655971473717e-02
8.820000000000000062e-01,-8.372824133325940110e-02,-6.482799818673071202e-02,5.952952556249029026e-02
8.830000000000000071e-01,-1.242986827611634176e-02,-1.111273038627618170e-01,8.748885382642479502e-02
8.840000000000000080e-01,3.627509504992102590e-02,-9.581544267993524766e-02,6.093947767625445405e-02
8.850000000000000089e-01,1.083435468290706166e-01,-8.148698096986743689e-02,4.290490393804279046e-02
8.860000000000000098e-01,1.181459764352921493e-01,-4.775935482291693984e-02,-1.609938591432027652e-02
8.870000000000000107e-01,1.270896122615186585e-01,-2.824300475017012604e-02,-2.122026350523687974e-02
8.880000000000000115e-01,1.004303197317934909e-01,1.227072587997366133e-02,-5.122624291490631560e-02
8.890000000000000124e-01,5.904318961050834119e-02,9.825254941822182675e-02,-6.997678717653921243e-02
8.900000000000000133e-01,-6.285898827566431882e-03,1.017355732692262205e-01,-8.012839250555686688e-02
8.910000000000000142e-01,-4.497402860687329390e-02,1.216755997311443210e-01,-6.126080546430758694e-02
8.920000000000000151e-01,-9.256798857166669003e-02,7.702538613635388776e-02,-2.315939178753398733e-02
8.930000000000000160e-01,-1.272295345359960028e-01,3.448187500252825055e-02,3.684838387247302543e-03
8.940000000000000169e-01,-1.342195058930674700e-01,-1.015578864524947994e-03,3.325355639609964276e-02
8.950000000000000178e-01,-1.003564186595339164e-01,-6.160575044953740809e-02,4.888795673545090481e-02
8.960000000000000187e-01,-3.447154957305381684e-02,-7.782942324486857855e-02,9.199361774561994054e-02
8.970000000000000195e-01,3.279342812373013671e-02,-1.150001825766594626e-01,6.533325168837142427e-02
8.980000000000000204e-01,6.911138326187003800e-02,-1.100620744395500589e-01,5.982025857583540135e-02
8.990000000000000213e-01,1.199655794723596541e-01,-8.769542859112258726e-02,2.458465879477254520e-02
9.000000000000000222e-01,1.285430492863451346e-01,-5.843689750008981831e-02,2.978792686872072312e-03
9.010000000000000231e-01,1.039371361036452168e-01,3.787605786017462367e-02,-3.203588563825005009e-02
9.020000000000000240e-01,8.716124002882894017e-02,5.768576957320909609e-02,-4.014598096682339690e-02
9.030000000000000249e-01,2.723429407887108938e-02,9.619231261426165747e-02,-5.485382833569779626e-02
9.040000000000000258e-01,-2.692275755441506102e-02,1.040611015188810662e-01,-8.762385669693179002e-02
9.050000000000000266e-01,-8.851681422375413943e-02,1.042178394514939460e-01,-5.168003829271144989e-02
9.060000000000000275e-01,-1.001515689749944010e-01,4.140126949361090658e-02,1.734289235483188040e-03
9.070000000000000284e-01,-1.311125159998686174e-01,-5.618782139158221521e-03,-1.206760085876205403e-02
9.080000000000000293e-01,-1.287064426267968409e-01,-4.865270641287339909e-02,4.310373833926912923e-02
9.090000000000000302e-01,-8.891006915848924386e-02,-8.893387844515109053e-02,7.400262909072297113e-02
9.100000000000000311e-01,-8.594686041244496352e-03,-1.024654735137588840e-01,6.035059779475932668e-02
9.110000000000000320e-01,2.575441185345944684e-02,-1.064719986806540314e-01,8.216394920674649494e-02
9.120000000000000329e-01,8.076967166801074516e-02,-7.291650030409063676e-02,4.868837192710639972e-02
9.130000000000000338e-01,1.376388332281477667e-01,-6.986894137823197737e-02,1.065349149356854819e-02
9.140000000000000346e-01,1.453158475220740486e-01,-7.625937465942533855e-03,-7.452765719447569312e-03
9.150000000000000355e-01,8.943573156870381069e-02,4.633673762155315901e-02,-3.400767313888304610e-02
9.160000000000000364e-01,7.225924435967648329e-02,6.666344724133312083e-02,-7.039625101067435720e-02
9.170000000000000373e-01,1.053278834235500845e-02,1.088958545312008752e-01,-7.848802616289128620e-02
9.180000000000000382e-01,-4.695941059632599557e-02,8.546161253999559615e-02,-6.714236959143035643e-02
9.190000000000000391e-01,-8.925127747580056947e-02,5.057194878135185673e-02,-4.776750827666378929e-02
9.200000000000000400e-01,-1.425381396239309151e-01,6.265291284479390654e-02,-1.025886990020713138e-02
9.210000000000000409e-01,-1.367534099426947203e-01,-1.617752830224939570e-02,3.549883745866341811e-02
9.220000000000000417e-01,-9.147973431020231527e-02,-6.905142719093851356e-02,4.057124989285222638e-02
9.230000000000000426e-01,-6.344845660850549629e-02,-7.872110805833612557e-02,6.815111366919476832e-02
9.240000000000000435e-01,4.425165392202889958e-03,-1.247264520462082749e-01,8.702118029188611603e-02
9.250000000000000444e-01,7.731955200350559831e-02,-9.915604622649817901e-02,5.057523016965623924e-02
9.260000000000000453e-01,1.021920871575622836e-01,-6.842576954160324576e-02,3.551818507755143822e-02
9.270000000000000462e-01,1.149677659246277767e-01,-2.450481132259374126e-02,-5.461679591102512957e-03
9.280000000000000471e-01,1.156309394505528609e-01,3.608511506057578838e-02,-3.147953063428978598e-02
9.290000000000000480e-01,8.261873700926966602e-02,1.022526537145535819e-01,-5.625380801569631467e-02
9.300000000000000488e-01,5.234315563908793767e-02,1.209041540132260034e-01,-8.448340126096062774e-02
9.310000000000000497e-01,-4.063129332184600012e-02,1.077160277042043951e-01,-8.585357455507962310e-02
9.320000000000000506e-01,-7.736509474799824204e-02,8.809211134504350837e-02,-6.198710193213460146e-02
9.330000000000000515e-01,-1.200708865849638846e-01,5.758382996090219419e-02,-5.124390263503175724e-02
9.340000000000000524e-01,-1.455971536297433200e-01,-5.111258005266247975e-03,4.058270052407378890e-03
9.350000000000000533e-01,-1.123182867449816075e-01,-5.357620455912882190e-02,2.586691899653186313e-02
9.360000000000000542e-01,-7.502099876098056175e-02,-7.964889628618257444e-02,5.797117012825173110e-02
9.370000000000000551e-01,8.685331889331080911e-05,-9.019116538426617813e-02,9.300192089499469128e-02
9.379999999999999449e-01,5.357186066355141413e-02,-9.370613031397215242e-02,9.137187736661349369e-02
9.389999999999999458e-01,8.199910040880344086e-02,-6.729731463757569754e-02,6.892789843650552750e-02
9.399999999999999467e-01,1.184002238326310880e-01,-3.256125293207203647e-02,2.003863997421713450e-02
9.409999999999999476e-01,1.180338704106274755e-01,-2.077123820176146347e-03,5.799973922285089380e-03
9.419999999999999485e-01,1.327286135671028322e-01,4.911628036525340218e-02,-5.760423260483998192e-02
9.429999999999999494e-01,7.991858047969355172e-02,1.161872904172445153e-01,-8.698162184525468077e-02
9.439999999999999503e-01,-6.512323092638175326e-03,1.165080214842771078e-01,-6.783189653142557285e-02
9.449999999999999512e-01,-5.413343872539859436e-02,9.691840294730774685e-02,-7.024630516269146641e-02
9.459999999999999520e-01,-1.166895373273640346e-01,8.734191605201938047e-02,-2.750889689372911992e-02
9.469999999999999529e-01,-1.142036567053262841e-01,1.781029632159273138e-02,-4.105415030125299236e-02
9.479999999999999538e-01,-1.321401021458834535e-01,-3.102196888173175751e-02,2.633726067895755113e-02
9.489999999999999547e-01,-1.040029466568749145e-01,-9.548337335297427120e-02,5.610774506297287051e-02
9.499999999999999556e-01,-8.016564566985243112e-02,-9.991338771704535993e-02,6.583354753737075127e-02
9.509999999999999565e-01,-1.103128366500073093e-02,-1.149786591161014171e-01,7.017086557564822247e-02
9.519999999999999574e-01,7.614414851318757060e-02,-9.317327879555056813e-02,5.127554494283344255e-02
9.529999999999999583e-01,1.139079248802462030e-01,-5.654233684897821965e-02,7.211983588002303380e-02
9.539999999999999591e-01,1.240753081802880020e-01,1.521085557343196740e-02,1.454657884814179389e-02
9.549999999999999600e-01,1.123369609634193161e-01,3.974737653541764171e-02,-2.327589772958717218e-02
9.559999999999999609e-01,8.466703020153175385e-02,7.624121446143389269e-02,-5.357106798067805958e-02
9.569999999999999618e-01,3.498473725002602258e-02,9.223092725967006744e-02,-6.568841903028689588e-02
9.579999999999999627e-01,-3.397728744308550763e-02,1.014294762499082514e-01,-7.696705883572704798e-02
9.589999999999999636e-01,-6.178834194303143429e-02,5.004187994788789756e-02,-6.529364315027287591e-02
9.599999999999999645e-01,-1.352927043459198064e-01,5.370856664013910764e-02,-2.870294112138897097e-02
9.609999999999999654e-01,-1.236933788223038150e-01,-6.817533440363439910e-03,-1.317397405181115234e-02
9.619999999999999662e-01,-1.087810311636387139e-01,-6.007315570174646263e-02,3.215476670538675030e-02
9.629999999999999671e-01,-7.470289280155156808e-02,-1.120894969252064916e-01,4.690047378176000203e-02
9.639999999999999680e-01,-4.087728436145524058e-02,-1.291907201519203463e-01,9.200831022924274571e-02
9.649999999999999689e-01,3.716901813328592208e-02,-9.356858734756146045e-02,8.204189328150145177e-02
9.659999999999999698e-01,8.350780406678498524e-02,-6.059536202885145578e-02,7.214601337392770319e-02
9.669999999999999707e-01,1.192666305374045776e-01,-4.911440758018966596e-02,9.764045571654268035e-04
9.679999999999999716e-01,1.179493519933609014e-01,1.378201307389664149e-02,3.316495584202528574e-02
9.689999999999999725e-01,1.203717913442497595e-01,8.717542287690936698e-02,-1.633582461692683133e-02
9.699999999999999734e-01,7.433919248245188238e-02,9.775004708866151526e-02,-6.906294148685988843e-02
9.709999999999999742e-01,7.342662345093233303e-03,9.678905815664233525e-02,-8.509422967220954537e-02
9.719999999999999751e-01,-5.473106242110550163e-02,6.776565129759250239e-02,-8.414296370960158700e-02
9.729999999999999760e-01,-9.271198219726692336e-02,7.976820807836870753e-02,-3.136666488406087555e-02
9.739999999999999769e-01,-1.349134696187942462e-01,1.624498528898429481e-02,-1.345837526551196470e-02
9.749999999999999778e-01,-1.289254337083084456e-01,-3.085020771639732096e-02,-1.237081410708782206e-02
9.759999999999999787e-01,-1.269761579032172572e-01,-6.388143231460791105e-02,5.246132625742976757e-02
9.769999999999999796e-01,-6.531162393394490673e-02,-9.857004690400067437e-02,6.710525186985741297e-02
9.779999999999999805e-01,1.959269050379680230e-02,-1.103378988559424734e-01,7.468322959477168010e-02
9.789999999999999813e-01,7.742902891713235314e-02,-7.192684770154286755e-02,9.524640824938263028e-02
9.799999999999999822e-01,9.636540474711165205e-02,-1.009113677300751272e-02,5.792897872041571916e-02
9.809999999999999831e-01,1.321605805785813215e-01,-9.278720856411943815e-03,3.600309441377363973e-02
9.819999999999999840e-01,9.966972837186030554e-02,7.652099990898647563e-02,-1.354350342706116435e-02
9.829999999999999849e-01,1.185708090662135616e-01,7.359419995202641507e-02,-3.866456303335338851e-02
9.839999999999999858e-01,4.647941999851051137e-02,1.078776643284624220e-01,-7.346690864781155184e-02
9.849999999999999867e-01,-1.069526133484353242e-02,1.144717323515397345e-01,-6.091681669997282139e-02
9.859999999999999876e-01,-1.099706183761232497e-01,7.983165977529348145e-02,-6.242545076651095232e-02
9.869999999999999885e-01,-1.055363332702538154e-01,3.164011797374050028e-02,-5.293981164330392730e-02
9.879999999999999893e-01,-1.429601210632885089e-01,-3.577354279476651494e-02,-2.850786569158315215e-02
9.889999999999999902e-01,-1.439472756945614773e-01,-6.683274418290555130e-02,1.500161707764618990e-02
9.899999999999999911e-01,-8.462077493516825810e-02,-9.280468415320745901e-02,4.278356387770348990e-02
9.909999999999999920e-01,-1.481329391731680406e-02,-1.204923376405912933e-01,6.609266794604931605e-02
9.919999999999999929e-01,1.523853987822525874e-02,-8.464488883697764143e-02,8.377111499282777207e-02
9.929999999999999938e-01,9.044040470320804936e-02,-4.063104822375118025e-02,7.574694855823951856e-02
9.939999999999999947e-01,1.232572583158868251e-01,-2.735144336216113400e-02,5.262171653777999308e-02
9.949999999999999956e-01,1.284290510227766025e-01,4.125353155243170755e-02,1.387398429281453890e-02
9.959999999999999964e-01,1.219472970387989325e-01,7.728470258599148823e-02,-3.877693513570257267e-02
9.969999999999999973e-01,7.933125619174591359e-02,9.171680165702952858e-02,-5.916447692850011070e-02
9.979999999999999982e-01,1.114247585852691166e-02,1.088936365985729710e-01,-8.641355268688288849e-02
9.989999999999999991e-01,-3.501910463695827314e-02,1.085616986506134501e-01,-5.462322888981396840e-02
1.000000000000000000e+00,-1.057604312800769636e-01,3.385751859806489933e-02,-6.017084129851149599e-02
1.000999999999999890e+00,-1.146534309544423869e-01,-5.331364029332690685e-03,-5.906474479349183015e-02
1.002000000000000002e+00,-1.341705659670491546e-01,-8.957734083663702884e-02,1.569930502619342957e-02
1.002999999999999892e+00,-1.291923180376410296e-01,-7.571103291014188996e-02,2.233542500138761822e-03
1.004000000000000004e+00,-5.998685215342845073e-02,-9.796078272494709860e-02,2.940384738597726089e-02
1.004999999999999893e+00,1.207694395527835439e-02,-9.846850465595459456e-02,4.998596649424589394e-02
1.006000000000000005e+00,7.836075306712453337e-02,-8.518701477299701896e-02,8.113587513761527648e-02
1.006999999999999895e+00,1.094041065311941313e-01,-4.019849878904034612e-02,7.759166860553586009e-02
1.008000000000000007e+00,1.307248620919300719e-01,1.564331963801279812e-02,4.394000113508712141e-02
1.008999999999999897e+00,1.279242565676353971e-01,8.562649442032506386e-02,-1.100294966765793733e-02
1.010000000000000009e+00,7.355757395912412844e-02,1.140505323801160042e-01,-1.509692687924243416e-02
1.010999999999999899e+00,4.373324085636437486e-02,1.045798450464217322e-01,-5.180611135985362103e-02
1.012000000000000011e+00,-3.091077787226430978e-02,1.005711955624856990e-01,-7.815019607493106646e-02
1.012999999999999901e+00,-8.435241617642869061e-02,7.142354057269810486e-02,-7.174087512603481709e-02
1.014000000000000012e+00,-1.128977382048105133e-01,-1.192103837902368582e-02,-2.265879733142265803e-02
1.014999999999999902e+00,-1.530104159930063268e-01,-2.198411410217897613e-02,-3.108571489094042947e-02
1.016000000000000014e+00,-1.294055597576513894e-01,-5.358884954592810917e-02,1.687408819993752723e-02
1.016999999999999904e+00,-1.056731295142600696e-01,-1.014668258900156828e-01,4.364321298192776893e-02
1.018000000000000016e+00,-1.438336271826379405e-04,-8.910546999979498950e-02,7.531968440309787238e-02
1.018999999999999906e+00,3.830250285342386846e-02,-9.941836162251019293e-02,7.958082488413199818e-02
1.020000000000000018e+00,1.046942990021498404e-01,-7.116051392230336725e-02,8.460400742330483059e-02
1.020999999999999908e+00,1.224845713117725943e-01,4.533702146107775749e-02,4.696847900210274207e-02
1.022000000000000020e+00,1.289388233289392727e-01,3.671131033272084093e-02,5.017767940954175054e-03
1.022999999999999909e+00,1.093867845555298868e-01,8.591019378814722385e-02,-6.242646233054373675e-03
1.024000000000000021e+00,5.997863611813759183e-02,9.790522025354385371e-02,-5.406968869562807367e-02
1.024999999999999911e+00,4.361073129699322495e-03,1.044320560233193834e-01,-6.589046327353262344e-02
1.026000000000000023e+00,-5.656303150346526920e-02,7.342931805298967551e-02,-9.441077300879914536e-02
1.026999999999999913e+00,-8.994633386454281565e-02,5.105104581035689593e-02,-9.302129100956402219e-02
1.028000000000000025e+00,-1.147833103802519683e-01,-2.543730916358106706e-02,-1.358044963252396167e-02
1.028999999999999915e+00,-1.299028902196901203e-01,-7.684447749995076959e-02,-1.753138970536819580e-02
1.030000000000000027e+00,-1.035629248423440008e-01,-1.022826727120223489e-01,1.167415255890020750e-02
1.030999999999999917e+00,-2.887244730662134190e-02,-1.088332471610187896e-01,4.356543412590951209e-02
1.032000000000000028e+00,2.794437878770072645e-03,-7.169599751544031285e-02,5.482573543500229157e-02
1.032999999999999918e+00,6.781102231299938887e-02,-6.089839980692240973e-02,8.122627825630442111e-02
1.034000000000000030e+00,1.161259265880109776e-01,-1.462561170966767028e-02,8.036196294823225172e-02
1.034999999999999920e+00,1.560885172324357473e-01,4.173672209477370665e-02,4.711579331506014767e-02
1.036000000000000032e+00,1.267709694177107105e-01,8.893458491352897177e-02,8.727647099009805398e-03
1.036999999999999922e+00,9.318624481051926423e-02,9.437048231104376572e-02,-1.104227516321848283e-02
1.038000000000000034e+00,2.852172841206330328e-02,1.132925107769353762e-01,-6.378276617698243334e-02
1.038999999999999924e+00,-2.479419266025597798e-02,9.115914883351851350e-02,-7.527910571947987739e-02
1.040000000000000036e+00,-7.099259222704787375e-02,5.126899925566599098e-02,-7.819149804041028440e-02
1.040999999999999925e+00,-1.166073129096764777e-01,-9.943721599912393183e-04,-4.694740718203868624e-02
1.042000000000000037e+00,-1.298777532018603742e-01,-4.689267101744951094e-02,-2.605688639001029969e-02
1.042999999999999927e+00,-1.244951179546073677e-01,-8.455247917864293361e-02,-1.250866640798336572e-02
1.044000000000000039e+00,-7.002128317648878553e-02,-1.163846399034572932e-01,4.220406542039331632e-02
1.044999999999999929e+00,-1.358728395805135734e-02,-1.175929211906010380e-01,3.573209315008798320e-02
1.046000000000000041e+00,3.038952512544505768e-02,-7.762369841451345620e-02,8.156811166980380834e-02
1.046999999999999931e+00,6.952713010122139881e-02,-1.922293213590850827e-02,8.540590508766658651e-02
1.048000000000000043e+00,1.033291082907392133e-01,8.436948740381366996e-03,7.261436285694367054e-02
1.048999999999999932e+00,1.465214161807191218e-01,5.017465854423223959e-02,4.727406758251861962e-02
1.050000000000000044e+00,1.072186143481739795e-01,1.002706802913112955e-01,-3.283007495962969591e-02
1.050999999999999934e+00,7.653647221128197231e-02,7.833320466664507598e-02,-1.710041317048858339e-02
1.052000000000000046e+00,-1.301775411983725241e-02,1.081473953144241329e-01,-6.616510070843899249e-02
1.052999999999999936e+00,-5.102062589723292685e-02,4.323036537983841049e-02,-7.806296978028802458e-02
1.054000000000000048e+00,-1.219258501215375184e-01,3.025408097808417879e-02,-6.911577123194166672e-02
1.054999999999999938e+00,-1.195585392255101020e-01,-1.989936502973098029e-02,-5.896794505311022533e-02
1.056000000000000050e+00,-1.381953875690580535e-01,-6.892585456907721064e-02,-4.098297215327114523e-02
1.056999999999999940e+00,-9.685642608426581202e-02,-8.808877027112696489e-02,-1.333921521563230864e-02
1.058000000000000052e+00,-5.413379299125748584e-02,-1.113122045124911030e-01,2.804897020341607164e-02
1.058999999999999941e+00,1.719605987074173184e-02,-1.035143724277195754e-01,7.286534898354514456e-02
1.060000000000000053e+00,6.678121207955703409e-02,-5.418220391365859145e-02,7.632953774872794361e-02
1.060999999999999943e+00,8.763825863665612725e-02,-1.838861978043057144e-03,8.453513197313050620e-02
1.062000000000000055e+00,1.491238134593559084e-01,4.558096683760709533e-02,2.466587894855325203e-02
1.062999999999999945e+00,1.332474470323121163e-01,1.040989519202511343e-01,4.106430585788276716e-02
1.064000000000000057e+00,9.810680441698907406e-02,1.082736864066875804e-01,-1.525099569451955628e-02
1.064999999999999947e+00,7.824478308073587463e-02,9.239059884554592927e-02,-6.412477695835963609e-02
1.066000000000000059e+00,-1.745163178576071908e-02,7.786043317075952430e-02,-9.307222238393471347e-02
1.066999999999999948e+00,-9.395690532756856284e-02,2.491590470899602422e-02,-8.550204227433028104e-02
1.068000000000000060e+00,-9.636850291198226226e-02,-2.076534625235358991e-02,-8.897619164332676300e-02
1.068999999999999950e+00,-1.357585067755037178e-01,-6.835039805102675892e-02,-2.652623227050761312e-02
1.070000000000000062e+00,-1.062901201644610300e-01,-8.326366004332674819e-02,-1.723174445262076748e-02
1.070999999999999952e+00,-7.827953978606587426e-02,-1.180567225768393708e-01,3.991431999773575184e-02
1.072000000000000064e+00,3.105885444317667472e-04,-7.920419850576997101e-02,8.355492410500046929e-02
1.072999999999999954e+00,3.795105646861122312e-02,-7.606232697839367118e-02,6.288753013584354179e-02
1.074000000000000066e+00,8.777850665576908407e-02,-6.819974676263888119e-03,9.685297239576297346e-02
1.074999999999999956e+00,1.286295559634068886e-01,2.672651514259173633e-02,4.665217834512732503e-02
1.076000000000000068e+00,1.462175498875303847e-01,6.926664476529061087e-02,2.234205954294585586e-02
1.076999999999999957e+00,1.248732005860063721e-01,9.245509959695021041e-02,-3.664634873198512142e-03
1.078000000000000069e+00,8.213007646647772775e-02,8.153209348290593739e-02,-2.092563821440896962e-02
1.078999999999999959e+00,-5.885414741905942333e-03,6.098312780261393173e-02,-6.056340247808780081e-02
1.080000000000000071e+00,-3.246628418117833426e-02,4.903187541170384023e-02,-9.433669430419225344e-02
1.080999999999999961e+00,-8.833414205731125735e-02,2.333773153398833664e-02,-9.270051286371515376e-02
1.082000000000000073e+00,-9.357529690328567074e-02,-5.456409843788122271e-02,-5.985391668502524493e-02
1.082999999999999963e+00,-1.434584537749024058e-01,-8.909539171044014716e-02,-2.718088416204082411e-02
1.084000000000000075e+00,-1.123360788940572091e-01,-8.859173824897621785e-02,4.759838225836713656e-03
1.084999999999999964e+00,-5.521843936550929061e-02,-8.308743430446970113e-02,3.414554026097781081e-02
1.086000000000000076e+00,5.720060113347765537e-04,-9.215161070431000800e-02,5.715820037922492158e-02
1.086999999999999966e+00,5.964075573957790255e-02,-6.621666101742675059e-02,8.694007843959569715e-02
1.088000000000000078e+00,1.229057905022202524e-01,1.744584904482913978e-02,7.886426581021686866e-02
1.088999999999999968e+00,1.292556485550519219e-01,4.841344348938114023e-02,4.957398494846268489e-02
1.090000000000000080e+00,1.037352511458046050e-01,7.438005525111318628e-02,6.971508026314665249e-03
1.090999999999999970e+00,1.098338809035061953e-01,1.087170927817656257e-01,-1.188291060613197794e-02
1.092000000000000082e+00,3.770016524944337644e-02,8.287950943838680307e-02,-5.945144950682899193e-02
1.092999999999999972e+00,-2.067035193210533389e-02,4.104833136356392936e-02,-6.078644121236028569e-02
1.094000000000000083e+00,-6.289054756561206216e-02,1.942000737600030336e-02,-8.202526987070712927e-02
1.094999999999999973e+00,-1.221422826877685830e-01,-2.018646591276000365e-02,-7.159680410364487047e-02
1.096000000000000085e+00,-1.109605243754408221e-01,-7.064896340201018421e-02,-5.282968255019515613e-02
1.096999999999999975e+00,-1.090315695949777702e-01,-9.777447305365970232e-02,-1.624500422448931988e-02
1.098000000000000087e+00,-7.412980867930414608e-02,-1.070636866793181485e-01,-6.076612152796865771e-03
1.098999999999999977e+00,-3.550157824193690692e-02,-1.011539391153127854e-01,4.735632605431595865e-02
1.100000000000000089e+00,3.680762864530159884e-02,-4.460828420125755034e-02,5.965916368014272109e-02
1.100999999999999979e+00,7.631355367173135729e-02,-2.224427502985174693e-02,7.274726418748971024e-02
1.102000000000000091e+00,1.031464942323075257e-01,1.997465893533607179e-02,5.837235961420732949e-02
1.102999999999999980e+00,1.262070216563006275e-01,8.868058858024727154e-02,5.274556355139840141e-02
1.104000000000000092e+00,1.030863174743371219e-01,1.017303539671604584e-01,2.117347297540562306e-02
1.104999999999999982e+00,6.984732028850196284e-02,1.160555695296340978e-01,-5.111076658326803838e-05
1.106000000000000094e+00,3.950365333985746130e-03,8.681858756734571470e-02,-4.110448430143501253e-02
1.106999999999999984e+00,-4.355949666612870391e-02,5.761738207481748725e-02,-8.583479742593747019e-02
1.108000000000000096e+00,-1.267174530034479996e-01,-1.687538046680807716e-02,-8.210945070586958550e-02
1.108999999999999986e+00,-1.436755436122694185e-01,-5.969953601207372840e-02,-4.708634931069863305e-02
1.110000000000000098e+00,-1.175643614467324904e-01,-9.542916381987329166e-02,-3.193846501134700588e-02
1.110999999999999988e+00,-1.025444747269965012e-01,-1.115428335992747488e-01,-2.596200700461642058e-02
1.112000000000000099e+00,-5.396323275701990496e-02,-1.002765001109720000e-01,3.880761413661125425e-02
1.112999999999999989e+00,1.854249493351512248e-02,-9.297079029975829911e-02,5.626494947452001516e-02
1.114000000000000101e+00,5.186713147529476570e-02,-3.576916564309160895e-03,5.763533044566784835e-02
1.114999999999999991e+00,1.182456863996386304e-01,1.608930371986976721e-02,8.202857920309528095e-02
1.116000000000000103e+00,1.618909201234925155e-01,8.884917148208648641e-02,7.644734747279376130e-02
1.116999999999999993e+00,1.192536385722383768e-01,1.076518386316582115e-01,3.801288320670390825e-02
1.118000000000000105e+00,7.535249640432836737e-02,1.091065546641333817e-01,-2.986519948887412373e-02
1.118999999999999995e+00,3.830260297236065536e-02,1.033753583014045130e-01,-1.090327214493838626e-02
1.120000000000000107e+00,-3.252803855903548414e-03,5.269222644571631281e-02,-4.424861456139467242e-02
1.120999999999999996e+00,-7.979072015378448068e-02,3.045281429500477661e-03,-7.619661916217190800e-02
1.122000000000000108e+00,-1.310481198554117876e-01,-3.086346121640117998e-02,-6.899012936133401552e-02
1.122999999999999998e+00,-1.348751400815446644e-01,-7.448010248476111261e-02,-6.117098539305807631e-02
1.124000000000000110e+00,-1.283804520858037590e-01,-1.087031608514144043e-01,-5.995160719358803847e-02
1.125000000000000000e+00,-6.294648522339255092e-02,-1.105490497782867926e-01,1.647244809086742187e-02
1.125999999999999890e+00,-2.064326228052950837e-02,-8.877237192199356752e-02,1.874865258373992552e-02
1.127000000000000002e+00,5.465904962121057725e-02,-3.384929108939446069e-02,5.505011030693601759e-02
1.127999999999999892e+00,6.791554649395305232e-02,1.218020964210321869e-02,6.719321050450292876e-02
1.129000000000000004e+00,1.360381596757615774e-01,7.209894705597366671e-02,6.212671614113872420e-02
1.129999999999999893e+00,1.118487208503135405e-01,7.737509654344228160e-02,6.610202483822877340e-02
1.131000000000000005e+00,1.357419097742621483e-01,1.024942878226579313e-01,1.446836126880003334e-02
1.131999999999999895e+00,6.572611291604650574e-02,1.067908197906167339e-01,-2.045689988197862616e-02
1.133000000000000007e+00,-4.021519725980601465e-04,7.027748743233483419e-02,-4.859277776563698109e-02
1.133999999999999897e+00,-4.178411136891234390e-02,2.908532711114285643e-02,-7.355765060164191904e-02
1.135000000000000009e+00,-9.600884854537598823e-02,-2.684208286020665218e-02,-9.415215866947963808e-02
1.135999999999999899e+00,-1.292025940290766339e-01,-8.742390309420355887e-02,-7.144371742428676231e-02
1.137000000000000011e+00,-1.304855805772845434e-01,-8.881137363405491869e-02,-5.564503874766864311e-02
1.137999999999999901e+00,-9.987965949366059415e-02,-1.160698458741820926e-01,-5.955070403833456934e-03
1.139000000000000012e+00,-7.175786163724769129e-02,-9.663702228370327219e-02,1.556457144745211109e-02
1.139999999999999902e+00,1.199700619661982215e-02,-4.676846266886375281e-02,6.716082257381111864e-02
1.141000000000000014e+00,3.643406191490629331e-02,-1.778987460870764051e-02,7.208543343571122142e-02
1.141999999999999904e+00,1.252744838877312972e-01,2.573214585168420027e-02,6.864535867387167034e-02
1.143000000000000016e+00,1.571867342208561613e-01,7.301869191307222562e-02,6.353566075898375853e-02
1.143999999999999906e+00,1.335265137916375466e-01,1.146545973336215440e-01,4.042501034462652604e-02
1.145000000000000018e+00,1.074844967010416125e-01,1.193591849159175849e-01,2.471212977999717036e-02
1.145999999999999908e+00,6.369814877188838265e-02,9.696370702346804316e-02,-2.524283436303969078e-02
1.147000000000000020e+00,-2.813721421672750467e-02,3.606827147366410691e-02,-5.364279719005481811e-02
1.147999999999999909e+00,-7.534755408078092076e-02,-1.484856806957818472e-02,-6.541085463931214927e-02
1.149000000000000021e+00,-1.180185188501606669e-01,-7.340956303928979076e-02,-8.616925528475009866e-02
1.149999999999999911e+00,-1.228421958213892495e-01,-8.973459224905014353e-02,-6.640744873128444359e-02
1.151000000000000023e+00,-1.168009245776754912e-01,-1.013565517903244201e-01,-2.640240600459496309e-02
1.151999999999999913e+00,-6.760285924923745138e-02,-8.717583281257899885e-02,-3.984587646642852483e-03
1.153000000000000025e+00,-1.889920833501262248e-02,-7.506885586562192514e-02,1.560831779903317125e-02
1.153999999999999915e+00,3.001098574801196878e-02,-2.442518123957429510e-02,5.775682701002686492e-02
1.155000000000000027e+00,9.262681276997035418e-02,2.660918083489584567e-03,8.193539062553936714e-02
1.155999999999999917e+00,1.206576078045216716e-01,6.969648727962664270e-02,6.580157337724791555e-02
1.157000000000000028e+00,1.324583887928875436e-01,8.730351805165946499e-02,7.168123261911527044e-02
1.157999999999999918e+00,1.287352014801885214e-01,1.120846949030240153e-01,2.929006487840939491e-02
1.159000000000000030e+00,7.765319632711274733e-02,8.523283420385147080e-02,4.004180100321119706e-02
1.159999999999999920e+00,-8.441414935449151899e-04,5.333902959251334008e-02,-1.681266059607996674e-02
1.161000000000000032e+00,-4.916436456760424345e-02,1.833071195866618416e-02,-7.561038988307412778e-02
1.161999999999999922e+00,-8.385978657600798303e-02,-4.690396427101911625e-02,-6.469333910542476862e-02
1.163000000000000034e+00,-1.285631866176834004e-01,-8.150003352738439955e-02,-7.396734634167727307e-02
1.163999999999999924e+00,-1.321912791705076584e-01,-8.266507571610330618e-02,-7.336768640987524626e-02
1.165000000000000036e+00,-1.125535490693528734e-01,-1.021159586625254162e-01,-3.938107541428831349e-02
1.165999999999999925e+00,-5.448954012300308292e-02,-7.764283748164063637e-02,3.110692575995768956e-04
1.167000000000000037e+00,1.671834584342754212e-02,-5.414497983897550992e-02,5.108715851363755667e-02
1.167999999999999927e+00,6.870708379568268853e-02,3.962069479402250544e-02,7.969380766356304324e-02
1.169000000000000039e+00,1.056609306758254929e-01,3.252930894397189354e-02,9.458264439134546342e-02
1.169999999999999929e+00,1.329285121422683902e-01,9.077664638641715078e-02,8.655422066928930569e-02
1.171000000000000041e+00,1.237913155640037316e-01,9.040889723127061572e-02,5.506744926529980044e-02
1.171999999999999931e+00,7.855666339320846459e-02,9.097364326462499540e-02,5.073134411258107407e-02
1.173000000000000043e+00,5.227438489353879170e-02,1.003969269743155146e-01,-2.584177041073170474e-03
1.173999999999999932e+00,4.026922498785687502e-04,8.197574247711780782e-02,-4.473183524075124290e-02
1.175000000000000044e+00,-9.671174020018996620e-02,-5.868419931148231156e-03,-6.072905298127879298e-02
1.175999999999999934e+00,-1.179283723041423398e-01,-5.702757714756166718e-02,-7.585987837762012131e-02
1.177000000000000046e+00,-1.325385116096542415e-01,-1.245137210439113268e-01,-9.325388304334569778e-02
1.177999999999999936e+00,-1.187175451341839633e-01,-9.353137067131538085e-02,-4.695636852932753846e-02
1.179000000000000048e+00,-7.994308736023895967e-02,-9.812018648086924533e-02,-1.409146008285847886e-02
1.179999999999999938e+00,-1.629849194133923054e-02,-7.411887023527705121e-02,2.028141610025934252e-02
