time,acc_x,acc_y,acc_z
0.000000000000000000e+00,3.335622548730563519e-01,2.728447959483290552e-01,1.932571368933097555e-01
1.000000000000000021e-03,1.349203897439016087e-01,6.296457263869757737e-02,1.393868287445930443e-01
2.000000000000000042e-03,-1.968744485841844860e-01,-1.812572143949455761e-01,-5.661101727751245705e-02
3.000000000000000062e-03,-3.524660424267726522e-01,-2.634983361456021966e-01,-2.036093937061766168e-01
4.000000000000000083e-03,-1.881997442682734611e-01,-1.016029309110595830e-01,-1.609187775048222524e-01
5.000000000000000104e-03,1.429483733009958568e-01,1.337821947978967141e-01,5.518263282297723032e-02
6.000000000000000125e-03,3.167697811473205727e-01,2.656279008441444489e-01,2.024991403591803185e-01
7.000000000000000146e-03,2.209032327423764985e-01,1.340533707379088779e-01,1.304225564552393690e-01
8.000000000000000167e-03,-1.010589406438801435e-01,-1.254721475794012553e-01,-6.194320169058542026e-03
8.999999999999999320e-03,-2.942582612187858992e-01,-2.387985067573150932e-01,-1.642801029965368642e-01
1.000000000000000021e-02,-2.574137669248651727e-01,-1.668686872022274448e-01,-2.227859869619841504e-01
1.099999999999999936e-02,4.849685009311610617e-02,8.677347128073521765e-02,-5.228348575908920576e-02
1.200000000000000025e-02,3.084285770779919278e-01,2.698162251140940326e-01,1.354104586968157553e-01
1.299999999999999940e-02,2.842563889810174049e-01,1.771606501359232755e-01,1.872964613201963946e-01
1.400000000000000029e-02,-5.704682210436327200e-03,-9.552680501992633078e-02,9.103097488123911007e-02
1.499999999999999944e-02,-2.617246630450766887e-01,-2.402649485986235456e-01,-8.874349140297158045e-02
1.600000000000000033e-02,-3.404729996636975398e-01,-2.188822533692350025e-01,-1.955453327143901465e-01
1.700000000000000122e-02,-8.293455589083136015e-02,3.282186611759161515e-02,-1.400672679839262691e-01
1.799999999999999864e-02,2.369364122423635588e-01,2.163394012918893605e-01,8.406100711162614592e-02
1.899999999999999953e-02,3.642658928864303536e-01,2.229258439232682520e-01,1.748973901116202823e-01
2.000000000000000042e-02,1.520982215654633207e-01,-5.084831616053240699e-04,1.591134235672036212e-01
2.100000000000000130e-02,-1.298745737962781477e-01,-2.237772813774207836e-01,-4.082455967737962099e-02
2.199999999999999872e-02,-3.245298506475720046e-01,-2.434046340026514987e-01,-1.901960746013138803e-01
2.299999999999999961e-02,-1.711344779741973965e-01,-6.438658305117801739e-02,-2.035920613521402245e-01
2.400000000000000050e-02,1.282490185626296297e-01,1.947586198228427323e-01,6.330107542865204794e-03
2.500000000000000139e-02,2.869089345868583441e-01,2.832664222024239842e-01,1.507650205628307261e-01
2.599999999999999881e-02,2.298790148382060250e-01,8.407076494726169191e-02,1.938605801590881916e-01
2.699999999999999969e-02,-7.992717012207106730e-02,-1.524556665727086202e-01,3.669022984557075706e-02
2.800000000000000058e-02,-3.307378082963341459e-01,-2.874868378125308155e-01,-1.227254359740708317e-01
2.900000000000000147e-02,-2.838171172312726753e-01,-1.383515245037363617e-01,-1.990864027352416132e-01
2.999999999999999889e-02,7.490208944176957040e-03,1.342083797447328475e-01,-4.576723229336254750e-02
3.099999999999999978e-02,2.892047308812984441e-01,2.741138039699009821e-01,1.096287916989876488e-01
3.200000000000000067e-02,2.871602562333499531e-01,1.885183366095780633e-01,1.681389948889167041e-01
3.300000000000000155e-02,7.664268635620867520e-02,-9.646244496040744243e-02,1.114425161407573417e-01
3.400000000000000244e-02,-2.604296680998254843e-01,-3.104257061123648631e-01,-7.400167147073896667e-02
3.500000000000000333e-02,-2.996608866569331897e-01,-1.801142962536042835e-01,-1.697444228353035822e-01
3.599999999999999728e-02,-1.185674938582808036e-01,5.818745441379082756e-02,-1.522160529931375350e-01
3.699999999999999817e-02,2.403961949614932536e-01,2.521324214277617659e-01,1.076469112240865597e-02
3.799999999999999906e-02,3.538685695525543018e-01,1.911001114570697046e-01,1.574233980108039055e-01
3.899999999999999994e-02,1.493875912208239287e-01,-8.009395312178093154e-03,1.785313162985998348e-01
4.000000000000000083e-02,-1.543106950306463443e-01,-2.681922888812273698e-01,-4.908178647402081644e-05
4.100000000000000172e-02,-3.734593985103721314e-01,-2.475679622717751327e-01,-1.595812282851650499e-01
4.200000000000000261e-02,-2.069706679151815387e-01,1.224681711976141098e-02,-2.093068340292337515e-01
4.299999999999999656e-02,1.260490896796317706e-01,1.956410269613455821e-01,-3.530055814364770755e-02
4.399999999999999745e-02,3.207409838614092012e-01,2.515816230615215976e-01,1.444646298401262574e-01
4.499999999999999833e-02,2.364588844387666144e-01,3.027909310541009383e-02,2.026537663102287723e-01
4.599999999999999922e-02,-5.096611568178048557e-02,-2.034104336985087802e-01,9.519063623197850099e-02
4.700000000000000011e-02,-3.445921966573149975e-01,-2.388437870523562878e-01,-9.783332276348154222e-02
4.800000000000000100e-02,-2.607939762017534302e-01,-7.169263760507206540e-02,-2.068831882453154580e-01
4.900000000000000189e-02,1.956079780230025530e-02,2.064314175982960298e-01,-9.891808357426742915e-02
5.000000000000000278e-02,3.089377438883674776e-01,2.547522522185421412e-01,4.204312465241040464e-02
5.099999999999999672e-02,2.985704502375565728e-01,1.308912600259256598e-01,2.082029033542102670e-01
5.199999999999999761e-02,3.512453541338825258e-02,-1.377757250100803688e-01,1.455609663567965784e-01
5.299999999999999850e-02,-2.685077686254709328e-01,-2.787854116761875334e-01,-3.852765169464716227e-02
5.399999999999999939e-02,-3.287863892006974154e-01,-1.258056043955641523e-01,-2.065726542803092980e-01
5.500000000000000028e-02,-1.052726272242102690e-01,1.324578264592623789e-01,-1.470377505033402532e-01
5.600000000000000117e-02,1.944210982979674707e-01,2.605095453858334853e-01,2.925527197184386256e-03
5.700000000000000205e-02,3.088542366938667461e-01,1.656921719390362369e-01,1.757929802864350577e-01
5.800000000000000294e-02,1.794347969231200046e-01,-8.706820537904080837e-02,1.640932707144655833e-01
5.899999999999999689e-02,-1.814715111411016879e-01,-2.951305191116084248e-01,6.528141795895979482e-02
5.999999999999999778e-02,-3.552355601192754841e-01,-2.017088115664238401e-01,-1.510551711943523834e-01
6.099999999999999867e-02,-2.146676260920945822e-01,5.652171731658846288e-02,-1.622904957174283735e-01
6.199999999999999956e-02,9.482407156326652653e-02,2.517760438935351397e-01,-1.144526477369041534e-01
6.300000000000000044e-02,3.478661946568002428e-01,2.040976444345177776e-01,8.611756159960569368e-02
6.400000000000000133e-02,2.632233791702689452e-01,-8.485528413841892173e-03,2.113138238103742794e-01
6.500000000000000222e-02,-4.596512710343712838e-02,-2.445070647591852664e-01,1.446173251092320311e-01
6.600000000000000311e-02,-2.965984925530095739e-01,-2.310030701452583379e-01,-6.845440249212332573e-02
6.700000000000000400e-02,-2.829985497657251381e-01,-6.944100958309364080e-02,-2.038755243651969584e-01
6.800000000000000488e-02,2.835986108923822108e-02,2.172727957070533789e-01,-1.638640265008858565e-01
6.900000000000000577e-02,2.815976218953482046e-01,2.586392579212809517e-01,4.489241724718639331e-02
7.000000000000000666e-02,3.067052636697674695e-01,3.565387222234678993e-02,2.009754456690727442e-01
7.099999999999999367e-02,6.252915371369949238e-02,-1.640748212374498194e-01,1.682948222569092545e-01
7.199999999999999456e-02,-2.809262568447022379e-01,-2.692699161608470004e-01,-5.037549891754641157e-03
7.299999999999999545e-02,-3.131297292015532974e-01,-7.345496505143622734e-02,-1.679550852677788308e-01
7.399999999999999634e-02,-9.369880296155048971e-02,1.708134596760472745e-01,-1.759454762060871647e-01
7.499999999999999722e-02,2.431535950203401186e-01,2.750327997850629536e-01,-5.645579749333801134e-02
7.599999999999999811e-02,3.505958964392523747e-01,1.013428181740007178e-01,1.292819989427394511e-01
7.699999999999999900e-02,1.716633174452199539e-01,-8.071022446678607909e-02,1.504312304089051033e-01
7.799999999999999989e-02,-1.305835394577893882e-01,-2.307335692152799045e-01,7.407029492077135679e-02
7.900000000000000078e-02,-3.442786691168745472e-01,-1.901020018935214995e-01,-1.042679604609496463e-01
8.000000000000000167e-02,-1.992988063903651519e-01,8.193688688382495811e-02,-2.587207465362605374e-01
8.100000000000000255e-02,9.850143743501728333e-02,2.709781496369123577e-01,-1.385079269929091195e-01
8.200000000000000344e-02,3.082895907918793421e-01,2.112809383172072897e-01,6.553332738276333724e-02
8.300000000000000433e-02,2.348734596690532084e-01,-6.415083121663586740e-02,1.888286256976922095e-01
8.400000000000000522e-02,-5.302470991041909054e-02,-2.551720252825898094e-01,1.609750138809943887e-01
8.500000000000000611e-02,-3.127099353123680148e-01,-2.669868909261453593e-01,6.230455036270492013e-03
8.599999999999999312e-02,-2.670193456877369420e-01,2.110881070223907807e-02,-1.892050311916108896e-01
8.699999999999999400e-02,-3.989030850064443495e-03,2.250958934353931573e-01,-2.011319338778240484e-01
8.799999999999999489e-02,2.957367926254299562e-01,2.594942621647906567e-01,5.006508025252877706e-03
8.899999999999999578e-02,3.090242182284992367e-01,3.594645104696683052e-02,1.530303102572916352e-01
8.999999999999999667e-02,3.844866921182818476e-02,-1.811172275791508857e-01,1.887697464681689363e-01
9.099999999999999756e-02,-2.368070439122807458e-01,-2.656702513354464723e-01,4.558162984718677757e-02
9.199999999999999845e-02,-3.360584348180057912e-01,-6.738805675476078338e-02,-1.524492734032802943e-01
9.299999999999999933e-02,-9.693474120410323913e-02,2.133075091283905267e-01,-2.074913395990658493e-01
9.400000000000000022e-02,1.836601705221050651e-01,2.742955110535442720e-01,-1.034151845549111659e-01
9.500000000000000111e-02,3.367767781754886780e-01,9.768010335479025696e-02,9.476846420533881210e-02
9.600000000000000200e-02,1.789779110711708920e-01,-1.751044201023960467e-01,2.060396219987270794e-01
9.700000000000000289e-02,-1.626640241449923696e-01,-2.757177744934769525e-01,1.477032562233411839e-01
9.800000000000000377e-02,-3.290212539502145872e-01,-1.462753892405620759e-01,-5.015185657088010868e-02
9.900000000000000466e-02,-2.257956550234848925e-01,1.495045542483915413e-01,-2.130221484490633088e-01
1.000000000000000056e-01,9.186211281810406637e-02,2.616789184563969028e-01,-1.856925799430904078e-01
1.010000000000000064e-01,2.960858697266890993e-01,1.776952904418004076e-01,1.427381719750325448e-02
1.019999999999999934e-01,2.420599058248539270e-01,-9.168284487125422100e-02,2.059898076009429035e-01
1.029999999999999943e-01,-5.354271580934588659e-02,-2.479424486172528419e-01,1.992603018514873814e-01
1.039999999999999952e-01,-3.200972250771217387e-01,-2.062006181318026266e-01,1.781530354970382174e-02
1.049999999999999961e-01,-2.986786815460485967e-01,3.707448360624294309e-02,-2.023850053574118013e-01
1.059999999999999970e-01,-4.042448669748301832e-02,2.790378048647993992e-01,-1.809726565450499036e-01
1.069999999999999979e-01,2.874764350977008220e-01,2.300250989709271277e-01,-4.278801849801562585e-02
1.079999999999999988e-01,2.839444991912614125e-01,-2.258692665581130479e-02,1.156974927228712063e-01
1.089999999999999997e-01,9.335419975025940897e-02,-2.570273947617985888e-01,2.013796093126352937e-01
1.100000000000000006e-01,-1.995525866672787085e-01,-2.590656793728560170e-01,8.287704570791301628e-02
1.110000000000000014e-01,-3.443787630030297198e-01,-1.866464834228467873e-02,-9.129633543704752940e-02
1.120000000000000023e-01,-1.140091760683383526e-01,2.530178845237572305e-01,-1.824719299987103971e-01
1.130000000000000032e-01,1.997850855963013705e-01,1.954211277765978416e-01,-1.581377376716463223e-01
1.140000000000000041e-01,3.637802705510206347e-01,8.096430807265568574e-02,7.562045913711182288e-02
1.150000000000000050e-01,1.641570841588433083e-01,-1.456869141418575264e-01,2.064612378915227642e-01
1.160000000000000059e-01,-1.340468252627491919e-01,-2.381935169543100694e-01,1.732897924407120482e-01
1.170000000000000068e-01,-3.126973656976422267e-01,-1.181114642598844189e-01,-4.050611797324602664e-02
1.179999999999999938e-01,-2.286957649813194660e-01,1.638255486888687273e-01,-1.753794428320090137e-01
1.189999999999999947e-01,7.730660379225383350e-02,2.461994492361435916e-01,-1.654629651550026948e-01
1.199999999999999956e-01,3.218093845761521576e-01,1.431300890344845977e-01,-7.675425353315839735e-03
1.209999999999999964e-01,2.835109112601453263e-01,-1.439637478456989583e-01,1.131167924499126842e-01
1.219999999999999973e-01,-3.479524366172232624e-02,-2.885497773830902335e-01,1.871975344888081594e-01
1.229999999999999982e-01,-2.992661632161415231e-01,-1.517275372212561479e-01,8.958638801136724339e-02
1.239999999999999991e-01,-3.116113587572608701e-01,1.085990016199153280e-01,-1.348179094922452026e-01
1.250000000000000000e-01,-2.962991756581381461e-02,2.766187304953370285e-01,-2.474899180815960109e-01
1.260000000000000009e-01,2.503283896421372723e-01,2.095270882553444403e-01,-8.502231790267225642e-02
1.270000000000000018e-01,3.259544852047224217e-01,-5.807193037748058922e-02,9.193501542788032332e-02
1.280000000000000027e-01,7.460694018041572062e-02,-2.614929462315266351e-01,2.178417826011490033e-01
1.290000000000000036e-01,-2.209831897943306256e-01,-2.131794661664795087e-01,1.441798186701552520e-01
1.300000000000000044e-01,-3.354689397682182328e-01,9.685758536171550775e-03,-3.295758738197030607e-02
1.310000000000000053e-01,-1.466132417304342461e-01,2.432567372202075751e-01,-2.034646778722151717e-01
1.320000000000000062e-01,1.667250075682887300e-01,2.379814441909680334e-01,-1.865372743995758475e-01
1.330000000000000071e-01,3.328350129443387595e-01,1.448154262521473418e-02,2.634634678443058958e-02
1.340000000000000080e-01,2.010436390547564456e-01,-1.674574398997099867e-01,1.568590667671637406e-01
1.350000000000000089e-01,-1.063763985031903753e-01,-2.550066070578577149e-01,1.653618537300780011e-01
1.360000000000000098e-01,-3.493670591577110462e-01,-1.752253182697750822e-02,6.248669771476970253e-02
1.370000000000000107e-01,-2.224005469591207318e-01,2.247502151090432221e-01,-2.024564555709042757e-01
1.380000000000000115e-01,6.062614449411248690e-02,2.942804332564988301e-01,-1.792666582041509138e-01
1.390000000000000124e-01,3.655474210967838977e-01,8.280328852668074335e-02,-7.580380645217880964e-02
1.400000000000000133e-01,2.949578859393839902e-01,-1.792048332833846291e-01,1.455674989790509410e-01
1.409999999999999865e-01,-2.401663558471456295e-02,-2.961638343889324010e-01,2.338695060363004952e-01
1.419999999999999873e-01,-2.820231581154826750e-01,-1.281310391754085787e-01,1.206006091012693793e-01
1.429999999999999882e-01,-2.964392219583013022e-01,1.552565631098522525e-01,-9.739128632722494905e-02
1.439999999999999891e-01,-1.405494678157924622e-02,2.743447656111132060e-01,-2.278601560812881233e-01
1.449999999999999900e-01,2.517471805537035423e-01,1.538366919817873990e-01,-1.380715422795950886e-01
1.459999999999999909e-01,3.173939359608848876e-01,-5.049676137382563823e-02,4.598606781827992845e-02
1.469999999999999918e-01,1.221054516702305415e-01,-2.956142174301711889e-01,2.178623001407392623e-01
1.479999999999999927e-01,-2.204632432930023755e-01,-1.797552880130066921e-01,1.776250430089336696e-01
1.489999999999999936e-01,-3.424427470233591952e-01,1.761942493510354132e-02,-2.298092980386840650e-02
1.499999999999999944e-01,-1.694163622952915282e-01,2.585969325751900083e-01,-1.887861853865683559e-01
1.509999999999999953e-01,2.020109444395171427e-01,2.308437820564336329e-01,-1.869771955564338006e-01
1.519999999999999962e-01,3.470924845241125101e-01,-3.845255914684028720e-03,-1.584929640112489602e-02
1.529999999999999971e-01,2.308851376340338157e-01,-2.571822130096759751e-01,1.310648562129574368e-01
1.539999999999999980e-01,-1.443059467830969389e-01,-2.490414292614539782e-01,1.851183556515016426e-01
1.549999999999999989e-01,-2.807575053089083061e-01,-2.720022663553186421e-02,7.306538169060287913e-02
1.559999999999999998e-01,-2.539508764237414784e-01,1.972917180481955357e-01,-1.158522487618092039e-01
1.570000000000000007e-01,9.634877783014189623e-02,2.277758081111729560e-01,-1.962704639544263496e-01
1.580000000000000016e-01,3.196512566344215656e-01,4.849229954660268238e-02,-1.166650787034007736e-01
1.590000000000000024e-01,2.491863634492641755e-01,-2.023423027285206066e-01,8.899963205096668439e-02
1.600000000000000033e-01,3.288627261963307513e-02,-2.821851053743698046e-01,1.699739415710781743e-01
1.610000000000000042e-01,-3.456659374519364669e-01,-6.957314094777007629e-02,1.359484422405534687e-01
1.620000000000000051e-01,-3.156853444029847355e-01,1.544799705285751223e-01,-5.085525938381824096e-02
1.630000000000000060e-01,-1.693362025691693210e-02,2.694887701986202200e-01,-1.739453593998641912e-01
1.640000000000000069e-01,2.502403254686605405e-01,1.312483762361338624e-01,-1.498911392302154366e-01
1.650000000000000078e-01,3.557450928725130468e-01,-1.074416152215729725e-01,-1.740036250586000921e-02
1.660000000000000087e-01,8.718848290224327779e-02,-2.968420104281224714e-01,1.685282138234592275e-01
1.670000000000000095e-01,-2.096820138924461452e-01,-1.421184219535460980e-01,1.724161242032190844e-01
1.680000000000000104e-01,-3.253358311489482624e-01,7.897800727247711317e-02,3.495618504293836887e-02
1.690000000000000113e-01,-1.204008536548052399e-01,2.942123972129643827e-01,-1.290604630261054653e-01
1.700000000000000122e-01,1.731362173173056629e-01,1.591102184520247209e-01,-2.021115999996783430e-01
1.710000000000000131e-01,3.263566447601879417e-01,-5.394654486696409679e-02,-5.774728730727490128e-02
1.719999999999999862e-01,2.251274090856522359e-01,-2.732885017369492964e-01,1.528328210416023958e-01
1.729999999999999871e-01,-9.551395868693861313e-02,-2.005274846926404508e-01,2.291138748049197094e-01
1.739999999999999880e-01,-3.564773340743480068e-01,2.498719315390920959e-02,9.307796317060630653e-02
1.749999999999999889e-01,-2.750905835189135784e-01,2.233253905426476893e-01,-4.836686348408207603e-02
1.759999999999999898e-01,4.482370149079152599e-02,2.333326157088391195e-01,-1.943364536708873658e-01
1.769999999999999907e-01,3.253708800604639961e-01,4.595385446141645770e-03,-1.285760157798603032e-01
1.779999999999999916e-01,2.970221402333299010e-01,-2.258344932236795444e-01,4.226229122032044982e-02
1.789999999999999925e-01,1.709918653010472633e-02,-2.664674769203537741e-01,1.898917623650278608e-01
1.799999999999999933e-01,-3.098705157102518704e-01,-4.285608688465954164e-02,1.702495616456088101e-01
1.809999999999999942e-01,-3.113044185068881697e-01,1.949810920901343669e-01,-2.205911973482538660e-02
1.819999999999999951e-01,-5.061493315610307575e-02,2.532718550452864315e-01,-1.703840680911141159e-01
1.829999999999999960e-01,2.463764300729909262e-01,6.796585029375154519e-02,-2.198532633458530894e-01
1.839999999999999969e-01,3.341109812002239221e-01,-1.344413257349669211e-01,-2.437051806871001758e-02
1.849999999999999978e-01,1.353588858720502774e-01,-2.365647163251119178e-01,1.506452202114448025e-01
1.859999999999999987e-01,-1.831293706020669654e-01,-1.315073416072608803e-01,2.296751703562128211e-01
1.869999999999999996e-01,-3.203517656953673298e-01,1.082343825039707025e-01,5.336732985853624711e-02
1.880000000000000004e-01,-1.395629056200267948e-01,3.013450341221738937e-01,-1.117889426757756322e-01
1.890000000000000013e-01,1.554403928796798118e-01,1.276842322878472546e-01,-1.834411352618667279e-01
1.900000000000000022e-01,3.134679305928524395e-01,-1.027244660297630258e-01,-1.011936482851432673e-01
1.910000000000000031e-01,2.192334220752705787e-01,-2.849575431305532147e-01,7.967500723000651985e-02
1.920000000000000040e-01,-1.239338733082879923e-01,-1.906177060156397929e-01,1.970847599407649642e-01
1.930000000000000049e-01,-3.491945756605726592e-01,9.089840864163083178e-02,1.366582824696136733e-01
1.940000000000000058e-01,-2.598726641634182544e-01,2.466445659694767589e-01,-2.991080835713547798e-02
1.950000000000000067e-01,4.910070137241805827e-02,2.100929281100802626e-01,-1.748149720773783111e-01
1.960000000000000075e-01,3.142556011126043658e-01,-2.561346844083363036e-02,-1.579898764676465339e-01
1.970000000000000084e-01,2.961781344126399040e-01,-2.514612348700913658e-01,-5.594957069656214185e-03
1.980000000000000093e-01,1.752105701954078179e-02,-1.908914360281067091e-01,1.773748378908452938e-01
1.990000000000000102e-01,-2.634927285719557699e-01,-3.923518064767551883e-02,1.862542093059894877e-01
2.000000000000000111e-01,-3.263011677312123160e-01,2.267072789518444487e-01,4.820294945658738089e-02
2.010000000000000120e-01,-6.000264096819720588e-02,2.128903160682648066e-01,-1.661527208756348739e-01
2.020000000000000129e-01,2.386901186883380599e-01,3.399154327600486386e-02,-1.945723933239908165e-01
2.030000000000000138e-01,3.135755613365155403e-01,-1.951764153466019336e-01,-5.632979138654882478e-02
2.039999999999999869e-01,1.069873305627479509e-01,-2.674187259747153322e-01,1.365388054656850036e-01
2.049999999999999878e-01,-2.097690113091602859e-01,-6.183286802281890565e-02,1.871578892913580983e-01
2.059999999999999887e-01,-3.430494987859433187e-01,1.786610044513744777e-01,1.410843222933114705e-01
2.069999999999999896e-01,-1.562805758269148193e-01,2.689239881204411597e-01,-1.001925119940558218e-01
2.079999999999999905e-01,1.436950089666222952e-01,1.344284024712412706e-01,-1.882311035145965428e-01
2.089999999999999913e-01,2.847646668236802903e-01,-1.208700155217894007e-01,-1.579032484262909430e-01
2.099999999999999922e-01,2.155522818125015783e-01,-2.680764763570957498e-01,3.290302442205363803e-02
2.109999999999999931e-01,-8.810366068581491905e-02,-1.765069386252589301e-01,1.529785711308843388e-01
2.119999999999999940e-01,-3.334970526987121597e-01,1.048332556490121081e-01,1.539284634900122406e-01
2.129999999999999949e-01,-2.867737227161170632e-01,2.794561111839530820e-01,1.522664403977068946e-02
2.139999999999999958e-01,3.505772332902760274e-02,1.977601067403434165e-01,-1.654606653327994614e-01
2.149999999999999967e-01,2.872723831245731496e-01,-1.205279798940034897e-01,-1.933089893937831039e-01
2.159999999999999976e-01,2.904143486381264294e-01,-2.213870275814081301e-01,-5.818672539993717530e-02
2.169999999999999984e-01,3.103997785188656461e-02,-2.489615612296482150e-01,1.280640308267998739e-01
2.179999999999999993e-01,-2.401971292661762569e-01,4.675105634776705738e-02,1.982726408601039880e-01
2.190000000000000002e-01,-3.577586688566574136e-01,2.593367559620753382e-01,7.900256183143460065e-02
2.200000000000000011e-01,-6.815753281262365570e-02,2.540080216171377026e-01,-9.067671269768691478e-02
2.210000000000000020e-01,2.661334902195959251e-01,8.829068722571987299e-03,-1.977466181697909720e-01
2.220000000000000029e-01,3.155575297173693894e-01,-2.343624198123174240e-01,-1.220036004482737552e-01
2.230000000000000038e-01,1.364339218131180864e-01,-2.363578561766229713e-01,6.059650806422037239e-02
2.240000000000000047e-01,-1.960187036875555844e-01,-4.653655902429586905e-02,2.276530080936386979e-01
2.250000000000000056e-01,-3.199001447511541363e-01,1.851300917827596315e-01,1.652572206240054686e-01
2.260000000000000064e-01,-1.959981692775660256e-01,2.518294072964631369e-01,-2.659588305655257237e-02
2.270000000000000073e-01,1.294546221845887246e-01,9.208421728546459240e-02,-2.085315978953855842e-01
2.280000000000000082e-01,3.319188129429030965e-01,-1.901665747818237218e-01,-1.876321446434288109e-01
2.290000000000000091e-01,2.289025520731103047e-01,-2.569922906869600010e-01,-2.022026316021141232e-03
2.300000000000000100e-01,-1.032988770205027773e-01,-1.128026977657426710e-01,1.280405685618332123e-01
2.310000000000000109e-01,-3.135210923152277895e-01,1.723542381990919303e-01,1.998635931105275376e-01
2.320000000000000118e-01,-2.786181237110054720e-01,2.930181604025005049e-01,5.062991441288566818e-02
2.330000000000000127e-01,5.771753300609247517e-02,1.287021868231523203e-01,-1.592102285422691832e-01
2.340000000000000135e-01,3.148133866251894286e-01,-1.523255934231448894e-01,-1.914678512278542577e-01
2.349999999999999867e-01,2.823669300961852424e-01,-3.025769600395402659e-01,-7.328395538587302582e-02
2.359999999999999876e-01,2.670174160640604796e-02,-1.821696966124999595e-01,1.312020969829365835e-01
2.369999999999999885e-01,-2.604364837985698178e-01,9.072661947269830551e-02,2.172158973315223285e-01
2.379999999999999893e-01,-3.073379826753333544e-01,2.546845540086821735e-01,1.275260628016231246e-01
2.389999999999999902e-01,-7.282122199984569777e-02,2.209199063497954973e-01,-5.130499869006788921e-02
2.399999999999999911e-01,2.121035868569779992e-01,-4.354953698363294573e-02,-2.008396902184297894e-01
2.409999999999999920e-01,3.303631812357495923e-01,-2.290863369324860066e-01,-1.577124234881839837e-01
2.419999999999999929e-01,1.475036310472910561e-01,-2.232985231170429019e-01,5.224047707494557796e-02
2.429999999999999938e-01,-1.254931192179662702e-01,2.370952594749690251e-02,1.800084411963429332e-01
2.439999999999999947e-01,-3.468779901512448194e-01,2.386350285746108857e-01,1.860545377171530235e-01
2.449999999999999956e-01,-2.295980069506271259e-01,2.560779861771714794e-01,6.506406950661742204e-03
2.459999999999999964e-01,1.516107216365872867e-01,4.431384042730772410e-02,-1.808065350783312486e-01
2.469999999999999973e-01,3.214842161740121829e-01,-1.798779904484680836e-01,-2.295396689545358415e-01
2.479999999999999982e-01,1.923344334995886473e-01,-2.694567815988759274e-01,-5.900675389869926984e-02
2.489999999999999991e-01,-3.176190069595301313e-02,-5.000935841591947623e-02,1.193649799972472947e-01
2.500000000000000000e-01,-2.921340410526579445e-01,1.927187461922970912e-01,1.793038659665623646e-01
2.510000000000000009e-01,-2.738629645162333759e-01,2.689444624391962302e-01,5.873265646469050943e-02
2.520000000000000018e-01,-5.127927248852890557e-03,1.143563591919922601e-01,-1.198756883435019571e-01
2.530000000000000027e-01,2.988510631165458009e-01,-1.536767251725313921e-01,-1.694845199144065506e-01
2.540000000000000036e-01,2.600340411615543190e-01,-2.889691455241149565e-01,-1.280381195519997850e-01
2.550000000000000044e-01,4.718440845685603624e-02,-1.414326045622861239e-01,6.656008430588694624e-02
2.560000000000000053e-01,-2.167624373481646938e-01,1.341581774058229759e-01,1.715039564684427420e-01
2.570000000000000062e-01,-3.189399570671743733e-01,2.768706736318247708e-01,1.781442126191352671e-01
2.580000000000000071e-01,-7.977677442981721823e-02,1.674120572551623942e-01,-2.775874845076256592e-02
2.590000000000000080e-01,2.441424399911870935e-01,-8.245891151301673605e-02,-1.807687877536064136e-01
2.600000000000000089e-01,3.469298410581665437e-01,-2.621285287499928174e-01,-1.751195266885628432e-01
2.610000000000000098e-01,1.596073884360841577e-01,-2.052873558604043636e-01,3.957409821374747137e-03
2.620000000000000107e-01,-1.789023395300339270e-01,3.734819230328598888e-02,1.567179509823151407e-01
2.630000000000000115e-01,-3.564321108550900785e-01,2.844614758972348612e-01,1.708219349025819345e-01
2.640000000000000124e-01,-2.159053293271493978e-01,2.316392915240745309e-01,5.606209399890180189e-02
2.650000000000000133e-01,1.417768461205112795e-01,-2.358873086783752279e-02,-1.316778795830997884e-01
2.660000000000000142e-01,3.374823212493310853e-01,-2.426504060257484996e-01,-1.820470986924034584e-01
2.670000000000000151e-01,2.803729150552353722e-01,-2.324728075573136710e-01,-1.004801235980617435e-01
2.680000000000000160e-01,-8.038507219113655289e-02,-4.395144871784981838e-02,1.013417708362245040e-01
2.690000000000000169e-01,-3.320908717509504227e-01,2.571038206704245321e-01,2.207508909615033821e-01
2.700000000000000178e-01,-2.796518808866224060e-01,2.212582616519769285e-01,1.218850204013396804e-01
2.710000000000000187e-01,-9.395460274341517828e-03,6.000117022688836177e-02,-7.573681271260135350e-02
2.720000000000000195e-01,2.712824622248040107e-01,-2.000256681731562569e-01,-2.090109301514712359e-01
2.730000000000000204e-01,3.386519403785937521e-01,-2.462574675846603278e-01,-1.559916784630829001e-01
2.740000000000000213e-01,8.829202537510753845e-02,-1.361462780998464739e-01,3.417503400113119233e-02
2.750000000000000222e-01,-2.782166993694712986e-01,1.387998370771349743e-01,1.937968264634149229e-01
2.760000000000000231e-01,-3.047282091022002204e-01,2.638299386480014719e-01,1.549964057418413144e-01
2.770000000000000240e-01,-9.715113826021534726e-02,1.358928187885004857e-01,4.666397510507680479e-03
2.780000000000000249e-01,2.039898378879457796e-01,-1.099162866291772261e-01,-1.615368163836241044e-01
2.790000000000000258e-01,3.587656226584206576e-01,-2.544392096575162632e-01,-2.042058421092430298e-01
2.800000000000000266e-01,1.474714945215619966e-01,-1.897870922486424028e-01,-5.817854958380029584e-02
2.810000000000000275e-01,-1.724759391068651226e-01,6.405046480781526053e-02,1.385062876872712456e-01
2.819999999999999729e-01,-3.653682450284937433e-01,2.505381306175059053e-01,1.713736915386754878e-01
2.829999999999999738e-01,-2.155019010348489250e-01,2.053471461357322947e-01,8.587210712091319920e-02
2.839999999999999747e-01,1.305640015204251603e-01,-2.792585397330661287e-02,-8.213737600732719246e-02
2.849999999999999756e-01,3.214476835546776212e-01,-2.624637632070144777e-01,-2.197517716439641999e-01
2.859999999999999765e-01,2.431137892513167975e-01,-1.859654516041417960e-01,-7.635597281266998104e-02
2.869999999999999774e-01,-5.517760893895604091e-02,1.437080299826056645e-02,9.142835275673601159e-02
2.879999999999999782e-01,-3.141955215965574477e-01,2.319745134402333431e-01,1.876922585202887295e-01
2.889999999999999791e-01,-2.642160876876616382e-01,2.481459433724811647e-01,1.552015309021463896e-01
2.899999999999999800e-01,-2.149342514235867002e-02,4.789087657753707261e-02,-1.434023467812010552e-02
2.909999999999999809e-01,2.773376486959409082e-01,-2.092638657836643490e-01,-1.760215048903123469e-01
2.919999999999999818e-01,3.330477793107872730e-01,-2.692226862323861547e-01,-2.316115422079844388e-01
2.929999999999999827e-01,5.676489492795610409e-02,-3.975319066012909103e-02,-9.887597772211528802e-03
2.939999999999999836e-01,-2.614539965332483007e-01,2.104768854423416380e-01,1.498231752881120371e-01
2.949999999999999845e-01,-3.222998491242277108e-01,2.826009624685147381e-01,2.263733483129559965e-01
2.959999999999999853e-01,-1.394222834232181907e-01,1.089666846662434990e-01,3.104388351785022579e-02
2.969999999999999862e-01,1.823007763768837997e-01,-1.205622599127777750e-01,-1.536132858917004240e-01
2.979999999999999871e-01,3.419689594734143800e-01,-2.645547800140575223e-01,-1.975485921080699370e-01
2.989999999999999880e-01,2.073183237557161829e-01,-8.378691516829608887e-02,-9.628598753933206855e-02
2.999999999999999889e-01,-1.331439935820615261e-01,1.286842612315997059e-01,1.055284058105084022e-01
3.009999999999999898e-01,-3.573000013996009971e-01,2.594265779929268989e-01,2.314357807215971785e-01
3.019999999999999907e-01,-2.175175607203400641e-01,1.747719641241525235e-01,1.205662900045857688e-01
3.029999999999999916e-01,1.028211091441710856e-01,-8.704040463338744149e-02,-9.117660460060465766e-02
3.039999999999999925e-01,3.388272340768134216e-01,-2.895772926700372341e-01,-1.812156071447941774e-01
3.049999999999999933e-01,2.728989542631796161e-01,-1.959590094070689237e-01,-1.155171241098420509e-01
3.059999999999999942e-01,-6.354031286369914155e-02,9.254474960691580487e-02,1.665376175868210282e-02
3.069999999999999951e-01,-2.853250662688350814e-01,2.616402433167734354e-01,1.944445359070344770e-01
3.079999999999999960e-01,-3.085645574008288872e-01,2.136620653378084878e-01,1.711610898537344050e-01
3.089999999999999969e-01,-3.832785945031857988e-02,-4.798364816915994327e-03,2.847913989153657774e-02
3.099999999999999978e-01,2.815190819988560578e-01,-2.273382756815658656e-01,-1.640200109471209866e-01
3.109999999999999987e-01,2.908912324703032404e-01,-2.386877701780076022e-01,-2.038718634551966447e-01
3.119999999999999996e-01,5.940661678746803759e-02,-2.065775998876829070e-02,-7.136813401836515636e-02
3.130000000000000004e-01,-2.438302803339909008e-01,2.061410305264629872e-01,1.274565922342095758e-01
3.140000000000000013e-01,-3.166187401870693141e-01,2.493820703897919877e-01,2.249686891999083116e-01
3.150000000000000022e-01,-7.220298225838728268e-02,3.854883415254464069e-02,1.031049955251737843e-01
3.160000000000000031e-01,2.134064882027797705e-01,-1.695953898621271883e-01,-8.497473328099330869e-02
3.170000000000000040e-01,3.300043588908118664e-01,-2.481339199248594196e-01,-1.934447781329661498e-01
3.180000000000000049e-01,1.718574001629564474e-01,-1.253359224726797172e-01,-1.352223564109205356e-01
3.190000000000000058e-01,-1.481608025145185192e-01,1.564629625319938766e-01,5.910480069502423162e-02
3.200000000000000067e-01,-3.542803268134225858e-01,2.412471656038167600e-01,1.872110997356858375e-01
3.210000000000000075e-01,-2.535015116929441037e-01,1.222537061588759022e-01,1.641838547570395324e-01
3.220000000000000084e-01,1.195741827134435969e-01,-1.220370688007109544e-01,-2.496610058692968342e-02
3.230000000000000093e-01,3.047557468429470950e-01,-2.506251849554455013e-01,-1.671241114363589408e-01
3.240000000000000102e-01,2.531870641846987180e-01,-1.537580020446190909e-01,-1.717170229052508990e-01
3.250000000000000111e-01,-4.260359907517968781e-02,1.128521040478981108e-01,-3.231880501695539448e-02
3.260000000000000120e-01,-2.822383653675292203e-01,2.522734861616452995e-01,1.154160337871648900e-01
3.270000000000000129e-01,-2.927030474470802002e-01,1.646630151895180638e-01,2.008446084085292183e-01
3.280000000000000138e-01,-4.909424341371416978e-02,-6.101302083017098171e-02,9.617199074326313046e-02
3.290000000000000147e-01,2.846267812998730107e-01,-2.328826027050758529e-01,-1.392721676498841488e-01
3.300000000000000155e-01,3.055885054144450996e-01,-2.453573809008608997e-01,-2.021950959694948369e-01
3.310000000000000164e-01,9.110181604223371865e-02,2.463534747952749945e-02,-1.125466506397564820e-01
3.320000000000000173e-01,-2.448387656305613669e-01,2.229085191295697155e-01,9.100002566855094899e-02
3.330000000000000182e-01,-3.274080760667568146e-01,2.459958264977050724e-01,1.827726582089940210e-01
3.340000000000000191e-01,-1.578593819196285053e-01,3.885487545200951714e-02,1.401983386714035495e-01
3.350000000000000200e-01,2.010923914600594720e-01,-1.993270375856113219e-01,-5.878670601440780935e-02
3.360000000000000209e-01,3.481695676901049308e-01,-2.520341330720172746e-01,-1.814424911774106530e-01
3.370000000000000218e-01,2.246309212229636032e-01,-5.761220452736111330e-02,-1.672828009456364395e-01
3.380000000000000226e-01,-1.446682592548051427e-01,2.338486646138140668e-01,1.662963563045318990e-02
3.390000000000000235e-01,-3.075483241193283646e-01,2.155196006966052513e-01,1.643279544962212013e-01
3.400000000000000244e-01,-2.236849164964387904e-01,1.088845908113624389e-01,1.764706224956664182e-01
3.410000000000000253e-01,7.593120997092198121e-02,-1.687382571660623332e-01,3.740597737553051638e-02
3.420000000000000262e-01,3.194497047820838986e-01,-2.707999009534551860e-01,-1.195353540387358166e-01
3.430000000000000271e-01,2.894922963147175121e-01,-1.383774903028458236e-01,-2.317908022691719527e-01
3.439999999999999725e-01,-2.671904748165509699e-02,1.641620066506029596e-01,-5.726275854400691284e-02
3.449999999999999734e-01,-2.990188103040671841e-01,2.770736754553412839e-01,1.347866112523945226e-01
3.459999999999999742e-01,-2.926252383839460514e-01,1.809152965517032141e-01,2.272402102493284726e-01
3.469999999999999751e-01,-3.187576257499494942e-02,-1.067741366333069125e-01,1.194268949207926006e-01
3.479999999999999760e-01,2.492361693848442195e-01,-2.908892286847684638e-01,-7.736805568228548313e-02
3.489999999999999769e-01,3.052843875038118715e-01,-1.671191856556966393e-01,-2.121500732312119053e-01
3.499999999999999778e-01,5.522907277367631457e-02,6.413006792081482610e-02,-1.530983109654435737e-01
3.509999999999999787e-01,-2.197274719367433848e-01,2.302016595690783707e-01,7.728565923817735939e-02
3.519999999999999796e-01,-3.078441719987899949e-01,2.004554868158148206e-01,1.898690486592394533e-01
3.529999999999999805e-01,-1.448885606087165490e-01,-4.280621142635448670e-03,1.581980863538421656e-01
3.539999999999999813e-01,1.825460692610760827e-01,-2.448075302047874047e-01,-6.095173500460886445e-04
3.549999999999999822e-01,3.606997946708906944e-01,-2.458022958236953937e-01,-1.543461952834034312e-01
3.559999999999999831e-01,2.066005639396952809e-01,-1.825219468629940296e-03,-1.846411913787781300e-01
3.569999999999999840e-01,-1.557218943507415743e-01,2.086969679570217506e-01,-2.960767372965665556e-02
3.579999999999999849e-01,-3.350003327975620837e-01,2.502038859938924276e-01,1.498536130854853377e-01
3.589999999999999858e-01,-2.174507137725804062e-01,4.876742089937848024e-02,1.868253455696632925e-01
3.599999999999999867e-01,7.846782207975656898e-02,-1.662502135123800628e-01,5.622842957150463172e-02
3.609999999999999876e-01,2.923528326546145917e-01,-2.377185634283935090e-01,-1.202812947563842300e-01
3.619999999999999885e-01,2.714089362587701615e-01,-1.266409827353873196e-01,-2.048053387089462107e-01
3.629999999999999893e-01,-4.590513174172704096e-03,1.915092266383296715e-01,-1.216147406300714801e-01
3.639999999999999902e-01,-2.771431578863463585e-01,2.815647479358450722e-01,9.377339629779367358e-02
3.649999999999999911e-01,-3.196964873533907348e-01,1.092180125197736162e-01,2.025878517774756804e-01
3.659999999999999920e-01,-5.518394224055871849e-02,-1.615873189738408489e-01,1.173487140492432551e-01
3.669999999999999929e-01,2.305552174464707837e-01,-2.990676814868786781e-01,-2.812483958987577540e-02
3.679999999999999938e-01,3.550871699267856840e-01,-1.666735912714888690e-01,-1.894578578950287251e-01
3.689999999999999947e-01,1.173113343691490201e-01,9.572695345214694840e-02,-1.600271806071673075e-01
3.699999999999999956e-01,-2.106464182378852412e-01,2.655006637051409712e-01,2.168212754670332740e-02
3.709999999999999964e-01,-3.613081673962602602e-01,2.196858942290364491e-01,1.958979856076553394e-01
3.719999999999999973e-01,-1.277853050507635480e-01,-7.721470403256916470e-02,1.397102751572262547e-01
3.729999999999999982e-01,1.686222525532672933e-01,-2.831936408638200398e-01,2.214884581580171818e-02
3.739999999999999991e-01,3.139459318732480408e-01,-2.162409977299890873e-01,-1.170362603786998107e-01
3.750000000000000000e-01,1.941353144240892115e-01,2.761239436384275645e-02,-2.140157921317775436e-01
3.760000000000000009e-01,-1.201267176993590091e-01,2.417152358284721803e-01,-6.915004123578491479e-02
3.770000000000000018e-01,-3.377043648678776377e-01,2.448796459209152676e-01,1.221602059885903563e-01
3.780000000000000027e-01,-2.455828472421530406e-01,1.012780625841832975e-02,1.996930734718412592e-01
3.790000000000000036e-01,5.054086136056871320e-02,-2.287272017982913963e-01,1.110118270022910913e-01
3.800000000000000044e-01,3.042781102141333682e-01,-2.421966491931496768e-01,-7.784457635356029082e-02
3.810000000000000053e-01,2.910386630601377034e-01,-4.338276682546212543e-02,-1.993789495817216706e-01
3.820000000000000062e-01,7.238128157507654412e-03,2.056248306369330980e-01,-1.525743931128247244e-01
3.830000000000000071e-01,-2.868270295892926813e-01,2.549995061005422281e-01,1.404816196832258703e-02
3.840000000000000080e-01,-2.896796070096233633e-01,1.052650083459691632e-01,2.229553285033367971e-01
3.850000000000000089e-01,-7.981482385678299873e-02,-1.888131082357201729e-01,1.889901703662472954e-01
3.860000000000000098e-01,2.100505511524035085e-01,-2.668614426159803266e-01,-1.006670578803571872e-02
3.870000000000000107e-01,3.387412777936481545e-01,-1.375843742068678099e-01,-1.516137912975233371e-01
3.880000000000000115e-01,1.153672995875024421e-01,1.474826634420536298e-01,-1.850890748207883463e-01
3.890000000000000124e-01,-2.028723980023697526e-01,2.655395466213033018e-01,-5.285053394762583012e-02
3.900000000000000133e-01,-3.604208103171497313e-01,1.368522446590014208e-01,1.332679014990138799e-01
3.910000000000000142e-01,-1.546256541010268548e-01,-1.069466931622810729e-01,1.778622001638651973e-01
3.920000000000000151e-01,1.531420830258741483e-01,-2.688142013828734300e-01,7.238003072363292933e-02
3.930000000000000160e-01,3.452809858560697553e-01,-1.989531210651785398e-01,-1.300526643142810856e-01
3.940000000000000169e-01,1.921441128773256901e-01,1.000208078706550652e-01,-1.926361006497037953e-01
3.950000000000000178e-01,-1.149586878178081584e-01,2.709093687024610730e-01,-1.134732418201396531e-01
3.960000000000000187e-01,-3.320794988048633156e-01,1.976361308969865060e-01,1.043174763728449417e-01
3.970000000000000195e-01,-2.633213774958927944e-01,-4.908233721121426502e-02,1.881749929736094007e-01
3.980000000000000204e-01,7.183048346431412934e-02,-2.082852228856362231e-01,1.514715736681287173e-01
3.990000000000000213e-01,3.011295148451894610e-01,-2.318687664233893830e-01,-2.673112178212786946e-02
4.000000000000000222e-01,2.776396542616919594e-01,-1.789425374327601945e-02,-1.847654594926144145e-01
4.010000000000000231e-01,1.877101509825894465e-02,2.353754449020071804e-01,-1.793560386289574649e-01
4.020000000000000240e-01,-2.851548529515347541e-01,2.872076046171979091e-01,2.394674950673928576e-02
4.030000000000000249e-01,-3.292225797298755086e-01,2.517359407998050538e-02,1.421732645845533716e-01
4.040000000000000258e-01,-4.412394712380602463e-02,-1.981610420325373989e-01,2.037884368114707412e-01
4.050000000000000266e-01,2.316216060540681465e-01,-2.817638668269270563e-01,3.814469890815558317e-02
4.060000000000000275e-01,3.490801025641261934e-01,-8.492330177107423883e-02,-1.473293440791125508e-01
4.069999999999999729e-01,9.991371502830447004e-02,1.837386607459899346e-01,-1.815097930915704483e-01
4.079999999999999738e-01,-2.044831235033862382e-01,2.524170444655640666e-01,-6.309113778315679488e-02
4.089999999999999747e-01,-3.523148738516340694e-01,1.282706107720688604e-01,7.666799419217078249e-02
4.099999999999999756e-01,-1.625693105230078539e-01,-1.470709850812505215e-01,1.975125779447732821e-01
4.109999999999999765e-01,1.463983646751382539e-01,-2.563450330898066620e-01,1.193472984989713409e-01
4.119999999999999774e-01,3.041236873073267510e-01,-1.727431094478390217e-01,-7.444392853746065186e-02
4.129999999999999782e-01,2.127364265120439135e-01,1.135409453108615491e-01,-1.734062641128666649e-01
4.139999999999999791e-01,-1.005992796479169143e-01,2.709362447260204032e-01,-1.861780457507117292e-01
4.149999999999999800e-01,-3.336001517667143146e-01,1.727751604683766817e-01,2.081828231471836294e-02
4.159999999999999809e-01,-2.744000755413390502e-01,-9.041604277482277741e-02,1.721609385725300367e-01
4.169999999999999818e-01,4.872476183751391077e-02,-2.251235936854603659e-01,1.933150731324670690e-01
4.179999999999999827e-01,2.921511587208202587e-01,-2.232788722217573796e-01,6.863297429160625414e-03
4.189999999999999836e-01,2.603208597378502964e-01,4.811130076139457507e-02,-1.520791709937836800e-01
4.199999999999999845e-01,6.013995336057597826e-03,2.519836902425545699e-01,-2.070319934693782005e-01
4.209999999999999853e-01,-2.948681230903499317e-01,2.302222431214820120e-01,-3.008673717625200139e-02
4.219999999999999862e-01,-3.286448408471340232e-01,-1.603669705067382141e-03,1.235691516545340263e-01
4.229999999999999871e-01,-3.438111661052413448e-02,-2.352389574800729521e-01,2.118895206329315939e-01
4.239999999999999880e-01,2.453561808337508532e-01,-2.614990796188697564e-01,6.799440284256633160e-02
4.249999999999999889e-01,3.264651146754238287e-01,-2.705940692891845370e-02,-1.136349033711458179e-01
4.259999999999999898e-01,1.288921367135701379e-01,2.274810670408952962e-01,-1.952189567346938048e-01
4.269999999999999907e-01,-1.776350167342967412e-01,2.592282932733990797e-01,-9.598071551792353162e-02
4.279999999999999916e-01,-3.232317735855411156e-01,6.057439238621924876e-02,6.037346627971700713e-02
4.289999999999999925e-01,-2.138014844951854343e-01,-1.742173288068611658e-01,2.429102589467221907e-01
4.299999999999999933e-01,1.423165802560691084e-01,-2.658756360892014503e-01,1.508720555688863318e-01
4.309999999999999942e-01,3.451120259866900519e-01,-9.090990288577686929e-02,-5.805536752665753537e-03
4.319999999999999951e-01,2.036985562300230312e-01,1.551315227996190316e-01,-2.140540036972021221e-01
4.329999999999999960e-01,-7.111688875550731259e-02,3.001707309056072526e-01,-1.586214535593408193e-01
4.339999999999999969e-01,-3.098482714715106723e-01,1.336064762566713249e-01,-3.908973486135900594e-02
4.349999999999999978e-01,-2.777841943298126615e-01,-1.501932097799378585e-01,1.739905911029504815e-01
4.359999999999999987e-01,3.918619405981376563e-02,-2.800677407500962723e-01,1.930438336563626289e-01
4.369999999999999996e-01,3.303085454275400124e-01,-1.529269620215476522e-01,6.018659341906076876e-02
4.380000000000000004e-01,2.566568427891322557e-01,8.448990901557015820e-02,-1.485243200106518557e-01
4.390000000000000013e-01,3.972952769658399941e-02,2.594709386920616701e-01,-1.931087455523678997e-01
4.400000000000000022e-01,-2.863628321737070048e-01,1.832635954202872786e-01,-7.359023265103346867e-02
4.410000000000000031e-01,-3.152752614562795430e-01,-5.544480074325901231e-02,8.017436578809285230e-02
4.420000000000000040e-01,-3.760774081285680331e-02,-2.603521691653913339e-01,1.856097793487520853e-01
4.430000000000000049e-01,2.237468257963962925e-01,-2.042580208253055862e-01,1.361268868251877540e-01
4.440000000000000058e-01,3.398125262384340539e-01,1.867207768358868439e-02,-7.202924241225472368e-02
4.450000000000000067e-01,1.155451153920546703e-01,2.184180996228355376e-01,-1.876384653331948094e-01
4.460000000000000075e-01,-1.818633497064710836e-01,2.561532222533944858e-01,-1.398129072239929216e-01
4.470000000000000084e-01,-3.496681858331258663e-01,1.635574496232358732e-02,-8.408260500470849524e-03
4.480000000000000093e-01,-1.891035824233960605e-01,-2.202916836029462921e-01,1.538632072814457574e-01
4.490000000000000102e-01,1.581138759378739600e-01,-2.724275822596111118e-01,1.833654989603267227e-01
4.500000000000000111e-01,3.535284823110206309e-01,-5.765137640658666435e-02,5.597787369977591868e-03
4.510000000000000120e-01,2.495506782501216991e-01,2.195747528749982802e-01,-1.681879045491984359e-01
4.520000000000000129e-01,-9.511111793622532840e-02,2.356381349618830723e-01,-2.012868808870041937e-01
4.530000000000000138e-01,-3.136420660410809136e-01,8.408951575043210891e-02,-4.677274318772717959e-02
4.540000000000000147e-01,-2.759877214439734328e-01,-1.579385903573142236e-01,1.359510062518304585e-01
4.550000000000000155e-01,-2.301862178006149756e-03,-2.485051269260242224e-01,1.958950009009869653e-01
4.560000000000000164e-01,2.898458952294786228e-01,-1.229626382356942410e-01,6.295842150606105470e-02
4.570000000000000173e-01,2.802290602317927259e-01,1.083478204090561059e-01,-7.413195415530263177e-02
4.580000000000000182e-01,5.745897369631908919e-02,2.578820974866917748e-01,-2.085638947657122710e-01
4.590000000000000191e-01,-2.790831243953234564e-01,1.734744500280635537e-01,-1.109724243182241554e-01
4.600000000000000200e-01,-3.367401182498963585e-01,-8.024064238673696281e-02,5.132179727276551390e-02
4.610000000000000209e-01,-7.662827797388273299e-02,-2.652901339542552139e-01,1.840311430739209331e-01
4.620000000000000218e-01,2.353136123867195784e-01,-1.858642092983266159e-01,1.293315494035674473e-01
4.630000000000000226e-01,3.258854524807390241e-01,5.620096469561059599e-02,6.520024455082944551e-03
4.640000000000000235e-01,1.342431953114344989e-01,2.470586799397790356e-01,-1.441575017241377155e-01
4.650000000000000244e-01,-2.035212045894911059e-01,2.076548579691212260e-01,-1.926690168022335281e-01
4.660000000000000253e-01,-3.351121486857314702e-01,-7.987315991460674017e-04,-1.974111466104784898e-02
4.670000000000000262e-01,-2.115592005195720271e-01,-2.085300494998463816e-01,1.594879488227005648e-01
4.680000000000000271e-01,1.226959344199048535e-01,-2.337552734667463772e-01,2.215935224765030742e-01
4.689999999999999725e-01,3.502941333517016753e-01,-4.857081614650398532e-02,5.556476510434514571e-02
4.699999999999999734e-01,2.276611823769531806e-01,2.054686842944568603e-01,-1.026675131928757173e-01
4.709999999999999742e-01,-8.863026604343332560e-02,2.883907435133625241e-01,-2.263200079138776855e-01
4.719999999999999751e-01,-3.213405266443116193e-01,6.247441483379662097e-02,-8.544899156022957298e-02
4.729999999999999760e-01,-2.838442573208121433e-01,-2.091620339333687961e-01,4.820054661662392242e-02
4.739999999999999769e-01,9.336230858879057334e-03,-2.438406891201410631e-01,2.066540376684593838e-01
4.749999999999999778e-01,3.288530239439728109e-01,-8.368494156512655546e-02,1.471867838047304922e-01
4.759999999999999787e-01,2.913054399388472215e-01,1.593813483483098314e-01,-5.588245106865677436e-02
4.769999999999999796e-01,3.190343279077860472e-02,2.234178235632869880e-01,-1.993169896031903032e-01
4.779999999999999805e-01,-2.718052566749609711e-01,1.692708666929755024e-01,-1.945405777397581915e-01
4.789999999999999813e-01,-3.294515518766775175e-01,-1.648106524527732653e-01,4.223741836702888525e-02
4.799999999999999822e-01,-1.081005639883899777e-01,-2.980389133035526994e-01,2.064231322756358289e-01
4.809999999999999831e-01,2.169066189097854924e-01,-1.427474740667631359e-01,1.950491858257341338e-01
4.819999999999999840e-01,2.990103596093248717e-01,5.825011357130470413e-02,-1.673407439897934418e-02
4.829999999999999849e-01,1.698531178823534937e-01,2.610144567283557149e-01,-1.883780340349088533e-01
4.839999999999999858e-01,-1.730078099979533712e-01,1.625734309373662589e-01,-2.113769798621464024e-01
4.849999999999999867e-01,-3.407577800449131389e-01,-8.900518747440158696e-02,-8.819158852405444005e-02
4.859999999999999876e-01,-2.256410245625819488e-01,-2.566152861713136279e-01,1.627015879389834552e-01
4.869999999999999885e-01,1.113328814347718937e-01,-2.092826225114315930e-01,2.165605186614201483e-01
4.879999999999999893e-01,3.312671125570855191e-01,5.034171924998306728e-03,8.865252734577458438e-02
4.889999999999999902e-01,2.368264852664379305e-01,2.509809128139308121e-01,-7.266471147360570315e-02
4.899999999999999911e-01,-6.981671543557582682e-02,2.815857103614867740e-01,-1.848189397988038163e-01
4.909999999999999920e-01,-3.157035472527074393e-01,4.728572286661417157e-02,-1.552003241236795117e-01
4.919999999999999929e-01,-2.919458859670340800e-01,-1.974587129529765672e-01,4.065649286766052223e-02
4.929999999999999938e-01,-4.182979301803652072e-02,-2.567889234202360149e-01,1.663015250509452259e-01
4.939999999999999947e-01,2.716838304339812549e-01,-5.124967057698384676e-02,1.869886189515353181e-01
4.949999999999999956e-01,2.924717402075006079e-01,1.808227999098912520e-01,1.683157651059696489e-02
4.959999999999999964e-01,8.029651547214634866e-02,2.587445789457769041e-01,-1.557971960964395497e-01
4.969999999999999973e-01,-2.699068742446900093e-01,1.038410099477723586e-01,-1.948375114359993943e-01
4.979999999999999982e-01,-3.263133461106560995e-01,-1.571975838681576587e-01,-4.546431198005641827e-02
4.989999999999999991e-01,-9.984872664213846616e-02,-3.057755491105352275e-01,1.685819988856122886e-01
5.000000000000000000e-01,2.091007966667640106e-01,-1.141883465433291417e-01,2.043300834341288397e-01
5.010000000000000009e-01,3.578079933951573977e-01,1.094539331963363393e-01,7.196785318980340740e-02
5.020000000000000018e-01,1.703289108822697850e-01,2.768473345315980993e-01,-1.025586658129407774e-01
5.030000000000000027e-01,-1.588074497037119115e-01,1.693810180792325593e-01,-2.048487457602772288e-01
5.040000000000000036e-01,-3.453565689004990391e-01,-1.132489117088266717e-01,-1.048963515350179038e-01
5.050000000000000044e-01,-1.886881041375080836e-01,-2.575434569674500129e-01,7.471795251641850932e-02
5.060000000000000053e-01,1.088598908300424661e-01,-2.006690686592786654e-01,1.978655528760446813e-01
5.070000000000000062e-01,3.243616047898300603e-01,5.779955659617933700e-02,1.375200611311748200e-01
5.080000000000000071e-01,2.888502105650482821e-01,2.428404328829017467e-01,-3.456761085718640381e-02
5.090000000000000080e-01,-5.269146156807830855e-02,2.126802717216219329e-01,-2.276973554003539346e-01
5.100000000000000089e-01,-3.395694542811332761e-01,-6.829259954603052706e-03,-1.684714684802222362e-01
5.110000000000000098e-01,-2.457377814603531885e-01,-2.166750449557741098e-01,1.989472307825169213e-04
5.120000000000000107e-01,-2.952070792161346977e-02,-2.330180478871835270e-01,1.441952983669587962e-01
5.130000000000000115e-01,2.797028214097316279e-01,-7.157396053504767354e-03,1.816471747519592672e-01
5.140000000000000124e-01,2.943369687349581265e-01,1.937511439239593680e-01,4.007495036988874965e-02
5.150000000000000133e-01,5.522428678502062926e-02,2.603658381084593132e-01,-1.313577165340244768e-01
5.160000000000000142e-01,-2.570276130856097851e-01,7.033287559922121734e-02,-2.193120651381649522e-01
5.170000000000000151e-01,-2.979092872086127053e-01,-1.709632830666746595e-01,-1.030727451118905041e-01
5.180000000000000160e-01,-1.199782971289610062e-01,-2.867010115332131459e-01,1.121455314590240754e-01
5.190000000000000169e-01,2.055728235634454726e-01,-5.725280977328244675e-02,1.788753108738264097e-01
5.200000000000000178e-01,3.540194366404325055e-01,1.608124074293909578e-01,9.090878805899053894e-02
5.210000000000000187e-01,1.298982782588845586e-01,3.026664049130811662e-01,-9.613131228061999600e-02
5.220000000000000195e-01,-1.474717153087682919e-01,1.178869779352671315e-01,-1.945973085063613106e-01
5.230000000000000204e-01,-3.195620913067745983e-01,-1.583307577444949543e-01,-1.212209742005364854e-01
5.240000000000000213e-01,-2.021455431119764112e-01,-2.514424607773053655e-01,3.274250308255466368e-02
5.250000000000000222e-01,1.063118944521131704e-01,-1.715277298287170571e-01,1.997791505572473481e-01
5.260000000000000231e-01,3.416416401396773495e-01,9.861394209352833395e-02,1.510100869895970588e-01
5.270000000000000240e-01,2.741230309344900862e-01,3.208588549578778037e-01,-1.880611500959825447e-02
5.280000000000000249e-01,-2.928757274943851255e-02,1.867445732915670453e-01,-1.786816919440518681e-01
5.290000000000000258e-01,-3.165396704436022612e-01,-3.984996778870279754e-02,-2.123636888213982221e-01
5.300000000000000266e-01,-2.946779614470813602e-01,-2.379410998619682915e-01,-8.134468677957625016e-02
5.310000000000000275e-01,-1.932696541933267079e-02,-2.022966017823592533e-01,1.529499299010214086e-01
5.320000000000000284e-01,2.715012089134266615e-01,4.848038941253364487e-02,1.946505635108830568e-01
5.330000000000000293e-01,3.630218160494892432e-01,2.279678057351459397e-01,5.172975487913711312e-02
5.340000000000000302e-01,7.423792459043414282e-02,2.571801301397442785e-01,-1.108010816505600876e-01
5.350000000000000311e-01,-2.272173148532172782e-01,2.310221948537754741e-02,-2.397542508122906812e-01
5.360000000000000320e-01,-3.424447579894471794e-01,-2.232629461805946958e-01,-1.095823659332743893e-01
5.370000000000000329e-01,-1.442857352537098847e-01,-2.607306452504449812e-01,3.433861770602122943e-02
5.380000000000000338e-01,1.644127796097678285e-01,-6.566971946405446292e-02,1.688576718864970294e-01
5.390000000000000346e-01,3.155283369176656305e-01,1.926582963830819895e-01,1.398546104037096116e-01
5.400000000000000355e-01,1.977155256593212951e-01,2.421981352221294626e-01,-7.806845989947741593e-02
5.410000000000000364e-01,-1.606248862027409574e-01,6.182737968364834802e-02,-1.877034335092122030e-01
5.420000000000000373e-01,-3.407222475432052922e-01,-1.598062036957438314e-01,-1.539585952984297013e-01
5.430000000000000382e-01,-2.254172965498105197e-01,-3.214040787264459409e-01,1.119057896154175731e-02
5.440000000000000391e-01,1.036202417277092558e-01,-8.687683646625490863e-02,1.654400353556227665e-01
5.450000000000000400e-01,3.249366024799144603e-01,1.421270375065717961e-01,1.521398285945234907e-01
5.460000000000000409e-01,2.574760677465761094e-01,2.625599474689093160e-01,6.756159739815785492e-02
5.470000000000000417e-01,-3.845973311433496106e-02,1.514304240116109146e-01,-1.499007152888747196e-01
5.480000000000000426e-01,-2.983771713470124709e-01,-1.125043339650587809e-01,-1.981038093906830055e-01
5.490000000000000435e-01,-2.893385319746017426e-01,-2.446101398641300217e-01,-4.344201536296852378e-02
5.500000000000000444e-01,-6.380627433295020523e-02,-1.651733228574286949e-01,1.133981199533931061e-01
5.510000000000000453e-01,2.775943903788968825e-01,7.710152465162817270e-02,1.915491850985056033e-01
5.520000000000000462e-01,3.147813231757688457e-01,2.672394766645315722e-01,1.051025851810118705e-01
5.530000000000000471e-01,9.834297633875677125e-02,2.189319862404935924e-01,-7.290464356297206294e-02
5.540000000000000480e-01,-2.436180074023502062e-01,-3.937899511119342250e-02,-1.938350565135620041e-01
5.550000000000000488e-01,-3.327478776221790002e-01,-2.408351546372033969e-01,-1.499050392375365914e-01
5.560000000000000497e-01,-1.046081037111573214e-01,-1.950912024477947648e-01,6.235958906787815448e-02
5.570000000000000506e-01,1.986320033347115932e-01,-8.452361946834470452e-03,1.978865744965121187e-01
5.580000000000000515e-01,3.738102353368721320e-01,2.601496846225506143e-01,1.422508749749032131e-01
5.590000000000000524e-01,1.731837185452616834e-01,2.479984425238446755e-01,1.200366445295522611e-02
5.600000000000000533e-01,-1.148663381265823541e-01,2.694724893109198480e-02,-1.895904931462988607e-01
5.610000000000000542e-01,-3.210787595795465132e-01,-2.177551935556333584e-01,-1.812777578595116124e-01
5.620000000000000551e-01,-2.278303035037842206e-01,-2.292277098251259693e-01,-5.546815598922184842e-02
5.629999999999999449e-01,8.718593288370218852e-02,-6.437406709994492049e-02,1.292255710796018364e-01
5.639999999999999458e-01,2.805113116146693009e-01,1.556867828013071553e-01,2.108236349551318445e-01
5.649999999999999467e-01,2.908872081068961668e-01,2.759844093661105169e-01,8.864978185589457438e-02
5.659999999999999476e-01,-4.654157713056534390e-02,1.209692873357062215e-01,-7.751410220455530464e-02
5.669999999999999485e-01,-2.906730534844478298e-01,-1.346765667356227547e-01,-2.001028122170852019e-01
5.679999999999999494e-01,-2.919188733438929373e-01,-2.230149849617030222e-01,-1.182989687928303058e-01
5.689999999999999503e-01,-1.997604649171475302e-02,-1.154246968484306662e-01,8.918759959703148610e-02
5.699999999999999512e-01,2.475303751621119319e-01,1.390123805391140499e-01,2.156894960116931270e-01
5.709999999999999520e-01,3.432987920377040814e-01,2.799635561488987290e-01,1.414119373896271792e-01
5.719999999999999529e-01,8.993401661667184410e-02,1.914771268166453044e-01,-7.918984941824268320e-02
5.729999999999999538e-01,-2.197968777162504495e-01,-6.972475884271819857e-02,-1.684928981159894978e-01
5.739999999999999547e-01,-3.287787724383485766e-01,-2.554085303846415078e-01,-1.701059046145085851e-01
5.749999999999999556e-01,-1.406719170359418403e-01,-2.093105762172539352e-01,1.553820133549258832e-02
5.759999999999999565e-01,1.835873961512581864e-01,5.273808869801915183e-02,1.585489456511068318e-01
5.769999999999999574e-01,3.596700511631180097e-01,2.395128939429802262e-01,1.504766001927935748e-01
5.779999999999999583e-01,1.528976664487274595e-01,2.367583669096287868e-01,5.775993732642571016e-02
5.789999999999999591e-01,-1.246241129842285550e-01,-3.297354641004580922e-02,-1.715182156902181343e-01
5.799999999999999600e-01,-3.227763952697864647e-01,-2.200964161881522052e-01,-2.162070615261632855e-01
5.809999999999999609e-01,-2.546723142049889255e-01,-2.331548292616411056e-01,-8.710915234530029749e-02
5.819999999999999618e-01,8.030935735022347310e-02,-3.896233638629532925e-02,1.089503088404283754e-01
5.829999999999999627e-01,2.982934184019798152e-01,1.959730276406148053e-01,1.911337764578606158e-01
5.839999999999999636e-01,2.912428346999522133e-01,2.523865156951544675e-01,1.501783685839246374e-01
5.849999999999999645e-01,-1.297001921322172256e-02,6.625743579259127380e-02,-9.139349583473813099e-02
5.859999999999999654e-01,-3.027285034169867051e-01,-1.905066863427354040e-01,-1.756609346919056902e-01
5.869999999999999662e-01,-3.142392145584479990e-01,-2.798726777594723325e-01,-1.568684895050785899e-01
5.879999999999999671e-01,-4.884636888400769976e-03,-1.188623610991595275e-01,1.180008060869711280e-02
5.889999999999999680e-01,2.570613909644088868e-01,1.477090079450195936e-01,2.025096471641713858e-01
5.899999999999999689e-01,3.215922565947783029e-01,2.711510114839126295e-01,1.683825229402435286e-01
5.909999999999999698e-01,9.010471432982310180e-02,1.225249370191380943e-01,2.619506082647488077e-02
5.919999999999999707e-01,-2.262575011499126931e-01,-1.241457624497525891e-01,-1.680920165040510894e-01
5.929999999999999716e-01,-3.365919770831235502e-01,-2.686102219851072004e-01,-1.574895610458734996e-01
5.939999999999999725e-01,-1.165369587851435990e-01,-1.574354312730353589e-01,-4.512705471260018697e-02
5.949999999999999734e-01,1.539001199518081064e-01,9.109484814028720456e-02,1.537723987402027925e-01
5.959999999999999742e-01,3.478624894986728222e-01,2.625442338094013395e-01,1.601059543405069230e-01
5.969999999999999751e-01,2.257550440414276272e-01,1.684839076502094302e-01,1.034681975967988582e-01
5.979999999999999760e-01,-9.294484632166885585e-02,-2.179974188940343033e-02,-1.193254790173751273e-01
5.989999999999999769e-01,-3.428909458440925206e-01,-2.384131272396489698e-01,-2.069170309887049808e-01
5.999999999999999778e-01,-2.327077778443192857e-01,-2.109380462479666651e-01,-1.453179931647684275e-01
6.009999999999999787e-01,1.061666574833488169e-01,1.037551779991707952e-02,4.083974822485501865e-02
6.019999999999999796e-01,2.928948941863895317e-01,2.485048705110130818e-01,2.379016348653168744e-01
6.029999999999999805e-01,2.815551247139793101e-01,1.992519440785342488e-01,1.434625161881929178e-01
6.039999999999999813e-01,2.147635172192672443e-02,4.042002592329888011e-02,-4.774949296933199416e-02
6.049999999999999822e-01,-2.891787265926894501e-01,-1.999733383596858372e-01,-2.141225792397469796e-01
6.059999999999999831e-01,-3.014106516121961010e-01,-2.221973892253314431e-01,-2.002881337414724738e-01
6.069999999999999840e-01,-7.776635834860375074e-02,-5.639780768881168943e-02,-8.972580803440037556e-03
6.079999999999999849e-01,2.313386323304952585e-01,1.617679628319477758e-01,1.479624449015373155e-01
6.089999999999999858e-01,3.005654869586678601e-01,2.761015631717746999e-01,1.771900331931685335e-01
6.099999999999999867e-01,1.098401628325578611e-01,1.015134155711786418e-01,6.011057410635253090e-02
6.109999999999999876e-01,-2.134195206226915664e-01,-1.910741803170137865e-01,-1.388171986081588871e-01
6.119999999999999885e-01,-3.294866154481910225e-01,-2.550759159902420414e-01,-1.986011190395879922e-01
6.129999999999999893e-01,-1.416695067327849999e-01,-1.478978194753392816e-01,-7.573707473127218315e-02
6.139999999999999902e-01,1.529230137228834441e-01,1.297226839068157112e-01,9.193827246233760020e-02
6.149999999999999911e-01,3.525561184163977235e-01,2.943944002190463372e-01,2.064913727291316503e-01
6.159999999999999920e-01,1.956086605378208332e-01,1.418200189919930632e-01,1.366305504698419049e-01
6.169999999999999929e-01,-1.123485504973344845e-01,-7.724253311625468854e-02,-5.137199047219342257e-02
6.179999999999999938e-01,-3.084602113460568340e-01,-2.653965614714480781e-01,-1.728038088983347986e-01
6.189999999999999947e-01,-2.790483605520887034e-01,-1.705160058082740571e-01,-1.863781435736995840e-01
6.199999999999999956e-01,5.097735766783355327e-02,2.101421069269562153e-02,3.981620826904596483e-02
6.209999999999999964e-01,3.064905188399100755e-01,2.489720597341616437e-01,1.553060513920780927e-01
6.219999999999999973e-01,2.520702475068637982e-01,2.326537971840882679e-01,1.985381517949795782e-01
6.229999999999999982e-01,2.276574398207297303e-02,-9.445796413307073688e-03,3.244361059613915660e-02
6.239999999999999991e-01,-2.974714886688799576e-01,-2.174096070464305863e-01,-1.320648858843771478e-01
6.250000000000000000e-01,-3.101867786324786769e-01,-2.469922792592976479e-01,-2.049801099924488390e-01
6.260000000000000009e-01,-6.798523817478595299e-02,5.923951681430854668e-03,-7.627583140125195060e-02
6.270000000000000018e-01,2.478626692087210759e-01,1.906184811478758290e-01,1.447770309676885969e-01
6.280000000000000027e-01,3.182367500556802509e-01,2.263578327499859988e-01,1.923284194045787876e-01
6.290000000000000036e-01,1.155242601932639501e-01,5.241156599503994651e-02,6.780987981466879422e-02
6.300000000000000044e-01,-1.975915627052317325e-01,-1.891148377426385141e-01,-8.949100867860181052e-02
6.310000000000000053e-01,-3.352832141441439706e-01,-2.847191740381773140e-01,-1.934353841326515722e-01
6.320000000000000062e-01,-1.522991577533087948e-01,-9.159808618025704063e-02,-1.086701942797588805e-01
6.330000000000000071e-01,1.142077954164653075e-01,1.859392425980364860e-01,5.604332801763088623e-02
6.340000000000000080e-01,3.310194680155115199e-01,2.844695893134382425e-01,2.076569984654785261e-01
6.350000000000000089e-01,2.456377244281129635e-01,1.475502541870310769e-01,1.767845696802498312e-01
6.360000000000000098e-01,-9.355555065731048503e-02,-1.306932509696576150e-01,7.482065651997414808e-03
6.370000000000000107e-01,-3.052899070224556199e-01,-2.648434312714692540e-01,-1.854629793844883023e-01
6.380000000000000115e-01,-2.522561868153307407e-01,-1.946256988571866409e-01,-1.673924446221448370e-01
6.390000000000000124e-01,4.344738618590724549e-02,1.047275249187108598e-01,-3.588579011208820752e-02
6.400000000000000133e-01,3.219909624849488505e-01,2.810309324507568318e-01,1.482154159072396338e-01
6.410000000000000142e-01,3.229415571885652647e-01,1.974172090580253169e-01,1.797383104144073540e-01
6.420000000000000151e-01,-9.220859916305614370e-03,-6.686110018264822263e-02,6.675727849063371744e-02
6.430000000000000160e-01,-2.872389759896518679e-01,-2.339451421917113638e-01,-1.216648872880540383e-01
6.440000000000000169e-01,-3.061587673859278991e-01,-2.239075630675746165e-01,-2.122303653173886751e-01
6.450000000000000178e-01,-1.061899768038688380e-01,2.939646828392829606e-02,-9.210939615452817808e-02
6.460000000000000187e-01,2.740402258580296180e-01,2.058516045914516868e-01,1.269822432335126206e-01
6.470000000000000195e-01,3.205405325667563532e-01,1.871697082238050480e-01,1.986243560043143286e-01
6.480000000000000204e-01,1.328760200439741967e-01,1.849002973044553549e-02,1.227382735523704083e-01
6.490000000000000213e-01,-1.898321313276485622e-01,-2.629137108731784411e-01,-7.615142731533075526e-02
6.500000000000000222e-01,-3.454678457408477676e-01,-2.431455599064661632e-01,-2.018939232779364545e-01
6.510000000000000231e-01,-1.716599771767000904e-01,-6.147747646792377924e-02,-1.572266769567554068e-01
6.520000000000000240e-01,1.643729642511718436e-01,2.279011136987524333e-01,3.378873822841448743e-02
6.530000000000000249e-01,3.398417954808553021e-01,2.886773397803080732e-01,1.549462939445433451e-01
6.540000000000000258e-01,2.291633182834127147e-01,1.066087313952271409e-01,1.876089107960491331e-01
6.550000000000000266e-01,-1.069050239739543912e-01,-1.677697643182680387e-01,1.443468263729728212e-03
6.560000000000000275e-01,-3.225733353444625306e-01,-2.962177818750039160e-01,-1.160181915865251129e-01
6.570000000000000284e-01,-2.972207296518531994e-01,-1.393531085083430654e-01,-2.218565411555047939e-01
6.580000000000000293e-01,4.713480854099336148e-02,1.154207369234327429e-01,-3.582955795294762852e-02
6.590000000000000302e-01,2.890635543742153257e-01,2.277126289081852772e-01,1.610839833209641025e-01
6.600000000000000311e-01,2.964597669346021869e-01,1.669519684706354812e-01,2.399675321787629045e-01
6.610000000000000320e-01,2.729146629862854931e-02,-5.370209391884171735e-02,1.225016528118252623e-01
6.620000000000000329e-01,-2.953191082720524330e-01,-2.717519690548780842e-01,-7.325508596589269672e-02
6.630000000000000338e-01,-3.277608393501729722e-01,-1.941166172047072980e-01,-2.230902583966955233e-01
6.640000000000000346e-01,-7.478274269114022765e-02,1.036668333153211163e-01,-1.620171250166463350e-01
6.650000000000000355e-01,2.574890208479997944e-01,3.064814873861128608e-01,8.642491190439181847e-02
6.660000000000000364e-01,3.003657686393883530e-01,2.132186444076930310e-01,1.977124487838772260e-01
6.670000000000000373e-01,1.625376456256406033e-01,-3.799612619803648117e-02,1.799532161249761952e-01
6.680000000000000382e-01,-1.698941454540192630e-01,-2.647154269199563092e-01,-4.066313979301033714e-03
6.690000000000000391e-01,-3.637761796680408222e-01,-2.383498010102492737e-01,-1.800806569220134434e-01
6.700000000000000400e-01,-1.873517291741912671e-01,-5.462906381096620939e-02,-1.860558420286626269e-01
6.710000000000000409e-01,1.439213205674347296e-01,2.560138828949866108e-01,-2.545823880984033130e-02
6.720000000000000417e-01,3.208066252529956364e-01,2.328950835135413233e-01,1.003305942605296069e-01
6.730000000000000426e-01,2.546800525228847811e-01,3.713881167754477103e-02,2.141675382360448410e-01
6.740000000000000435e-01,-1.168561173691805011e-01,-2.031555112211648750e-01,4.962654822502118868e-02
6.750000000000000444e-01,-3.124879702407767912e-01,-2.485341990882810603e-01,-8.938745948677746800e-02
6.760000000000000453e-01,-2.409731275030980724e-01,-8.039493546163259396e-02,-1.905721269189143419e-01
6.770000000000000462e-01,1.891277775415551102e-02,1.530708681096298318e-01,-1.117451087533760240e-01
6.780000000000000471e-01,2.988703291216253666e-01,2.700606440229297300e-01,1.015768957573022074e-01
6.790000000000000480e-01,3.168874199444104423e-01,1.212348300449876543e-01,2.016664038293596306e-01
6.800000000000000488e-01,1.109880062915848120e-02,-1.600068172962222091e-01,1.523075580597109124e-01
6.810000000000000497e-01,-3.044289289202442017e-01,-2.517553123070257470e-01,-5.224479149842038012e-02
6.820000000000000506e-01,-3.400078096098475555e-01,-1.396812275230664702e-01,-1.905111879053674739e-01
6.830000000000000515e-01,-7.672931693273796205e-02,1.067444271753210938e-01,-1.525345049417644316e-01
6.840000000000000524e-01,2.373442296888655378e-01,2.584985446966115985e-01,-5.287270299817837388e-03
6.850000000000000533e-01,3.338955236104380608e-01,1.973619395370313778e-01,1.632417111963150869e-01
6.860000000000000542e-01,1.136444907446067937e-01,-5.630056718847735453e-02,2.267717652136790885e-01
6.870000000000000551e-01,-1.724451688406596905e-01,-2.401435995954297742e-01,4.215986003476905608e-02
6.879999999999999449e-01,-3.432742138169878054e-01,-2.178815365795817582e-01,-1.319246883482100008e-01
6.889999999999999458e-01,-2.072527458681990009e-01,5.415712334565706693e-02,-1.836881756671075172e-01
6.899999999999999467e-01,1.071321132946208149e-01,2.690132353817363264e-01,-7.289851961791410373e-02
6.909999999999999476e-01,3.621448269310759138e-01,2.217425773249577237e-01,1.568059736607734511e-01
6.919999999999999485e-01,2.234918502030415199e-01,8.496455334868145345e-03,1.926243813179655817e-01
6.929999999999999494e-01,-7.000117692172906636e-02,-2.236186794639067610e-01,1.065893858895313601e-01
6.939999999999999503e-01,-3.082981492281021141e-01,-2.465721410810339520e-01,-7.428470186649871465e-02
6.949999999999999512e-01,-2.905875710036671666e-01,-4.626965004788557295e-02,-2.214701980280448512e-01
6.959999999999999520e-01,-1.035665384319762843e-02,2.262231019349223438e-01,-1.207755308069651951e-01
6.969999999999999529e-01,3.193525488473566987e-01,2.430359782477336250e-01,3.949325464078717179e-02
6.979999999999999538e-01,2.828402615693592637e-01,4.521282113234519062e-02,1.985002023680929595e-01
6.989999999999999547e-01,5.615303137735244698e-02,-1.530018377781066086e-01,1.472021669346577355e-01
6.999999999999999556e-01,-2.598560140939721874e-01,-2.718395795193027098e-01,-2.041535246289591377e-02
7.009999999999999565e-01,-2.980348380965813226e-01,-1.155339649032659649e-01,-2.218563745740573800e-01
7.019999999999999574e-01,-1.169356110806021448e-01,1.242511152702832078e-01,-1.474711851310140931e-01
7.029999999999999583e-01,2.128061378634910072e-01,2.369217142501881534e-01,-4.422961603189019819e-02
7.039999999999999591e-01,3.870273890281574758e-01,1.566935523241581585e-01,1.507670863884238988e-01
7.049999999999999600e-01,1.509509522704374496e-01,-1.117676807177836323e-01,2.127740773519172512e-01
7.059999999999999609e-01,-1.787090603143093870e-01,-2.963255569299211301e-01,4.817713708307417436e-02
7.069999999999999618e-01,-3.350623893368665507e-01,-1.527999377059378328e-01,-1.353387102017104271e-01
7.079999999999999627e-01,-2.096810456990716720e-01,7.491697621490703285e-02,-2.085133557351459832e-01
7.089999999999999636e-01,1.301486746039073328e-01,2.475537598703509978e-01,-1.299540687582671494e-01
7.099999999999999645e-01,3.088768926748836074e-01,2.283226456003775717e-01,7.823564841689190086e-02
7.109999999999999654e-01,2.493549673584201098e-01,-4.708508507982058638e-02,1.992916291380466554e-01
7.119999999999999662e-01,-4.397551920984677648e-02,-2.142471879400611734e-01,1.414083403337423883e-01
7.129999999999999671e-01,-2.790789906888724858e-01,-2.241638953949720847e-01,-4.541941895974865168e-02
7.139999999999999680e-01,-2.624050087668158282e-01,1.938624177537523474e-02,-1.510297361615141332e-01
7.149999999999999689e-01,-5.698610664812379413e-03,2.501404186208815994e-01,-1.651476768101684534e-01
7.159999999999999698e-01,2.782147937073077837e-01,2.336232339761374066e-01,-8.306210097486999011e-03
7.169999999999999707e-01,2.895513555860741994e-01,4.289310926382995659e-02,1.814846592740764486e-01
7.179999999999999716e-01,2.106618863056922489e-02,-1.986921779321547399e-01,1.930561254100492674e-01
7.189999999999999725e-01,-2.278327455685504876e-01,-2.650092906177122787e-01,5.043072537379517800e-02
7.199999999999999734e-01,-3.187357471902458328e-01,-4.900400107901588947e-02,-1.409909109358665480e-01
7.209999999999999742e-01,-9.613352930699281540e-02,1.955983214257469294e-01,-1.773300484014916356e-01
7.219999999999999751e-01,2.072799477021157188e-01,2.811629234416962997e-01,-9.142719365314912194e-02
7.229999999999999760e-01,3.705664608010976746e-01,1.021018249108255754e-01,1.185595427152923570e-01
7.239999999999999769e-01,1.643497104390223840e-01,-1.462773066368565633e-01,2.176144751958213608e-01
7.249999999999999778e-01,-1.666297732734868253e-01,-2.984753446994367065e-01,1.112263851968484790e-01
7.259999999999999787e-01,-3.578568792481966465e-01,-1.440914452112695976e-01,-7.925364767292589208e-02
7.269999999999999796e-01,-2.039633154984202001e-01,8.550748716343734013e-02,-1.990368465884756743e-01
7.279999999999999805e-01,1.031060040216364437e-01,2.680677506104953145e-01,-1.735705959735664439e-01
7.289999999999999813e-01,3.257036205844804355e-01,1.869093149530425824e-01,3.258533931021991709e-02
7.299999999999999822e-01,2.666482657162574932e-01,-6.776795990950168491e-02,1.799292702767371355e-01
7.309999999999999831e-01,-5.334590969160474955e-02,-2.458837972902805369e-01,1.601153458360629611e-01
7.319999999999999840e-01,-3.026292847884211046e-01,-2.311025662427370897e-01,7.586674848197819121e-03
7.329999999999999849e-01,-2.628364484093255182e-01,4.485308090612267345e-02,-1.945402462414953237e-01
7.339999999999999858e-01,-3.313899874803810913e-03,2.552086683585581550e-01,-1.884774776678590502e-01
7.349999999999999867e-01,2.912533079878327769e-01,2.052842230480466656e-01,-6.333728015411402290e-02
7.359999999999999876e-01,3.290811012716686190e-01,7.269711460889268471e-03,1.542184108336873416e-01
7.369999999999999885e-01,6.526635016382720256e-02,-2.057525744137135570e-01,1.970240241292686434e-01
7.379999999999999893e-01,-2.514995461702800861e-01,-2.375141130656424349e-01,9.581714057775543580e-02
7.389999999999999902e-01,-3.521890236789242401e-01,-2.157687639909483188e-02,-1.136808532174929942e-01
7.399999999999999911e-01,-1.465643335153201665e-01,2.290908665062033889e-01,-2.082339078917548880e-01
7.409999999999999920e-01,1.992394886116217734e-01,2.673893668587631889e-01,-1.339667245176906496e-01
7.419999999999999929e-01,3.763418484231617067e-01,9.956026009355717354e-02,1.079507819309341865e-01
7.429999999999999938e-01,1.745791159798185388e-01,-1.717832925057408422e-01,2.138461416592550846e-01
7.439999999999999947e-01,-1.716199762544254048e-01,-2.513552053138071174e-01,1.307923500156356333e-01
7.449999999999999956e-01,-3.145257661576882358e-01,-8.558120349103001678e-02,-1.229414851047860944e-03
7.459999999999999964e-01,-2.311238460391197846e-01,1.427329007163667673e-01,-1.826291137077713234e-01
7.469999999999999973e-01,1.082425467856326234e-01,2.858516320425511514e-01,-1.493543188748156780e-01
7.479999999999999982e-01,3.424355380999992704e-01,1.185182635401684226e-01,-1.571600715909476486e-03
7.489999999999999991e-01,2.647136607526711649e-01,-9.889575570100384017e-02,1.592561694368625214e-01
7.500000000000000000e-01,-1.503245006907533328e-02,-2.713005715998889067e-01,1.803007001193259740e-01
7.510000000000000009e-01,-2.980256535561803255e-01,-1.866177944430561508e-01,2.827682331096473614e-02
7.520000000000000018e-01,-2.796731321734923781e-01,7.689215142116946622e-02,-1.226904436910073865e-01
7.530000000000000027e-01,1.967544669708806357e-02,2.778788496539753017e-01,-1.943746619026636424e-01
7.540000000000000036e-01,2.859518013569530837e-01,1.993494665666308563e-01,-1.239390236732612616e-01
7.550000000000000044e-01,3.375541482503711666e-01,-5.253537031264228496e-02,1.097497728753787649e-01
7.560000000000000053e-01,7.004184913637552523e-02,-2.359374887444177227e-01,2.015370253179277760e-01
7.570000000000000062e-01,-2.526560308579184899e-01,-2.420339302266092951e-01,1.136439271519577576e-01
7.580000000000000071e-01,-3.015573351467672469e-01,8.948389281521348937e-03,-7.271486040728378231e-02
7.590000000000000080e-01,-1.202162351567867687e-01,2.255999821366526936e-01,-2.332319189016860972e-01
7.600000000000000089e-01,1.998281486258403628e-01,2.298355222664517084e-01,-1.348827596707895260e-01
7.610000000000000098e-01,3.302241666064936743e-01,9.304042277475853273e-03,-7.729498920277917684e-03
7.620000000000000107e-01,1.796937000032580445e-01,-2.102026200744862572e-01,2.090896707794173137e-01
7.630000000000000115e-01,-1.592621112684245166e-01,-2.569695833862695733e-01,1.908289399440745993e-01
7.640000000000000124e-01,-3.240026789999572165e-01,-4.913290250539112392e-02,2.096159425449454008e-02
7.650000000000000133e-01,-2.160153457477308470e-01,1.835262562218642479e-01,-1.793901831970436400e-01
7.660000000000000142e-01,1.039606066295852976e-01,2.624704506756305733e-01,-1.740084212013215392e-01
7.670000000000000151e-01,3.269186065425930821e-01,1.062224101621926098e-01,-5.054491888663950605e-02
7.680000000000000160e-01,2.423271482280625888e-01,-1.805670889962709413e-01,1.375058431768816924e-01
7.690000000000000169e-01,-1.882156150413826640e-02,-2.713803055637949990e-01,2.109292308504499280e-01
7.700000000000000178e-01,-2.820559546172050069e-01,-1.227901113330028687e-01,1.077476724723947510e-01
7.710000000000000187e-01,-2.860793425038706261e-01,1.424850231229405073e-01,-1.169104287014255950e-01
7.720000000000000195e-01,-1.325280745484324653e-02,2.742260558912378299e-01,-1.923261053240135632e-01
7.730000000000000204e-01,2.669492301148343461e-01,1.717533840186439287e-01,-9.662893491550168801e-02
7.740000000000000213e-01,3.110575970281594937e-01,-9.974543235452049128e-02,9.918556556411337044e-02
7.750000000000000222e-01,4.571536489536273673e-02,-2.844743861587135658e-01,2.518428188605810192e-01
7.760000000000000231e-01,-2.568465373450797840e-01,-2.254166577710293440e-01,1.364415100349496146e-01
7.770000000000000240e-01,-3.478794737013649607e-01,9.065227558106876693e-02,-2.303527388816363139e-02
7.780000000000000249e-01,-9.681688195706575351e-02,2.403225956841320288e-01,-1.772075245152394951e-01
7.790000000000000258e-01,1.972222412918579193e-01,1.973595030782649418e-01,-1.502623868661420725e-01
7.800000000000000266e-01,3.674659049995233628e-01,-2.016915285490674184e-02,-2.949751391652073729e-02
7.810000000000000275e-01,1.682280594671667628e-01,-2.383071802095512448e-01,1.762927364912511563e-01
7.820000000000000284e-01,-1.031247701674865291e-01,-2.659728498891341109e-01,1.849373549854838039e-01
7.830000000000000293e-01,-3.560228419693511892e-01,-3.618736941126216022e-02,1.989165615832813594e-02
7.840000000000000302e-01,-2.630581072810945775e-01,2.162686766597760046e-01,-1.226628432020131498e-01
7.850000000000000311e-01,8.556618340816751767e-02,2.405154467655837291e-01,-2.298044266855083229e-01
7.860000000000000320e-01,3.085621071802744919e-01,8.055785258825515216e-02,-4.123161766568290282e-02
7.870000000000000329e-01,2.730979162295049112e-01,-1.761123041404274725e-01,8.583049816426628620e-02
7.880000000000000338e-01,-8.488599281199977684e-03,-2.682052122883575307e-01,2.130530752970557773e-01
7.890000000000000346e-01,-2.716861153404465656e-01,-1.268254101995403837e-01,1.121480905619354346e-01
7.900000000000000355e-01,-2.951116004391269310e-01,1.357657030015369803e-01,-6.413871324694989107e-02
7.910000000000000364e-01,-2.398127282270791708e-02,2.762263238635160878e-01,-2.066791229999454804e-01
7.920000000000000373e-01,2.676258860741585477e-01,1.251200297302455522e-01,-1.442561834742038529e-01
7.930000000000000382e-01,2.947736853154189207e-01,-1.246547535604841106e-01,1.239365685215290842e-02
7.940000000000000391e-01,1.383729744855139443e-01,-2.555348099250709382e-01,2.101277251260207646e-01
7.950000000000000400e-01,-2.315025761759805789e-01,-1.740131354657722951e-01,1.921535386359793096e-01
7.960000000000000409e-01,-3.435174228276192121e-01,1.053443886061984358e-01,-2.682542142027876178e-02
7.970000000000000417e-01,-1.422659207785663960e-01,2.682053897810898757e-01,-1.648017055773972617e-01
7.980000000000000426e-01,1.546759517026682074e-01,2.128534163118001865e-01,-1.867285683524135542e-01
7.990000000000000435e-01,3.528454121813159872e-01,-5.969908336963173495e-02,-6.147637344665535242e-02
8.000000000000000444e-01,1.744152174785836562e-01,-2.544098057961257653e-01,1.132700134856731156e-01
8.010000000000000453e-01,-1.328042347384650324e-01,-2.177484457118007977e-01,2.288783290107329893e-01
8.020000000000000462e-01,-3.335964580702002746e-01,3.888876171963780159e-02,9.213211485027948677e-02
8.030000000000000471e-01,-2.336761241923994703e-01,2.444365563918877438e-01,-1.114756265941454910e-01
8.040000000000000480e-01,4.374039523154956560e-02,2.363891553195902884e-01,-2.150537275828231509e-01
8.050000000000000488e-01,3.373339117339834159e-01,4.987404586645259597e-02,-1.175229727037937488e-01
8.060000000000000497e-01,2.713988377805535701e-01,-1.976711567636633970e-01,5.987052261471257492e-02
8.070000000000000506e-01,-3.336733694516743308e-03,-2.667899885042023800e-01,1.695186712504317128e-01
8.080000000000000515e-01,-2.998748180708643019e-01,-3.770307786793841709e-02,1.714882995643354224e-01
8.090000000000000524e-01,-2.856639849366310879e-01,2.021313586649376715e-01,-3.148995514305565763e-02
8.100000000000000533e-01,-5.930630460372065399e-02,2.779337712782710135e-01,-2.153086449775958588e-01
8.110000000000000542e-01,2.839602317339345317e-01,9.068200251011447610e-02,-1.390528327717271417e-01
8.120000000000000551e-01,3.095852464723649611e-01,-1.614272978930597902e-01,-2.982709336668618733e-02
8.129999999999999449e-01,1.178455239370516244e-01,-2.828159684373289240e-01,1.729015466473525775e-01
8.139999999999999458e-01,-2.076776922481572973e-01,-1.179459930859306643e-01,2.103397855460648336e-01
8.149999999999999467e-01,-3.366933567419281847e-01,1.348808162544271050e-01,5.431229313117736518e-02
8.159999999999999476e-01,-1.689844974192379057e-01,2.999371553443589411e-01,-1.369070627995625511e-01
8.169999999999999485e-01,1.610903157046595369e-01,1.721711363716260934e-01,-2.270456106172700494e-01
8.179999999999999494e-01,3.117521013047011014e-01,-7.645949515412361897e-02,-8.026279630906661688e-02
8.189999999999999503e-01,2.025028152449042940e-01,-2.922534437467352864e-01,5.986434874153861996e-02
8.199999999999999512e-01,-1.184119083053423865e-01,-1.539787756901386806e-01,2.104021391276825192e-01
8.209999999999999520e-01,-3.227333845707976434e-01,5.390253783064165305e-02,1.274808315366642575e-01
8.219999999999999529e-01,-2.521618142778915272e-01,2.232141630415585276e-01,-4.261612315541542240e-02
8.229999999999999538e-01,8.991645787535539058e-02,2.001282785721585911e-01,-2.078026693735309516e-01
8.239999999999999547e-01,2.753371274957773784e-01,4.812356305123856141e-03,-1.818066151609707415e-01
8.249999999999999556e-01,2.655959922265619388e-01,-2.316032571659963069e-01,9.280437003000263987e-03
8.259999999999999565e-01,9.094327604676079313e-03,-2.528283221724539898e-01,1.783319448119871919e-01
8.269999999999999574e-01,-2.793383359200620752e-01,-4.309224980808077504e-03,1.775883453825463920e-01
8.279999999999999583e-01,-2.981988578511930443e-01,1.852051444770057287e-01,2.341876438331011792e-02
8.289999999999999591e-01,-6.519391710312712196e-02,2.820686982738794812e-01,-1.366476374755258849e-01
8.299999999999999600e-01,2.484266868528882954e-01,6.932628662729541091e-02,-2.329283855226431943e-01
8.309999999999999609e-01,3.686665974343695806e-01,-1.628456695849357094e-01,-4.506101530745480060e-02
8.319999999999999618e-01,1.095926795401836601e-01,-2.595019572883602854e-01,1.265789853618204397e-01
8.329999999999999627e-01,-2.369403003362420823e-01,-1.042979543541984189e-01,2.144032752125499819e-01
8.339999999999999636e-01,-3.275810287435843571e-01,1.806850470153769928e-01,9.653224304214548523e-02
8.349999999999999645e-01,-1.415588988381935587e-01,2.518142506792706570e-01,-8.942197849342521654e-02
8.359999999999999654e-01,1.588153037622493102e-01,1.110902055034994895e-01,-2.043928310794083103e-01
8.369999999999999662e-01,3.442836880904150409e-01,-1.090266182950027363e-01,-9.653001051378201636e-02
8.379999999999999671e-01,2.138674828378737958e-01,-2.490097174143032777e-01,2.216804612403916463e-02
8.389999999999999680e-01,-1.336751932198474713e-01,-1.608516398169620998e-01,1.941010731526330857e-01
8.399999999999999689e-01,-3.320932666756153950e-01,9.217033197870379280e-02,1.496544709785795069e-01
8.409999999999999698e-01,-2.602160729611049383e-01,2.495484571046144850e-01,-8.925634472150898238e-03
8.419999999999999707e-01,7.152840334285046064e-02,1.925899375556423265e-01,-1.893167144244290445e-01
8.429999999999999716e-01,2.907489596737673487e-01,-8.086670518841544697e-02,-2.014670112711940964e-01
8.439999999999999725e-01,2.958317673522417035e-01,-2.552960873653732365e-01,-3.135130694581615002e-02
8.449999999999999734e-01,2.529514099638457969e-02,-1.968139017316824779e-01,1.859688854239623101e-01
8.459999999999999742e-01,-2.924652403637829634e-01,-8.506769144156911197e-03,1.928392191188306182e-01
8.469999999999999751e-01,-3.555740862998520990e-01,2.577520352449875762e-01,6.359556975964809900e-02
8.479999999999999760e-01,-6.533009203469833381e-02,2.657229813498822035e-01,-1.269399822571459502e-01
8.489999999999999769e-01,2.618116109141730985e-01,3.839079000923485002e-02,-2.113265431507047043e-01
8.499999999999999778e-01,3.170367174503339047e-01,-1.915987615537414479e-01,-1.099546089706631424e-01
8.509999999999999787e-01,1.072575123908727779e-01,-2.279915421835297940e-01,9.425220260645304771e-02
8.519999999999999796e-01,-1.805586234985525618e-01,-6.199829537249709061e-02,1.950231224644181915e-01
8.529999999999999805e-01,-3.687771441190217381e-01,2.070019772570519945e-01,1.426473338558031934e-01
8.539999999999999813e-01,-1.585246136322003563e-01,2.792127350311979228e-01,-4.831458609068522980e-02
8.549999999999999822e-01,1.241866090108921378e-01,9.142102121470084553e-02,-1.933145120836198827e-01
8.559999999999999831e-01,3.650261740974143909e-01,-1.860136697184423538e-01,-1.639400444175344862e-01
8.569999999999999840e-01,2.294026326085718548e-01,-2.558286960403868271e-01,2.358855162259967594e-02
8.579999999999999849e-01,-9.947003253996573868e-02,-9.923236109401455118e-02,1.258890878347414810e-01
8.589999999999999858e-01,-3.040860394072573136e-01,1.684112308924541057e-01,1.530864672884261202e-01
8.599999999999999867e-01,-2.504818382412148936e-01,2.796410773906096159e-01,3.162198605828744902e-02
8.609999999999999876e-01,2.133524472317607085e-02,1.620646280239885217e-01,-1.661822248622291109e-01
8.619999999999999885e-01,3.203369530103476470e-01,-1.149774915985837948e-01,-2.018877258980952272e-01
8.629999999999999893e-01,3.005856208068359292e-01,-2.534928259363253833e-01,-4.884224861300199422e-02
8.639999999999999902e-01,4.699796492314074065e-02,-1.826171371468245375e-01,1.439096047827482239e-01
8.649999999999999911e-01,-2.811449288629581655e-01,5.380205445742202580e-02,2.034028393421963843e-01
8.659999999999999920e-01,-3.112564353972712139e-01,2.631978912568553319e-01,7.914424607429881853e-02
8.669999999999999929e-01,-5.344480724736656863e-02,1.952641482219266700e-01,-6.625138353351699150e-02
8.679999999999999938e-01,2.320103790683655520e-01,-2.520972552704766820e-02,-2.236232227762701696e-01
8.689999999999999947e-01,2.986154051014072719e-01,-2.406434436550952682e-01,-1.450057883291895611e-01
8.699999999999999956e-01,1.350237454896721645e-01,-2.226865468627244604e-01,1.117997480855766196e-01
8.709999999999999964e-01,-1.894621699279526728e-01,-6.582834989385998557e-03,1.718593929838680145e-01
8.719999999999999973e-01,-3.487570143349303931e-01,2.629620853931986524e-01,1.889309974589478136e-01
8.729999999999999982e-01,-1.747117757635954782e-01,2.578004487049854743e-01,-1.221539356054426352e-02
8.739999999999999991e-01,1.403670303316476575e-01,4.216508807178240975e-02,-2.059951477251326379e-01
8.750000000000000000e-01,3.590432603076793017e-01,-2.083632655075052242e-01,-1.738499511608614101e-01
8.760000000000000009e-01,2.434582095827499126e-01,-2.547322046334372647e-01,-3.654107727337925493e-02
8.770000000000000018e-01,-8.327212158215815951e-02,-6.228608511743919524e-02,1.217081438278389688e-01
8.780000000000000027e-01,-3.140380573546678877e-01,1.662091956953653527e-01,1.876511744227646050e-01
8.790000000000000036e-01,-2.865037901893051075e-01,2.621303239143367714e-01,4.755513081806401338e-02
8.800000000000000044e-01,1.547395241189055901e-02,1.125542788742053962e-01,-1.355538641532251509e-01
8.810000000000000053e-01,3.216114437673927018e-01,-1.240101624807525144e-01,-1.786301058676886544e-01
8.820000000000000062e-01,2.753299564600577565e-01,-3.059743279669926985e-01,-1.000960424860496134e-01
8.830000000000000071e-01,1.447362044944217919e-02,-1.181027862114700927e-01,1.624835795528620230e-01
8.840000000000000080e-01,-2.881574448901660368e-01,1.140264452848893384e-01,1.824832810741488509e-01
8.850000000000000089e-01,-3.202502877116162328e-01,2.526716807978617862e-01,1.570260024317771397e-01
8.860000000000000098e-01,-7.473746011469641071e-02,1.662072855562710394e-01,-4.161243832644670460e-02
8.870000000000000107e-01,2.353953571402221667e-01,-4.675783729128157873e-02,-1.715495583355375331e-01
8.880000000000000115e-01,3.538358132621173269e-01,-2.294353299178202021e-01,-1.593815391503676238e-01
8.890000000000000124e-01,1.273781431203576675e-01,-1.784798500562729817e-01,2.227459243867730213e-02
8.900000000000000133e-01,-2.086478300385336548e-01,1.127570588829750198e-02,1.603121376910255913e-01
8.910000000000000142e-01,-3.180135016366809619e-01,2.492637323252086257e-01,1.821419833990803594e-01
8.920000000000000151e-01,-2.375372390799745659e-01,2.180143828248116977e-01,2.977648867182996345e-02
8.930000000000000160e-01,1.465501977251879862e-01,-3.217014817603826900e-03,-1.316024602281819778e-01
8.940000000000000169e-01,3.205875766008500216e-01,-2.206898025590895707e-01,-2.003039810688957700e-01
8.950000000000000178e-01,2.205110444200986952e-01,-2.347936966892424648e-01,-6.249764074193892710e-02
8.960000000000000187e-01,-6.786585790456908795e-02,-3.738451370616605041e-02,1.327242044784232855e-01
8.970000000000000195e-01,-3.469651891717772663e-01,2.135148678748109707e-01,1.905566263768254109e-01
8.980000000000000204e-01,-2.680177191168373607e-01,2.666992419116208102e-01,1.333378372591311756e-01
8.990000000000000213e-01,1.114896901195622063e-02,8.734771402202656798e-02,-1.075034601907836201e-01
9.000000000000000222e-01,2.625962565272266236e-01,-2.154615528935503455e-01,-1.950347282028997986e-01
9.010000000000000231e-01,3.194960457706106371e-01,-2.693483237541294262e-01,-1.029301835485848249e-01
9.020000000000000240e-01,3.344921135468997830e-02,-9.281400625823071904e-02,3.207632978075837527e-02
9.030000000000000249e-01,-2.637808131205692241e-01,1.815860012088356679e-01,1.935186253782364973e-01
9.040000000000000258e-01,-3.237851336617860731e-01,2.607861961153574715e-01,1.491637370737702584e-01
9.050000000000000266e-01,-1.004722314619610757e-01,1.096653184273263387e-01,-2.953215739868580384e-03
9.060000000000000275e-01,2.271183553820280976e-01,-1.568774732527871973e-01,-1.841222775487140195e-01
9.070000000000000284e-01,2.779045488686454624e-01,-2.592151249673292357e-01,-2.013575342466608076e-01
9.080000000000000293e-01,1.706103352050017119e-01,-1.891195589120715781e-01,-3.806793404759381549e-02
9.090000000000000302e-01,-1.952188185588177027e-01,6.002010709802557686e-02,1.524317395920440354e-01
9.100000000000000311e-01,-3.319119972680424913e-01,2.957614560429713269e-01,1.725396930148670183e-01
9.110000000000000320e-01,-1.860493979672644960e-01,1.985589729277548732e-01,7.806977351395311127e-02
9.120000000000000329e-01,1.134560091940743504e-01,-3.695426764544208764e-02,-7.958155589556378806e-02
9.130000000000000338e-01,3.214424078492140180e-01,-2.677607989194867866e-01,-1.835979421358390484e-01
9.140000000000000346e-01,2.471844610555284927e-01,-1.992196508007418321e-01,-1.375178020231077880e-01
9.150000000000000355e-01,-4.868945242180670180e-02,3.708616333571154722e-02,8.124461956454347156e-02
9.160000000000000364e-01,-2.827408790176739739e-01,2.280675457032124986e-01,1.642481282345951143e-01
9.170000000000000373e-01,-2.965895989698850710e-01,2.426558651362744345e-01,1.516729744387615708e-01
9.180000000000000382e-01,-1.882356062943610136e-03,2.942220541960052782e-02,-6.238229813662943962e-02
9.190000000000000391e-01,3.121869254260216664e-01,-1.721505360689346842e-01,-1.731296084409401637e-01
9.200000000000000400e-01,2.757478698275127038e-01,-2.457929848542476647e-01,-1.744535157916453361e-01
9.210000000000000409e-01,4.174168363866858494e-02,-8.868392275894261545e-02,4.573285143076335352e-03
9.220000000000000417e-01,-2.746678706523974500e-01,1.975209031056334996e-01,1.466366907142658826e-01
9.230000000000000426e-01,-3.365219454371083940e-01,2.776444125828936293e-01,1.947663917207406448e-01
9.240000000000000435e-01,-1.126933094869598667e-01,1.061086033221910613e-01,1.109721746144597815e-02
9.250000000000000444e-01,2.074526612367055822e-01,-1.481093983624519328e-01,-1.204341277503521296e-01
9.260000000000000453e-01,3.401494927286095593e-01,-2.873459083357406407e-01,-1.999658432010300302e-01
9.270000000000000462e-01,1.609792044737762273e-01,-1.197650429949845691e-01,-9.112049591481427568e-02
9.280000000000000471e-01,-1.519954477867436482e-01,1.028749756007540928e-01,9.355702564042860103e-02
9.290000000000000480e-01,-2.931495182718806825e-01,2.869208614452538053e-01,1.808862869429739839e-01
9.300000000000000488e-01,-1.946774721965044974e-01,1.749605282333991929e-01,9.760189070911147458e-02
9.310000000000000497e-01,1.120799540151649343e-01,-9.353783716021185635e-02,-4.923191875838636017e-02
9.320000000000000506e-01,3.348543045681055541e-01,-2.652049653382850258e-01,-2.062714873727258535e-01
9.330000000000000515e-01,2.409571048874665777e-01,-2.278080547973767578e-01,-1.646986636823333794e-01
9.340000000000000524e-01,-7.608767151281770058e-02,5.270225034569444439e-02,1.823029339786274780e-02
9.350000000000000533e-01,-3.230914201085938187e-01,2.629369642499581605e-01,2.087112644347591250e-01
9.360000000000000542e-01,-2.702719200063813387e-01,2.162758145826397249e-01,1.601290667893056352e-01
9.370000000000000551e-01,5.003685105256713839e-03,1.705475473531624722e-02,-1.161058075324525145e-02
9.379999999999999449e-01,2.870842585046348150e-01,-2.404227363095665648e-01,-1.577039082476798526e-01
9.389999999999999458e-01,2.892558299083745621e-01,-2.504628307752777561e-01,-2.273556436819461346e-01
9.399999999999999467e-01,3.646580114801676459e-02,-1.686047606758333010e-03,-7.198710260158770746e-02
9.409999999999999476e-01,-2.359851628637960330e-01,1.964139083056715696e-01,1.393777270087268871e-01
9.419999999999999485e-01,-3.385886099044570496e-01,2.838954695948549545e-01,2.260082090033954105e-01
9.429999999999999494e-01,-9.454668600809321144e-02,7.397869205213530863e-02,7.647926581773283050e-02
9.439999999999999503e-01,2.217918117095250552e-01,-1.826465844639938996e-01,-1.011768788568109118e-01
9.449999999999999512e-01,3.368565176556517216e-01,-2.544456778281000697e-01,-1.847302581385522335e-01
9.459999999999999520e-01,1.733384173367346626e-01,-1.075116983447069047e-01,-9.348864963302691566e-02
9.469999999999999529e-01,-1.634362565486270347e-01,1.687439314587586003e-01,9.245564680410589542e-02
9.479999999999999538e-01,-3.188456151310647413e-01,2.555828242210000933e-01,2.205888806263943402e-01
9.489999999999999547e-01,-2.013900417823806244e-01,1.509045873699765838e-01,1.412331875412795312e-01
9.499999999999999556e-01,7.820539432900124044e-02,-1.415537630837916672e-01,-3.867531538731115714e-02
9.509999999999999565e-01,3.427691532143222752e-01,-2.615807272554017127e-01,-1.643567494399020557e-01
9.519999999999999574e-01,2.470723586874540578e-01,-1.712649926273135115e-01,-1.693422649190382268e-01
9.529999999999999583e-01,-2.404292691768330006e-02,8.972076165044140517e-02,1.718867577993993603e-02
9.539999999999999591e-01,-3.018378864794217797e-01,2.624199673608017536e-01,1.355617306213700857e-01
9.549999999999999600e-01,-2.881741560269984181e-01,2.175399253675742994e-01,1.966939441938552191e-01
9.559999999999999609e-01,-1.314110281530879096e-02,-4.834868395519959644e-02,4.145885409667444954e-02
9.569999999999999618e-01,2.985760874544625687e-01,-2.269259054570699485e-01,-1.384173891413223445e-01
9.579999999999999627e-01,3.061974345025693656e-01,-1.848749112407997164e-01,-2.111139910711555268e-01
9.589999999999999636e-01,4.033394010186489714e-02,1.726020448001737428e-02,-9.218778927585286054e-02
9.599999999999999645e-01,-2.431616733609411884e-01,2.431129324313453799e-01,8.861640600300532689e-02
9.609999999999999654e-01,-3.479652742619772088e-01,2.258324552995170098e-01,1.785181056315578718e-01
9.619999999999999662e-01,-1.068980921022455871e-01,2.155420198646155680e-02,1.170222709534371464e-01
9.629999999999999671e-01,2.064566404638228103e-01,-2.087642738197044434e-01,-3.847280649222041549e-02
9.639999999999999680e-01,3.644475135410513156e-01,-2.426893931606743660e-01,-1.857831509752645716e-01
9.649999999999999689e-01,1.933707429274176826e-01,-2.971155613153707645e-02,-1.790243440557043875e-01
9.659999999999999698e-01,-1.434371157550342057e-01,1.865166329733463635e-01,1.894706869669732924e-02
9.669999999999999707e-01,-3.268504392377248879e-01,2.469303152726322892e-01,2.039712487253467765e-01
9.679999999999999716e-01,-2.171566891452687276e-01,9.725789253905009479e-02,1.816699618525045856e-01
9.689999999999999725e-01,7.294544532529478875e-02,-2.044306365346909571e-01,4.381891323318369644e-04
9.699999999999999734e-01,2.919671267448643026e-01,-2.455280640306607698e-01,-1.899341151295275976e-01
9.709999999999999742e-01,2.653490655117303199e-01,-1.239929236156792625e-01,-2.116284434220991606e-01
9.719999999999999751e-01,-6.512863189612951020e-02,1.015381107070645744e-01,-7.028354716878504327e-02
9.729999999999999760e-01,-3.189088411189551220e-01,2.449862406068081255e-01,1.284596203661246827e-01
9.739999999999999769e-01,-3.008301077807188362e-01,1.802830500241075218e-01,2.233425018248977323e-01
9.749999999999999778e-01,-2.063631858376419048e-02,-7.848206288845301082e-02,8.692074165252436369e-02
9.759999999999999787e-01,2.659570706847673716e-01,-2.873174276444886988e-01,-1.060314790970944554e-01
9.769999999999999796e-01,3.143752748482153137e-01,-1.932160752682947347e-01,-2.034297611304279885e-01
9.779999999999999805e-01,8.432699713940663977e-02,5.244369807775457054e-02,-1.389323983638822146e-01
9.789999999999999813e-01,-2.339420183762053185e-01,2.667640448055170754e-01,4.137914972280554160e-02
9.799999999999999822e-01,-3.442132598497993357e-01,2.345454852067413443e-01,2.198395100251481216e-01
9.809999999999999831e-01,-1.103666518931265689e-01,-3.352177621041851907e-02,1.667866805554795162e-01
9.819999999999999840e-01,2.070710733159407124e-01,-2.170322807333679715e-01,-4.383021429877148600e-02
9.829999999999999849e-01,3.418701174947793575e-01,-2.391623053165046198e-01,-1.805555675018661321e-01
9.839999999999999858e-01,1.898446331659723041e-01,-4.895392884781185616e-02,-1.797370296496867970e-01
9.849999999999999867e-01,-1.523808480607173610e-01,2.340193873937436164e-01,-4.804926849271785178e-02
9.859999999999999876e-01,-3.331860648680049497e-01,2.524536032147727815e-01,1.807154157099860603e-01
9.869999999999999885e-01,-2.117496956413977560e-01,3.948010589982831747e-02,1.871749505144367498e-01
9.879999999999999893e-01,8.000303469905414855e-02,-1.950446194266146349e-01,9.428274359792182535e-02
9.889999999999999902e-01,3.441804359298803462e-01,-2.607093549306655489e-01,-1.420450995844858011e-01
9.899999999999999911e-01,2.761610872187288956e-01,-5.832055029601592583e-02,-2.386006381268035714e-01
9.909999999999999920e-01,-1.667651022365845837e-02,1.700819458848207566e-01,-1.159507102039302323e-01
9.919999999999999929e-01,-2.763093312251154732e-01,2.653670419991716045e-01,9.234597818642954759e-02
9.929999999999999938e-01,-3.004641107015770807e-01,1.359201570841156725e-01,2.120179540302443988e-01
9.939999999999999947e-01,-5.071460901182710951e-02,-1.254846412652229903e-01,1.316973473998452604e-01
9.949999999999999956e-01,2.674526444472818398e-01,-2.802342149757932610e-01,-5.031190105124388329e-02
9.959999999999999964e-01,3.396046356886561757e-01,-1.546086600090036955e-01,-1.803670408736629260e-01
9.969999999999999973e-01,8.462408481928172799e-02,1.027625197385795691e-01,-1.606738562115777869e-01
9.979999999999999982e-01,-2.702479898692186078e-01,2.207876845762413165e-01,-5.757003648595210646e-03
9.989999999999999991e-01,-3.404052154567530075e-01,1.914319672959253205e-01,1.860080060824859105e-01
1.000000000000000000e+00,-1.476354322013185283e-01,-6.768982220803047845e-02,1.647279183752137222e-01
1.000999999999999890e+00,1.920145695003794284e-01,-2.606397388001743809e-01,1.436066311908329451e-02
1.002000000000000002e+00,3.290999244507109567e-01,-2.338247863061284904e-01,-1.811212480279357218e-01
1.002999999999999892e+00,1.519976521979557738e-01,2.896062820442959693e-02,-1.947438315018183985e-01
1.004000000000000004e+00,-1.371821735721583946e-01,2.628286458449877183e-01,-5.381887849657650963e-02
1.004999999999999893e+00,-3.670647322199746543e-01,2.377313169805042870e-01,1.050823554586835795e-01
1.006000000000000005e+00,-2.324392874797935049e-01,4.521040879696620711e-03,2.243721093850047088e-01
1.006999999999999895e+00,1.200511376995094803e-01,-2.545653371277225574e-01,1.098479624045032160e-01
1.008000000000000007e+00,3.189747710613164422e-01,-2.469644502882691051e-01,-1.218143073576253982e-01
1.008999999999999897e+00,2.499160064570913053e-01,-3.399214146160420280e-02,-2.200939152158095102e-01
1.010000000000000009e+00,-6.726565153096784877e-02,1.791686392018574658e-01,-9.185076711620339396e-02
1.010999999999999899e+00,-3.065380666022624601e-01,3.082808461859574134e-01,4.135093555214994221e-02
1.012000000000000011e+00,-2.839402239577472065e-01,1.099049902713837845e-01,2.018352281988441133e-01
1.012999999999999901e+00,-2.854412070149362976e-02,-1.697219239769358623e-01,1.685075692176128404e-01
1.014000000000000012e+00,2.638637993252863634e-01,-2.870023471520960490e-01,-4.907237345805455508e-02
1.014999999999999902e+00,3.251209794504124617e-01,-9.122503561898798186e-02,-1.931977826149487154e-01
1.016000000000000014e+00,1.304858621892399373e-01,1.374439450448568800e-01,-1.905631293028369477e-01
1.016999999999999904e+00,-1.804241085270849310e-01,2.848074713143087799e-01,-4.038018800217937909e-02
1.018000000000000016e+00,-3.245534085737101226e-01,1.596018448612215035e-01,1.756076626802270113e-01
1.018999999999999906e+00,-1.094449334145514985e-01,-1.072433702824483609e-01,1.947492600181816857e-01
1.020000000000000018e+00,1.818877761522010028e-01,-2.956850343252452884e-01,6.139647436921312484e-02
1.020999999999999908e+00,2.944684699794024585e-01,-1.508718271606700467e-01,-1.174768785153060130e-01
1.022000000000000020e+00,2.068273418595097390e-01,7.442034210043817211e-02,-2.352293955616427956e-01
1.022999999999999909e+00,-1.397703521468333376e-01,2.333566879300957853e-01,-1.198087960477434571e-01
1.024000000000000021e+00,-3.394349443792777365e-01,1.701610270571251304e-01,9.812759157290001921e-02
1.024999999999999911e+00,-2.478187179186047695e-01,-5.071901002373500195e-02,2.074429520526535342e-01
1.026000000000000023e+00,7.727643583508364555e-02,-2.453906501621548331e-01,1.564384964549760670e-01
1.026999999999999913e+00,3.445796273395369536e-01,-2.083009236279859122e-01,-8.742129800531790729e-02
1.028000000000000025e+00,3.182228461629280636e-01,-1.400573888269769120e-02,-2.183689418012267625e-01
1.028999999999999915e+00,-3.704900625738453968e-02,2.275737593999189734e-01,-1.562794030299272385e-01
1.030000000000000027e+00,-2.824454091962012581e-01,2.579026233216260011e-01,6.631774968564871538e-03
1.030999999999999917e+00,-3.265655724864097720e-01,6.342508231565241461e-02,1.902785584299656607e-01
1.032000000000000028e+00,-3.918488852609804812e-02,-1.865072849850145098e-01,1.645123192196993878e-01
1.032999999999999918e+00,2.301601353561340546e-01,-2.803009806577031471e-01,7.409072862681965847e-03
1.034000000000000030e+00,2.858939705047598423e-01,-9.054730424286369650e-02,-1.444268994032918141e-01
1.034999999999999920e+00,1.120057685803471648e-01,1.877711177056918812e-01,-2.095725904282143282e-01
1.036000000000000032e+00,-2.105017434817691435e-01,2.670278519786165594e-01,-3.918683661509394373e-02
1.036999999999999922e+00,-3.443653579685860833e-01,1.204536944857334396e-01,1.199394017285158598e-01
1.038000000000000034e+00,-1.606842921708419303e-01,-1.276633891451958713e-01,2.359482191644624027e-01
1.038999999999999924e+00,1.468110122993504518e-01,-2.448371793828154896e-01,1.184312298199695357e-01
1.040000000000000036e+00,3.401627552756463779e-01,-1.673622303398561162e-01,-9.095515459517035384e-02
1.040999999999999925e+00,2.132819404308406441e-01,1.304450282848441112e-01,-1.845999615266640248e-01
1.042000000000000037e+00,-1.163509953813408881e-01,2.619548876787582969e-01,-1.298718863089929620e-01
1.042999999999999927e+00,-3.413114128034319683e-01,2.062605797363756266e-01,4.698208945489756871e-02
1.044000000000000039e+00,-2.722074182566395772e-01,-8.330489872490715042e-02,1.817866082945534256e-01
1.044999999999999929e+00,8.443241605841662889e-02,-2.493598023744659498e-01,1.435396881261590263e-01
1.046000000000000041e+00,2.869612587174806828e-01,-2.228989170197476222e-01,-7.217749894732342769e-03
1.046999999999999931e+00,3.086682734435731712e-01,5.488888767251350748e-02,-1.784620452086262965e-01
1.048000000000000043e+00,-3.136758211725157713e-03,2.249585278269957411e-01,-2.018047975638696812e-01
1.048999999999999932e+00,-2.798693893114367337e-01,2.189348609851171912e-01,-3.083829094581675215e-02
1.050000000000000044e+00,-3.249321324590895288e-01,-1.648044500926270847e-02,1.469110309162114103e-01
1.050999999999999934e+00,-7.864190381108891736e-02,-2.322033860859979981e-01,2.143033221292005019e-01
1.052000000000000046e+00,2.415310280345751570e-01,-2.523148144406229809e-01,9.331109851025295998e-02
1.052999999999999936e+00,3.169941453052575464e-01,-1.648171592728386869e-02,-1.234159916261397677e-01
1.054000000000000048e+00,9.309529937665558808e-02,2.368389269925163521e-01,-1.735431826115940435e-01
1.054999999999999938e+00,-1.881629303288513133e-01,2.593846864019223597e-01,-8.621221026957277822e-02
1.056000000000000050e+00,-3.484052933647300287e-01,8.259703435105943126e-02,8.787608448915443238e-02
1.056999999999999940e+00,-1.880498016882417578e-01,-1.435343526062742292e-01,1.935623156896635055e-01
1.058000000000000052e+00,1.707482445761587808e-01,-2.606169547748610205e-01,1.584702456594770936e-01
1.058999999999999941e+00,3.405353455298194554e-01,-8.947075154105808836e-02,-2.491132711778177786e-02
1.060000000000000053e+00,2.264152829942731038e-01,1.721442114874651153e-01,-1.893759485992170255e-01
1.060999999999999943e+00,-9.444113728778849581e-02,2.524835911112930376e-01,-1.627437972547350620e-01
1.062000000000000055e+00,-3.511040860014615350e-01,1.497494647461341255e-01,1.205626750237209386e-03
1.062999999999999945e+00,-2.354343808921297854e-01,-1.375657709157896147e-01,1.808668066106485228e-01
1.064000000000000057e+00,4.268496773119225679e-02,-2.791785240617706831e-01,1.823196427743949688e-01
1.064999999999999947e+00,2.945067743085592604e-01,-1.693874101425703327e-01,1.418889916759574418e-02
1.066000000000000059e+00,2.872880000221236241e-01,8.892267540571173468e-02,-1.745172175664556902e-01
1.066999999999999948e+00,-1.883474147895356637e-02,2.537733597340418035e-01,-2.159814464786609378e-01
1.068000000000000060e+00,-2.779699496354579580e-01,1.892872074982591968e-01,-9.129887207619830081e-02
1.068999999999999950e+00,-3.234674883285990066e-01,-2.142023779911951878e-02,9.921649872735804898e-02
1.070000000000000062e+00,-5.552134305285238991e-02,-2.268207544574361856e-01,1.776255323897643068e-01
1.070999999999999952e+00,2.477253661269235019e-01,-2.176816425371469188e-01,1.117432019571591439e-01
1.072000000000000064e+00,3.248654985844767751e-01,3.776208358711752224e-03,-7.477824180977760138e-02
1.072999999999999954e+00,1.235590323507273630e-01,2.047441140055667463e-01,-2.287231304808684806e-01
1.074000000000000066e+00,-1.983332799952250425e-01,2.306062968724048035e-01,-1.386998220703749285e-01
1.074999999999999956e+00,-3.225362315464424534e-01,4.435566613940697400e-02,1.966331339630760650e-02
1.076000000000000068e+00,-1.489920148558885049e-01,-2.105548601092820937e-01,1.851990635704429955e-01
1.076999999999999957e+00,1.608675247497589333e-01,-2.953215355689722821e-01,1.593062580125576555e-01
1.078000000000000069e+00,3.438014678173990646e-01,-7.818721890259626439e-02,-1.500136023401710608e-02
1.078999999999999959e+00,1.877781641962786296e-01,1.841996822566673853e-01,-1.678546293385351496e-01
1.080000000000000071e+00,-1.179087557693679483e-01,2.496138698281911150e-01,-1.620197899259905316e-01
1.080999999999999961e+00,-3.202252758217438156e-01,9.605771000338668431e-02,-4.169144868319527714e-02
1.082000000000000073e+00,-2.572388766979034624e-01,-1.561284809707775001e-01,1.621877856423004638e-01
1.082999999999999963e+00,2.811257346103006663e-02,-2.909291008468267159e-01,2.210508262737710672e-01
1.084000000000000075e+00,2.963676580614766354e-01,-1.476511525445716455e-01,6.620825892534773494e-02
1.084999999999999964e+00,3.132871489921897346e-01,1.288940545437634588e-01,-1.221106990846430457e-01
1.086000000000000076e+00,1.526143349939744140e-02,2.757487567204882639e-01,-2.100932724250311745e-01
1.086999999999999966e+00,-2.886159363389471655e-01,1.746570604891929668e-01,-9.475572316457434030e-02
1.088000000000000078e+00,-3.149077440856887788e-01,-7.196610746446520379e-02,7.237262905934524482e-02
1.088999999999999968e+00,-9.739779387995356474e-02,-2.648412224614523636e-01,1.902236928734040433e-01
1.090000000000000080e+00,2.025725054428503535e-01,-2.172438768324409242e-01,1.219513658157998226e-01
1.090999999999999970e+00,3.502714943853511009e-01,3.681449826985773444e-02,-5.107500385133530163e-03
1.092000000000000082e+00,1.044101341387212722e-01,2.427172639849639324e-01,-2.214241425824787224e-01
1.092999999999999972e+00,-2.177720921043331259e-01,2.382852305669822535e-01,-1.863595482409504123e-01
1.094000000000000083e+00,-3.319921751545905075e-01,-2.407435483253657447e-03,8.085127789450856362e-03
1.094999999999999973e+00,-1.831479779942834507e-01,-2.564889053169347455e-01,1.350112196845626167e-01
1.096000000000000085e+00,1.844934489405549161e-01,-2.478228999387057652e-01,1.929298415873481609e-01
1.096999999999999975e+00,3.487442656473005997e-01,-2.351113593869673737e-02,6.164321985536576343e-02
1.098000000000000087e+00,2.194839181118138915e-01,2.083268047953996116e-01,-1.567711320912021922e-01
1.098999999999999977e+00,-1.155939449543638836e-01,2.809874146812659790e-01,-1.955272086210179672e-01
1.100000000000000089e+00,-3.461180800077109931e-01,5.158121841908216987e-02,-1.025197939133857400e-01
1.100999999999999979e+00,-2.318463919956851582e-01,-1.611589166233353965e-01,1.048151795898947386e-01
1.102000000000000091e+00,5.433876417225033673e-02,-2.753283085181643663e-01,2.100644981294117752e-01
1.102999999999999980e+00,3.237958045984619670e-01,-1.144494395499014439e-01,1.428273621959515183e-01
1.104000000000000092e+00,2.603936632134793983e-01,1.590074788309309428e-01,-9.125438444807308647e-02
1.104999999999999982e+00,1.719914636948273803e-02,2.924397828862924653e-01,-1.886369288701141844e-01
1.106000000000000094e+00,-2.435233811093965584e-01,1.743673789478520919e-01,-1.383395219486680539e-01
1.106999999999999984e+00,-3.143963633225377863e-01,-1.118609236912280619e-01,3.243234665961533536e-02
1.108000000000000096e+00,-9.151180935450625720e-02,-2.660538333506290432e-01,1.956120878563971932e-01
1.108999999999999986e+00,2.085134281477702134e-01,-1.234276865635022119e-01,1.670217591763339948e-01
1.110000000000000098e+00,3.344660757058207090e-01,8.721655191956574626e-02,2.723075295267746165e-02
1.110999999999999988e+00,1.489507114595166604e-01,2.440112078589994349e-01,-1.741422400808229354e-01
1.112000000000000099e+00,-2.152255282840796757e-01,2.044199900169770545e-01,-2.125213362400122097e-01
1.112999999999999989e+00,-3.160675313689843557e-01,-6.560851168203014894e-02,-7.930816275273744331e-02
1.114000000000000101e+00,-1.850368029229172429e-01,-2.398576221813322196e-01,1.403339536395306897e-01
1.114999999999999991e+00,1.573692879709781556e-01,-2.118485476196140804e-01,1.990933208678672406e-01
1.116000000000000103e+00,3.310343958525918673e-01,1.930695193814267394e-02,1.051049486943393396e-01
1.116999999999999993e+00,2.411163519961076196e-01,2.495639426767167490e-01,-8.653661221719095853e-02
1.118000000000000105e+00,-9.432897809133800049e-02,2.310063336625384212e-01,-2.043361677799162557e-01
1.118999999999999995e+00,-3.577873575930538563e-01,2.135209602641246693e-02,-1.277115348321773425e-01
1.120000000000000107e+00,-2.569760507666488669e-01,-2.080085899454958975e-01,8.014731197889274350e-02
1.120999999999999996e+00,3.901600684022673432e-02,-2.597916786317391313e-01,2.224968981545520641e-01
1.122000000000000108e+00,2.820648122711452710e-01,-6.316786860376032153e-02,1.646561256299972353e-01
1.122999999999999998e+00,3.053662005906331856e-01,2.118082919769402050e-01,-4.351325518418497351e-02
1.124000000000000110e+00,4.766959077632824948e-02,2.928496500592963625e-01,-1.892576934378030762e-01
1.125000000000000000e+00,-2.701493445338326582e-01,1.045659747231296871e-01,-2.248638534910950559e-01
1.125999999999999890e+00,-3.049001615974908375e-01,-1.773014117270902135e-01,1.410916924416127580e-02
1.127000000000000002e+00,-1.002631221158172548e-01,-2.307597259395796352e-01,2.097883661215572682e-01
1.127999999999999892e+00,1.910217136888732181e-01,-1.368882915435766234e-01,2.040297526301750874e-01
1.129000000000000004e+00,3.366753341679100675e-01,1.178092815977403590e-01,4.772044664313355999e-02
1.129999999999999893e+00,1.746963532636858496e-01,2.747693349148810915e-01,-1.016324338273234817e-01
1.131000000000000005e+00,-1.706891648713676213e-01,1.735286010660140321e-01,-1.756175929078173659e-01
1.131999999999999895e+00,-3.380067863379061510e-01,-8.965044248346894229e-02,-9.823314070650357444e-02
1.133000000000000007e+00,-1.957269322545186763e-01,-2.686336151916313697e-01,1.252873172721616635e-01
1.133999999999999897e+00,1.313522269815438626e-01,-1.887140489736738036e-01,1.785296746521005673e-01
1.135000000000000009e+00,3.261267729435057827e-01,7.670543028112859762e-02,1.347537771905558679e-01
1.135999999999999899e+00,2.572534253589759956e-01,2.361467850401860469e-01,-9.365386140991815989e-02
1.137000000000000011e+00,-5.832586860243039323e-02,2.265238487314155946e-01,-1.995401146147530447e-01
1.137999999999999901e+00,-3.351737061681127616e-01,-2.078432092329571962e-02,-1.429631415016441032e-01
1.139000000000000012e+00,-2.793063511370625918e-01,-2.438593669836689182e-01,4.042662572390429143e-02
1.139999999999999902e+00,-5.756596151910594455e-03,-1.735056575137444712e-01,1.832331122090511133e-01
1.141000000000000014e+00,2.786553898253265604e-01,-2.275561190295444236e-02,1.987798370315988772e-01
1.141999999999999904e+00,3.181175889016800151e-01,2.356975399590483244e-01,-5.054279580957614544e-03
1.143000000000000016e+00,5.809902720600795822e-02,2.637123183521792869e-01,-1.658273854035120232e-01
1.143999999999999906e+00,-2.570878757594044495e-01,3.994877786248107743e-02,-2.217387548663519170e-01
1.145000000000000018e+00,-3.389754002107190356e-01,-1.903299222008543179e-01,-4.650690168222469667e-02
1.145999999999999908e+00,-1.080093815253321543e-01,-2.443970965513799221e-01,1.153496897918154240e-01
1.147000000000000020e+00,2.034958471578065531e-01,-9.647765299352266399e-02,2.249461771658469167e-01
1.147999999999999909e+00,3.307909563480969095e-01,1.478632193144610307e-01,5.014253097485772692e-02
1.149000000000000021e+00,2.042955559099366436e-01,2.408959117977776121e-01,-1.127808278912624806e-01
1.149999999999999911e+00,-1.775037576390356975e-01,1.038602580175651963e-01,-1.932434560619392672e-01
1.151000000000000023e+00,-3.303878304528274357e-01,-1.230136214783449505e-01,-1.427269830355687719e-01
1.151999999999999913e+00,-2.060915067039486015e-01,-2.704625798523955238e-01,6.956734076564780045e-02
1.153000000000000025e+00,9.122571398297878165e-02,-1.550044454122716797e-01,2.005812800258602591e-01
1.153999999999999915e+00,3.407388103574735538e-01,1.198515558991510299e-01,1.424944909349384614e-01
1.155000000000000027e+00,2.290027118520189253e-01,2.444511148732214645e-01,-4.152787937510406258e-02
1.155999999999999917e+00,-4.425012484512767102e-02,1.938370155024340402e-01,-1.966671959892455079e-01
1.157000000000000028e+00,-3.249602289040125491e-01,-6.776738915826532872e-02,-2.084898269534924686e-01
1.157999999999999918e+00,-3.020311866255649402e-01,-2.421677844530563950e-01,-5.032233180952515317e-02
1.159000000000000030e+00,1.201237139460377586e-02,-2.297372300322738092e-01,1.734526656633356700e-01
1.159999999999999920e+00,2.470039614404378747e-01,3.711046710452715197e-02,2.057070992518555963e-01
1.161000000000000032e+00,3.371234099517911864e-01,2.533473365332157834e-01,6.755097851231188499e-02
1.161999999999999922e+00,8.458592727486863305e-02,2.551041992967997274e-01,-1.112927771486676709e-01
1.163000000000000034e+00,-2.522741739000120553e-01,2.091596284623370439e-02,-2.193952129878587454e-01
1.163999999999999924e+00,-3.562466532968943667e-01,-2.156204413487960714e-01,-9.302946677450454893e-02
1.165000000000000036e+00,-1.277253721311320533e-01,-2.465486192654331443e-01,1.047282342551425910e-01
1.165999999999999925e+00,2.110136484060171624e-01,-3.271342563909111073e-02,2.004211864133213783e-01
1.167000000000000037e+00,3.563609958966543201e-01,2.199497757284193389e-01,1.214946923215165786e-01
1.167999999999999927e+00,1.694094385476511977e-01,2.640133249889961564e-01,-7.138819783553096432e-02
1.169000000000000039e+00,-1.580191557157917259e-01,1.010287571252502514e-01,-2.066771190032215544e-01
1.169999999999999929e+00,-3.321611812437968436e-01,-1.870401312480395040e-01,-1.661606728390837562e-01
1.171000000000000041e+00,-2.216735932610930104e-01,-2.804391301004950376e-01,2.437197850027497670e-02
1.171999999999999931e+00,1.305696244941052520e-01,-8.473615984410844126e-02,1.797180228155611514e-01
1.173000000000000043e+00,3.491957185817776144e-01,1.414524941601093544e-01,1.630553759059911734e-01
1.173999999999999932e+00,2.725056604883148714e-01,2.633099458441503504e-01,-1.457442075683167484e-02
1.175000000000000044e+00,-4.425087602582148533e-02,1.121276424617401596e-01,-1.691228535877042360e-01
1.175999999999999934e+00,-3.518232416794719319e-01,-7.810847799852962958e-02,-1.573211516935098531e-01
1.177000000000000046e+00,-2.863431793333666153e-01,-2.697708297997913895e-01,-1.095332232055371557e-01
1.177999999999999936e+00,-2.680713954181446895e-02,-1.633955709888292585e-01,1.097608453475077545e-01
1.179000000000000048e+00,2.574923236385072145e-01,5.048983636987517537e-02,1.875652023736102958e-01
1.179999999999999938e+00,2.986118306342733786e-01,2.514174592477054770e-01,1.127252031464291288e-01
1.181000000000000050e+00,6.197815851315050667e-02,1.777083184527892823e-01,-7.800823297857818750e-02
