time,acc_x,acc_y,acc_z
0.000000000000000000e+00,-4.612354776118261779e-02,1.714491512511044299e-02,-6.550612585492429640e-02
1.000000000000000021e-03,-2.211190008842407392e-02,1.498587921316057829e-02,-2.990037776922105373e-02
2.000000000000000042e-03,-1.826927651261942009e-02,4.173887828632717040e-02,-1.989803435158909312e-02
3.000000000000000062e-03,-6.379840382889371588e-03,8.347889290489809988e-02,-2.920901978827566622e-02
4.000000000000000083e-03,3.430263911264517639e-03,7.195227529510610232e-02,-1.798259141912973702e-02
5.000000000000000104e-03,9.002217831693394567e-02,7.656318625679338352e-02,-4.297949680784877297e-02
6.000000000000000125e-03,5.454189716373076396e-02,7.505854781070965542e-02,1.424425383147573908e-02
7.000000000000000146e-03,6.588052467548818902e-02,8.785558242861871148e-02,-1.149605727952405371e-02
8.000000000000000167e-03,7.878646806830204297e-02,8.339622003504275349e-02,1.067127745002561905e-02
8.999999999999999320e-03,3.029870555250429795e-02,8.066985489130383546e-02,4.919141903357535789e-02
1.000000000000000021e-02,6.337580111855715959e-02,4.629770674094245420e-02,2.690829561293689443e-02
1.099999999999999936e-02,5.124774061715117041e-02,7.371644826245699056e-02,3.983603557861164352e-02
1.200000000000000025e-02,1.386845522741738668e-01,6.083156346605965437e-02,3.728818439542330720e-02
1.299999999999999940e-02,9.659652782460283194e-02,5.551630559783000268e-02,1.669030374434455136e-02
1.400000000000000029e-02,9.892606535233787468e-02,3.622731603992011828e-02,6.179016305434822942e-02
1.499999999999999944e-02,8.034132468562615870e-02,5.886049504605308375e-02,5.579301934861805035e-02
1.600000000000000033e-02,1.199763277175484033e-01,1.217463389372054096e-02,6.970854578886787056e-02
1.700000000000000122e-02,8.448405885131811399e-02,2.233157586220949412e-02,7.326386192402199737e-02
1.799999999999999864e-02,8.114908492962133457e-02,3.927793598877465583e-03,6.133257769898085160e-02
1.899999999999999953e-02,7.555612046205392729e-02,4.715274223887516714e-02,7.374112358582009252e-02
2.000000000000000042e-02,6.964696708830571403e-02,-2.155906584898636610e-02,6.802951503094491204e-02
2.100000000000000130e-02,6.445804021081663615e-02,-2.840357990695186949e-02,6.656510533881884739e-02
2.199999999999999872e-02,1.907936410786804579e-03,-3.703579790429090135e-02,6.023525790470554003e-02
2.299999999999999961e-02,-2.502992382973654936e-02,-5.053692322257274244e-02,3.250732232677730482e-02
2.400000000000000050e-02,-1.094428691571186670e-02,-5.291112371609763693e-02,3.374728838351152144e-02
2.500000000000000139e-02,-3.783575307919824797e-04,-5.652890090858898181e-02,4.303300051642592466e-02
2.599999999999999881e-02,-1.795906894307255225e-02,-6.186819377469953557e-02,-5.692566099551284349e-03
2.699999999999999969e-02,-2.387313342414659756e-02,-1.014383172796735205e-01,-9.252562092136156977e-03
2.800000000000000058e-02,-3.443377145726415900e-02,-7.948143294898853128e-02,-1.731243889306381288e-03
2.900000000000000147e-02,-4.004113495189047522e-02,-1.169948397902739190e-01,-1.552040362658169310e-02
2.999999999999999889e-02,-9.456822294030770015e-02,-5.534541944730615726e-02,-1.394004362828439245e-02
3.099999999999999978e-02,-1.342175184269509547e-01,-9.372737780330847590e-02,-1.510094902711434615e-02
3.200000000000000067e-02,-8.703770908206380497e-02,-4.684444433919977835e-02,-6.328458918392311505e-02
3.300000000000000155e-02,-9.656668145833587069e-02,-9.834991982010179989e-02,-3.580625297806212803e-02
3.400000000000000244e-02,-1.063727591433168695e-01,-6.292361215453862178e-02,-3.843065722774273441e-02
3.500000000000000333e-02,-1.183983124706312617e-01,-6.149298946872180927e-02,-5.357688735907947114e-02
3.599999999999999728e-02,-8.403836719622617690e-02,-5.673640116302712533e-02,-5.472565207170720925e-02
3.699999999999999817e-02,-9.538906830816769322e-02,-4.990261945428286182e-03,-2.601567251699225813e-02
3.799999999999999906e-02,-9.458157545803644317e-02,1.002885668051037640e-02,-4.241033995720770028e-02
3.899999999999999994e-02,-1.039833571656213762e-01,-2.836832116077236607e-02,-5.719424373777531878e-02
4.000000000000000083e-02,-5.899610113495006719e-02,-1.604355516862952802e-02,-3.531039631409542412e-02
4.100000000000000172e-02,-4.805666982403661996e-02,-2.513721515167059522e-04,-4.395227041320762251e-02
4.200000000000000261e-02,-5.103356344097811220e-02,4.150745323979372799e-03,-6.213290087748675472e-02
4.299999999999999656e-02,-2.242900020492423832e-02,-1.901163684592046405e-02,-4.351609247088423366e-02
4.399999999999999745e-02,-5.551365218407825625e-02,4.392881168414168591e-02,-2.444337162593449367e-02
4.499999999999999833e-02,1.068667723013808080e-02,4.287690462084775556e-02,-3.328485260706460364e-02
4.599999999999999922e-02,-1.518950368687865295e-02,3.947696562150102007e-02,-3.386475786692862144e-02
4.700000000000000011e-02,1.412400265567889147e-02,1.081786791560162969e-01,-3.167676527902434092e-02
4.800000000000000100e-02,5.087472910810083432e-02,6.959991327433803776e-02,-1.682138050956649006e-02
4.900000000000000189e-02,6.911547957472809200e-02,8.310521179172117301e-02,-2.405414921942009010e-02
5.000000000000000278e-02,9.020245211651216344e-02,1.074245991195877381e-01,1.021414192376378371e-02
5.099999999999999672e-02,9.566137252880124731e-02,9.887859224376684131e-02,-4.571945825349002686e-03
5.199999999999999761e-02,8.457104054326274045e-02,4.807964490538040037e-02,1.544203864835865143e-02
5.299999999999999850e-02,9.259154963109722525e-02,4.338798111423301795e-02,1.747947982709331660e-02
5.399999999999999939e-02,1.038294081608589076e-01,5.604584935172712140e-02,2.364690047911319898e-02
5.500000000000000028e-02,9.793369010368971339e-02,7.208229209477881594e-02,4.042908289005319594e-02
5.600000000000000117e-02,1.124766282801749201e-01,6.270462327888809417e-02,7.322601193993315272e-02
5.700000000000000205e-02,1.095356093003906767e-01,6.344572925594973989e-02,2.494914960179244259e-02
5.800000000000000294e-02,1.391485410754211560e-01,4.015501790694464557e-02,7.033712809733279336e-02
5.899999999999999689e-02,6.682478557213671067e-02,3.000074143563923046e-02,7.411165967104647867e-02
5.999999999999999778e-02,1.029851031355399626e-01,2.354313051464033968e-02,6.086091661359359362e-02
6.099999999999999867e-02,1.050083738468403083e-01,-1.816064612144931145e-02,7.503956820837910657e-02
6.199999999999999956e-02,5.036828847585277102e-02,4.400773271687090545e-03,7.205495203746066502e-02
6.300000000000000044e-02,4.571435950954687299e-02,-6.081440076867512812e-02,5.103789802235268735e-02
6.400000000000000133e-02,9.694554367806576187e-03,-3.299559395825932273e-02,8.674827254176804836e-02
6.500000000000000222e-02,3.450538572162346884e-02,-5.982956503357881456e-02,6.309511122057058496e-02
6.600000000000000311e-02,-3.397422163931748153e-03,-7.148039774429262860e-02,4.884984392583772983e-03
6.700000000000000400e-02,-1.573145119672125433e-02,-5.206372803550098766e-02,4.701622803502798764e-02
6.800000000000000488e-02,-2.744276395918439360e-02,-5.377787998012167892e-02,4.577714391727577548e-02
6.900000000000000577e-02,-3.458714567693671471e-02,-8.060640991821774182e-02,1.127986239588442234e-02
7.000000000000000666e-02,-2.969557509200079770e-02,-1.004087904093253769e-01,6.901141874380878859e-03
7.099999999999999367e-02,-5.577829264291822575e-02,-8.490650204663507949e-02,-2.228770947740741845e-02
7.199999999999999456e-02,-6.541386154253604757e-02,-6.700776477923771346e-02,1.085471537170407987e-02
7.299999999999999545e-02,-7.245604648060328945e-02,-8.975782655640313079e-02,-4.959375099632566328e-03
7.399999999999999634e-02,-6.386124222368749770e-02,-7.709812659398761203e-02,-3.097150162518805608e-02
7.499999999999999722e-02,-1.183094109122275334e-01,-4.886941353152313150e-02,-8.863086708143796955e-02
7.599999999999999811e-02,-1.052071257817813882e-01,-6.214309186541616681e-02,-3.680397541024112845e-02
7.699999999999999900e-02,-1.272581944056648262e-01,-6.720020281173828824e-02,-5.590878940043741974e-02
7.799999999999999989e-02,-1.279423291364290283e-01,-1.100741933431396008e-01,-6.261601440042993683e-02
7.900000000000000078e-02,-1.124898419670087302e-01,-6.113090384276535783e-02,-1.046566300617017692e-01
8.000000000000000167e-02,-1.154752369437631321e-01,-2.078876462739059211e-02,-6.189332420620266562e-02
8.100000000000000255e-02,-7.175721648198597757e-02,-2.353553326929250927e-02,-6.676321710398881726e-02
8.200000000000000344e-02,-8.015404639858934865e-02,4.366103285951818819e-02,-5.978831465415621049e-02
8.300000000000000433e-02,-6.509805019418671290e-02,3.389920843081591778e-02,-6.659721902938639526e-02
8.400000000000000522e-02,-3.378033304756352523e-02,4.187294380138836120e-02,-5.682962284288301663e-02
8.500000000000000611e-02,-6.683272439259921316e-02,1.506243915762762314e-02,-3.010372219579895980e-02
8.599999999999999312e-02,-3.964943751096901281e-02,3.559579142728381412e-02,-3.211193234761051257e-02
8.699999999999999400e-02,1.444239162839238040e-02,4.387814184389123018e-02,-3.102192358623745080e-02
8.799999999999999489e-02,-1.996983309655409392e-02,5.640382848083026063e-02,-6.927894117312215216e-02
8.899999999999999578e-02,2.370600068368893670e-02,5.506953104583083014e-02,-4.833088446976628594e-02
8.999999999999999667e-02,6.222586007245076850e-02,5.064346060533750360e-02,-5.764275397976310888e-03
9.099999999999999756e-02,2.769419915366276921e-02,7.282743843859286470e-02,-1.944334723111436000e-02
9.199999999999999845e-02,5.005956693038077221e-02,9.199754361605261277e-02,-2.970469486398000757e-03
9.299999999999999933e-02,1.087913954561513519e-01,9.182882053495336483e-02,-2.567245627118417643e-03
9.400000000000000022e-02,8.178284743099217824e-02,6.179092117976769244e-02,6.901355822197253499e-03
9.500000000000000111e-02,7.842697921980298914e-02,8.388187684373772657e-02,4.182508430186634291e-03
9.600000000000000200e-02,1.288935299587606886e-01,7.598189414896333593e-02,1.420380026266343867e-02
9.700000000000000289e-02,1.014748920818912686e-01,1.053132883237711953e-01,4.617042484742556879e-02
9.800000000000000377e-02,1.512866231347842760e-01,5.947783773586910044e-02,4.312740970073850738e-02
9.900000000000000466e-02,1.150395718454923638e-01,6.299546150523108179e-02,6.438198994819366305e-02
1.000000000000000056e-01,7.935636129718501297e-02,4.322813691148619936e-02,5.967506133051469347e-02
1.010000000000000064e-01,8.643908460047632081e-02,2.316768442273684989e-02,2.286833441429706598e-02
1.019999999999999934e-01,1.118939852405846092e-01,3.770609123478180225e-02,9.803600193465672463e-02
1.029999999999999943e-01,9.480720217510375802e-02,-2.502699402848567161e-03,8.170023241232231281e-02
1.039999999999999952e-01,8.471630747625392976e-02,-1.973928070755468986e-03,9.713227972415136580e-02
1.049999999999999961e-01,4.299844662072437734e-02,-2.586551948336417162e-02,2.720946574198711623e-02
1.059999999999999970e-01,4.656858006204574185e-02,-3.050406986157527464e-02,7.439784775398997074e-02
1.069999999999999979e-01,2.495786744665208848e-02,-2.391826107729630793e-02,6.639122210964044923e-02
1.079999999999999988e-01,3.856224340590832383e-02,-2.621300939550909662e-02,2.410969304108784295e-02
1.089999999999999997e-01,-6.610390954436104645e-03,-7.170002697510038936e-02,6.168466248068640856e-02
1.100000000000000006e-01,-1.946815222917856053e-02,-5.914926657213444988e-02,8.445634573617251395e-03
1.110000000000000014e-01,-5.181374784510910797e-02,-6.542666666993730840e-02,2.022921005319790883e-02
1.120000000000000023e-01,-5.130225834395039930e-02,-9.024755957039898302e-02,1.876109406772384983e-02
1.130000000000000032e-01,-7.717153930808456908e-02,-7.904485084955495400e-02,-1.060291039044312933e-02
1.140000000000000041e-01,-8.983468085917042933e-02,-5.201213432145451038e-02,-2.396909950274730278e-02
1.150000000000000050e-01,-9.086016992525677849e-02,-9.091474471328572782e-02,-1.822360852987427865e-02
1.160000000000000059e-01,-7.892844118557997002e-02,-8.529432863583423508e-02,-1.483906940851762411e-02
1.170000000000000068e-01,-9.732592032415215977e-02,-7.097899113911559921e-02,-1.049286035489501757e-02
1.179999999999999938e-01,-1.132829630566096202e-01,-7.561908761254365618e-02,-6.112412928207253127e-02
1.189999999999999947e-01,-1.150809625080475851e-01,-9.871546054992393071e-02,-4.015354573481769856e-02
1.199999999999999956e-01,-7.969400332376913587e-02,-3.272737496689099440e-02,-6.779611108214909920e-02
1.209999999999999964e-01,-7.862628687490087753e-02,-3.929471317546923831e-02,-7.650782298682448634e-02
1.219999999999999973e-01,-9.361174671055554064e-02,-5.264739056316108945e-02,-8.188649148022356106e-02
1.229999999999999982e-01,-1.011634069138730718e-01,-1.890222386743182353e-02,-4.850591648153796537e-02
1.239999999999999991e-01,-5.329108348456880473e-02,-7.731467345818326779e-03,-6.060097257441487972e-02
1.250000000000000000e-01,-7.603308825464720477e-02,-8.714954615111340406e-05,-4.819276134731209638e-02
1.260000000000000009e-01,-6.430107458282373345e-02,2.166314335516113937e-03,-8.044158127457640139e-02
1.270000000000000018e-01,-6.301054516230174263e-02,2.980028837352144064e-02,-6.699468805643553349e-02
1.280000000000000027e-01,-3.725803920102591787e-02,2.584295924546542444e-02,-4.343621866678873400e-02
1.290000000000000036e-01,2.029787297940716106e-02,5.786634770457314836e-02,-4.249696192897067792e-02
1.300000000000000044e-01,1.405942221108811944e-02,5.518393405627315673e-02,-1.903648286101706708e-02
1.310000000000000053e-01,5.093870800087176715e-02,6.782819505123288684e-02,-2.759813101537253802e-02
1.320000000000000062e-01,3.484321244024096709e-02,1.107313513936926813e-01,-6.753266973892743663e-02
1.330000000000000071e-01,6.631375279776029197e-02,6.231104876955981947e-02,-2.205919254022855464e-03
1.340000000000000080e-01,5.564290415885234792e-02,1.340608305440093573e-01,-7.539175108614526617e-03
1.350000000000000089e-01,1.024396363489222112e-01,1.098262036152553855e-01,2.332524276670835256e-02
1.360000000000000098e-01,8.059056496144884063e-02,1.025797205442528365e-01,-1.054319431041498417e-02
1.370000000000000107e-01,9.373368965426932820e-02,1.141047786089786908e-01,8.612445975347407046e-04
1.380000000000000115e-01,1.057886944797540585e-01,7.411424456405592276e-02,4.242549276349795451e-02
1.390000000000000124e-01,7.666143047047870029e-02,9.846756307529219709e-02,4.709755345862634557e-02
1.400000000000000133e-01,8.862828329879482436e-02,9.725817558786391259e-02,1.641754731071247767e-02
1.409999999999999865e-01,1.043450628840769390e-01,3.676067912168589497e-02,5.583631517596130550e-02
1.419999999999999873e-01,1.401581351347692128e-01,6.047644679340592744e-02,2.994420045348228365e-02
1.429999999999999882e-01,9.060770690265075589e-02,3.993843269995697720e-02,3.703570408449292223e-02
1.439999999999999891e-01,6.629384616841312028e-02,1.815733428285094472e-02,9.256630206426877394e-02
1.449999999999999900e-01,7.932481197922902627e-02,1.043015735393715455e-02,3.038768164039188160e-02
1.459999999999999909e-01,7.670491112594690630e-02,-2.085644386364302744e-02,8.248983333086776226e-02
1.469999999999999918e-01,7.512649685834901780e-02,-3.440902275212095324e-02,3.877097183069627001e-02
1.479999999999999927e-01,1.873647898253593194e-02,-1.208543141911034603e-02,7.480854670375255977e-02
1.489999999999999936e-01,4.161006949339384614e-02,-2.804034508133609535e-02,4.275612077534115402e-02
1.499999999999999944e-01,-8.172483981765663041e-03,-4.132884875686296255e-02,3.147549322976800346e-02
1.509999999999999953e-01,1.626482724935192359e-02,-3.251524819919122955e-02,3.579400308955364013e-02
1.519999999999999962e-01,-5.540348378700835075e-03,-6.650865933482687231e-02,5.394253661175079512e-02
1.529999999999999971e-01,-2.561054776773257630e-02,-5.893366157611253098e-02,2.511879776252290766e-02
1.539999999999999980e-01,-3.866786983525206250e-02,-5.920066308081743667e-02,4.280292515523045904e-02
1.549999999999999989e-01,-3.127753941808003590e-02,-8.358994830864718839e-02,2.590473129690034140e-02
1.559999999999999998e-01,-7.206538642463285183e-02,-9.817184015796980023e-02,2.775279866684708663e-02
1.570000000000000007e-01,-5.233907204630543208e-02,-6.070166704534906560e-02,2.420761569040233430e-02
1.580000000000000016e-01,-8.602731798558527210e-02,-1.104541040378360650e-01,4.746525372250716066e-03
1.590000000000000024e-01,-7.528872769059449799e-02,-8.264419734093701730e-02,-2.616958126766546003e-02
1.600000000000000033e-01,-1.100802334466930710e-01,-7.086428589757354235e-02,-2.220596259553329899e-02
1.610000000000000042e-01,-1.183098699328519049e-01,-1.063980870580915200e-01,-6.712546850404726984e-02
1.620000000000000051e-01,-1.003474673244597326e-01,-3.814128039887971361e-02,-6.040077424422665708e-02
1.630000000000000060e-01,-1.090800244135940872e-01,-5.904204539085382980e-02,-3.244566138341923450e-02
1.640000000000000069e-01,-7.845419263176953151e-02,-2.564770712021099616e-02,-2.294695952120079374e-02
1.650000000000000078e-01,-1.106788888115167180e-01,-2.587804092382959414e-02,-9.335246356327980832e-02
1.660000000000000087e-01,-5.987756222050053673e-02,-5.864700867072117352e-02,-7.460335256277003668e-02
1.670000000000000095e-01,-6.050267404546638000e-02,-9.677516474395008242e-03,-6.208691054268547505e-02
1.680000000000000104e-01,-6.802618060717029180e-02,-7.329413525254651306e-03,-5.509543104083025611e-02
1.690000000000000113e-01,-3.367398818645806619e-02,-2.501648931653727018e-04,-9.355805343025946907e-02
1.700000000000000122e-01,-7.427078927421118526e-02,6.601854723637586020e-02,-7.065217686765871974e-02
1.710000000000000131e-01,-4.620090409861005165e-02,5.020981280208924175e-02,-3.315432189376068400e-02
1.719999999999999862e-01,-3.524955099635051700e-03,4.000460551484155691e-02,-5.564517549645657535e-02
1.729999999999999871e-01,-7.855157602121284888e-03,3.129968452950244312e-02,-8.049749828039548527e-03
1.739999999999999880e-01,4.789824449619342617e-02,9.292128624980595941e-02,-5.552637531043974617e-02
1.749999999999999889e-01,3.622446743501793465e-02,6.024494770345083933e-02,-5.829680155056727459e-02
1.759999999999999898e-01,3.246535330256857671e-02,6.487924711168518987e-02,-2.169280529634111040e-02
1.769999999999999907e-01,7.099943823092433326e-02,7.308721554789422703e-02,-2.918750805436740384e-02
1.779999999999999916e-01,9.135643820993619157e-02,6.894057511859871812e-02,4.394186972875227006e-03
1.789999999999999925e-01,5.622881890967870722e-02,6.595819318536817744e-02,8.209461446361959042e-03
1.799999999999999933e-01,1.070102151877554558e-01,8.284903819555264337e-02,2.742355515750014017e-02
1.809999999999999942e-01,7.192747285926974488e-02,6.544850144849294338e-02,9.666837392399742213e-04
1.819999999999999951e-01,1.168188757067930988e-01,6.046046069488891089e-02,-4.361237643336080688e-02
1.829999999999999960e-01,1.016856770006899363e-01,6.652757412708984464e-02,2.847348347581002762e-02
1.839999999999999969e-01,9.791969605922155873e-02,-3.996303784010180223e-03,4.681522429100233584e-02
1.849999999999999978e-01,1.236130418908902712e-01,2.579421445875008240e-02,4.768574363299553365e-02
1.859999999999999987e-01,1.037232993410948101e-01,2.488429010864748325e-02,8.195589435468904338e-02
1.869999999999999996e-01,1.056173435764251739e-01,-1.027488893269523119e-02,6.690272211329184593e-02
1.880000000000000004e-01,9.646666905841638773e-02,2.058381888593754927e-02,6.431107439536160042e-02
1.890000000000000013e-01,9.678904115434996958e-02,-5.496761054122896450e-03,3.858973665565387096e-02
1.900000000000000022e-01,6.483496201891185418e-02,-2.687189414449525637e-02,7.359104160717369614e-02
1.910000000000000031e-01,4.494417210572370508e-02,-4.474135177743778641e-02,6.828945345659714894e-02
1.920000000000000040e-01,3.300495149317359683e-02,-4.209633567566688911e-02,1.688209704524965687e-02
1.930000000000000049e-01,2.438296177666504725e-03,-5.168404419883300405e-02,7.570267369491213982e-02
1.940000000000000058e-01,-9.292189460974435017e-03,-7.631617235315399372e-02,4.812594032038623737e-02
1.950000000000000067e-01,-2.392904807536075287e-03,-1.056520693553281154e-01,2.266780966225682981e-02
1.960000000000000075e-01,-6.779688279101327153e-02,-8.539753664087418317e-02,2.845702767440273784e-02
1.970000000000000084e-01,4.941972136370862724e-03,-8.029508915277340508e-02,2.643318094836915808e-02
1.980000000000000093e-01,-9.689423761655673040e-02,-8.572021187792411290e-02,1.518264552761249345e-02
1.990000000000000102e-01,-4.704283996344808816e-02,-7.256807857238867232e-02,8.503126442384090905e-03
2.000000000000000111e-01,-8.246933241107842760e-02,-7.360682524909183122e-02,8.606795611612471156e-03
2.010000000000000120e-01,-8.868409793061225732e-02,-8.248745187098172060e-02,3.177114995557915166e-03
2.020000000000000129e-01,-6.999715924010925516e-02,-1.055828113487276149e-01,-3.262654419539273709e-02
2.030000000000000138e-01,-1.061539748570851233e-01,-5.041484221985834124e-02,-3.763961047805639004e-02
2.039999999999999869e-01,-1.041056224493817906e-01,-3.774050870950827752e-02,-4.925291210408844905e-02
2.049999999999999878e-01,-1.162319026501231756e-01,-3.039704451577972602e-02,-3.030398590276482673e-02
2.059999999999999887e-01,-9.632118970383334033e-02,1.636491130105462329e-03,-9.027363631682262107e-03
2.069999999999999896e-01,-1.216440236324845270e-01,-5.630036646693689639e-03,-5.097202356878269280e-02
2.079999999999999905e-01,-1.083331895217098800e-01,7.974553480801198010e-03,-7.634206764474010809e-02
2.089999999999999913e-01,-1.143492219513548430e-01,2.153387143957830388e-02,-5.590287232805104395e-02
2.099999999999999922e-01,-9.327561530539817125e-02,-1.485877695999918667e-02,-7.323926661688180684e-02
2.109999999999999931e-01,-8.153765010419630754e-02,4.726875559475212513e-02,-4.653742721639939073e-02
2.119999999999999940e-01,-4.184053952065672211e-02,4.049968465581040011e-02,-8.234262938532482812e-02
2.129999999999999949e-01,-5.039268540287974302e-02,1.129986049282135918e-01,-7.507185771868762902e-02
2.139999999999999958e-01,5.523579488167359650e-03,5.655557323347549376e-02,-4.510563630389947953e-02
2.149999999999999967e-01,-2.276479846644123214e-02,2.339798103909620369e-02,-5.708308062896222390e-02
2.159999999999999976e-01,2.627223834561291747e-03,6.225960420607896256e-02,-5.520841618966280950e-02
2.169999999999999984e-01,1.474989009307054073e-02,8.751248019029865544e-02,5.584247957414044394e-03
2.179999999999999993e-01,5.204243748623270382e-02,1.141184375891603625e-01,-4.707204448049755879e-02
2.190000000000000002e-01,3.738756887582750377e-02,1.195527990864562046e-01,-3.504284727031212188e-02
2.200000000000000011e-01,7.969562387082122779e-02,9.577891166705104764e-02,2.649135883967655355e-02
2.210000000000000020e-01,1.010460938457527214e-01,7.254603268665213434e-02,1.555684221007384849e-02
2.220000000000000029e-01,1.256407240110877788e-01,6.489893854291724218e-02,-1.646024767287390320e-02
2.230000000000000038e-01,9.983751682031540009e-02,8.455606419559527631e-02,4.275305007256168660e-02
2.240000000000000047e-01,7.825379241955245091e-02,8.686823535204461766e-02,2.738766672289745518e-02
2.250000000000000056e-01,9.570947653956866918e-02,3.566130047487679755e-02,2.093933892781810885e-02
2.260000000000000064e-01,7.849257249995915398e-02,3.495764053235333318e-02,1.741265624452814284e-02
2.270000000000000073e-01,1.120503043922793651e-01,5.645826629850858591e-02,5.631225867709115096e-02
2.280000000000000082e-01,9.864716630525248442e-02,3.675707840051897768e-02,6.828786628941500847e-02
2.290000000000000091e-01,5.481312580203050872e-02,1.138030932022215079e-02,1.514345450871962782e-02
2.300000000000000100e-01,7.252479836070681307e-02,-3.469521291392893905e-03,5.212488023386258745e-02
2.310000000000000109e-01,7.417735278971829271e-02,-4.137352110252360410e-02,9.770847823033539103e-02
2.320000000000000118e-01,5.060375177903013444e-02,-1.526338520542201271e-03,5.893524066795936128e-02
2.330000000000000127e-01,5.640910541601300288e-02,-6.518817473080036617e-02,5.601134368617915332e-02
2.340000000000000135e-01,3.926645200647094908e-02,-4.242969361995971300e-02,7.313538334095974480e-02
2.349999999999999867e-01,3.306717865041294835e-02,-5.105762408598878838e-02,6.224182875749136035e-02
2.359999999999999876e-01,4.637591980370370237e-02,-6.939307783242414096e-02,4.750714541775744038e-02
2.369999999999999885e-01,2.508558889208141289e-03,-6.763571928514114373e-02,4.932062833163421145e-02
2.379999999999999893e-01,-1.962598647048572828e-02,-6.840214598384546096e-02,5.999161925265743961e-02
2.389999999999999902e-01,-5.403790911577480843e-02,-7.274889202953507827e-02,3.558493153229828204e-02
2.399999999999999911e-01,-2.546179232835522541e-02,-7.173492380593135542e-02,3.629480056738676463e-02
2.409999999999999920e-01,-5.451644716553321474e-02,-9.014644302650338947e-02,4.725749909942927873e-02
2.419999999999999929e-01,-6.408244686400961510e-02,-7.983107145056241027e-02,8.118020082256677261e-03
2.429999999999999938e-01,-8.044311022787503651e-02,-9.692794609678465068e-02,-1.828058604593693279e-02
2.439999999999999947e-01,-1.109221050713180140e-01,-1.004102652222036568e-01,-1.524662017118205487e-03
2.449999999999999956e-01,-8.184994982177623557e-02,-8.236375798697204154e-02,-8.502953211947550383e-03
2.459999999999999964e-01,-8.995795324711342023e-02,-5.653172669484464452e-02,-7.723521793318741113e-03
2.469999999999999973e-01,-8.573483502311064763e-02,-5.414398109086843852e-02,-1.305615382880881761e-02
2.479999999999999982e-01,-1.178198368718442607e-01,-3.791984605346085391e-02,-5.028542760140813916e-02
2.489999999999999991e-01,-1.138306869385172088e-01,-8.619364304453067810e-03,-6.355142891389185811e-02
2.500000000000000000e-01,-7.921257169516106311e-02,-6.208818757424613283e-02,-5.315589702868484673e-02
2.510000000000000009e-01,-1.235031832368728016e-01,-1.751469027599854636e-02,-3.802837389792724371e-02
2.520000000000000018e-01,-6.025097761026591836e-02,1.272839543376626248e-03,-4.519214898367409500e-02
2.530000000000000027e-01,-9.873464743234068586e-02,4.137957488442421672e-02,-6.401118304140650250e-02
2.540000000000000036e-01,-4.547890181599673065e-02,5.139672837863289850e-02,-6.418305216019816462e-02
2.550000000000000044e-01,-2.716412429995964523e-02,2.296745396823170193e-02,-7.322507854355629620e-02
2.560000000000000053e-01,-2.120746244178881024e-02,6.346334241678615318e-02,-6.901364483156725849e-02
2.570000000000000062e-01,7.985942027661431519e-03,5.199124563137937777e-02,-3.311195907225733537e-02
2.580000000000000071e-01,1.960966262580770680e-03,7.192083774708822597e-02,-4.891705713132853822e-02
2.590000000000000080e-01,5.318174896608234004e-02,8.106924069147340706e-02,-4.494859424419311855e-02
2.600000000000000089e-01,2.835478331475706562e-02,9.055343963486335579e-02,-3.949796471457084346e-02
2.610000000000000098e-01,5.657667853168132227e-02,9.097783982432255945e-02,-4.894145315699142528e-04
2.620000000000000107e-01,8.197806160798253028e-02,6.233021336171088583e-02,-4.178546246200685182e-02
2.630000000000000115e-01,4.084768133982789873e-02,6.623729836150603345e-02,1.214513079475080214e-02
2.640000000000000124e-01,7.947585044741006799e-02,7.415969751446521707e-02,-3.891693819926775669e-03
2.650000000000000133e-01,8.320462948713254481e-02,9.379509380100142790e-02,-1.029294447212919690e-02
2.660000000000000142e-01,9.681528425049229503e-02,9.611433945457099892e-02,3.912175464040266309e-02
2.670000000000000151e-01,8.293837432359839335e-02,2.234512450723659394e-02,2.644663380701168034e-02
2.680000000000000160e-01,1.245270772461661291e-01,4.612358677305995747e-02,2.278011936820364264e-03
2.690000000000000169e-01,1.067046619373242661e-01,5.457259506204493321e-02,5.057916323333122577e-02
2.700000000000000178e-01,9.991610337851314361e-02,7.991124460889956899e-03,6.699071449472206174e-02
2.710000000000000187e-01,9.060456223869781112e-02,2.295402266891199278e-02,6.132787999882741148e-02
2.720000000000000195e-01,8.462749316393249066e-02,-5.188902837927853416e-03,7.183056805413670642e-02
2.730000000000000204e-01,6.925563577845554597e-02,-3.972629764741207603e-02,7.188285809373672064e-02
2.740000000000000213e-01,7.206434871107297857e-02,-2.646586041469720096e-02,3.790779708776324114e-02
2.750000000000000222e-01,5.029231669223947071e-02,-2.599161655480131811e-02,5.195017638691742934e-02
2.760000000000000231e-01,9.064773749978971215e-03,-5.658817162803218836e-02,5.080707896241550003e-02
2.770000000000000240e-01,5.700978908247266580e-02,-4.650781632770801394e-02,5.320032357099475223e-02
2.780000000000000249e-01,-3.630412759707045411e-02,-4.611003306956280162e-02,3.920992052930392241e-02
2.790000000000000258e-01,2.772235872357110831e-02,-1.094260009787133142e-01,5.299148783074997954e-02
2.800000000000000266e-01,1.697919450101807726e-02,-9.458118233159079624e-02,5.922108818062373631e-02
2.810000000000000275e-01,-4.607722844698938780e-02,-6.807456276487604263e-02,3.483991252943549610e-02
2.819999999999999729e-01,-4.449774135110076689e-02,-9.821175644441008934e-02,-2.061038047021093462e-03
2.829999999999999738e-01,-3.636551847022790468e-02,-1.133071017151302817e-01,-1.831315120304504015e-03
2.839999999999999747e-01,-5.170923724363415269e-02,-9.434931570569403403e-02,9.699575678954155261e-03
2.849999999999999756e-01,-9.840444859935719435e-02,-8.469238071911412702e-02,2.135645795828498839e-03
2.859999999999999765e-01,-9.388469802905999306e-02,-8.604492487852408167e-02,1.139145097650855025e-02
2.869999999999999774e-01,-9.913759591480657274e-02,-8.321449437758776657e-02,-5.408126369037155080e-03
2.879999999999999782e-01,-1.054832853794260006e-01,-5.065155703287271827e-02,-2.077809474161824987e-02
2.889999999999999791e-01,-1.421959799400538682e-01,-4.466931618823877931e-02,-8.967285329157018148e-02
2.899999999999999800e-01,-8.687510812112517189e-02,-2.828871296003575633e-02,-3.366753959586217537e-02
2.909999999999999809e-01,-1.238092355193285282e-01,-2.969744992714962173e-02,-4.668073857765948215e-02
2.919999999999999818e-01,-1.012639211129617717e-01,-3.851935478896136023e-02,-3.556673117624000596e-02
2.929999999999999827e-01,-8.709291807106414596e-02,-1.960339731559537432e-02,-4.361867204451291835e-02
2.939999999999999836e-01,-9.283694592228716735e-02,-1.900761754215493649e-02,-8.755976155572428588e-02
2.949999999999999845e-01,-6.615482338386427519e-02,4.055956984162729234e-02,-2.707242775348861485e-02
2.959999999999999853e-01,-8.212141272854529828e-02,3.301987003647407354e-02,-6.621354901765780232e-02
2.969999999999999862e-01,-4.919649104063354705e-02,4.940295525226750389e-02,-6.102186726756587964e-02
2.979999999999999871e-01,-1.351613362867432749e-02,6.983672446419135482e-02,-4.242916254141977650e-02
2.989999999999999880e-01,-2.751560454253853399e-02,6.179410809350769501e-02,-5.903682796243038544e-02
2.999999999999999889e-01,-3.895581111885102702e-03,9.099101361687458867e-02,-7.035719497804336642e-02
3.009999999999999898e-01,-7.610161064071721722e-03,5.530110008879014771e-02,-4.190253480689163507e-02
3.019999999999999907e-01,2.354117845248332799e-02,7.321099268887318323e-02,-2.682882011623866428e-02
3.029999999999999916e-01,2.190493426921140754e-02,9.672050374151074104e-02,-3.876512664513304118e-02
3.039999999999999925e-01,5.124234314739422452e-02,6.673987640062860327e-02,-6.145677395072396410e-02
3.049999999999999933e-01,1.776216900041871494e-02,9.069027764649784107e-02,-4.593270984701365578e-03
3.059999999999999942e-01,1.095962955252570981e-01,9.552272272378907469e-02,3.080327921505735325e-03
3.069999999999999951e-01,9.444884037982428926e-02,9.260567810984539350e-02,-8.732193600011447718e-03
3.079999999999999960e-01,2.407869891279541472e-02,5.356903879457697998e-02,-6.059813510214733141e-03
3.089999999999999969e-01,9.276169164965704372e-02,4.389410655775972253e-02,4.277595741761023446e-02
3.099999999999999978e-01,9.245950003298154807e-02,5.482082181928805281e-02,-9.745910228263479289e-03
3.109999999999999987e-01,8.173751839157875065e-02,1.865967229520745785e-02,2.707066992610453627e-03
3.119999999999999996e-01,1.038397869708007487e-01,1.032544326045804935e-02,3.749720967105577007e-02
3.130000000000000004e-01,9.767703937491895028e-02,1.858628076853089620e-03,3.613820796050618012e-02
3.140000000000000013e-01,9.583370550598491189e-02,2.740403369883752382e-02,5.951646981255588609e-02
3.150000000000000022e-01,1.226653711925941997e-01,-1.351100612057391619e-02,4.706341536345122478e-02
3.160000000000000031e-01,7.204867033360877471e-02,-3.608051542698518382e-02,6.696038901786603714e-02
3.170000000000000040e-01,6.372511697736807368e-02,-6.526898431923788824e-02,3.923415899463097989e-02
3.180000000000000049e-01,7.554001405077921671e-02,-4.739830266750882232e-02,7.868783707283438789e-02
3.190000000000000058e-01,3.982387017400398910e-02,-3.043447832019577012e-02,6.467186774725902643e-02
3.200000000000000067e-01,-1.962539797541357905e-02,-3.403967915339232986e-02,6.947005947082383892e-02
3.210000000000000075e-01,-5.042813080333537722e-03,-8.198917750015914663e-02,6.560221951145481234e-02
3.220000000000000084e-01,-2.323027029262443935e-02,-9.073768102651950940e-02,6.586276554254590077e-02
3.230000000000000093e-01,-3.934618381299859191e-02,-7.212579128021870400e-02,4.963572312714605722e-02
3.240000000000000102e-01,-5.731833466476475916e-03,-6.827613825208492249e-02,-1.373212722758111997e-03
3.250000000000000111e-01,-6.851050997253103902e-02,-8.983390455308264133e-02,3.100757487263887651e-03
3.260000000000000120e-01,-4.716566110030454700e-02,-8.549546723710199636e-02,3.750253296682463933e-02
3.270000000000000129e-01,-7.479625639772931323e-02,-6.106398801219604239e-02,1.655744742808454989e-02
3.280000000000000138e-01,-6.797919648969968920e-02,-1.004302378495593590e-01,7.785829771764286346e-03
3.290000000000000147e-01,-1.080172431607518552e-01,-4.873484766536005652e-02,9.916893969070653993e-04
3.300000000000000155e-01,-8.900027171910745993e-02,-4.950483333176203954e-02,-1.980041844332473128e-02
3.310000000000000164e-01,-1.262334610307874749e-01,-4.953396650189156175e-02,2.307393431476365084e-03
3.320000000000000173e-01,-1.044323829281377514e-01,-1.761350264451507289e-02,-3.044816350656594922e-02
3.330000000000000182e-01,-1.160074366597924761e-01,-6.855910891592351120e-02,-2.139330762190721005e-02
3.340000000000000191e-01,-1.004190870242631234e-01,-2.264711011096516916e-02,-2.721033943923007944e-02
3.350000000000000200e-01,-1.130802251229108268e-01,-3.513423053039931715e-04,-2.141610009897711858e-02
3.360000000000000209e-01,-5.003506382070120606e-02,-1.083470970911458268e-02,-4.856687756073254508e-02
3.370000000000000218e-01,-1.079633618959187497e-01,5.064390364689042197e-03,-6.635169039222708898e-02
3.380000000000000226e-01,-5.969800478967567103e-02,3.953726051834701577e-02,-4.396568626426649445e-02
3.390000000000000235e-01,-4.897747467808179211e-02,5.398085526063144818e-02,-6.123086083731937856e-02
3.400000000000000244e-01,-5.075860170801933108e-03,7.889128617138986208e-03,-6.421066397233772538e-02
3.410000000000000253e-01,-1.057069820476359140e-02,4.893169547319656948e-02,-6.972591148454337917e-02
3.420000000000000262e-01,-1.511177057669471115e-02,5.284483335018093364e-02,-7.050517771740910655e-02
3.430000000000000271e-01,-1.723571956023962209e-02,8.929183499786151612e-02,-4.171354977299011196e-02
3.439999999999999725e-01,5.022617900227973817e-03,5.326460986661709501e-02,-7.225640756160330025e-02
3.449999999999999734e-01,2.922631691543974355e-02,8.670707068600350120e-02,-8.927567064597010868e-03
3.459999999999999742e-01,3.710166404547347169e-02,1.045840206247883181e-01,-4.140682874721510892e-02
3.469999999999999751e-01,5.420208981113249641e-02,3.780662418500545241e-02,-5.405607861655939081e-03
3.479999999999999760e-01,6.912698806023948039e-02,8.441906348854921749e-02,8.648200338021931610e-03
3.489999999999999769e-01,7.904696424237232788e-02,8.783742153368770400e-02,-2.735989090973623902e-02
3.499999999999999778e-01,9.054508718769943565e-02,9.502289116847101313e-02,1.062144812231432915e-02
3.509999999999999787e-01,1.115982946109468077e-01,5.268740047471944660e-02,1.492413694124253114e-02
3.519999999999999796e-01,7.682712763403588829e-02,2.222671302545289884e-02,6.821693887585821882e-03
3.529999999999999805e-01,1.380669508460178607e-01,3.825503533234162618e-02,2.519866566958281137e-02
3.539999999999999813e-01,1.236940694958604398e-01,-2.169855407330164437e-02,1.517678330048311160e-02
3.549999999999999822e-01,1.209803404106364333e-01,1.781378592542417691e-02,5.948614473585511070e-02
3.559999999999999831e-01,9.279756333814041802e-02,2.129080782712778827e-02,2.616779457088513547e-02
3.569999999999999840e-01,8.180361270430497322e-02,7.480416755175104890e-03,3.704353057057593185e-02
3.579999999999999849e-01,8.047580293666221907e-02,-2.927355588051053920e-02,4.468974664606352454e-02
3.589999999999999858e-01,4.887872426723331026e-02,-9.183858513218760497e-03,8.385119350761584267e-02
3.599999999999999867e-01,5.689363138604720815e-02,-4.660834372684435206e-02,3.617292097947671925e-02
3.609999999999999876e-01,6.109712243994858127e-02,-7.531088663707992403e-02,6.368765300211814973e-02
3.619999999999999885e-01,2.291644096159053262e-02,-1.031586634228674193e-01,6.602698521624832118e-02
3.629999999999999893e-01,6.248671230289948308e-02,-7.211353359856122192e-02,2.975640172947438544e-02
3.639999999999999902e-01,-1.594631962500296998e-02,-9.587036120004109596e-02,6.569694818826118943e-02
3.649999999999999911e-01,-4.758687565493838548e-03,-8.395529114305698426e-02,3.838126495739971333e-02
3.659999999999999920e-01,-1.518974893315869559e-02,-7.866630086172304859e-02,5.569156781982000787e-02
3.669999999999999929e-01,-7.136091674160487119e-02,-1.000895897091488018e-01,5.621493997492649219e-02
3.679999999999999938e-01,-8.235322658133559237e-02,-7.397836462133373925e-02,3.340625067503062706e-02
3.689999999999999947e-01,-1.144936369205989402e-01,-8.387962625788616955e-02,7.335557360905557711e-02
3.699999999999999956e-01,-5.737591959052853324e-02,-1.243535726443767836e-01,3.346073824447681755e-02
3.709999999999999964e-01,-6.336476135150324873e-02,-5.356735852971214462e-02,-2.233791771089309666e-02
3.719999999999999973e-01,-9.819781846267022773e-02,-6.053655500051178390e-02,1.644203843979609794e-02
3.729999999999999982e-01,-1.098541176858287560e-01,-4.472977085145513759e-02,-1.398362432061649174e-02
3.739999999999999991e-01,-6.751041518305279931e-02,-5.745003731524938456e-02,-2.363997940393109190e-02
3.750000000000000000e-01,-1.273586454579712091e-01,-1.965074132669151694e-02,-4.827899063641347827e-02
3.760000000000000009e-01,-1.192855706379105374e-01,1.159427890926044424e-02,-5.040015342203144066e-02
3.770000000000000018e-01,-1.066508538280321050e-01,1.234895186123021469e-04,-7.754627030139826793e-02
3.780000000000000027e-01,-7.048992667181877558e-02,4.833162117895964394e-02,-3.811149434071496589e-02
3.790000000000000036e-01,-4.721007409892509499e-02,-9.470251207341889160e-03,-5.552436164494752024e-02
3.800000000000000044e-01,-5.259284678170263877e-02,5.911447143265567000e-02,-2.031036632118414856e-02
3.810000000000000053e-01,-7.949455335760864660e-02,1.746162288033138721e-02,-4.323181737867932278e-02
3.820000000000000062e-01,-4.359939342839257853e-02,4.640889834806982694e-02,-8.894209004168214527e-02
3.830000000000000071e-01,-3.038942253923026388e-02,7.122317300053887523e-02,-6.717072901838531951e-02
3.840000000000000080e-01,-6.061087514133060503e-03,6.755947250780143520e-02,-7.979955083792766857e-02
3.850000000000000089e-01,-3.594092202063824126e-02,9.416853847925456267e-02,-7.795030618950454793e-02
3.860000000000000098e-01,-2.357415008066537920e-02,8.912267143439432660e-02,-3.864676123802187474e-02
3.870000000000000107e-01,1.588166476005544933e-02,8.083406279147477280e-02,-6.701207614814426450e-02
3.880000000000000115e-01,3.804691188445335354e-02,9.519877181169358882e-02,-5.616584373524744628e-02
3.890000000000000124e-01,6.894224069254990817e-02,8.001617585389796117e-02,3.117632314706620961e-03
3.900000000000000133e-01,4.940678081151651801e-02,1.032338107717653691e-01,-3.110887460361809118e-03
3.910000000000000142e-01,7.199625087722413830e-02,7.607210855304759323e-02,-4.439158606265578705e-02
3.920000000000000151e-01,8.360693039087670198e-02,7.864004786131859048e-02,-2.739924640632690825e-02
3.930000000000000160e-01,8.387337884373270713e-02,6.920291523509355947e-02,3.043745368703817261e-02
3.940000000000000169e-01,9.359601401232893469e-02,6.902994458302143255e-02,2.254785371335393113e-02
3.950000000000000178e-01,9.954220461605248205e-02,3.620370006417925057e-02,1.385190061592863654e-02
3.960000000000000187e-01,1.005116990803193860e-01,5.712397523683832717e-02,-5.258248628378966137e-03
3.970000000000000195e-01,1.250478084000157808e-01,5.063529344272771349e-02,2.221129612010795673e-02
3.980000000000000204e-01,9.405217855834527296e-02,6.216451320587007903e-03,2.738891622539067761e-02
3.990000000000000213e-01,7.990079077167876187e-02,1.252941212659812974e-03,4.598228870468812346e-02
4.000000000000000222e-01,6.530530076273191598e-02,1.731627026401441269e-02,1.121517869652310512e-01
4.010000000000000231e-01,4.046120211671801192e-02,-5.187825691725232724e-02,4.600557676511869698e-02
4.020000000000000240e-01,4.759062631279491196e-02,-5.241261846259167440e-02,3.750013529049546490e-02
4.030000000000000249e-01,6.545017371368275216e-02,-5.677263380758217765e-02,5.305690031835238324e-02
4.040000000000000258e-01,2.668507196476487681e-02,-5.255204073028578449e-02,5.902603937748986812e-02
4.050000000000000266e-01,4.307843580558863572e-02,-8.735613851987453216e-02,5.466183951190996260e-02
4.060000000000000275e-01,-1.069009316868830238e-02,-9.954387462860565805e-02,2.395626493459487166e-02
4.069999999999999729e-01,-1.068135170812240832e-02,-9.296313474126666199e-02,7.647979834290967449e-02
4.079999999999999738e-01,-9.593679060475370293e-03,-6.978956422830873141e-02,5.921434311816246854e-02
4.089999999999999747e-01,-6.331466589115847254e-02,-9.517950015518598927e-02,4.697112438733593021e-02
4.099999999999999756e-01,-5.082410028672070673e-02,-8.196813146207340695e-02,4.168816592209233229e-02
4.109999999999999765e-01,-5.807256227603933840e-02,-9.202386471359780273e-02,5.771718292966881297e-02
4.119999999999999774e-01,-7.876546741836730481e-02,-6.210708148549266144e-02,1.865299093548641873e-02
4.129999999999999782e-01,-2.723980373647741718e-02,-7.979406655056961450e-02,3.138463223127826995e-02
4.139999999999999791e-01,-9.044032241155175456e-02,-3.788045894455704249e-02,8.793778830286381673e-03
4.149999999999999800e-01,-9.104848106733261226e-02,-5.745725456053342450e-02,4.320537184553553678e-02
4.159999999999999809e-01,-8.430042647270578893e-02,-6.785927598355928625e-02,1.737949883484166006e-04
4.169999999999999818e-01,-1.205328658131041147e-01,-7.351515405900085898e-02,3.121356790543886386e-02
4.179999999999999827e-01,-9.481114626779840737e-02,-1.835986274715524155e-02,7.914608718142509061e-04
4.189999999999999836e-01,-1.094223586273405241e-01,-2.791483138973547933e-03,-3.405418803521356036e-02
4.199999999999999845e-01,-7.052692704250368427e-02,1.119414584704512411e-02,-2.616702107636606489e-02
4.209999999999999853e-01,-8.731373992559125774e-02,3.834346308257254032e-02,-8.404051253467648142e-02
4.219999999999999862e-01,-8.726404754947161835e-02,4.211046288859789793e-02,-6.607460510886038751e-02
4.229999999999999871e-01,-6.385228194657087408e-02,4.806905621073959134e-02,-8.170875494951247708e-02
4.239999999999999880e-01,-9.526238352728558234e-02,3.302565989733655116e-02,-7.499527973116615343e-02
4.249999999999999889e-01,-3.151804317075918710e-02,4.002114604855518815e-02,-6.394444990745824786e-02
4.259999999999999898e-01,-4.304772069990937637e-03,7.949660033173527873e-02,-8.422070406282836097e-02
4.269999999999999907e-01,-4.745788052981711816e-03,3.953976627264760985e-02,-7.941377512063492461e-02
4.279999999999999916e-01,1.187011986343846845e-02,7.755621049931710198e-02,-5.876637787320766054e-02
4.289999999999999925e-01,1.659311875435041592e-02,8.438339103092357130e-02,-1.502635101604993424e-02
4.299999999999999933e-01,2.513762159077604849e-02,6.430920790332511627e-02,-4.388910995246418645e-02
4.309999999999999942e-01,3.058628516689799667e-02,8.708351432727973185e-02,-6.654170688940214129e-02
4.319999999999999951e-01,8.582557749316341300e-02,7.843328975742107356e-02,-5.027015294710752286e-02
4.329999999999999960e-01,8.092590517465210465e-02,7.785049984578579219e-02,-2.041303539239560164e-02
4.339999999999999969e-01,7.734304338415302904e-02,9.137794560380955999e-02,-5.739811405364099971e-03
4.349999999999999978e-01,8.427389680747475464e-02,9.543590590013657782e-02,-6.573553909630588075e-03
4.359999999999999987e-01,1.204633856522541735e-01,6.421358364606612190e-02,1.390227182657287038e-03
4.369999999999999996e-01,8.188242353592102563e-02,3.693020168767297690e-02,2.464929315905871159e-03
4.380000000000000004e-01,1.087711387817156955e-01,3.541988806310023691e-02,3.569329465007011620e-02
4.390000000000000013e-01,8.089190291748044048e-02,2.042301681757089857e-02,4.809651921765376037e-02
4.400000000000000022e-01,1.031017176861628720e-01,-9.103291581121705778e-03,3.937491435267297807e-02
4.410000000000000031e-01,9.838864608605599194e-02,-1.524236994167266906e-02,4.362214007600421356e-02
4.420000000000000040e-01,6.792031744021534423e-02,-3.272388098428962583e-02,3.456396127958776682e-02
4.430000000000000049e-01,8.205197489735097105e-02,-2.012341245687154431e-02,7.460723537846183917e-02
4.440000000000000058e-01,7.235385461996615697e-02,-5.339422228286106603e-02,5.950131423565030442e-02
4.450000000000000067e-01,6.752842217357028776e-02,-4.927368404528267853e-02,5.992960529106616113e-02
4.460000000000000075e-01,7.528551732508186045e-02,-3.604816227573148790e-02,6.844612598951364812e-02
4.470000000000000084e-01,2.423875409067302242e-02,-9.388319894040429714e-02,5.881966227741855513e-02
4.480000000000000093e-01,7.586468533609295496e-03,-6.045013973286730152e-02,2.463420574778225555e-02
4.490000000000000102e-01,2.417026519768952081e-02,-1.097870478270945582e-01,4.972481538473823987e-02
4.500000000000000111e-01,1.764867020520484095e-02,-8.191655735977081132e-02,2.570312302976719004e-02
4.510000000000000120e-01,-1.053970185807461685e-02,-1.124370063828455252e-01,6.664438492107069290e-02
4.520000000000000129e-01,-3.791383864932963699e-02,-8.267147621904440136e-02,4.850792598155855007e-02
4.530000000000000138e-01,-6.099507836345921530e-02,-1.018503454989348744e-01,6.944044521266083680e-02
4.540000000000000147e-01,-8.006954411534286664e-02,-8.069696604867625245e-02,3.914971860338777726e-02
4.550000000000000155e-01,-8.434961386280875884e-02,-6.720412377564816131e-02,4.018070033423448012e-02
4.560000000000000164e-01,-1.179655249045158533e-01,-8.594040053600637830e-02,5.396555959049242207e-02
4.570000000000000173e-01,-7.689360130377459468e-02,-7.503417123746404516e-02,1.108278304602894684e-02
4.580000000000000182e-01,-1.024592502004368494e-01,-2.531372679641408219e-02,-1.955646578922004206e-02
4.590000000000000191e-01,-1.005648950468069486e-01,-2.720683605015599554e-02,1.122168963331291597e-02
4.600000000000000200e-01,-5.646165620043024774e-02,-6.029908133089885956e-03,-1.410157251049071886e-02
4.610000000000000209e-01,-9.317467490553045517e-02,1.065089402900327650e-03,-5.120365905647776550e-02
4.620000000000000218e-01,-1.079693048118336302e-01,2.847094829413600401e-03,-4.758358929104102714e-02
4.630000000000000226e-01,-5.906495086222339486e-02,3.571209213313266545e-02,-3.423641490947863103e-02
4.640000000000000235e-01,-8.822466743881055007e-02,2.659675731022882045e-02,-1.176577433206101551e-02
4.650000000000000244e-01,-7.028280467267830622e-02,6.996828761483993298e-02,-3.272895324660075357e-03
4.660000000000000253e-01,-3.924169704855971080e-02,2.623496745653903714e-02,-9.859937029903069472e-02
4.670000000000000262e-01,-1.033157388968167500e-01,6.902186502267226853e-02,-6.041030539102310720e-02
4.680000000000000271e-01,-3.170385707425044108e-02,7.858366076364688146e-02,-6.760427374761832087e-02
4.689999999999999725e-01,-1.587259527547458388e-02,8.317454274107505263e-02,-5.735330333376146422e-02
4.699999999999999734e-01,-1.916508209130150450e-02,6.973733103675806844e-02,-5.476983622229930626e-02
4.709999999999999742e-01,2.117059295403645250e-02,6.621705747138056930e-02,-1.121173855660527047e-01
4.719999999999999751e-01,1.433809690161247374e-02,9.243084112633734306e-02,-2.412160677197988656e-02
4.729999999999999760e-01,8.717873691189098606e-02,5.806404727606942484e-02,-1.157096495736014211e-02
4.739999999999999769e-01,6.100028901978874624e-02,4.757799480584311291e-02,-5.512740028429823080e-02
4.749999999999999778e-01,6.055917811902750136e-02,8.913987886254101656e-02,-6.943842030961265566e-02
4.759999999999999787e-01,7.987216437029152905e-02,9.160305879835731191e-02,-1.558823158419253736e-02
4.769999999999999796e-01,8.903775243324173194e-02,4.996375695168057962e-02,-3.119007821000490885e-02
4.779999999999999805e-01,9.493683086039179930e-02,-3.128756602956337968e-03,-3.061397880281196276e-02
4.789999999999999813e-01,1.079930351295483731e-01,4.011092275539850094e-02,-3.304775357732015612e-02
4.799999999999999822e-01,1.288921068326842057e-01,5.889888372144339024e-02,6.673967361385497316e-03
4.809999999999999831e-01,7.860974114255175893e-02,4.245474497126880409e-02,3.916976017901971363e-02
4.819999999999999840e-01,9.515139715992862457e-02,-9.214067235092632908e-04,3.949202320204790034e-02
4.829999999999999849e-01,8.967529926266727680e-02,3.755478171628379852e-02,4.714824904674073947e-02
4.839999999999999858e-01,7.881982671326931422e-02,-1.215312383656217765e-03,2.888981727439895661e-02
4.849999999999999867e-01,1.135209574558567053e-01,-2.737660999790993838e-02,4.598715879366350318e-02
4.859999999999999876e-01,9.413879783177754590e-02,-1.001767719082769480e-02,7.906928945743980919e-02
4.869999999999999885e-01,4.918586245216063912e-02,-3.784582088768720376e-02,8.059710027564571944e-02
4.879999999999999893e-01,4.692987286826093979e-02,-8.886052589325092732e-02,7.789821440033112276e-02
4.889999999999999902e-01,5.163097013908177907e-02,-2.764558481240046717e-02,5.176885751524108042e-02
4.899999999999999911e-01,6.218341129040985682e-02,-4.151232188759048508e-02,7.320431051062289973e-02
4.909999999999999920e-01,4.223591687156644930e-02,-5.204422273564085488e-02,8.652386974383795282e-02
4.919999999999999929e-01,-1.923481746761058694e-02,-1.010454905102079054e-01,5.228567340276957937e-02
4.929999999999999938e-01,-5.746512679957445358e-02,-8.900947510090739812e-02,9.107824939059361302e-02
4.939999999999999947e-01,-3.571862534746660101e-02,-9.510513026216715904e-02,6.124946404506050046e-02
4.949999999999999956e-01,-4.036065878363101489e-02,-8.018478934174595729e-02,6.572083509049252148e-02
4.959999999999999964e-01,-5.401736671454170080e-02,-3.718012931855133735e-02,4.455801348646210719e-02
4.969999999999999973e-01,-5.178087429636670652e-02,-7.086314221669133551e-02,3.742282312286572543e-02
4.979999999999999982e-01,-7.576878424445827875e-02,-6.896258372643879198e-02,3.384148542851878744e-02
4.989999999999999991e-01,-8.805681634244841294e-02,-9.344287710877793862e-02,-9.392705330673092531e-03
5.000000000000000000e-01,-1.163356941407108908e-01,-4.598554927232825079e-02,1.105672352123212958e-02
5.010000000000000009e-01,-9.992857168617406971e-02,-2.146257710111551531e-03,-1.580536240601268863e-02
5.020000000000000018e-01,-1.187578192938523736e-01,-4.294010434317682701e-02,-1.134508860115496622e-03
5.030000000000000027e-01,-9.688878809843216866e-02,-2.756656078503583879e-02,-3.483410554467840370e-02
5.040000000000000036e-01,-8.727455070155172578e-02,-2.602549984240324493e-02,-4.030392977950773836e-02
5.050000000000000044e-01,-7.744481086221938204e-02,2.766129979184410621e-03,-1.520964963335361998e-02
5.060000000000000053e-01,-1.419847144077082124e-01,4.011367068250457774e-02,-4.712724996057696819e-02
5.070000000000000062e-01,-5.874867243291496954e-02,4.950058546380596558e-02,-4.389159411721635373e-02
5.080000000000000071e-01,-8.716801659991185725e-02,6.589409706946799949e-02,-6.521653111713768269e-02
5.090000000000000080e-01,-4.582785235183164940e-02,2.218279359516394517e-02,-6.976168355744527538e-02
5.100000000000000089e-01,-2.950406959105357843e-02,6.087898904129989547e-02,-7.218060198291900709e-02
5.110000000000000098e-01,-1.262151064903228176e-02,8.728104816049242487e-02,-7.532083138683288992e-02
5.120000000000000107e-01,-1.681446908195343218e-02,5.364666907393975809e-02,-7.368459798446994058e-02
5.130000000000000115e-01,2.047431331252337963e-02,8.571717856260560597e-02,-6.219847333778062010e-02
5.140000000000000124e-01,2.651384825307482457e-02,1.002147745575274057e-01,-2.298197536433967819e-02
5.150000000000000133e-01,1.991723358621876744e-02,5.418321215140503577e-02,-5.358372618487631384e-02
5.160000000000000142e-01,5.137904784654709345e-02,5.452513322028235132e-02,-5.481053770348767035e-02
5.170000000000000151e-01,2.126316400187247199e-02,6.513703996738950952e-02,-3.504873235952969679e-02
5.180000000000000160e-01,5.703948041294672200e-02,1.059068843523556236e-01,-5.753689511170659299e-02
5.190000000000000169e-01,9.850095285571666692e-02,7.643778070405363168e-02,-4.208784688921630296e-02
5.200000000000000178e-01,5.150707574025648050e-02,7.061602258006222099e-02,-2.165944859966327865e-02
5.210000000000000187e-01,8.075851148656218448e-02,2.824151811368337886e-02,-4.818796654627395537e-02
5.220000000000000195e-01,1.176421621980402871e-01,6.097799552510652088e-02,8.022344609148120446e-04
5.230000000000000204e-01,7.894254653873679362e-02,2.342313649111419510e-02,-2.491394056142853808e-02
5.240000000000000213e-01,1.287679204671094979e-01,-5.475807344757174268e-03,4.605499158170470869e-02
5.250000000000000222e-01,1.116373240168247599e-01,-3.202372167902035188e-02,3.950003638303370423e-02
5.260000000000000231e-01,7.511409112690879686e-02,-1.631227892517365941e-02,4.504763847120743514e-02
5.270000000000000240e-01,1.187013523510772467e-01,-2.460494009356668094e-02,6.819452132576242498e-02
5.280000000000000249e-01,7.548217820665134581e-02,-3.801478968608515419e-02,3.237466913670433710e-02
5.290000000000000258e-01,7.322647459493378252e-02,-4.960346873304536525e-02,4.906630872725972758e-02
5.300000000000000266e-01,4.331682042712401565e-02,-5.002834598032999264e-02,6.417768864223029335e-02
5.310000000000000275e-01,7.711913757616770115e-02,-7.384277636871626471e-02,5.600373809402340447e-02
5.320000000000000284e-01,4.851611454639240262e-02,-8.045465415283559185e-02,4.338833074471213497e-02
5.330000000000000293e-01,1.374621914340074056e-03,-7.379414293146080439e-02,7.553800521916359534e-02
5.340000000000000302e-01,-1.151733537398728392e-02,-7.172167896410933108e-02,6.126084301273507920e-02
5.350000000000000311e-01,-2.123735290877357476e-02,-9.320820623071925104e-02,7.137031821648490149e-02
5.360000000000000320e-01,2.228401501941830801e-02,-7.258792285755405471e-02,6.164767852199312670e-02
5.370000000000000329e-01,-3.612984920170141112e-02,-8.716874961265876076e-02,7.777641046604920338e-02
5.380000000000000338e-01,-4.162864254107531692e-02,-8.124544097173216906e-02,7.001609467959583888e-02
5.390000000000000346e-01,-1.432341034053309647e-01,-7.099332701824631608e-02,3.701488986123833980e-02
5.400000000000000355e-01,-7.039631132027508731e-02,-6.576306317693041137e-02,-3.881510800569996922e-03
5.410000000000000364e-01,-5.800481590190140896e-02,-4.130844269167735505e-02,5.778372660764520552e-02
5.420000000000000373e-01,-7.231019978358632638e-02,-3.998836332806936927e-02,5.610694701696381827e-03
5.430000000000000382e-01,-9.603215373817913791e-02,1.604471350550425515e-02,8.774937185701702294e-03
5.440000000000000391e-01,-1.037820193824284531e-01,-3.265149754966067269e-02,-3.643683856095796675e-02
5.450000000000000400e-01,-9.965869510203480275e-02,-1.815086799686648281e-02,-2.036690793261421856e-02
5.460000000000000409e-01,-9.207813162504735471e-02,7.130967713628045754e-03,-3.811923376494884275e-02
5.470000000000000417e-01,-1.026725298131834219e-01,-1.587904939514166516e-02,-3.628461936040111580e-02
5.480000000000000426e-01,-8.536977130238390665e-02,1.990836251254735761e-02,-6.709516301467301214e-02
5.490000000000000435e-01,-9.716486250044295558e-02,3.061065027731425109e-02,-4.183036499925486124e-02
5.500000000000000444e-01,-5.646135610598485011e-02,4.525346183627521751e-02,-4.900360798558710956e-02
5.510000000000000453e-01,-8.740073067370843218e-02,6.936134643951574752e-02,-5.363352536012341160e-02
5.520000000000000462e-01,-4.611427897569741335e-02,8.939545488580760702e-02,-9.108127389834276555e-02
5.530000000000000471e-01,-5.994739423495439729e-02,7.946511616315801718e-02,-5.498461661177379139e-02
5.540000000000000480e-01,-2.627812263314432614e-02,7.237536676224455567e-02,-4.558719362798102637e-02
5.550000000000000488e-01,3.282395029552553217e-02,7.592713875025915160e-02,-4.065880927234499786e-02
5.560000000000000497e-01,1.859468166879236313e-03,5.641665337862441371e-02,-8.424942778314235825e-02
5.570000000000000506e-01,-8.418313670079322075e-03,7.015606522608536233e-02,-7.309970860996546638e-02
5.580000000000000515e-01,3.402603904311667787e-02,8.380022447712652534e-02,-7.021836982512912051e-02
5.590000000000000524e-01,4.440790109342643982e-02,9.568701980888728864e-02,-7.947319667255363373e-02
5.600000000000000533e-01,7.139001582141160651e-02,6.557099609070464463e-02,-1.367517791747479942e-02
5.610000000000000542e-01,1.083247188406832873e-01,8.939482124575499900e-02,-3.791002779791162458e-02
5.620000000000000551e-01,6.977991723143694980e-02,4.511195585937644720e-02,-2.806966954802768074e-02
5.629999999999999449e-01,6.895054422956038709e-02,5.196791832812816536e-02,-1.472205981397493174e-02
5.639999999999999458e-01,1.094451181216256758e-01,4.050803968805970906e-02,8.346457979444606851e-03
5.649999999999999467e-01,1.030468468529507214e-01,-1.424533235506976123e-02,-9.342514939193961865e-03
5.659999999999999476e-01,9.149541183314950643e-02,3.943414785204924639e-02,-1.582485785516151919e-02
5.669999999999999485e-01,8.550356738169420656e-02,1.905416819842065818e-02,5.352552392178942971e-04
5.679999999999999494e-01,7.822141900509881063e-02,-2.378711702620510751e-02,2.177079749932426395e-02
5.689999999999999503e-01,9.993488638865649643e-02,-3.031980808111075718e-02,5.916785903654743495e-02
5.699999999999999512e-01,8.122954082191170821e-02,-2.646201341459206852e-02,3.891129133830697334e-02
5.709999999999999520e-01,1.092223479122635954e-01,-1.465010091302954877e-02,4.898943426495411951e-02
5.719999999999999529e-01,5.642513357877509961e-02,-7.571900227371265724e-02,7.181708322628407859e-02
5.729999999999999538e-01,8.975040801114229916e-02,-6.379317663930436644e-02,8.869815942950526333e-02
5.739999999999999547e-01,7.135739930766947514e-02,-5.753306863480697753e-02,9.967028791498841467e-02
5.749999999999999556e-01,4.884339377039766290e-03,-9.267865492296399610e-02,6.755900517954004092e-02
5.759999999999999565e-01,2.497770892295740272e-02,-1.133559574763164379e-01,3.174297331479612738e-02
5.769999999999999574e-01,-9.085035438671078614e-03,-7.341729943729524699e-02,5.567285766063567731e-02
5.779999999999999583e-01,2.110757219188804691e-03,-6.707717872719440311e-02,5.142373833238441522e-02
5.789999999999999591e-01,-1.989720730424266240e-02,-7.146605305179758172e-02,4.163001572148526674e-02
5.799999999999999600e-01,-4.755436799694841288e-02,-1.038188209804766088e-01,3.573984991340226763e-02
5.809999999999999609e-01,-7.216329194408550862e-02,-6.832097491335337169e-02,6.021010639589816776e-02
5.819999999999999618e-01,-2.012626932534049284e-02,-6.917382781570595440e-02,1.695846987705610862e-02
5.829999999999999627e-01,-1.007948907092765245e-01,-6.751725063436911367e-02,4.830114116910416006e-02
5.839999999999999636e-01,-7.261648628853076270e-02,-8.517041127266455902e-02,5.403661203341706548e-02
5.849999999999999645e-01,-1.074898602518003926e-01,-4.867191560251422910e-02,-1.784687186739774417e-02
5.859999999999999654e-01,-8.843655450843000698e-02,-1.229537704552447451e-02,-6.370749230479625172e-03
5.869999999999999662e-01,-8.353867392447529572e-02,-9.722165935192966096e-03,-2.060658111116341756e-02
5.879999999999999671e-01,-1.078320428833402789e-01,-2.967859690289144023e-02,-1.355445229801397443e-02
5.889999999999999680e-01,-9.650289183537201498e-02,2.096719779381362933e-02,-2.741847787738372830e-02
5.899999999999999689e-01,-9.689158657604063363e-02,2.110465113434369447e-02,-4.290160300307349628e-02
5.909999999999999698e-01,-8.771805469921693799e-02,7.183744503792169334e-02,-4.326892086811618549e-02
5.919999999999999707e-01,-8.878308219570443804e-02,3.209210037931325976e-02,-4.049575746126292397e-02
5.929999999999999716e-01,-8.856523899735806171e-02,8.989452627616659197e-02,-5.590868257805556296e-02
5.939999999999999725e-01,-3.848271854627546840e-02,7.606799513943302005e-02,-8.923814486269537882e-02
5.949999999999999734e-01,-3.694198463079743922e-02,7.040043552451114017e-02,-3.812309270080634083e-02
5.959999999999999742e-01,-1.682448306418422163e-02,6.741415505064436708e-02,-6.564860033579325571e-02
5.969999999999999751e-01,-7.574369142088765300e-03,1.035350044156151811e-01,-4.700927186798812413e-02
5.979999999999999760e-01,-1.341284710172150479e-02,9.370453631701415598e-02,-3.925922271633131011e-02
5.989999999999999769e-01,2.226481701634613897e-02,5.400382147516403358e-02,-6.466741930538756622e-02
5.999999999999999778e-01,3.107804925239466415e-02,1.012325851514947334e-01,-3.363730372068952923e-02
6.009999999999999787e-01,6.285851672412576252e-02,1.118964511063736955e-01,-1.335729894602631120e-02
6.019999999999999796e-01,1.958223591621682108e-02,6.151101399144329879e-02,-3.532295513242450502e-02
6.029999999999999805e-01,5.007417954631362966e-02,4.840496689717901230e-02,-6.454801954278652221e-02
6.039999999999999813e-01,5.833424570613696819e-02,6.068813088843556108e-02,-6.891493063457071466e-03
6.049999999999999822e-01,9.516217795992235051e-02,5.423368297362798907e-02,-1.321085708292110347e-02
6.059999999999999831e-01,9.319627524547945130e-02,7.151663129972597732e-02,-2.719641157381040911e-02
6.069999999999999840e-01,8.476815117820542256e-02,2.722923190962215148e-02,-4.289078081270800147e-02
6.079999999999999849e-01,9.241507928425525542e-02,2.158617086537246293e-02,1.160423473030668812e-02
6.089999999999999858e-01,1.534891592829060181e-01,-6.350029375064428390e-03,1.082759713272332495e-02
6.099999999999999867e-01,1.146494325766408834e-01,-1.939315047109317625e-02,1.765723824953911378e-02
6.109999999999999876e-01,7.756518762673722533e-02,3.236716287630596149e-03,-3.322994357683135835e-02
6.119999999999999885e-01,1.089695442979886769e-01,-2.219562181911354654e-02,1.165302513732323873e-02
6.129999999999999893e-01,9.556055151787139212e-02,-3.787539245900356510e-02,4.239863245908695455e-02
6.139999999999999902e-01,7.347304094697154619e-02,-2.638629150086030384e-02,2.093656009947201732e-02
6.149999999999999911e-01,7.148285970296623659e-02,-8.167911094935037530e-02,6.251418098716989002e-02
6.159999999999999920e-01,6.619010698054307584e-02,-4.959086622708073350e-02,7.369562633236988181e-02
6.169999999999999929e-01,2.182000753869419232e-02,-7.352605161863134953e-02,8.060229968764172359e-02
6.179999999999999938e-01,2.431007907487574629e-02,-1.233636600451704229e-01,5.848697761818687918e-02
6.189999999999999947e-01,2.433626109313795013e-02,-6.122874860833193295e-02,5.962628609188671408e-02
6.199999999999999956e-01,3.182397828900029868e-02,-7.142792191153221615e-02,5.873477522748964813e-02
6.209999999999999964e-01,-4.999121107697615616e-04,-9.339036081681093004e-02,7.525575430321769510e-02
6.219999999999999973e-01,-7.485853568518534285e-02,-6.630392919256626605e-02,4.432649642663010620e-02
6.229999999999999982e-01,-4.000799481894123932e-02,-7.610321061526026387e-02,2.791067281774605238e-02
6.239999999999999991e-01,-4.978728027670461381e-02,-6.675174153319118897e-02,4.016785311863712432e-02
6.250000000000000000e-01,-6.328916979295801104e-02,-6.375160805641555406e-02,2.901043445789451558e-02
6.260000000000000009e-01,-5.714264725609583678e-02,-6.482049113485550962e-02,1.549895173000657121e-02
6.270000000000000018e-01,-7.432482378794431910e-02,-4.025729341617763357e-02,4.935549442639551587e-02
6.280000000000000027e-01,-9.329592702685288175e-02,-2.111781286097444768e-02,8.963246870007600051e-03
6.290000000000000036e-01,-1.087728028823517906e-01,-3.925480089473293299e-02,2.277645489788177394e-02
6.300000000000000044e-01,-8.866520040990211182e-02,-1.246542079713741646e-02,-1.636325125402048053e-02
6.310000000000000053e-01,-1.060079849409125141e-01,7.714744951894970774e-03,-3.600396390576768302e-02
6.320000000000000062e-01,-1.047334913836761999e-01,2.906970135313029224e-02,-2.713129955919637779e-02
6.330000000000000071e-01,-9.836795071201420715e-02,-1.468930786954875632e-03,-3.403449109873161148e-03
6.340000000000000080e-01,-8.210377538994236002e-02,4.632910983049773335e-02,-2.760782072024218006e-02
6.350000000000000089e-01,-7.921167737464454572e-02,3.087805865936810515e-02,-4.280096367547746306e-02
6.360000000000000098e-01,-5.757355103118553391e-02,4.640448026746886445e-02,-4.295262005607898559e-02
6.370000000000000107e-01,-4.102722093342554138e-02,9.969169707065189678e-02,-3.209011696229691069e-02
6.380000000000000115e-01,-2.247536159290298291e-02,4.995750189166350136e-02,-4.945936044228130268e-02
6.390000000000000124e-01,-3.112238227881402794e-02,6.355952479455749538e-02,-5.492144945698666791e-02
6.400000000000000133e-01,-1.656626490506503055e-02,8.708121061834053767e-02,-6.081525596383360877e-02
6.410000000000000142e-01,2.189146352787744304e-02,7.436926073037980478e-02,-7.109955190825907601e-02
6.420000000000000151e-01,1.869400073289095507e-02,8.639901181057299540e-02,-5.431728937624413084e-02
6.430000000000000160e-01,3.841231146958366816e-02,9.679078742018566717e-02,-7.729490478428910349e-02
6.440000000000000169e-01,6.442095195702164656e-02,7.369398513014530083e-02,-4.327871327187252787e-02
6.450000000000000178e-01,6.629390445816529809e-02,4.478477744049138426e-02,-4.717046278951457505e-02
6.460000000000000187e-01,6.860400241405462118e-02,4.783902280463864232e-02,-7.233673148568975364e-02
6.470000000000000195e-01,5.183395735196083542e-02,6.215558251553440078e-02,-6.169315254281880490e-02
6.480000000000000204e-01,9.372532607052065645e-02,2.291011972203441799e-02,-3.950857051267596398e-02
6.490000000000000213e-01,1.102444226115464471e-01,1.435243832449832960e-02,-3.079674463569119502e-02
6.500000000000000222e-01,8.181884253047372324e-02,1.805383684669626190e-02,1.734383921254734539e-03
6.510000000000000231e-01,1.065147319154635952e-01,-8.720404210553700519e-03,-1.708632460876528120e-02
6.520000000000000240e-01,1.057432153767839111e-01,1.267449028142217902e-02,1.401465769586858132e-02
6.530000000000000249e-01,1.152671304167433575e-01,-7.249410798479831268e-03,4.196162989776928975e-02
6.540000000000000258e-01,9.261140255975608415e-02,-5.277308413983988061e-02,2.730018558537170015e-02
6.550000000000000266e-01,8.749315491878047191e-02,-3.199757969180984374e-02,1.464775374393067348e-02
6.560000000000000275e-01,8.909751254122330599e-02,-7.661808028018733674e-02,5.950612778817927079e-02
6.570000000000000284e-01,9.242564059472586913e-02,-3.737390282116487272e-02,3.514521331664928472e-02
6.580000000000000293e-01,5.279963123801112435e-02,-4.479978055970693790e-02,7.885830209083606601e-02
6.590000000000000302e-01,7.167913864051234096e-02,-9.178301937607176442e-02,7.045152558816859811e-02
6.600000000000000311e-01,1.027035726086633800e-02,-1.118794860087652943e-01,6.849580921952026780e-02
6.610000000000000320e-01,9.153848516621767087e-03,-8.854440411455541393e-02,5.705193598558400830e-02
6.620000000000000329e-01,-1.873844257277607062e-02,-4.609503318942952121e-02,6.133139961962248005e-02
6.630000000000000338e-01,6.361693002629015790e-03,-6.668635487109440818e-02,7.633926823540271300e-02
6.640000000000000346e-01,1.750479711684974071e-02,-7.392544790533693566e-02,5.441847028156844568e-02
6.650000000000000355e-01,-4.845147927526641946e-02,-1.037795907851855604e-01,7.706410084982254216e-02
6.660000000000000364e-01,-8.783793263813399754e-02,-8.959737358878962221e-02,4.096503262971584042e-02
6.670000000000000373e-01,-9.989551142521030380e-02,-8.933852060287113261e-02,8.228324561359906530e-02
6.680000000000000382e-01,-8.662052515303551858e-02,-2.356232225229354729e-02,7.391781441823730425e-02
6.690000000000000391e-01,-7.774869285693600252e-02,-3.996355159667367568e-02,4.994732721333849240e-02
6.700000000000000400e-01,-6.096047002915438301e-02,-5.381185439874711096e-02,-7.501221510375108252e-04
6.710000000000000409e-01,-8.251240479143215345e-02,-3.092706943483683815e-02,3.497443402661881695e-02
6.720000000000000417e-01,-9.168048853898098927e-02,4.972053541544895448e-03,2.799460155440093231e-02
6.730000000000000426e-01,-7.749770143574907788e-02,7.697708346778671905e-03,-2.377793896851768465e-02
6.740000000000000435e-01,-1.113563634408085701e-01,3.939163466295690641e-02,1.542263294290719886e-02
6.750000000000000444e-01,-9.810096716857849564e-02,2.175168052866820537e-02,-4.432853240368056502e-02
6.760000000000000453e-01,-7.014502170470024445e-02,5.662965629690423774e-02,-1.961124185672039055e-02
6.770000000000000462e-01,-4.871436366361880238e-02,5.802413719440907558e-02,-6.400688678686947131e-02
6.780000000000000471e-01,-7.440610296311712946e-02,5.173212570427616896e-02,-4.065167256908550769e-02
6.790000000000000480e-01,-6.902759670644610657e-02,7.061134304086658098e-02,-3.847229791207739530e-02
6.800000000000000488e-01,-5.706151479782550079e-02,9.062657707367247073e-02,-9.362114092543076527e-02
6.810000000000000497e-01,-1.952473510579537386e-02,8.352614415440720586e-02,-6.991141277842681523e-02
6.820000000000000506e-01,-1.625427898049164321e-02,6.165229682941660017e-02,-5.272614783733390459e-02
6.830000000000000515e-01,8.341523403721106886e-03,1.046257109851990025e-01,-5.493673428319121449e-02
6.840000000000000524e-01,-4.452594118388121178e-03,6.601451564589408405e-02,-3.835139091393799382e-02
6.850000000000000533e-01,7.981672413287288492e-03,6.310694457962633119e-02,-6.952441819130349143e-02
6.860000000000000542e-01,7.475430409499851658e-02,7.257224897925322604e-02,-5.752277892661040309e-02
6.870000000000000551e-01,2.927017214915449139e-02,5.822037138493207226e-02,-4.056991882598755261e-02
6.879999999999999449e-01,8.755856778289905495e-02,2.992710786492187164e-02,-3.741161057769096937e-02
6.889999999999999458e-01,8.518436832243757306e-02,6.004393648081604584e-02,-5.875299289376934020e-02
6.899999999999999467e-01,7.731201955362199119e-02,6.429869057734538540e-02,-5.837003407537421501e-02
6.909999999999999476e-01,6.694499622803777583e-02,1.019777417392932900e-02,-1.220858866440019917e-02
6.919999999999999485e-01,1.000790996860623366e-01,5.988354752938705727e-02,-3.149137471780675407e-02
6.929999999999999494e-01,9.914416309509602176e-02,3.302488341953289941e-02,-2.309732646762954755e-02
6.939999999999999503e-01,1.005653757195183601e-01,-9.354317034953801152e-03,-1.496358463986353915e-02
6.949999999999999512e-01,1.059630017207081470e-01,5.695002945855884454e-05,-2.390071745075761367e-02
6.959999999999999520e-01,8.259445675037839496e-02,-4.086123166946815932e-02,-1.757693220943097601e-02
6.969999999999999529e-01,1.072094136588241653e-01,-3.161506080046253692e-02,2.448375370345980042e-03
6.979999999999999538e-01,6.971229089352534714e-02,-5.805456809471123275e-02,8.113784137351157111e-03
6.989999999999999547e-01,8.069893487395674025e-02,-6.866408847667991588e-02,7.536606605265580572e-02
6.999999999999999556e-01,8.494104493281083579e-02,-3.532621231022730485e-02,2.360848326139169950e-02
7.009999999999999565e-01,6.025550623234721820e-02,-8.607355437617773830e-02,6.239725822401157723e-02
7.019999999999999574e-01,5.737574499787519156e-03,-7.676461699641443093e-02,3.607438378960963615e-02
7.029999999999999583e-01,1.856688473234795319e-03,-6.828001233793715152e-02,3.887281881796991051e-02
7.039999999999999591e-01,-1.389964642578565661e-02,-8.035193065563822623e-02,7.371353317853075737e-02
7.049999999999999600e-01,-1.446567912502962072e-02,-9.801868660070114925e-02,7.643925849491060853e-02
7.059999999999999609e-01,-2.922790767806146550e-02,-6.163975454904332962e-02,4.734090001929488339e-02
7.069999999999999618e-01,-3.165068342339373564e-02,-3.750360042763999785e-02,2.557980510188101464e-02
7.079999999999999627e-01,-5.360421963371833631e-02,-9.073402030760843728e-02,7.388018679545971246e-02
7.089999999999999636e-01,-7.296334769810314258e-02,-2.499255994283966845e-02,5.041437456098305653e-02
7.099999999999999645e-01,-6.193235644396970219e-02,-3.182562784935064754e-02,2.402123301246900100e-02
7.109999999999999654e-01,-7.468906744731197700e-02,-7.740169457573868594e-02,8.528591872226705395e-02
7.119999999999999662e-01,-8.449869859622881341e-02,-4.573873206538286301e-02,8.873672681606185539e-03
7.129999999999999671e-01,-1.094696689499510267e-01,4.951638969867823382e-04,-2.505327105415833516e-03
7.139999999999999680e-01,-1.131408074166347921e-01,-1.074967308673083211e-02,2.711982290928264400e-02
7.149999999999999689e-01,-8.795427061596081120e-02,5.429499567383489628e-02,1.603822546389502279e-02
7.159999999999999698e-01,-1.006963441551765454e-01,1.168739279915596146e-02,-1.069005517764845536e-02
7.169999999999999707e-01,-1.064803730118334263e-01,2.085244630707447366e-02,-1.333706366241099381e-02
7.179999999999999716e-01,-6.847691014178820812e-02,4.563415970824930001e-02,2.431903280727249188e-03
7.189999999999999725e-01,-8.621733724790964226e-02,3.640713983418930599e-02,-3.532506112878985166e-02
7.199999999999999734e-01,-1.036345576049946399e-01,5.393096978002397818e-02,-1.824629918559353414e-02
7.209999999999999742e-01,-2.838191117390307522e-02,5.692264066297437336e-02,-1.976787934072658792e-02
7.219999999999999751e-01,-7.481255195842939631e-02,7.156468565826312744e-02,-8.483084435311434579e-02
7.229999999999999760e-01,-7.392734793503512314e-02,1.130527090243388794e-01,-7.151132557802149237e-02
7.239999999999999769e-01,-3.664896300122436751e-02,7.158807165781971849e-02,-7.611150493918147908e-02
7.249999999999999778e-01,-1.328539020722088564e-02,6.640887329268338468e-02,-5.299086230101220096e-02
7.259999999999999787e-01,2.425803313074630443e-02,9.644674529336409730e-02,-5.077110854554355707e-02
7.269999999999999796e-01,4.025907873812817339e-02,8.431953887823137594e-02,-8.101044195907604328e-02
7.279999999999999805e-01,2.788707946529292436e-02,4.937948920866951780e-02,-4.796755785881476331e-02
7.289999999999999813e-01,1.975317357620935688e-02,6.420248394350756838e-02,-5.793541887080125991e-02
7.299999999999999822e-01,8.331510405684766640e-02,6.615271131283832762e-02,-7.195305950622583879e-02
7.309999999999999831e-01,9.625173163002839760e-02,6.263235154523701109e-02,-3.726565256067687626e-02
7.319999999999999840e-01,7.858087948252820421e-02,5.136894260372533438e-02,-2.759320654460831190e-02
7.329999999999999849e-01,6.146019470219050984e-02,2.662181669739523832e-02,-5.228315075083218855e-02
7.339999999999999858e-01,8.062407724333152392e-02,2.307099101303095728e-02,6.555178421252914542e-03
7.349999999999999867e-01,1.286038847463502055e-01,4.511335684282278408e-02,1.159499854057558302e-02
7.359999999999999876e-01,1.363027084011075862e-01,-9.032229425478124213e-03,-3.574554429434868841e-02
7.369999999999999885e-01,1.132772603444302251e-01,9.058361950265381157e-03,2.039767416087732640e-02
7.379999999999999893e-01,1.181059440818423151e-01,-4.768498279651800509e-02,-6.133706537698256633e-03
7.389999999999999902e-01,9.939492230914585835e-02,-2.236863273094172322e-02,6.793335885671464291e-02
7.399999999999999911e-01,7.744238829557220649e-02,-4.899931973842207300e-02,2.044478258782797542e-02
7.409999999999999920e-01,7.816353245597293387e-02,-7.339256247452446980e-02,2.953901441383112100e-02
7.419999999999999929e-01,6.462831055491281840e-02,-3.733963778305430387e-02,4.744003232804524378e-02
7.429999999999999938e-01,4.839550288705798259e-02,-4.992786654772695537e-02,4.213976494860149219e-02
7.439999999999999947e-01,4.600456823045815519e-02,-8.879021366052772257e-02,8.829647447637500868e-02
7.449999999999999956e-01,4.630371116345139565e-02,-1.069849909825634354e-01,1.237027145694124565e-02
7.459999999999999964e-01,7.602618519509915344e-03,-1.270607222410119197e-01,5.588842885850204417e-02
7.469999999999999973e-01,1.063780701623796322e-02,-9.659808191118642029e-02,8.075198223055100877e-02
7.479999999999999982e-01,-4.958776219367824062e-02,-8.703070823979405790e-02,6.878116493317852631e-02
7.489999999999999991e-01,-3.405311101199995361e-02,-7.137070474826716360e-02,5.346630633501366081e-02
7.500000000000000000e-01,-3.613407814642686372e-02,-4.590911447185502120e-02,6.309525129838519653e-02
7.510000000000000009e-01,-7.082563597416254020e-02,-8.411845514400936863e-02,2.633029776264160862e-02
7.520000000000000018e-01,-8.192165216814641104e-02,-4.445047155699861918e-02,6.553183039484181127e-02
7.530000000000000027e-01,-9.916436309552872919e-02,-5.384376014138312488e-02,2.998604581499982394e-02
7.540000000000000036e-01,-7.781494860221116472e-02,-5.203137686486128399e-02,-3.385076985615898242e-03
7.550000000000000044e-01,-1.013810832206333973e-01,-4.266206242144134769e-02,5.488340192447853372e-02
7.560000000000000053e-01,-9.534105661540207000e-02,8.831058990404901457e-03,3.702573611777126156e-02
7.570000000000000062e-01,-7.842047752633399260e-02,1.696828840173168068e-02,1.332167539022614984e-02
7.580000000000000071e-01,-9.921869239470712531e-02,5.123508562603546791e-03,1.119500131290829432e-02
7.590000000000000080e-01,-9.935250884555602013e-02,4.579038728624514748e-02,-2.835967669735772051e-03
7.600000000000000089e-01,-8.356658521908233439e-02,4.042768355521411672e-02,1.638259326757122991e-02
7.610000000000000098e-01,-1.261679820012335529e-01,3.359604439552322380e-02,-1.292743306285970041e-02
7.620000000000000107e-01,-5.202232152255898551e-02,7.716418406803197960e-02,-4.516621163715246745e-02
7.630000000000000115e-01,-5.044915597282011860e-02,8.748102237959559657e-02,-3.221298587660487850e-02
7.640000000000000124e-01,-4.658277472223461974e-02,7.778451027888835800e-02,-4.329260821886981442e-02
7.650000000000000133e-01,-3.414849626430707663e-02,1.030364147434252170e-01,-1.944146024443434498e-02
7.660000000000000142e-01,-2.632775251008890108e-02,6.503759923425463108e-02,-4.322615870054775239e-02
7.670000000000000151e-01,-1.595509575240252817e-02,8.222090245901261807e-02,-8.089890811392003167e-02
7.680000000000000160e-01,-5.752247267007063857e-04,8.959838316662356583e-02,-5.691490471474335011e-02
7.690000000000000169e-01,8.442826228533754918e-03,9.716286329638773589e-02,-5.296812074802159653e-02
7.700000000000000178e-01,2.592589714196115100e-02,5.602269414570563294e-02,-6.511579606915739171e-02
7.710000000000000187e-01,8.302425772249164004e-02,6.431960901067365621e-02,-6.887054943481256408e-02
7.720000000000000195e-01,5.713162363451005504e-02,1.062678919045798864e-01,-6.085287979753191412e-02
7.730000000000000204e-01,7.422480659041123807e-02,4.462163821399132285e-02,-6.641787109750900420e-02
7.740000000000000213e-01,5.546984691420862867e-02,3.170537475888092482e-02,-4.807651798394869253e-02
7.750000000000000222e-01,7.574297993059378453e-02,8.442811208781977883e-02,-3.980156941171045931e-02
7.760000000000000231e-01,1.345876022533516181e-01,8.743317218334392682e-03,-5.197944197683145723e-02
7.770000000000000240e-01,1.075573825417330959e-01,5.835514444620058805e-02,1.112327231236330191e-02
7.780000000000000249e-01,9.908556361035286697e-02,9.231254739862932573e-03,-3.007301968431091814e-03
7.790000000000000258e-01,9.144218261640893464e-02,-2.771578961164557556e-02,-2.659877256586761982e-02
7.800000000000000266e-01,1.140457589676640848e-01,-2.563867095650160244e-02,-1.771687298888578385e-02
7.810000000000000275e-01,1.045277331456490738e-01,-9.672955942430611076e-02,2.967931998822744000e-02
7.820000000000000284e-01,9.477989227613986545e-02,-3.575590467677887407e-02,-1.148393596429492583e-02
7.830000000000000293e-01,7.163759877040268287e-02,-4.622788117161438087e-02,3.060695972469981360e-02
7.840000000000000302e-01,8.466898744252016051e-02,-7.639351509928349326e-02,2.781148938733387851e-02
7.850000000000000311e-01,6.474273345663207613e-02,-4.514354154463480484e-02,3.385047266798854593e-02
7.860000000000000320e-01,8.214449909274618156e-02,-9.078854730888326341e-02,4.876650097302152875e-02
7.870000000000000329e-01,5.216970773848782217e-02,-8.273744462395728194e-02,7.604234983306604190e-02
7.880000000000000338e-01,2.507503242919682448e-02,-6.671237915912969774e-02,7.553616863351365895e-02
7.890000000000000346e-01,-1.667188241008575600e-02,-1.129075238191249858e-01,5.010510945390193871e-02
7.900000000000000355e-01,5.487259045495337939e-03,-7.459817436221555242e-02,6.753900558049204250e-02
7.910000000000000364e-01,-2.036473224076527228e-02,-7.140892266720884340e-02,3.970207612968415511e-02
7.920000000000000373e-01,-2.884303682491327209e-02,-6.478651273608375394e-02,1.116488717174642931e-01
7.930000000000000382e-01,-3.777951042753720928e-02,-5.352722050079547489e-02,6.536802367074712183e-02
7.940000000000000391e-01,-4.225348272294096597e-02,-6.131324204265278799e-02,7.456742178510174235e-02
7.950000000000000400e-01,-8.805642573693325814e-02,-6.822671495403161146e-02,9.065412028277448908e-02
7.960000000000000409e-01,-6.450068061201122416e-02,-3.126254409943133444e-02,3.407154848706762940e-02
7.970000000000000417e-01,-1.212897921813818614e-01,6.755482659815352682e-03,2.024135608107398981e-02
7.980000000000000426e-01,-1.354440906124502464e-01,-1.537840797470880691e-02,5.705013744419832472e-02
7.990000000000000435e-01,-9.758198110631988165e-02,6.866693743002475619e-03,1.503400088959530416e-02
8.000000000000000444e-01,-1.216631683255172680e-01,2.360136472489055004e-02,2.608047080720907879e-02
8.010000000000000453e-01,-1.065919313314393907e-01,3.745373937194196312e-02,1.227143365681714234e-02
8.020000000000000462e-01,-8.610422486284532995e-02,5.853984432576475605e-02,-1.213344543936844015e-03
8.030000000000000471e-01,-1.028677747428481809e-01,5.774601520580759095e-02,-3.943602134255183578e-02
8.040000000000000480e-01,-8.661305553211104402e-02,3.679813000425260355e-02,-1.984536805595502745e-02
8.050000000000000488e-01,-8.563668649783150177e-02,5.142163952524718418e-02,-2.601167027892413441e-02
8.060000000000000497e-01,-5.835352577785380551e-02,1.069992851633785463e-01,-2.186402221154820288e-02
8.070000000000000506e-01,-7.018880391058170132e-02,7.361091880928363751e-02,-4.535403175406304416e-02
8.080000000000000515e-01,-6.940944639920079706e-02,1.200324678961632446e-01,-6.750325403455338658e-02
8.090000000000000524e-01,-2.050626016794856316e-02,8.928855076333906682e-02,-6.982487288816553728e-02
8.100000000000000533e-01,-2.153670807102445097e-03,2.991303569114555153e-02,-4.567431088982020632e-02
8.110000000000000542e-01,4.212193702138067319e-02,9.015611717163610206e-02,-6.261324688148010853e-02
8.120000000000000551e-01,-8.842001846000082646e-04,9.337586896200650299e-02,-7.449027688303128114e-02
8.129999999999999449e-01,2.811900414476486629e-02,6.711896443440604210e-02,-7.223438068180113025e-02
8.139999999999999458e-01,5.209689987314133214e-03,5.168267225479113158e-02,-4.966009588912428940e-02
8.149999999999999467e-01,6.745449461856967144e-02,4.722336767230297938e-02,-6.312528921204386967e-02
8.159999999999999476e-01,6.611671907927198222e-02,6.944349281369753546e-02,-2.855529532031843634e-02
8.169999999999999485e-01,1.010069361162063695e-01,6.781586484811863436e-02,-2.189318382522808387e-02
8.179999999999999494e-01,7.214856639070771349e-02,5.610862409068814033e-02,-4.227015010438850418e-02
8.189999999999999503e-01,1.270877150024865010e-01,-1.055267203421705186e-03,-4.099718456457497606e-02
8.199999999999999512e-01,9.984450386000968958e-02,-1.794661773857158388e-02,-2.372574421877156337e-02
8.209999999999999520e-01,8.508193801084575070e-02,-3.286258636333704714e-02,-1.701576008739079382e-02
8.219999999999999529e-01,6.595660619534544911e-02,-1.576654036173419371e-02,-5.799399982189222535e-03
8.229999999999999538e-01,1.013153079333554835e-01,-7.088075330193861767e-02,-9.284825495195781972e-03
8.239999999999999547e-01,1.106588129033937024e-01,-1.321870297343823511e-02,-1.781353133563179673e-03
8.249999999999999556e-01,1.063038933778190226e-01,-7.803063370114053654e-02,2.814354162049646085e-03
8.259999999999999565e-01,1.069048186050081811e-01,-7.924105545357759683e-02,1.993445798779648268e-02
8.269999999999999574e-01,8.407803580992991022e-02,-7.756301093303351324e-02,6.232384036498245239e-02
8.279999999999999583e-01,6.408052313500731123e-02,-1.151019189927731529e-01,6.312463588244103530e-02
8.289999999999999591e-01,5.540890920411514764e-02,-9.090992432462570438e-02,2.239245486784485067e-02
8.299999999999999600e-01,6.145189348082134156e-02,-6.455936829600548987e-02,6.764474250459950877e-02
8.309999999999999609e-01,1.886798587470921856e-02,-1.028137026269993065e-01,6.243881312011990287e-02
8.319999999999999618e-01,-2.104454463815076323e-02,-8.492916654031659740e-02,5.507678421442795819e-02
8.329999999999999627e-01,-2.929156776600695244e-03,-8.533979085365551998e-02,4.227316613901391934e-02
8.339999999999999636e-01,-5.467357139547669720e-02,-4.049750348628267799e-02,7.921248671907400729e-02
8.349999999999999645e-01,-4.053092345629995957e-02,-9.146183239345274940e-02,5.427549232613144981e-02
8.359999999999999654e-01,-6.930671960512670149e-02,-6.222605558370823686e-02,3.419955180897074620e-02
8.369999999999999662e-01,-6.512489374659682917e-02,1.525512470586003677e-03,6.282662911048854382e-02
8.379999999999999671e-01,-1.012987282432478847e-01,-6.422653065796279925e-02,5.959191802972637481e-02
8.389999999999999680e-01,-8.819702199918931507e-02,-3.124748502083045040e-02,7.277217722967310731e-02
8.399999999999999689e-01,-1.067845707180101605e-01,-2.582737210415547366e-02,2.010547874954301747e-02
8.409999999999999698e-01,-9.940146195239482618e-02,-1.118863066057020073e-02,4.056699109151755411e-02
8.419999999999999707e-01,-1.536129483644559091e-01,1.850554110035968966e-02,4.952523382525354095e-02
8.429999999999999716e-01,-8.860692986067809918e-02,3.935228370636702222e-02,1.162938178390474087e-02
8.439999999999999725e-01,-7.621372768222743621e-02,4.186263506924645106e-02,-1.348116865698440262e-02
8.449999999999999734e-01,-6.274330736925594343e-02,3.635380195343829168e-02,-1.919026797097106440e-02
8.459999999999999742e-01,-9.414034478505636794e-02,2.345151253937988525e-02,-1.694708189483028205e-02
8.469999999999999751e-01,-5.833896749920074870e-02,8.638611659236891671e-02,-9.914912107609957087e-03
8.479999999999999760e-01,-8.177796727806284360e-02,9.759241301749656261e-02,-1.102596842459327257e-02
8.489999999999999769e-01,-2.973859242516380119e-02,6.199304332605453521e-02,-4.757883970037122406e-02
8.499999999999999778e-01,-3.195113862587137255e-02,5.561790842295014775e-02,-1.659433857726395900e-02
8.509999999999999787e-01,-4.331743493325278249e-02,5.898168210352858210e-02,-2.627119264857838421e-02
8.519999999999999796e-01,-4.026365052693654106e-02,1.184862614486910937e-01,-3.965716248956609180e-02
8.529999999999999805e-01,-1.380564783966713692e-02,1.060092042544808350e-01,-4.809512745941567358e-02
8.539999999999999813e-01,2.571671950058407666e-02,7.866994346288107287e-02,-5.692199099110965138e-02
8.549999999999999822e-01,4.819958788043382514e-02,9.232914514773755965e-02,-5.768484971881816109e-02
8.559999999999999831e-01,4.481258843705538536e-02,3.168224138196803347e-02,-5.368763856418290459e-02
8.569999999999999840e-01,5.343993496891292355e-02,6.744251773371533198e-02,-6.342006251171852793e-02
8.579999999999999849e-01,5.960693186229762408e-02,3.051272509353556220e-02,-6.195437483767604614e-02
8.589999999999999858e-01,5.638672557369791422e-02,4.042525350665524680e-02,-5.484124254151015454e-02
8.599999999999999867e-01,6.931630783469186485e-02,2.662125534116577263e-02,-3.787152465401848189e-02
8.609999999999999876e-01,6.943204079450862598e-02,2.774665751647104744e-02,-2.751756098039134443e-02
8.619999999999999885e-01,9.413853566121421768e-02,9.317069613555556060e-03,-5.038849761596393001e-02
8.629999999999999893e-01,8.519130209736323900e-02,-2.088261347607472257e-02,-1.952123323694930634e-02
8.639999999999999902e-01,1.035274430521414962e-01,-1.259742445990733213e-02,-2.808393904467979679e-02
8.649999999999999911e-01,1.523419068826042388e-01,-2.689586346769961764e-02,-3.970751087236606622e-03
8.659999999999999920e-01,6.582632536237252585e-02,-2.372668130739305839e-02,2.611214587549416828e-03
8.669999999999999929e-01,7.865011245622864633e-02,-1.173554343087234234e-02,-6.552377380770696078e-03
8.679999999999999938e-01,6.187764569603224768e-02,-7.586840546750893421e-02,7.296014048764389200e-03
8.689999999999999947e-01,6.395848666557149564e-02,-8.182403877476002174e-02,2.737465972866799657e-02
8.699999999999999956e-01,1.633471999317084519e-02,-1.035353006301793499e-01,3.563072250748651471e-02
8.709999999999999964e-01,4.043918827074573230e-02,-5.831099504488214402e-02,3.702624087433766670e-02
8.719999999999999973e-01,7.266624870602296504e-02,-6.642230632378380573e-02,5.426966775876256727e-02
8.729999999999999982e-01,2.212574527219239584e-02,-9.092535735879156422e-02,7.136764556424703143e-02
8.739999999999999991e-01,-2.891036665969519415e-02,-6.805303989257112385e-02,7.918805526066083345e-02
8.750000000000000000e-01,-1.721812967504526143e-02,-4.920343092314426181e-02,9.330819713599941556e-02
8.760000000000000009e-01,-8.802550305102763498e-03,-5.135869351333594013e-02,5.880971570316181202e-02
8.770000000000000018e-01,-7.045425873667450489e-02,-6.661922950344532912e-02,4.320128860171616736e-02
8.780000000000000027e-01,-5.120094405732431714e-02,-9.208172842899871313e-02,5.504743236168249676e-02
8.790000000000000036e-01,-6.663272485261600986e-02,-6.200249756390971423e-02,5.348615530218084335e-02
8.800000000000000044e-01,-5.105067749338243477e-02,-1.921125086667949469e-02,7.783244908594620648e-02
8.810000000000000053e-01,-8.832952066722929430e-02,-1.232455161343088031e-02,8.846259096152520041e-02
8.820000000000000062e-01,-6.703112498586666357e-02,-7.036573190340547623e-02,2.688157150531525139e-02
8.830000000000000071e-01,-9.046544391800831475e-02,-1.742454351525052000e-02,3.781706558351709269e-02
8.840000000000000080e-01,-1.142484072729607475e-01,-1.457653692185009904e-02,1.955276412177914605e-02
8.850000000000000089e-01,-4.835391418180989831e-02,2.281096273930675877e-02,2.184045815196420867e-02
8.860000000000000098e-01,-1.063495985465568450e-01,6.047887049733090270e-02,2.019600741934425570e-02
8.870000000000000107e-01,-9.551727031069782992e-02,5.026591870993950273e-02,2.424465817443312993e-02
8.880000000000000115e-01,-9.689131230232607417e-02,1.694337847396516425e-03,2.540821176338780186e-05
8.890000000000000124e-01,-9.043958785486395924e-02,6.555395809611143376e-02,-2.995229613665855925e-02
8.900000000000000133e-01,-7.486651750880066181e-02,8.330938761392288339e-02,-5.414731009055257643e-02
8.910000000000000142e-01,-6.019748817625138193e-02,7.686130209467326169e-02,-5.155036350697074672e-03
8.920000000000000151e-01,-4.041097324049135880e-02,7.380345811857952354e-02,-5.601075495371172358e-02
8.930000000000000160e-01,-6.138564374330428980e-02,6.835983908271037190e-02,-3.528290512834726667e-02
8.940000000000000169e-01,-1.128016783664634488e-02,1.045224389374750651e-01,-6.291969024016669243e-02
8.950000000000000178e-01,-3.651034162566700603e-02,8.622688903151121131e-02,-4.036758978562673267e-02
8.960000000000000187e-01,5.855926762121752872e-03,5.745004256464632253e-02,-6.721022189048442286e-02
8.970000000000000195e-01,1.150516205508657179e-02,4.763830230098445306e-02,-2.993105780435069072e-02
8.980000000000000204e-01,-9.848104651111563856e-03,8.415852249894723025e-02,-7.363650058101066376e-02
8.990000000000000213e-01,2.334230122920857159e-02,7.659658183222779748e-02,-3.551982239368209338e-02
9.000000000000000222e-01,7.876093575956087667e-02,8.896754051097621740e-02,-4.048798098606384843e-02
9.010000000000000231e-01,9.956185519409090079e-02,3.056853636167414581e-02,-5.349691409145915927e-02
9.020000000000000240e-01,7.495980131522317347e-02,1.285384316554720116e-02,-5.837486285514748019e-02
9.030000000000000249e-01,6.495552776305001108e-02,1.346659511790548359e-02,-4.707345233401291629e-02
9.040000000000000258e-01,8.845752986348850988e-02,3.256759231938734928e-02,-3.765455375789956982e-02
9.050000000000000266e-01,1.144855830090177884e-01,-2.416654567723543201e-02,-3.234883796344646678e-02
9.060000000000000275e-01,1.189549737529800588e-01,-3.450443986302401123e-02,-4.067139603895363748e-02
9.070000000000000284e-01,8.155467036524784163e-02,-5.253739364577276333e-02,-1.709743784247954798e-02
9.080000000000000293e-01,1.203790267420715432e-01,-2.971500777634681137e-02,-2.818500428404175848e-02
9.090000000000000302e-01,4.810906589261511324e-02,-6.788548234537469805e-02,-3.235065134303342915e-02
9.100000000000000311e-01,8.975479960269613922e-02,-9.060014052667979267e-02,-8.960788896869430198e-03
9.110000000000000320e-01,1.009011899708886079e-01,-8.100847916908218704e-02,1.726453750821993136e-02
9.120000000000000329e-01,8.717478706829603907e-02,-6.853158999361838588e-02,1.836093278058320956e-03
9.130000000000000338e-01,7.789549719993986432e-02,-7.432226750015344385e-02,1.079276915987597424e-02
9.140000000000000346e-01,6.364062210808664466e-02,-7.590640873066417660e-02,1.076258259517032072e-02
9.150000000000000355e-01,5.587141806251690740e-02,-4.556650206477642212e-02,3.817790741025736678e-02
9.160000000000000364e-01,1.557836037367697074e-02,-5.619082463529621874e-02,7.978804543357874424e-02
9.170000000000000373e-01,-2.525280008077205457e-02,-7.914164768519983684e-02,6.785578700216364501e-02
9.180000000000000382e-01,-1.941062532864441803e-02,-1.049092933662540833e-01,7.769420873765128799e-02
9.190000000000000391e-01,-3.168416535241944110e-02,-8.659308179797291227e-02,4.187067128060689702e-02
9.200000000000000400e-01,-3.909249685692559734e-02,-6.820165159627344931e-02,2.291307531045067014e-02
9.210000000000000409e-01,-8.871876245502485769e-02,-3.316059558183961919e-02,5.229351604253629909e-02
9.220000000000000417e-01,-7.033600820977502222e-02,-4.102730390380689846e-02,5.692482542337098939e-02
9.230000000000000426e-01,-9.548905045027983318e-02,-4.739109246957775440e-02,2.861296156090080769e-02
9.240000000000000435e-01,-8.123264225553734896e-02,-5.193619498065123880e-02,5.479919168247476130e-02
9.250000000000000444e-01,-8.557398768909039999e-02,2.493084219238677485e-02,6.198945164315663309e-02
9.260000000000000453e-01,-8.848399213018895426e-02,-3.029803594591596195e-03,8.395031952671587472e-02
9.270000000000000462e-01,-1.253278136152159994e-01,1.048477312178284007e-02,6.919267544515075863e-02
9.280000000000000471e-01,-7.123671531784653288e-02,-3.988036941725029913e-03,5.368097807656845716e-02
9.290000000000000480e-01,-8.756585092270748050e-02,8.087446056696519225e-02,2.895679283423817363e-02
9.300000000000000488e-01,-8.111918197127754304e-02,1.678800477279840039e-02,9.055160963013037185e-04
9.310000000000000497e-01,-8.477316343900609397e-02,6.774556004150530941e-02,2.373614010674909847e-02
9.320000000000000506e-01,-6.303802451799984941e-02,6.259302426689902776e-02,-1.592590882789951534e-02
9.330000000000000515e-01,-5.033146610407357446e-02,5.205341332858139797e-02,-4.899376969784421942e-02
9.340000000000000524e-01,-7.881217043474032791e-02,4.127602743635294669e-02,-5.900412174813058491e-02
9.350000000000000533e-01,-2.600505982364991961e-02,4.107151558648430845e-02,-2.525958982944846026e-02
9.360000000000000542e-01,1.840295771868349223e-02,7.295806522290720908e-02,-1.626847877203883505e-02
9.370000000000000551e-01,-5.207997364242361593e-02,8.878250918490955546e-02,-3.123913594211458547e-02
9.379999999999999449e-01,-5.874493811674159904e-02,6.176732613084780915e-02,-6.505644756371431470e-02
9.389999999999999458e-01,2.199262658188820552e-02,7.757589708953527285e-02,-5.838072395671688175e-02
9.399999999999999467e-01,1.084339548321671841e-03,9.068086961122184819e-02,-7.593942013087229270e-02
9.409999999999999476e-01,5.914459171104741869e-02,4.302495935551538253e-02,-6.827908314318374694e-02
9.419999999999999485e-01,5.932652194094884673e-02,7.148969724891145183e-02,-8.557620357510030418e-02
9.429999999999999494e-01,8.966870529735052053e-02,3.789197873725075327e-02,-6.369298986907709348e-02
9.439999999999999503e-01,9.265338146165168209e-02,5.539917013493825086e-03,-1.521582767359332990e-02
9.449999999999999512e-01,8.596002351758934290e-02,2.939927771877230006e-02,-4.609771865434901528e-02
9.459999999999999520e-01,7.167599994225705429e-02,2.806806714203462227e-02,-4.055067286177828356e-02
9.469999999999999529e-01,8.384550485044298118e-02,5.030743301064056344e-03,-4.046794716074398474e-02
9.479999999999999538e-01,1.179660066534029828e-01,-2.819130714908800114e-02,-2.925595412166443268e-02
9.489999999999999547e-01,1.082001887655984068e-01,-1.787310046182989318e-02,-3.118336411770861530e-02
9.499999999999999556e-01,1.112281669545240048e-01,-5.586173183094321482e-02,1.335687397872766316e-02
9.509999999999999565e-01,1.095713121324814049e-01,-3.000281226760129552e-02,1.270713370808556307e-02
9.519999999999999574e-01,1.094799175721847262e-01,-9.218083140179872403e-02,-1.468025909236138522e-02
9.529999999999999583e-01,6.590051839745827977e-02,-5.607257902908303199e-02,5.511256209217282355e-03
9.539999999999999591e-01,3.746051390690442046e-02,-1.123721269168140441e-01,1.838222534945137482e-03
9.549999999999999600e-01,9.862220472061111742e-02,-5.920277626115839908e-02,3.908622946566926715e-02
9.559999999999999609e-01,4.826229330800832495e-02,-8.006347374904404512e-02,3.558575955701251403e-02
9.569999999999999618e-01,3.381252866451895517e-02,-4.762160771680996191e-02,4.064288183660020454e-02
9.579999999999999627e-01,1.603529880419378439e-02,-8.140149884930943103e-02,7.870073896438775640e-02
9.589999999999999636e-01,3.905702173052275766e-02,-5.560972876315894292e-02,2.730933246704886699e-02
9.599999999999999645e-01,-1.328063254854187740e-02,-4.436760350052297575e-02,8.734650494369773643e-02
9.609999999999999654e-01,-2.397426150923548036e-02,-4.707623447986279686e-02,5.845390866952732828e-02
9.619999999999999662e-01,-4.410384574799240676e-02,-6.057540088707299986e-02,6.524709677691484244e-02
9.629999999999999671e-01,-5.729664684342897912e-02,-4.685919948791733569e-02,3.708285200100007450e-02
9.639999999999999680e-01,-6.912285891662452164e-02,-2.348932410201973534e-02,8.813693698397381815e-02
9.649999999999999689e-01,-8.241878991769549523e-02,-1.961108793241354842e-02,8.195612021195872177e-02
9.659999999999999698e-01,-4.676523563919154219e-02,1.386961906617397398e-03,4.292428756043054072e-02
9.669999999999999707e-01,-1.147612399838243563e-01,-2.647196892071866994e-03,3.390583206982319270e-02
9.679999999999999716e-01,-1.100451260466828174e-01,1.538000735920237380e-02,2.836010389142933422e-02
9.689999999999999725e-01,-1.152418903404942713e-01,4.823441992365242598e-02,4.852735722081760045e-02
9.699999999999999734e-01,-1.177386592267076065e-01,2.325831238825972272e-02,3.036313271965879537e-02
9.709999999999999742e-01,-1.194601478187988230e-01,9.765467144961996471e-02,2.718255837829679569e-02
9.719999999999999751e-01,-1.015585802941873089e-01,5.267308116692431125e-02,-1.659874521308018352e-02
9.729999999999999760e-01,-8.555258611757921017e-02,4.116682704806249454e-02,-1.219682450168845834e-02
9.739999999999999769e-01,-6.480970522301920944e-02,9.491070872803840375e-02,-1.690349162116876539e-02
9.749999999999999778e-01,-8.840147922860323859e-02,5.406837557325055305e-02,-4.833225104162318375e-02
9.759999999999999787e-01,-5.640000150100350773e-02,8.048253602022889530e-02,-5.127870795156840716e-02
9.769999999999999796e-01,-3.587381088910476801e-02,1.045026795243004097e-01,-5.421074587661645072e-02
9.779999999999999805e-01,-3.135429346977697262e-02,6.561416134219553997e-02,-8.634850600180016267e-02
9.789999999999999813e-01,-1.468424065069290178e-02,5.059681964094264045e-02,-6.681912840900228190e-02
9.799999999999999822e-01,-1.139587766786934794e-03,6.094306309542171091e-02,-8.788983268275453453e-02
9.809999999999999831e-01,8.765658776834241855e-03,8.008525557563789254e-02,-6.420559987890581133e-02
9.819999999999999840e-01,4.504807103905059248e-04,6.967242796665876203e-02,-4.258705789131599084e-02
9.829999999999999849e-01,2.641644379281248706e-02,7.784736047522407276e-02,-3.820935133636219061e-02
9.839999999999999858e-01,7.279527572337537999e-02,4.725291171128217366e-02,-8.132424169616449261e-02
9.849999999999999867e-01,4.686827911994071588e-02,3.614586342783890349e-02,-4.266950526487624934e-02
9.859999999999999876e-01,9.122401519640994938e-02,4.518935313886554561e-02,-5.348361081829411390e-02
9.869999999999999885e-01,7.849770443815752563e-02,-9.427481037056768820e-03,-5.113862243439232930e-02
9.879999999999999893e-01,7.967095864387485626e-02,4.437499977998396808e-03,-4.605306228163088406e-02
9.889999999999999902e-01,9.788443084113548909e-02,-3.952333306427406601e-03,-3.977034149734059998e-02
9.899999999999999911e-01,1.167480666389798388e-01,-6.625247925367603631e-03,-3.741213748521338839e-02
9.909999999999999920e-01,1.223469500819389655e-01,-6.789116067005424027e-02,-4.602437143750505444e-02
9.919999999999999929e-01,1.196627363201643868e-01,-5.041263933432439670e-02,-3.142823846898842866e-02
9.929999999999999938e-01,1.269153801981940666e-01,-4.172704271988889047e-02,-2.416672413980956030e-02
9.939999999999999947e-01,1.239128547904360528e-01,-5.386407258804040699e-02,-1.696905881318705456e-02
9.949999999999999956e-01,7.036325135682194865e-02,-8.187713980558529447e-02,6.849118502515853975e-03
9.959999999999999964e-01,7.530217320264005754e-02,-5.958586079664535129e-02,3.424656745972316091e-02
9.969999999999999973e-01,7.253909884224143956e-02,-3.946766267283841750e-02,2.770332381770634900e-02
9.979999999999999982e-01,3.972303095311747329e-02,-1.045785027881607626e-01,2.287210677170235101e-02
9.989999999999999991e-01,5.886405431323572107e-02,-9.658602317193670794e-02,2.387814075003636544e-02
1.000000000000000000e+00,4.004185585992642293e-02,-1.334526074041203214e-01,2.162884591454500988e-02
1.000999999999999890e+00,2.721869424879395580e-02,-9.363383703021606330e-02,2.354623081017818975e-02
1.002000000000000002e+00,-5.664917081059827469e-03,-5.654966076968431093e-02,2.794268916552480192e-02
1.002999999999999892e+00,-3.143426837692924608e-02,-7.487985140202613188e-02,4.224318187428539872e-02
1.004000000000000004e+00,-2.903819901804070847e-02,-5.877119592429599221e-02,1.061430339914624099e-01
1.004999999999999893e+00,-5.338128917832744846e-02,-3.019296174634397700e-02,7.165021685743717950e-02
1.006000000000000005e+00,-7.567750252265492694e-02,-4.677935035043902234e-02,5.759494365053043768e-02
1.006999999999999895e+00,-7.955469990825810023e-02,-4.171239356380734148e-02,7.749467289857628338e-02
1.008000000000000007e+00,-5.184290244001481945e-02,-2.050086413159177626e-02,8.088981477271064979e-02
1.008999999999999897e+00,-3.607916506047510741e-02,-1.217527787683409142e-02,1.172867248592450867e-01
1.010000000000000009e+00,-9.970852362881627018e-02,-9.386210695839060716e-04,5.984451952714283512e-02
1.010999999999999899e+00,-8.294654562656125774e-02,4.805440219788324058e-03,4.413731331454033568e-02
1.012000000000000011e+00,-1.143257650275850273e-01,7.625725238331329536e-02,6.305780523568593754e-02
1.012999999999999901e+00,-7.604463843720117577e-02,5.061925355336095028e-02,3.556337430316263565e-02
1.014000000000000012e+00,-1.251155389265668494e-01,2.788836952869508737e-02,1.443200842294011833e-02
1.014999999999999902e+00,-1.027141006338556095e-01,5.317644553291540205e-02,2.477138950572725998e-02
1.016000000000000014e+00,-9.540715756920926938e-02,6.073845790171399084e-02,-1.063625017269850164e-03
1.016999999999999904e+00,-8.994271043306505120e-02,5.990667283910081076e-02,3.235546247929219771e-02
1.018000000000000016e+00,-8.869569708297009303e-02,8.231962203750797791e-02,-1.630872546054337735e-02
1.018999999999999906e+00,-5.223080344294340344e-02,7.103312915887226298e-02,-1.403837466069217908e-02
1.020000000000000018e+00,-3.884936455048027676e-02,1.065440854452718578e-01,-2.530997647636592379e-02
1.020999999999999908e+00,-3.256192926361924089e-02,7.490316305730987390e-02,-4.291288040665337811e-02
1.022000000000000020e+00,-4.799061570004792970e-02,5.197691615495293738e-02,-5.422562641548624163e-02
1.022999999999999909e+00,-3.851938674267044171e-02,8.380455836599048913e-02,-6.758182522467692799e-02
1.024000000000000021e+00,1.037869761474858633e-02,8.029242916860064583e-02,-6.955997229554465588e-02
1.024999999999999911e+00,6.973666103060797983e-02,8.978842712974424711e-02,-6.934781174583186381e-02
1.026000000000000023e+00,3.904289582525923008e-02,4.663041167920792263e-02,-8.038877010923288491e-02
1.026999999999999913e+00,4.242965590816461657e-02,7.481806706205432200e-02,-4.135630438562275940e-02
1.028000000000000025e+00,7.658384616592142646e-02,-7.420182787818628903e-03,-8.239820576634830640e-02
1.028999999999999915e+00,6.842049998340805905e-02,2.241273877027447417e-02,-5.587548029196837823e-02
1.030000000000000027e+00,8.210728215962402599e-02,4.241673428725020040e-02,-7.223897406805721011e-02
1.030999999999999917e+00,6.531989129522008941e-02,1.702965845729788319e-02,-4.017333513899185721e-02
1.032000000000000028e+00,8.005587478490135134e-02,-2.537354091071754997e-02,-4.440067280322471110e-02
1.032999999999999918e+00,9.125310897913865849e-02,-4.333507510925320438e-02,-2.307304681230722826e-02
1.034000000000000030e+00,9.383216586225326394e-02,-6.975412924484511445e-02,-2.144668290000741398e-02
1.034999999999999920e+00,1.003208636435250212e-01,-4.954713168788767857e-02,2.054265085683459890e-03
1.036000000000000032e+00,9.731529888704834597e-02,-5.049690426345441324e-02,-1.156949075511845689e-03
1.036999999999999922e+00,1.129004564994323112e-01,-9.836418250832283661e-02,-5.202672536382748313e-03
1.038000000000000034e+00,6.523713887964209535e-02,-9.006366961879171129e-02,2.600851044579296362e-02
1.038999999999999924e+00,5.600944835263655525e-02,-6.384609226274882976e-02,2.446111269110372299e-02
1.040000000000000036e+00,1.007972099000527949e-01,-4.781464689272270363e-02,2.666180477102275855e-03
1.040999999999999925e+00,6.518449552706652439e-02,-9.116091530419946631e-02,1.803736957048542380e-02
1.042000000000000037e+00,2.833711292477728363e-02,-7.800287771244569790e-02,5.762458431948098980e-02
1.042999999999999927e+00,3.904895105934257787e-02,-9.353941190717100784e-02,4.083384653536342029e-02
1.044000000000000039e+00,-1.860972134878297046e-02,-7.619067605897707207e-02,5.597167325518026537e-02
1.044999999999999929e+00,-1.722502788526913964e-02,-7.370742121197217112e-02,9.262949189927517646e-02
1.046000000000000041e+00,-1.504028685361355998e-02,-8.912493665126788867e-02,6.798823519800202553e-02
1.046999999999999931e+00,-2.446264651831230041e-02,-7.253462690313382255e-02,7.156497850430436347e-02
1.048000000000000043e+00,-7.805125127869998181e-02,-3.755701220040710830e-02,2.666288275201296812e-02
1.048999999999999932e+00,-6.446339202625829545e-02,-5.076185625461546169e-02,3.609223223752212883e-02
1.050000000000000044e+00,-8.312342959342008952e-02,-3.645989731499871961e-02,8.520321599203933838e-02
1.050999999999999934e+00,-5.976148819236335591e-02,-2.730514080826966505e-02,7.038342539118815078e-02
1.052000000000000046e+00,-9.932475256164421951e-02,2.074027604295438851e-02,4.590144751575530452e-02
1.052999999999999936e+00,-9.199085926149096204e-02,9.027434508078767406e-03,5.450739904483958842e-02
1.054000000000000048e+00,-6.562756774837287532e-02,7.797912455516020636e-02,6.094011005205491466e-02
1.054999999999999938e+00,-1.017516636938773644e-01,3.904105980682672644e-02,9.025372539816693684e-02
1.056000000000000050e+00,-1.083438674605467777e-01,2.983012229003203369e-02,-4.105365172712988585e-03
1.056999999999999940e+00,-5.257932600896523395e-02,4.265560490337075988e-02,1.485341344283032730e-02
1.058000000000000052e+00,-9.550882387570237830e-02,6.842069326832952991e-02,1.110058979693539019e-02
1.058999999999999941e+00,-1.051000968038337535e-01,9.276914656133818105e-02,-9.918161677554014621e-03
1.060000000000000053e+00,-6.552250377689235183e-02,7.315724427856423739e-02,9.678507071234731043e-03
1.060999999999999943e+00,-5.071401943206916424e-02,6.900580223898597487e-02,-1.654434297955657135e-02
1.062000000000000055e+00,-2.303045177764830378e-02,8.430069299787090742e-02,-5.748205973951001774e-02
1.062999999999999945e+00,-4.652871656429521247e-03,8.274100029116200627e-02,-5.550223678965103546e-02
1.064000000000000057e+00,-5.756420068061355449e-02,5.066036591838758013e-02,-5.061141235526415982e-02
1.064999999999999947e+00,-1.784682843449105979e-02,5.242811567877000978e-02,-6.665858401927511612e-02
1.066000000000000059e+00,-5.364636635395321311e-03,9.989289225354121282e-02,-5.881230297391968481e-02
1.066999999999999948e+00,3.707083570143336615e-02,7.365850057291353781e-02,-7.219376926539387840e-02
1.068000000000000060e+00,3.466467166892327201e-02,3.680552541015291723e-02,-9.597698151600254912e-02
1.068999999999999950e+00,3.255215068445384968e-02,2.436904971901603448e-02,-3.497401672647276749e-02
1.070000000000000062e+00,3.230734545268509894e-02,4.664362819625710727e-02,-6.772113213525421394e-02
1.070999999999999952e+00,5.222132158043795574e-02,4.990363515534616129e-02,-7.565665115452867295e-02
1.072000000000000064e+00,9.420428957414528348e-02,5.747696284961642879e-03,-6.105889819842372224e-02
1.072999999999999954e+00,4.009197651878747271e-02,-3.502872600427306589e-03,-3.957497237788410588e-02
1.074000000000000066e+00,9.395247147804951238e-02,1.991707452692832725e-02,-6.487225052894771138e-02
1.074999999999999956e+00,9.660957467127895271e-02,-3.716683989158410528e-02,-3.161864465758477266e-02
1.076000000000000068e+00,1.005256349343303934e-01,-2.070852324777247566e-02,-5.307726842655331040e-02
1.076999999999999957e+00,1.197036625219752709e-01,-8.977217998826611534e-02,-4.114753463782121895e-02
1.078000000000000069e+00,8.107433152794545073e-02,-4.761916429965663833e-02,-1.215034797380067262e-02
1.078999999999999959e+00,9.578545449618987295e-02,-9.611705145967182340e-02,-4.516489451982617226e-02
1.080000000000000071e+00,1.088826553902494110e-01,-9.549521758608420230e-02,2.384893677656029637e-02
1.080999999999999961e+00,7.951515386968936727e-02,-6.680732182339732539e-02,2.362200324619136496e-02
1.082000000000000073e+00,8.648109356730909747e-02,-9.559503417036019357e-02,9.697755840714861186e-03
1.082999999999999963e+00,5.675323991367940690e-02,-8.191571463541913456e-02,4.473448342062893296e-02
1.084000000000000075e+00,8.237760416544585851e-02,-8.630247474139861319e-02,2.256273046968659129e-02
1.084999999999999964e+00,3.559889531917093813e-02,-8.253798734890427369e-02,4.969110301243533090e-02
1.086000000000000076e+00,5.196488070661222074e-04,-7.993695220921598343e-02,3.888842878061886388e-02
1.086999999999999966e+00,-3.687871961323094944e-02,-4.665928889849008110e-02,2.263727905920367642e-02
1.088000000000000078e+00,-8.757205057012744029e-03,-4.003337244080230201e-02,1.264355674405365226e-02
1.088999999999999968e+00,-5.082781199711821490e-02,-4.237465906036386870e-02,8.495574192278240733e-02
1.090000000000000080e+00,-3.443613297571913867e-02,-4.732185305176284107e-02,5.868257279178180214e-02
1.090999999999999970e+00,-5.144187751418086846e-02,-4.948881811375718809e-02,3.706907953304034581e-02
1.092000000000000082e+00,-7.164789368238033695e-02,-4.181938977538510877e-02,9.333709276364818286e-02
1.092999999999999972e+00,-9.278364640152966802e-02,9.712933970670147108e-04,6.933257657417554731e-02
1.094000000000000083e+00,-9.435445625199240238e-02,3.317111033652611271e-03,8.222806201249209523e-02
1.094999999999999973e+00,-1.266233431583038416e-01,2.526894028099213943e-02,7.889826826283904970e-02
1.096000000000000085e+00,-8.495198460309820454e-02,6.454786557876109054e-02,2.169769312943307937e-02
1.096999999999999975e+00,-1.036979628407968673e-01,5.538086129067533447e-02,5.298170264023469023e-02
1.098000000000000087e+00,-8.783217099018568452e-02,4.335295679366199528e-02,3.892191636192163934e-02
1.098999999999999977e+00,-1.018541315367972877e-01,6.771522382352085367e-02,3.637300909733373611e-02
1.100000000000000089e+00,-8.293540451160726079e-02,6.755076002565611748e-02,-5.472883237288645765e-03
1.100999999999999979e+00,-1.030249749668840642e-01,6.202509112586986062e-02,2.064490931169577631e-02
1.102000000000000091e+00,-8.665776969421078169e-02,7.709770642337293589e-02,-2.103697922843946605e-02
1.102999999999999980e+00,-1.026290625892951475e-01,1.040023537162142186e-01,-1.816620050215916188e-02
1.104000000000000092e+00,-3.925813932249943433e-02,9.056051372127404964e-02,-2.742602772570772174e-02
1.104999999999999982e+00,-3.791589105905327634e-02,8.809810552822741614e-02,-3.614512165743967442e-02
1.106000000000000094e+00,-1.590636621305352438e-02,7.905795700566561890e-02,-4.502831559442889431e-02
1.106999999999999984e+00,1.323161349455210210e-03,5.817149602771367473e-02,-4.741366778440234131e-02
1.108000000000000096e+00,-2.378033577930966855e-02,6.859052172792226565e-02,-5.957238760187504728e-02
1.108999999999999986e+00,-3.717852681668597226e-03,9.090688509752667401e-02,-4.072183198591489139e-02
1.110000000000000098e+00,-6.070132271310316012e-03,6.748809675730003954e-02,-3.992049562096375293e-02
1.110999999999999988e+00,3.411434521970301004e-02,7.788278414889439338e-02,-4.180719559743146206e-03
1.112000000000000099e+00,6.092501977596277707e-02,3.905812665049844534e-02,-6.373886793078550883e-02
1.112999999999999989e+00,3.716173948861559856e-02,3.110440882583403663e-02,-8.817614467064875672e-02
1.114000000000000101e+00,4.694141799304368812e-02,-3.623777253877426274e-02,-8.887728361427024715e-02
1.114999999999999991e+00,8.765646769207549593e-02,-5.363748416034109720e-03,-4.515948801611169988e-02
1.116000000000000103e+00,8.414338111008175247e-02,-1.290543729785311724e-03,-6.245273625074946461e-02
1.116999999999999993e+00,7.691057314753273200e-02,-9.425046377884695181e-03,-5.393309977814430417e-02
1.118000000000000105e+00,1.114091602541433801e-01,-6.178334119798199742e-02,-3.468374688264022621e-02
1.118999999999999995e+00,1.004217242594116488e-01,-4.803916715789127712e-02,-3.777143820264547425e-02
1.120000000000000107e+00,9.046481418585851364e-02,-7.447548837677891997e-02,-1.997187989286372881e-02
1.120999999999999996e+00,1.032867891488584849e-01,-6.503510627532614607e-02,-3.400112065089223867e-02
1.122000000000000108e+00,1.200779571934080109e-01,-1.102111244650389038e-01,-4.932363295741348796e-02
1.122999999999999998e+00,9.118374478615279277e-02,-7.372343294019401139e-02,-1.532540310776419994e-02
1.124000000000000110e+00,4.950692553875978702e-02,-9.917761286432393020e-02,-2.864817654161457700e-02
1.125000000000000000e+00,5.028916863258760250e-02,-8.525363883868326831e-02,-2.163998479017778531e-02
1.125999999999999890e+00,9.771060915025854554e-02,-7.375642291334878753e-02,-1.717252317299319819e-02
1.127000000000000002e+00,7.667234813292142515e-02,-7.775522567964156251e-02,3.451901479059694966e-02
1.127999999999999892e+00,3.192932337548180094e-02,-7.659787610694965276e-02,1.502538397782478101e-02
1.129000000000000004e+00,2.480700242800521274e-02,-6.319954009251145532e-02,7.942088786880685536e-02
1.129999999999999893e+00,1.813988097385422701e-02,-2.459741665123970494e-02,2.963196317641237157e-02
1.131000000000000005e+00,-3.966789942458492924e-02,-5.558637180121969029e-02,5.906733747151059893e-02
1.131999999999999895e+00,-5.710031784242872166e-02,-4.839153052204304972e-02,8.437972305376875704e-02
1.133000000000000007e+00,-6.688708031620319017e-02,-4.812135196703683226e-02,8.701110775098853944e-02
1.133999999999999897e+00,-5.484714096300791902e-02,-3.848961603872631809e-02,5.963002067139939327e-02
1.135000000000000009e+00,-4.846874070179932326e-02,1.032639815526669759e-02,1.678973494880607598e-02
1.135999999999999899e+00,-9.995529233645135403e-02,4.977057752676769878e-03,7.382089645989389770e-02
1.137000000000000011e+00,-4.693344059760589521e-02,6.442170535302847723e-02,6.380611821711294762e-02
1.137999999999999901e+00,-1.107825640132002742e-01,2.269391207416458084e-02,6.015365124297891719e-02
1.139000000000000012e+00,-8.227167460845448421e-02,4.170674609107755809e-02,5.404807086771027530e-02
1.139999999999999902e+00,-1.263777592536658168e-01,5.477257810572198210e-02,5.856676007299334991e-02
1.141000000000000014e+00,-8.541616898154538728e-02,3.675625590750841720e-02,4.583422217357695228e-02
1.141999999999999904e+00,-1.148453773825269808e-01,7.878976434577888988e-02,2.872226827747156527e-02
1.143000000000000016e+00,-6.745895666047645178e-02,6.531692929108007251e-02,5.276093670060757329e-02
1.143999999999999906e+00,-1.095222375204072535e-01,9.661271818342394291e-02,1.228445232590085270e-02
1.145000000000000018e+00,-8.200567671283563731e-02,9.700462494492678722e-02,2.470903162141442969e-02
1.145999999999999908e+00,-8.412651291628858718e-02,4.323529048683045356e-02,-1.826580280248781690e-02
1.147000000000000020e+00,-5.120434206680524181e-02,9.876243461943827462e-02,-3.206736242039281287e-02
1.147999999999999909e+00,-3.279869261401856251e-02,7.460458404493236495e-02,-7.314170136593735501e-03
1.149000000000000021e+00,-2.791246419542171842e-02,5.446229250233733388e-02,-5.649966369657965018e-03
1.149999999999999911e+00,-3.084466576469846108e-02,7.837745564239574636e-02,-2.390455160945300847e-02
1.151000000000000023e+00,-2.953966272394565815e-02,1.008530013999677927e-01,-6.153023516217477618e-02
1.151999999999999913e+00,1.425871563013051194e-02,8.679785587302310534e-02,-3.735494584383529382e-02
1.153000000000000025e+00,6.899246393496681791e-03,2.642706635813495131e-02,-8.235425086031161745e-02
1.153999999999999915e+00,4.092364880202722932e-02,2.060296475429455182e-02,-6.086313225638224217e-02
1.155000000000000027e+00,8.161972056069230486e-02,-8.567104494670008813e-03,-5.851888446129679261e-02
1.155999999999999917e+00,7.140955194335155132e-02,7.781071420481299600e-03,-6.803799250457874537e-02
1.157000000000000028e+00,9.311333997227247417e-02,1.466421806681986531e-02,-9.140168246101602889e-02
1.157999999999999918e+00,8.795413968134428717e-02,-3.959488602696063786e-02,-4.298390777212664216e-02
1.159000000000000030e+00,6.822576004056901677e-02,-1.536733847499484329e-02,-5.118607637629221663e-02
1.159999999999999920e+00,6.563667744401380233e-02,-1.850290988269343712e-02,-4.004204553502912350e-02
1.161000000000000032e+00,1.206835489191797200e-01,-9.898006208070155021e-02,-6.703311882252437071e-02
1.161999999999999922e+00,1.005240269599057129e-01,-6.431724894026412398e-02,-1.147137022954318984e-02
1.163000000000000034e+00,9.995987094236477577e-02,-4.418254419852338244e-02,-2.929728296127621576e-02
1.163999999999999924e+00,9.790549193435718611e-02,-9.207738323678003878e-02,-1.295735304819198297e-02
1.165000000000000036e+00,1.037546151215337498e-01,-7.812042436304929283e-02,1.146995848547268347e-02
1.165999999999999925e+00,9.036278450674946339e-02,-6.516639293347309403e-02,3.594322497131464955e-03
1.167000000000000037e+00,9.762287149177160950e-02,-7.980838652142011047e-02,-7.943520282059688895e-03
1.167999999999999927e+00,4.676744122145563148e-02,-7.169497056582030403e-02,3.352914997567189165e-02
1.169000000000000039e+00,4.892002311387960017e-02,-9.090128077122848482e-02,1.259128539815073354e-02
1.169999999999999929e+00,4.341051775751127856e-02,-8.239226990156234276e-02,2.513242116364310802e-02
1.171000000000000041e+00,2.413120304331128202e-02,-3.371236167505321096e-02,5.738260859318698032e-02
1.171999999999999931e+00,-4.563283836595050623e-03,-9.339276738994921334e-02,3.210105059231990743e-02
1.173000000000000043e+00,-3.101005074583926963e-02,-4.242500116217150230e-02,3.895301081312398800e-02
1.173999999999999932e+00,-1.010772969793604335e-02,-1.660526934931934318e-02,6.300825161975336097e-02
1.175000000000000044e+00,-2.265796864156177995e-02,-5.807816320864864906e-02,5.668627831040828902e-02
1.175999999999999934e+00,-3.441978979105759368e-02,-4.743566227191334250e-02,2.737827124430447859e-02
1.177000000000000046e+00,-7.100865965209818276e-02,-1.377533887698339891e-02,2.949510228183708019e-02
1.177999999999999936e+00,-5.915820966284778687e-02,-2.839087859510165332e-02,6.467098230271477177e-02
1.179000000000000048e+00,-9.156518764325591309e-02,1.781966356738896862e-02,7.479531753110438275e-02
1.179999999999999938e+00,-9.556032834486599681e-02,-1.290967815070149572e-04,7.059262783069519820e-02
