time,acc_x,acc_y,acc_z
0.000000000000000000e+00,-3.841713615834067008e-01,-2.401742999529504208e-01,-1.680934822330631684e-01
1.000000000000000021e-03,-2.447856037964798170e-01,-5.907616097878742173e-02,-2.224630186846014435e-01
2.000000000000000042e-03,7.357475753851445976e-02,1.907130672881229561e-01,-5.633618565119896671e-02
3.000000000000000062e-03,3.229832317865040103e-01,3.137127558332905575e-01,9.280116760953802113e-02
4.000000000000000083e-03,3.619355631081788705e-01,2.636827199390661680e-01,2.159842926532163643e-01
5.000000000000000104e-03,2.121173794633534337e-01,-1.505384850502263644e-02,1.748854660864522514e-01
6.000000000000000125e-03,-1.322341813080689099e-01,-2.492934027542973996e-01,2.102892494346224675e-02
7.000000000000000146e-03,-3.391299962481741925e-01,-3.164809457821788907e-01,-9.702681418428150961e-02
8.000000000000000167e-03,-3.350968170109113187e-01,-1.925100399581926580e-01,-2.366437441043831857e-01
8.999999999999999320e-03,-1.328659176466165659e-01,7.596995432416413230e-02,-1.909277636976194625e-01
1.000000000000000021e-02,1.771139110967078212e-01,2.370616065557810404e-01,-2.325765960764501414e-02
1.099999999999999936e-02,3.872462812048017011e-01,2.768239842770731096e-01,1.624054055350316605e-01
1.200000000000000025e-02,3.188170897867759201e-01,1.188472201463500744e-01,2.186230033235192216e-01
1.299999999999999940e-02,5.236087360803315383e-02,-1.365481226406617121e-01,1.483278949695011062e-01
1.400000000000000029e-02,-2.155745229221986969e-01,-2.938463436729022438e-01,-2.662909618447513796e-02
1.499999999999999944e-02,-3.630226197439853641e-01,-2.397420307206195866e-01,-1.819735346958703259e-01
1.600000000000000033e-02,-3.045688028320676644e-01,-4.921284647285849995e-02,-2.366052153340348629e-01
1.700000000000000122e-02,-1.821631482904839672e-02,1.468830968247880620e-01,-1.341460673515675883e-01
1.799999999999999864e-02,3.069808366398638078e-01,3.405591476126376138e-01,7.943405111254295270e-02
1.899999999999999953e-02,3.770776238609201414e-01,2.536498148506069472e-01,2.133216900529393556e-01
2.000000000000000042e-02,2.287727833398074673e-01,4.535994286860375521e-03,2.103656877996785690e-01
2.100000000000000130e-02,-4.736461330892045157e-02,-2.093079245047026471e-01,9.491128532890363845e-02
2.199999999999999872e-02,-3.294049333113394096e-01,-2.728166110700125935e-01,-7.896466907885479891e-02
2.299999999999999961e-02,-3.443904358895307771e-01,-1.846327660437943052e-01,-2.053531483578890371e-01
2.400000000000000050e-02,-1.938449025243220991e-01,3.949198474506805667e-02,-2.180586692015587247e-01
2.500000000000000139e-02,1.050217843437518811e-01,2.504442340627445751e-01,-2.471640594372793293e-02
2.599999999999999881e-02,3.679697779288506054e-01,2.760230214739414767e-01,1.001426654209789519e-01
2.699999999999999969e-02,3.336093194624979996e-01,1.203177801379811673e-01,1.880014734100374785e-01
2.800000000000000058e-02,1.210377115893366551e-01,-1.293377492803294282e-01,1.734014643505533970e-01
2.900000000000000147e-02,-2.053257746051961874e-01,-2.917407341559804523e-01,3.677345790283345628e-02
2.999999999999999889e-02,-3.631327534131012502e-01,-2.653374426918735374e-01,-1.238659292807012258e-01
3.099999999999999978e-02,-3.201877440386077245e-01,-7.002579543634190884e-02,-2.420999130851225201e-01
3.200000000000000067e-02,-8.604169457231179707e-02,1.850646799739831538e-01,-1.403412139920386104e-01
3.300000000000000155e-02,2.276908421804495763e-01,2.758161326762033072e-01,8.694009313377468878e-03
3.400000000000000244e-02,3.747310700655074323e-01,2.208934974997238398e-01,1.447620910775132552e-01
3.500000000000000333e-02,2.458597647888052240e-01,1.206384836955885775e-02,2.319530413722484807e-01
3.599999999999999728e-02,5.492349247794732752e-04,-2.227660723443478930e-01,1.684427848383041604e-01
3.699999999999999817e-02,-2.932751579352155802e-01,-3.042636815675913153e-01,-2.351203741891096100e-02
3.799999999999999906e-02,-3.737378234874885186e-01,-1.780908233649601269e-01,-1.721792703906948607e-01
3.899999999999999994e-02,-1.969713632432604500e-01,5.557414737548679179e-02,-2.312246895953594672e-01
4.000000000000000083e-02,1.355636343059666293e-01,2.691539602175825330e-01,-8.718143853161380852e-02
4.100000000000000172e-02,3.331560634129901444e-01,3.158108992184101016e-01,3.951175653614020372e-02
4.200000000000000261e-02,3.661199372246805028e-01,1.187044522469736935e-01,1.912208929959195447e-01
4.299999999999999656e-02,1.623409474068455982e-01,-1.236845960175367021e-01,2.024263025995622634e-01
4.399999999999999745e-02,-1.272966999414493205e-01,-2.621516530329691674e-01,9.611837042369224260e-02
4.499999999999999833e-02,-3.439458728266152066e-01,-2.583605128391464056e-01,-6.646971434334031370e-02
4.599999999999999922e-02,-3.694846082476710980e-01,-8.206017932479625632e-02,-2.337127800960776824e-01
4.700000000000000011e-02,-1.061988590592307935e-01,1.734004371426113023e-01,-1.805696062554251191e-01
4.800000000000000100e-02,2.098189259831196307e-01,2.725281025257413337e-01,-9.946819855192297333e-02
4.900000000000000189e-02,3.190347059985937928e-01,2.283363461480115153e-01,1.040166250710818641e-01
5.000000000000000278e-02,2.782711769965801607e-01,1.362712680451623817e-02,2.074872684956486912e-01
5.099999999999999672e-02,3.400154514214118878e-02,-2.005541010687708625e-01,1.981793046730717101e-01
5.199999999999999761e-02,-2.712092305623375887e-01,-2.641516189536585180e-01,5.226751149229254961e-02
5.299999999999999850e-02,-3.545220938329392557e-01,-1.823728101501588261e-01,-1.323948287244599564e-01
5.399999999999999939e-02,-2.671220690399913056e-01,5.684469760500819591e-02,-2.425809171916250007e-01
5.500000000000000028e-02,8.647613954234034629e-04,2.513905054401630035e-01,-1.721008288941840991e-01
5.600000000000000117e-02,3.135865005460029553e-01,2.941017434469662684e-01,7.086339575297741829e-04
5.700000000000000205e-02,4.085458172837394542e-01,6.402550570210722991e-02,1.395947190019002360e-01
5.800000000000000294e-02,1.969972553826226658e-01,-9.293465810897501289e-02,2.193172473973910297e-01
5.899999999999999689e-02,-1.126200667470826783e-01,-2.558442599946919027e-01,1.207133410416596081e-01
5.999999999999999778e-02,-3.257019010057272679e-01,-2.810894132710369808e-01,-6.684609953955587824e-02
6.099999999999999867e-02,-3.619280214107644666e-01,-9.830788739606287352e-02,-1.681020262682425825e-01
6.199999999999999956e-02,-1.514367255068943541e-01,1.650921367268484152e-01,-2.348458073912495780e-01
6.300000000000000044e-02,1.462254895807077182e-01,2.986701265794788340e-01,-1.308938586126915660e-01
6.400000000000000133e-02,3.296103339310206271e-01,2.480462320900192474e-01,4.982482525286782010e-02
6.500000000000000222e-02,3.332424020247830576e-01,2.887555629155873910e-02,1.951216340322714793e-01
6.600000000000000311e-02,5.886322265307381701e-02,-2.273273347268734701e-01,2.127668163117754918e-01
6.700000000000000400e-02,-1.924681212111686857e-01,-3.127654088793313525e-01,7.872768109009907478e-02
6.800000000000000488e-02,-4.228835766301988763e-01,-1.882785945809545280e-01,-8.224747343386627774e-02
6.900000000000000577e-02,-2.846467065142548880e-01,6.998556974404807063e-02,-2.211595580848020048e-01
7.000000000000000666e-02,-1.266555943121032424e-02,2.674424069865501963e-01,-2.061487724230998408e-01
7.099999999999999367e-02,2.400185931240889359e-01,2.883212552127520367e-01,-7.576194060139435082e-02
7.199999999999999456e-02,3.822095230897703533e-01,1.339723810959187189e-01,7.380213118229493607e-02
7.299999999999999545e-02,2.498212624277363625e-01,-9.743198119818549663e-02,2.246921909504011050e-01
7.399999999999999634e-02,-3.820111935177633589e-02,-2.943193978291210322e-01,2.019562196403031085e-01
7.499999999999999722e-02,-3.199824837229476304e-01,-2.311349417699385678e-01,5.350564408169324049e-02
7.599999999999999811e-02,-3.476223637605014294e-01,-6.824920513208956874e-02,-1.548048403418596231e-01
7.699999999999999900e-02,-1.523785216321735803e-01,2.020069679149392172e-01,-2.295514524705616066e-01
7.799999999999999989e-02,1.114884352111636806e-01,3.164653782861275300e-01,-1.961529966012450221e-01
7.900000000000000078e-02,3.459085596910544957e-01,2.152106538724224694e-01,3.059714154895397040e-02
8.000000000000000167e-02,3.685500627043095667e-01,-3.731231998632115587e-03,1.616876110056208182e-01
8.100000000000000255e-02,1.155843533527825401e-01,-2.121887027743793175e-01,2.401087938970855595e-01
8.200000000000000344e-02,-1.788367434372376830e-01,-2.525060268480634473e-01,1.412550360011246009e-01
8.300000000000000433e-02,-3.728966268404582118e-01,-1.742677689082181569e-01,-1.284254626054514604e-02
8.400000000000000522e-02,-3.007596275894709459e-01,3.438355628051163043e-02,-2.060561015218569103e-01
8.500000000000000611e-02,-4.107647346986410125e-02,2.265219953026024746e-01,-2.200827051266256995e-01
8.599999999999999312e-02,2.262995239050609453e-01,2.658496270966499986e-01,-1.212448206941875439e-01
8.699999999999999400e-02,3.906114871007491107e-01,1.096493862613356213e-01,5.768851957425773919e-02
8.799999999999999489e-02,2.379135919372300512e-01,-1.093745350925698911e-01,2.201935705733350235e-01
8.899999999999999578e-02,2.532689093542380213e-02,-2.790877362037733067e-01,1.899547680194193511e-01
8.999999999999999667e-02,-2.594108730788796668e-01,-2.437777500150406784e-01,8.725309408704401415e-02
9.099999999999999756e-02,-3.879928857447490498e-01,-1.081340494389946005e-01,-5.419543134264286771e-02
9.199999999999999845e-02,-2.308366925602635122e-01,1.878547424019437195e-01,-1.903326304503912547e-01
9.299999999999999933e-02,8.226217849005443283e-02,3.011185188197938456e-01,-2.304660148214313364e-01
9.400000000000000022e-02,3.060715863898597067e-01,2.280654637156683540e-01,-6.425479529932892619e-02
9.500000000000000111e-02,3.608211322992710968e-01,1.626510385714046922e-02,1.307538708098906766e-01
9.600000000000000200e-02,1.623030089827352807e-01,-2.239579566469220295e-01,2.408495421767576361e-01
9.700000000000000289e-02,-1.207391668214824465e-01,-3.029296324980439992e-01,2.276982296984295939e-01
9.800000000000000377e-02,-3.535516483883959782e-01,-1.982776003469780834e-01,5.581377946764704001e-02
9.900000000000000466e-02,-3.516728787811791435e-01,5.663411660714837148e-02,-1.641090964345233161e-01
1.000000000000000056e-01,-1.059693697517348210e-01,2.257638303418426917e-01,-2.458871785091704398e-01
1.010000000000000064e-01,1.731993516158417401e-01,2.898676055059823953e-01,-1.567576946308453234e-01
1.019999999999999934e-01,3.714553031507118463e-01,1.154266657534252227e-01,2.530081130626618199e-02
1.029999999999999943e-01,2.928435305563620861e-01,-1.170988398110056200e-01,1.688548793166596840e-01
1.039999999999999952e-01,3.213640755365375357e-02,-2.605772806843595357e-01,1.938169740125360863e-01
1.049999999999999961e-01,-2.574910660851964517e-01,-2.546044721249471898e-01,1.804052662886826142e-01
1.059999999999999970e-01,-3.524755163442051531e-01,-8.427985387994707533e-02,-5.568445096077507400e-02
1.069999999999999979e-01,-2.794651297001955470e-01,1.598881238746078237e-01,-2.192456740414409633e-01
1.079999999999999988e-01,-7.729986321231510464e-03,2.766366814935797835e-01,-2.232582260129393759e-01
1.089999999999999997e-01,2.854511368248812686e-01,2.467071654241487777e-01,-1.393164356909711021e-01
1.100000000000000006e-01,3.363089169165024428e-01,1.438506994460049711e-02,3.511988008056195903e-02
1.110000000000000014e-01,2.064504036417591226e-01,-2.426422689794351384e-01,1.970472064275068658e-01
1.120000000000000023e-01,-8.406264871293003815e-02,-2.798757474591450078e-01,2.093508607120188880e-01
1.130000000000000032e-01,-3.030432468773080479e-01,-1.794925843983120328e-01,7.289624516103697383e-02
1.140000000000000041e-01,-3.897699457153011582e-01,4.455710154109395610e-02,-9.338389040492607596e-02
1.150000000000000050e-01,-1.503306248806514367e-01,2.912958306527271279e-01,-2.297874127740300587e-01
1.160000000000000059e-01,1.365963390492793694e-01,2.734320521067309384e-01,-1.404474561248065800e-01
1.170000000000000068e-01,3.504059628323116793e-01,1.442944290424469089e-01,-1.720728032777484387e-02
1.179999999999999938e-01,3.054974702058110836e-01,-1.444202466025107379e-01,1.107010766232572468e-01
1.189999999999999947e-01,8.123171639087184426e-02,-3.094418468569878344e-01,1.990737188844130812e-01
1.199999999999999956e-01,-1.993981969878728389e-01,-2.749031596803891420e-01,1.629340794124191916e-01
1.209999999999999964e-01,-3.391113697840587027e-01,-6.895319716337812432e-02,2.924923375269439588e-02
1.219999999999999973e-01,-2.756924541520514027e-01,1.605035110745033911e-01,-1.067289546957789215e-01
1.229999999999999982e-01,-3.454205927909699547e-02,3.144938119724648984e-01,-2.560674526475074098e-01
1.239999999999999991e-01,2.879852309612667693e-01,2.021834743482335828e-01,-1.384972713803426236e-01
1.250000000000000000e-01,3.769928852286660859e-01,1.622539579241095639e-02,4.963992830143321155e-02
1.260000000000000009e-01,2.417407730284327483e-01,-1.960156758260908905e-01,1.835711227105215060e-01
1.270000000000000018e-01,-2.934706466347365705e-02,-2.903415520626405621e-01,2.412228090728431862e-01
1.280000000000000027e-01,-2.871459396549245202e-01,-1.751689223386893035e-01,1.730725055472888685e-01
1.290000000000000036e-01,-3.653885319683670141e-01,4.889145128483576158e-02,-2.509391258405126168e-02
1.300000000000000044e-01,-2.056486861172738545e-01,2.584307392674640713e-01,-2.225383870554194510e-01
1.310000000000000053e-01,9.637114297546400810e-02,3.001015625191343350e-01,-2.200011545314791983e-01
1.320000000000000062e-01,3.148474022479061940e-01,1.426837321995048646e-01,-1.279169061292688425e-01
1.330000000000000071e-01,3.600885555210938116e-01,-8.033011047734177346e-02,7.701821719443581460e-02
1.340000000000000080e-01,1.601643256155749484e-01,-2.666586952652506559e-01,2.204005426299914527e-01
1.350000000000000089e-01,-1.600483533799247349e-01,-2.764994781375922361e-01,1.762308981088456239e-01
1.360000000000000098e-01,-3.561774410103524247e-01,-8.261908052970361183e-02,9.598984807490441862e-02
1.370000000000000107e-01,-3.202062312112280429e-01,1.423719807429478235e-01,-1.153038360588517219e-01
1.380000000000000115e-01,-9.422221353103421571e-02,3.115256947126356923e-01,-2.351323837446594456e-01
1.390000000000000124e-01,2.012912776475520860e-01,2.533681833781349924e-01,-1.945826451675392588e-01
1.400000000000000133e-01,3.393387301210791795e-01,1.383926304776119352e-02,-7.565895895677637872e-02
1.409999999999999865e-01,2.683827443253958278e-01,-2.258503016571536959e-01,1.073237986832360769e-01
1.419999999999999873e-01,2.591887458209773953e-02,-3.251953525866249084e-01,2.110036049134781100e-01
1.429999999999999882e-01,-2.699387750419931509e-01,-2.034564694823099706e-01,1.842760565094767322e-01
1.439999999999999891e-01,-4.060332809291641309e-01,5.123651384429994682e-02,1.012427152094539859e-02
1.449999999999999900e-01,-2.353462205591532186e-01,2.503110230473908349e-01,-1.499799661238625792e-01
1.459999999999999909e-01,6.777598401188059118e-02,3.102191453752848882e-01,-2.149793603363508721e-01
1.469999999999999918e-01,3.140643765498211670e-01,1.214901889780602984e-01,-1.497101041656659082e-01
1.479999999999999927e-01,3.982361910194416321e-01,-8.090772984019277414e-02,2.528026531205444100e-02
1.489999999999999936e-01,2.007746577183112391e-01,-2.558302550458802505e-01,1.680247151478121148e-01
1.499999999999999944e-01,-1.041077934925540849e-01,-2.544432292228488435e-01,2.135250534284424406e-01
1.509999999999999953e-01,-3.565826689148728912e-01,-4.972154361590769289e-02,1.228395855644390106e-01
1.519999999999999962e-01,-3.301513120242576260e-01,1.687584008053951146e-01,-6.192295465258832593e-02
1.529999999999999971e-01,-1.232510372897414747e-01,3.406096009090791576e-01,-2.242228571801851145e-01
1.539999999999999980e-01,2.028118366859945065e-01,2.549967783239044383e-01,-2.114185236745918239e-01
1.549999999999999989e-01,3.294821742849753932e-01,-3.761699939743042356e-03,-1.055780740672811191e-01
1.559999999999999998e-01,3.063209973135887498e-01,-2.047926764325064541e-01,8.118690890011577566e-02
1.570000000000000007e-01,5.958938263842464972e-02,-2.557050853573796245e-01,2.176353871078893221e-01
1.580000000000000016e-01,-2.136742637117411969e-01,-1.777187180240534792e-01,1.912072285472330713e-01
1.590000000000000024e-01,-3.809020075333185429e-01,5.934559223846074677e-02,8.744950165264414599e-02
1.600000000000000033e-01,-2.424163582449119503e-01,2.406297117973160704e-01,-8.927020235714160090e-02
1.610000000000000042e-01,6.784466751589664224e-02,3.071775636570684420e-01,-2.041870857670572692e-01
1.620000000000000051e-01,2.954382364007749895e-01,1.505412579533825235e-01,-1.625810581717010983e-01
1.630000000000000060e-01,3.401376911249247570e-01,-9.613825938061489051e-02,-1.061919989190240540e-02
1.640000000000000069e-01,2.102426724617260656e-01,-2.601290564943403716e-01,1.460973517650611675e-01
1.650000000000000078e-01,-6.918275208890493910e-02,-2.606746356538003906e-01,2.100980148998223829e-01
1.660000000000000087e-01,-3.128112574145340274e-01,-9.628350629308009279e-02,1.890799227391971871e-01
1.670000000000000095e-01,-3.897381729007007856e-01,1.495038988107811051e-01,2.645351289932655267e-02
1.680000000000000104e-01,-1.563706676906222726e-01,2.682660169468563671e-01,-1.642850708897558576e-01
1.690000000000000113e-01,1.488949091839159578e-01,2.590610240910601880e-01,-2.428220877209139317e-01
1.700000000000000122e-01,3.556781912852017280e-01,9.474331872977179159e-03,-1.427135518384653190e-01
1.710000000000000131e-01,3.182194228193470642e-01,-2.101629927230500017e-01,5.282057932768056269e-02
1.719999999999999862e-01,1.189671895184903627e-01,-3.075711901413802352e-01,1.827943821479522390e-01
1.729999999999999871e-01,-1.835684904402852535e-01,-1.939463838441363164e-01,2.151823848068619427e-01
1.739999999999999880e-01,-3.665183163861591153e-01,5.762900215108696100e-02,1.293870342371294113e-01
1.749999999999999889e-01,-2.715078479525371291e-01,2.526780389510948077e-01,-6.086180438597033060e-02
1.759999999999999898e-01,-3.646095970735709763e-02,2.834061060273848631e-01,-1.974418537627458392e-01
1.769999999999999907e-01,2.333612973144207903e-01,1.398612482915393140e-01,-2.151210304062857737e-01
1.779999999999999916e-01,3.876849020552924907e-01,-7.726238005434683809e-02,-9.628021158896146736e-02
1.789999999999999925e-01,2.501965629447142625e-01,-2.863814209810214284e-01,6.284632066625872593e-02
1.799999999999999933e-01,-3.399194761941586040e-02,-2.823434141307609724e-01,2.090950795650446392e-01
1.809999999999999942e-01,-3.067066758492961176e-01,-8.381145463229808246e-02,2.028722581048638396e-01
1.819999999999999951e-01,-3.761751888543560796e-01,1.904667860723191219e-01,6.142990565040413325e-02
1.829999999999999960e-01,-2.202072546898792837e-01,2.688472421852041161e-01,-1.136929634491617852e-01
1.839999999999999969e-01,7.501416036408438404e-02,2.462764942487390141e-01,-1.986593395025998965e-01
1.849999999999999978e-01,3.046425157786683546e-01,4.611558975917912084e-02,-1.539467088856552313e-01
1.859999999999999987e-01,3.840498666655334237e-01,-1.960878385782491573e-01,-2.187398405107780081e-02
1.869999999999999996e-01,1.599317865683275719e-01,-3.626827819962345489e-01,1.178703862293409149e-01
1.880000000000000004e-01,-1.254326320526300553e-01,-2.341682702619014567e-01,2.300705475529884192e-01
1.890000000000000013e-01,-3.654740245264403997e-01,7.510204816781572423e-02,1.500842306990404773e-01
1.900000000000000022e-01,-3.832896137345657706e-01,2.678510701708660124e-01,-1.366601070730277465e-02
1.910000000000000031e-01,-1.086488297434120148e-01,2.997384394127938223e-01,-1.692311341959286952e-01
1.920000000000000040e-01,2.169092666589108875e-01,1.395926763348427357e-01,-2.610716648335144052e-01
1.930000000000000049e-01,3.510541544816646042e-01,-1.275476117967987988e-01,-1.263232515100080333e-01
1.940000000000000058e-01,3.369440757003681064e-01,-2.675526891636912374e-01,1.633596941010369979e-02
1.950000000000000067e-01,2.443892548244925786e-02,-3.029938206967278114e-01,1.471713170234932588e-01
1.960000000000000075e-01,-2.456828131159027873e-01,-7.825193630181540017e-02,2.189573822354788091e-01
1.970000000000000084e-01,-3.259830672512152305e-01,1.491594766784344051e-01,1.147823374030473298e-01
1.980000000000000093e-01,-2.718456937669728180e-01,2.919702782296966781e-01,-9.348527679528381706e-02
1.990000000000000102e-01,1.266908593444598594e-02,2.580810871392738570e-01,-2.169286796001866080e-01
2.000000000000000111e-01,2.956698855615617627e-01,1.813597407167620926e-02,-1.961290901016664312e-01
2.010000000000000120e-01,3.426996057659444372e-01,-1.575287198887761753e-01,-7.194538429355466780e-02
2.020000000000000129e-01,2.317813162140107686e-01,-3.043034387556515785e-01,7.123900346164299680e-02
2.030000000000000138e-01,-1.456515125894356222e-01,-1.921202666182772190e-01,2.140277368718531692e-01
2.039999999999999869e-01,-3.316859582097855808e-01,3.507900844925036093e-02,2.131592362141780106e-01
2.049999999999999878e-01,-3.493741955523897991e-01,2.762069532320836074e-01,2.468606731242642405e-02
2.059999999999999887e-01,-1.422415121824365525e-01,2.716793185150088719e-01,-1.323294534005361178e-01
2.069999999999999896e-01,1.344299361876129251e-01,1.609721081978355284e-01,-2.156365109765339683e-01
2.079999999999999905e-01,3.964568288246301808e-01,-6.954283745078251866e-02,-2.024820193734950813e-01
2.089999999999999913e-01,3.202890059360924413e-01,-2.948696912777660772e-01,-3.207896096457641538e-02
2.099999999999999922e-01,1.112934920358169960e-01,-3.118724996851303666e-01,1.492755314897019903e-01
2.109999999999999931e-01,-2.064461887375648730e-01,-1.465660666321221550e-01,2.248123220918362974e-01
2.119999999999999940e-01,-3.455041480811727461e-01,1.866361180921223273e-01,1.711637910531191575e-01
2.129999999999999949e-01,-3.022329970339080463e-01,3.209877534591171755e-01,-1.307125580384590861e-02
2.139999999999999958e-01,-1.496421648550447236e-02,2.362162461725042795e-01,-1.643667430932298223e-01
2.149999999999999967e-01,2.647689233886572069e-01,2.069942163587347450e-02,-2.339152673485206668e-01
2.159999999999999976e-01,3.938884912080347078e-01,-1.941925613006237061e-01,-1.562968059700596823e-01
2.169999999999999984e-01,2.431074195215824074e-01,-2.730815565065235484e-01,5.742954365670428080e-02
2.179999999999999993e-01,-3.489113212786219831e-02,-1.915047503103928794e-01,2.067949843832858625e-01
2.190000000000000002e-01,-3.438236221938389403e-01,5.672500619287697970e-02,2.344279463504711780e-01
2.200000000000000011e-01,-3.607929643749134274e-01,2.937869698703251542e-01,1.319877411101235687e-01
2.210000000000000020e-01,-1.659153300404930809e-01,3.009379391419597649e-01,-5.575239859980265361e-02
2.220000000000000029e-01,9.099821826871586083e-02,1.468531487424279136e-01,-1.647686129793088095e-01
2.230000000000000038e-01,3.366659919694435232e-01,-1.413940149857743633e-01,-2.098204478306769372e-01
2.240000000000000047e-01,3.321309636258300002e-01,-2.550793150798484898e-01,-5.992597791073172447e-02
2.250000000000000056e-01,1.300727650165031113e-01,-2.751596462370227703e-01,1.198156225785755452e-01
2.260000000000000064e-01,-1.909564271784318090e-01,-9.428379583690503496e-02,2.130752654355206610e-01
2.270000000000000073e-01,-3.462350802529537974e-01,1.669710061334850337e-01,2.028161019892165962e-01
2.280000000000000082e-01,-3.109609389752283626e-01,3.120679339886885395e-01,5.355349165961818814e-02
2.290000000000000091e-01,-6.843662448037063362e-02,2.259641882586272688e-01,-1.731433274055763638e-01
2.300000000000000100e-01,2.270785304881391686e-01,3.957434504139347581e-03,-2.587689573620699512e-01
2.310000000000000109e-01,3.806770419206821354e-01,-1.716869713602443837e-01,-1.920952047109654726e-01
2.320000000000000118e-01,2.625315430544074013e-01,-3.319521367380790511e-01,-3.874922193180620894e-02
2.330000000000000127e-01,5.203673069913733462e-03,-2.018908240315253344e-01,1.515647956277437480e-01
2.340000000000000135e-01,-2.940385062131691263e-01,4.876813407101016073e-02,2.043825364638342246e-01
2.349999999999999867e-01,-3.693298786099537545e-01,2.258430101341433183e-01,1.747374001847910308e-01
2.359999999999999876e-01,-1.938797695746819483e-01,2.917512638956272220e-01,-1.452615170613537343e-02
2.369999999999999885e-01,8.841530647153397759e-02,1.247483976549709911e-01,-1.753253339622998230e-01
2.379999999999999893e-01,2.950893564126720880e-01,-7.723017527136349925e-02,-2.305555861253546501e-01
2.389999999999999902e-01,3.389573901615383078e-01,-2.396750927084234373e-01,-1.007588602534917194e-01
2.399999999999999911e-01,1.691307979634681380e-01,-2.461947976432364293e-01,4.014311434852935179e-02
2.409999999999999920e-01,-1.280096054691690077e-01,-1.069051640611436704e-01,1.936218216330241881e-01
2.419999999999999929e-01,-3.108540705187347042e-01,1.410872197420667828e-01,2.272721284513814499e-01
2.429999999999999938e-01,-3.498320871286261236e-01,3.070828984040933629e-01,1.240131337536406891e-01
2.439999999999999947e-01,-1.278763539861310083e-01,2.358922795133007178e-01,-3.462228132090158089e-02
2.449999999999999956e-01,1.734196521816721015e-01,3.707574821393553460e-02,-2.003037115845696103e-01
2.459999999999999964e-01,3.748298663229940320e-01,-2.114516670745212601e-01,-2.033542286294331702e-01
2.469999999999999973e-01,2.670707919641180372e-01,-3.022927122955863521e-01,-1.759202099730883956e-02
2.479999999999999982e-01,6.025877164343716036e-02,-2.106799889042642038e-01,7.681838467282951777e-02
2.489999999999999991e-01,-2.289972068465643829e-01,-1.269308359692415331e-02,2.329292233632258846e-01
2.500000000000000000e-01,-3.640024701702034848e-01,2.207261225059741760e-01,2.221761653663979486e-01
2.510000000000000009e-01,-2.367904231382629288e-01,2.904853603059883715e-01,4.251341676802004865e-02
2.520000000000000018e-01,-5.005797874482329629e-03,1.131895970547646818e-01,-1.546537053817456375e-01
2.530000000000000027e-01,2.646341749088028106e-01,-1.024632171858123053e-01,-2.274571365008330459e-01
2.540000000000000036e-01,3.623057111573448896e-01,-2.648219691476984550e-01,-1.872986107376495291e-01
2.550000000000000044e-01,1.959419305901949626e-01,-2.550141998112545050e-01,1.654119253003161899e-02
2.560000000000000053e-01,-7.974246782373965725e-02,-9.887100706782724069e-02,1.585304548754793708e-01
2.570000000000000062e-01,-3.436117100936740831e-01,1.875612652901290922e-01,2.296215130118932080e-01
2.580000000000000071e-01,-3.527052099115729478e-01,2.990602000487950773e-01,1.872005503924202563e-01
2.590000000000000080e-01,-1.745117733872102173e-01,2.451319169320141655e-01,-1.104271734652938902e-02
2.600000000000000089e-01,1.580195143072108122e-01,1.852970411490432665e-03,-1.741293289031793090e-01
2.610000000000000098e-01,3.529151797775139099e-01,-1.920748897518437803e-01,-2.310736642227164683e-01
2.620000000000000107e-01,3.600065681643312976e-01,-3.169486592869110164e-01,-1.315807206551095621e-01
2.630000000000000115e-01,1.137667600977152055e-01,-2.056755122509190126e-01,8.904686736214442733e-02
2.640000000000000124e-01,-1.861674238990420061e-01,3.610218848604871376e-03,1.980251621613116353e-01
2.650000000000000133e-01,-4.499827305740790040e-01,2.207570606082078779e-01,2.205624903330143660e-01
2.660000000000000142e-01,-2.835725814940062151e-01,2.817109745574879476e-01,9.572002102586671390e-02
2.670000000000000151e-01,-1.554955447493239391e-02,1.344818565263855015e-01,-1.041621282295751294e-01
2.680000000000000160e-01,2.719662964234963454e-01,-7.900757486414919373e-02,-2.098680147101847915e-01
2.690000000000000169e-01,3.574956161336668714e-01,-2.880658971986256867e-01,-2.127433908131269036e-01
2.700000000000000178e-01,2.525261314917232602e-01,-2.469933132804952580e-01,-4.931390146429182747e-02
2.710000000000000187e-01,-4.011799673118740528e-02,-8.831560949774895641e-02,1.381853108796274876e-01
2.720000000000000195e-01,-2.958463383669976410e-01,1.358298914279913450e-01,2.245244186351143534e-01
2.730000000000000204e-01,-3.381835216940997646e-01,2.985748762136329337e-01,1.815729777174876769e-01
2.740000000000000213e-01,-1.763418633086885068e-01,2.540132902001038806e-01,1.843417939192339150e-02
2.750000000000000222e-01,1.115087420410167673e-01,2.332739410038566982e-02,-1.519811899495952523e-01
2.760000000000000231e-01,3.479233051979809255e-01,-1.861000091771462528e-01,-2.189402310174481392e-01
2.770000000000000240e-01,3.139400216437127078e-01,-2.985065642368204819e-01,-1.563609059334264417e-01
2.780000000000000249e-01,1.275490537413293823e-01,-2.216462851669701584e-01,-2.745787342572031733e-02
2.790000000000000258e-01,-1.450059499179024991e-01,-4.780684921871152871e-04,1.615187889439542168e-01
2.800000000000000266e-01,-3.631384939010084412e-01,2.283469471752646862e-01,2.340103302460129209e-01
2.810000000000000275e-01,-3.157683973663545363e-01,3.126966931996074672e-01,1.640789899524854323e-01
2.819999999999999729e-01,-8.420296830257387177e-02,1.387537721376986277e-01,-2.692264948297027130e-02
2.829999999999999738e-01,2.593994787072656516e-01,-9.014173478655884697e-02,-1.541963350862486370e-01
2.839999999999999747e-01,3.152477382538643180e-01,-2.542683027659974893e-01,-2.341603086362522290e-01
2.849999999999999756e-01,2.772183113495560458e-01,-3.006955741824779982e-01,-1.359361454809888403e-01
2.859999999999999765e-01,-1.387141564576798054e-02,-9.388442021509139923e-02,7.256451210316952616e-02
2.869999999999999774e-01,-2.668569383760303615e-01,1.660605650722341009e-01,1.854765829683200917e-01
2.879999999999999782e-01,-3.658725367047297450e-01,2.735440675916180342e-01,2.217699859784638405e-01
2.889999999999999791e-01,-2.212777431122895933e-01,2.132853699500668332e-01,8.785336436032352425e-02
2.899999999999999800e-01,4.788413379422915700e-02,4.394461120503381779e-02,-1.097339200345325977e-01
2.909999999999999809e-01,3.400772365797964381e-01,-2.352568054667582287e-01,-2.038357702012510431e-01
2.919999999999999818e-01,3.769298559036470819e-01,-2.863113116447104645e-01,-1.751581789007192747e-01
2.929999999999999827e-01,1.670986570849484210e-01,-1.884590789917630904e-01,-4.558519378058235871e-02
2.939999999999999836e-01,-1.327394946695513722e-01,3.033347098089532456e-02,1.253383309865907513e-01
2.949999999999999845e-01,-3.433426972345065553e-01,2.121392440430809045e-01,2.208348090522048446e-01
2.959999999999999853e-01,-3.577242087076609178e-01,2.779248982972571391e-01,2.275852871233874086e-01
2.969999999999999862e-01,-1.090666550936222889e-01,1.641556864961609408e-01,2.270778134400006781e-02
2.979999999999999871e-01,1.913723056152667190e-01,-1.023233210641659729e-01,-1.400839845524457783e-01
2.989999999999999880e-01,3.946193775549318716e-01,-2.874620302057584453e-01,-2.230372698705111179e-01
2.999999999999999889e-01,3.179841899430297936e-01,-2.558351793958714149e-01,-1.633619224585337593e-01
3.009999999999999898e-01,8.255030509429898966e-02,-1.096147851381725769e-01,2.014221705953025965e-02
3.019999999999999907e-01,-2.467553431904777050e-01,1.326128815957615670e-01,1.448908801216099440e-01
3.029999999999999916e-01,-3.594641067533101420e-01,3.127257670398699840e-01,2.198217037585522005e-01
3.039999999999999925e-01,-2.782035020021128569e-01,2.746746498274541537e-01,1.316553588940995445e-01
3.049999999999999933e-01,3.796738887042497290e-02,5.160429541937791575e-02,-5.393034706131090428e-02
3.059999999999999942e-01,2.921534465085501298e-01,-1.894692542728332318e-01,-1.641660946375232688e-01
3.069999999999999951e-01,3.683886839761156828e-01,-3.022789309158021576e-01,-2.117139291603143403e-01
3.079999999999999960e-01,2.219518222329155133e-01,-1.904737289875827466e-01,-1.119884650313667240e-01
3.089999999999999969e-01,-7.288045036232841667e-02,1.475672905786504750e-02,7.692669974164280389e-02
3.099999999999999978e-01,-3.196132111774040996e-01,2.152578737818256205e-01,2.211535097491122981e-01
3.109999999999999987e-01,-3.500921400698922548e-01,3.153758959116463312e-01,2.019611930993774895e-01
3.119999999999999996e-01,-1.796385020647999209e-01,1.304385401131539224e-01,1.088659637180674766e-01
3.130000000000000004e-01,1.300668584322064725e-01,-1.139746077307814548e-01,-1.177609510276295124e-01
3.140000000000000013e-01,3.388100026044119639e-01,-2.444725616625287590e-01,-2.055612008008179947e-01
3.150000000000000022e-01,3.035432246634700570e-01,-2.735311399036238211e-01,-1.975631521085957354e-01
3.160000000000000031e-01,7.501574941199011526e-02,-7.103922544521379390e-02,-4.218905808661967127e-02
3.170000000000000040e-01,-2.195672544637022883e-01,1.809559162419285827e-01,1.323631909858803968e-01
3.180000000000000049e-01,-3.681814725239209163e-01,2.948306576870549089e-01,2.487179873768179117e-01
3.190000000000000058e-01,-3.029317498664442776e-01,2.361460791578676999e-01,2.042251800052895805e-01
3.200000000000000067e-01,-7.724187486107129963e-02,6.835432799764912248e-02,1.425209817614635222e-02
3.210000000000000075e-01,2.169597103772769320e-01,-2.057065940369193491e-01,-1.399266382777851203e-01
3.220000000000000084e-01,3.616825339883755763e-01,-2.726613090478656742e-01,-1.896134265642341055e-01
3.230000000000000093e-01,2.860307610295441672e-01,-2.209309532635070628e-01,-1.329212968683381457e-01
3.240000000000000102e-01,-3.553769676459324345e-02,6.265557181135252007e-02,3.628685283535269118e-02
3.250000000000000111e-01,-2.586003183595896870e-01,2.567434754197471247e-01,1.664629867908788419e-01
3.260000000000000120e-01,-3.870585974354657788e-01,2.834459851476004433e-01,2.470888196785221980e-01
3.270000000000000129e-01,-2.373402198395056506e-01,1.441137794370477010e-01,1.435885253026000230e-01
3.280000000000000138e-01,9.309514726498065162e-02,-7.449098758823231858e-02,-6.220870139303184138e-02
3.290000000000000147e-01,3.356501658340078631e-01,-2.946492597273067116e-01,-1.764814240348724916e-01
3.300000000000000155e-01,3.589909539182454812e-01,-2.564538294074859559e-01,-2.232871783716534053e-01
3.310000000000000164e-01,1.375481493118118903e-01,-1.068418629559610145e-01,-1.003491865500162755e-01
3.320000000000000173e-01,-1.313577949742354700e-01,1.274071677751732745e-01,5.400350742263622383e-02
3.330000000000000182e-01,-3.759060762285663104e-01,2.785669373946604854e-01,2.070168954451180043e-01
3.340000000000000191e-01,-3.189013307322860480e-01,2.377554277267795446e-01,2.265472588661117115e-01
3.350000000000000200e-01,-6.929894960515467495e-02,4.061928655183363879e-02,6.845305826845911323e-02
3.360000000000000209e-01,1.996064169145828626e-01,-1.969595261175745293e-01,-1.066326966679527477e-01
3.370000000000000218e-01,3.409794906451625862e-01,-2.767169102618226573e-01,-2.179792716383901485e-01
3.380000000000000226e-01,2.676664950354740169e-01,-2.197148200020558606e-01,-1.694664094336166549e-01
3.390000000000000235e-01,1.484701323854053547e-02,2.751366852333468269e-02,-4.373751852648256194e-02
3.400000000000000244e-01,-2.782128834326083600e-01,2.403970404452388243e-01,1.479430407366028599e-01
3.410000000000000253e-01,-3.522302272382345500e-01,3.105403159804281388e-01,2.408933705254286961e-01
3.420000000000000262e-01,-2.324322222347292299e-01,1.557413711229089226e-01,1.496421997477921095e-01
3.430000000000000271e-01,3.519095057819808525e-02,-9.574410972556306187e-02,4.660350325740673233e-02
3.439999999999999725e-01,3.015322254449728234e-01,-2.694707756557008782e-01,-1.460673619362724829e-01
3.449999999999999734e-01,4.098095903420751474e-01,-2.395269399888217132e-01,-2.409987443774597171e-01
3.459999999999999742e-01,2.040038538892033626e-01,-1.273710609096641577e-01,-1.599843939293557060e-01
3.469999999999999751e-01,-8.262480985016959489e-02,1.184034194106821786e-01,-2.379137712106872086e-03
3.479999999999999760e-01,-3.119394655871704503e-01,2.785153333317576529e-01,1.940270622973398473e-01
3.489999999999999769e-01,-3.560997234752651952e-01,2.530781145460337389e-01,2.361992711429408975e-01
3.499999999999999778e-01,-1.294881797326153938e-01,3.606585275860361289e-02,1.431114064839964228e-01
3.509999999999999787e-01,1.352160033296745667e-01,-1.660466342129941486e-01,-4.897918829415136288e-02
3.519999999999999796e-01,3.561459795407231899e-01,-3.188993274527003319e-01,-2.266465148278166142e-01
3.529999999999999805e-01,3.382172118644662384e-01,-2.059141204462882624e-01,-2.254832982566875033e-01
3.539999999999999813e-01,4.562037329592533164e-02,1.896903728552170806e-02,-1.065978802522763030e-01
3.549999999999999822e-01,-2.167944567925573496e-01,2.504683316086696032e-01,7.219893318646575242e-02
3.559999999999999831e-01,-3.996548548191919958e-01,2.887496866096376236e-01,2.200881409632295393e-01
3.569999999999999840e-01,-2.733843037979898360e-01,1.301591092329205390e-01,1.954830492578106815e-01
3.579999999999999849e-01,-1.424703927520014519e-02,-6.848779533291354804e-02,1.256090364583953289e-01
3.589999999999999858e-01,2.728330087643003887e-01,-2.719810797134444291e-01,-1.497916065710635236e-01
3.599999999999999867e-01,3.779551204826948063e-01,-2.913082985463100183e-01,-1.883440419447151015e-01
3.609999999999999876e-01,2.260529264948568373e-01,-1.214683827045008047e-01,-1.851774831440015645e-01
3.619999999999999885e-01,-4.816992430534548092e-02,1.420349155961067589e-01,-5.563343068319961948e-02
3.629999999999999893e-01,-3.351626360283110895e-01,3.013668305505070033e-01,1.353289074144351234e-01
3.639999999999999902e-01,-3.722206684326023196e-01,2.687237704770825686e-01,2.665354540878928646e-01
3.649999999999999911e-01,-2.059453275386921578e-01,4.650515359995881920e-02,1.574911369404602690e-01
3.659999999999999920e-01,1.058014104198317512e-01,-1.868614265886497650e-01,-1.407192301968215355e-02
3.669999999999999929e-01,3.174112661126106127e-01,-3.254410696371445866e-01,-1.559454236056871113e-01
3.679999999999999938e-01,3.578384782962974464e-01,-1.890494194772430192e-01,-1.989625338314216785e-01
3.689999999999999947e-01,9.900778819850153400e-02,3.774423142698025112e-03,-1.619120805551839681e-01
3.699999999999999956e-01,-1.966621566723856518e-01,2.334621686289932441e-01,9.132887360231354418e-03
3.709999999999999964e-01,-3.614098038610011887e-01,2.753550057552475172e-01,1.908095957405395449e-01
3.719999999999999973e-01,-3.057820827215425030e-01,2.034884653841927682e-01,1.967048212670159391e-01
3.729999999999999982e-01,-6.964862484082211258e-02,-8.794361643476530932e-02,1.087323397994124363e-01
3.739999999999999991e-01,2.314561645681014745e-01,-2.740607572341775544e-01,-5.694129317227323434e-02
3.750000000000000000e-01,3.669388505046806692e-01,-2.774565936989717430e-01,-2.057270561366937034e-01
3.760000000000000009e-01,2.735553297413724216e-01,-8.349648519174765471e-02,-2.091772421601939269e-01
3.770000000000000018e-01,4.452756536555604189e-02,1.468724513411456545e-01,-9.212253442231707612e-02
3.780000000000000027e-01,-2.955887886263441344e-01,2.897136182542944249e-01,7.772921194397340583e-02
3.790000000000000036e-01,-3.550059070916100068e-01,2.555474530214057460e-01,2.094908674499028622e-01
3.800000000000000044e-01,-2.155552808501978723e-01,2.803448879003425306e-02,1.869821669195933234e-01
3.810000000000000053e-01,7.466109003417648049e-02,-2.045528722647242392e-01,7.012560308860252278e-02
3.820000000000000062e-01,3.072111697847790812e-01,-3.233543732187402209e-01,-1.098221189902190142e-01
3.830000000000000071e-01,3.472895493477877737e-01,-2.153924681269469288e-01,-2.443141580132800472e-01
3.840000000000000080e-01,1.506492108626506787e-01,2.142776664705786302e-02,-1.987703129335044727e-01
3.850000000000000089e-01,-1.448835375754068122e-01,1.896909975700460382e-01,-2.429830092240816558e-02
3.860000000000000098e-01,-3.329931870859386134e-01,3.019357088986669990e-01,1.670573513265890264e-01
3.870000000000000107e-01,-3.267560281163331970e-01,1.507374193403064888e-01,2.737923559598993140e-01
3.880000000000000115e-01,-6.771206145241069618e-02,-1.194224211659360713e-01,1.554312978858161665e-01
3.890000000000000124e-01,2.004593442235809986e-01,-2.574468379395798423e-01,-2.878468227598100109e-04
3.900000000000000133e-01,3.917206238513807892e-01,-2.933870819751913106e-01,-1.656022638235624678e-01
3.910000000000000142e-01,3.194485941084989067e-01,-9.556616674625366403e-02,-2.190911698555665643e-01
3.920000000000000151e-01,4.389355602310109072e-02,1.258442743015014964e-01,-1.268143212822158694e-01
3.930000000000000160e-01,-2.444934673847515283e-01,2.630989891960865412e-01,1.921124833452137609e-02
3.940000000000000169e-01,-3.834671690083265028e-01,2.570566976096452239e-01,2.078234814682407006e-01
3.950000000000000178e-01,-2.773707593945285987e-01,2.512501762937655730e-02,2.573880330603960931e-01
3.960000000000000187e-01,5.333296525704708801e-02,-1.904051889022922994e-01,1.013433960514391330e-01
3.970000000000000195e-01,3.013888510692020462e-01,-2.978877258319042598e-01,-4.823908035021393093e-02
3.980000000000000204e-01,3.809441103813070439e-01,-1.930149442910596147e-01,-2.188741289574876181e-01
3.990000000000000213e-01,2.100250330022283840e-01,8.497595593623941818e-03,-1.907363715218871880e-01
4.000000000000000222e-01,-4.675874300941208067e-02,2.137710528833944856e-01,-4.069276620615654844e-02
4.010000000000000231e-01,-3.384233309854248195e-01,3.093067972604194305e-01,1.025024553959295454e-01
4.020000000000000240e-01,-3.476736381230566275e-01,1.792172296568791123e-01,2.588501520841752779e-01
4.030000000000000249e-01,-1.343072703632573195e-01,-3.476143928466612215e-02,1.838505150038729774e-01
4.040000000000000258e-01,1.483231823748909772e-01,-2.940622122719786513e-01,5.683093036979756929e-02
4.050000000000000266e-01,3.374479938969304205e-01,-2.707768568831015465e-01,-1.008490107206708314e-01
4.060000000000000275e-01,3.075943043046888703e-01,-1.081949048733390623e-01,-2.141866545513306797e-01
4.069999999999999729e-01,9.281363011553006581e-02,1.089239935108964330e-01,-1.633424306157046091e-01
4.079999999999999738e-01,-2.211109340458533856e-01,2.967383048641458743e-01,1.604881749833366594e-02
4.089999999999999747e-01,-3.923532322847344544e-01,2.134418473976037456e-01,1.475083445070533295e-01
4.099999999999999756e-01,-3.316060317706812088e-01,6.135215525087077404e-02,2.060275936582893763e-01
4.109999999999999765e-01,-3.962052176484027240e-04,-1.807858248354266839e-01,1.935432870707800845e-01
4.119999999999999774e-01,2.520087303244887278e-01,-2.747684154358069342e-01,-3.120931322727306216e-03
4.129999999999999782e-01,4.009539698834332366e-01,-2.261560704265000443e-01,-1.627090292393173765e-01
4.139999999999999791e-01,2.536203671272374005e-01,1.842099550128842994e-02,-2.267852945627029104e-01
4.149999999999999800e-01,-6.468520315114519026e-02,2.270663602556920457e-01,-1.297998170487312808e-01
4.159999999999999809e-01,-3.173518439783500900e-01,3.225810494164429998e-01,4.008410995627142981e-02
4.169999999999999818e-01,-3.549743469363353943e-01,1.660318101431456916e-01,2.144517968777027439e-01
4.179999999999999827e-01,-1.974822744628897953e-01,-9.060203783564156621e-02,2.244785618873190169e-01
4.189999999999999836e-01,9.984938006409865840e-02,-2.650648584487473314e-01,1.038279761355819786e-01
4.199999999999999845e-01,3.384965988508069623e-01,-3.099578635625733769e-01,-8.832104053900584339e-02
4.209999999999999853e-01,3.470758831277540590e-01,-9.982649670238628870e-02,-2.336147581121708061e-01
4.219999999999999862e-01,1.368524808027441475e-01,1.478827428248554177e-01,-2.310560498955495923e-01
4.229999999999999871e-01,-1.714178899309168058e-01,2.611962463603970663e-01,-9.687489176801163115e-02
4.239999999999999880e-01,-3.655419084031609200e-01,2.489378449987698361e-01,9.198296117537707595e-02
4.249999999999999889e-01,-2.974149931782247291e-01,4.561520047041971865e-02,1.954379075745341088e-01
4.259999999999999898e-01,-2.346201016595315242e-02,-2.070817290239825303e-01,1.977041324414688939e-01
4.269999999999999907e-01,2.452420289698631350e-01,-2.887015066057119772e-01,2.798250090741857127e-02
4.279999999999999916e-01,3.596332361631888741e-01,-2.257142951488118610e-01,-9.707901541409032220e-02
4.289999999999999925e-01,2.821610876050464345e-01,1.807385307042960743e-02,-2.255747070880153582e-01
4.299999999999999933e-01,2.755248374221045543e-02,2.163247829586967541e-01,-1.849707425997374477e-01
4.309999999999999942e-01,-2.617534412657704923e-01,3.064004080805429742e-01,-1.508979932842133449e-02
4.319999999999999951e-01,-3.563077710469982340e-01,1.631208495585349250e-01,1.732170463320514830e-01
4.329999999999999960e-01,-2.484629506664370047e-01,-6.285350357970891089e-02,2.099697957085303601e-01
4.339999999999999969e-01,6.262480283894540645e-02,-2.497402932389529984e-01,1.705290711880188270e-01
4.349999999999999978e-01,3.065281690527056901e-01,-3.023739640119135763e-01,-1.026922134077797207e-02
4.359999999999999987e-01,3.754460379268461101e-01,-8.355060608901732078e-02,-1.757703498640371953e-01
4.369999999999999996e-01,1.797177990308858886e-01,1.282397104457284887e-01,-2.065118470086997615e-01
4.380000000000000004e-01,-1.191608185441453416e-01,2.963129066344692419e-01,-1.527606045132000323e-01
4.390000000000000013e-01,-3.518064429162550688e-01,2.706022785723359858e-01,7.097936531428838958e-02
4.400000000000000022e-01,-3.648062733732523322e-01,4.121589435029885534e-02,1.491458499799233894e-01
4.410000000000000031e-01,-1.300664797793981975e-01,-2.127454052525570016e-01,2.045312368959783800e-01
4.420000000000000040e-01,1.466551036065527891e-01,-3.026696182193841511e-01,1.047218281340459300e-01
4.430000000000000049e-01,3.743682849446892114e-01,-2.252941828118477929e-01,-4.650079601157174058e-02
4.440000000000000058e-01,3.128362900112413025e-01,3.126879149368930882e-02,-2.014540262947522031e-01
4.450000000000000067e-01,3.191926451952669525e-02,2.443883041417707347e-01,-1.968324231712945405e-01
4.460000000000000075e-01,-2.261085499866107851e-01,2.996231363836698303e-01,-6.721068924590177518e-02
4.470000000000000084e-01,-3.739108600704830199e-01,1.994153265641651906e-01,8.682287813414543698e-02
4.480000000000000093e-01,-2.728381162431904317e-01,-5.585370526177634715e-02,1.990688498654860361e-01
4.490000000000000102e-01,1.900462454742553623e-03,-2.728020876277437723e-01,2.313993032428570684e-01
4.500000000000000111e-01,2.669784235274003659e-01,-2.737088641101466657e-01,3.488384631170488720e-02
4.510000000000000120e-01,3.629784168623499396e-01,-1.234028338474039282e-01,-1.366821527499144651e-01
4.520000000000000129e-01,2.327745369719081969e-01,1.280273510262809333e-01,-2.270978720861937528e-01
4.530000000000000138e-01,-6.543555536624359736e-02,2.901021845679548905e-01,-2.016287188159300858e-01
4.540000000000000147e-01,-3.113073119042393255e-01,2.383876502877741999e-01,-3.561366497092177587e-03
4.550000000000000155e-01,-3.695747292288235619e-01,7.638142084852996005e-02,1.477534219076075406e-01
4.560000000000000164e-01,-1.523444879268699426e-01,-1.820302318469416425e-01,2.577810292401547798e-01
4.570000000000000173e-01,1.314513725759731133e-01,-3.151312429121401748e-01,1.607251317273473701e-01
4.580000000000000182e-01,3.537122807213763931e-01,-1.950926804216129851e-01,-2.272314429432654645e-02
4.590000000000000191e-01,3.245332882969823585e-01,3.053978670645710741e-02,-1.542785508958570140e-01
4.600000000000000200e-01,7.383728751905972720e-02,2.294775966464339123e-01,-2.503927735485760864e-01
4.610000000000000209e-01,-1.996904912987274017e-01,3.051543376956481479e-01,-1.599706070428384974e-01
4.620000000000000218e-01,-3.285511526691436424e-01,1.603181794934050719e-01,2.894152275311957442e-02
4.630000000000000226e-01,-3.072872764726330419e-01,-4.155328233633763524e-02,1.889940363978626636e-01
4.640000000000000235e-01,-4.596135377359542723e-02,-2.684581942148529521e-01,1.960275682289465971e-01
4.650000000000000244e-01,2.752923294426442014e-01,-2.783087933853616303e-01,8.824414325177351581e-02
4.660000000000000253e-01,3.540181536720602429e-01,-9.728990805522044760e-02,-7.869089601691575675e-02
4.670000000000000262e-01,2.442795181152468964e-01,1.284727308842746052e-01,-1.817277619870930616e-01
4.680000000000000271e-01,-1.289448702515793958e-02,2.684831752543923589e-01,-2.005852976394976728e-01
4.689999999999999725e-01,-2.808584560764544324e-01,2.900452509574384385e-01,-5.815527991607132713e-02
4.699999999999999734e-01,-3.814536231248033538e-01,5.054451958153243635e-02,1.032870281839514265e-01
4.709999999999999742e-01,-2.234210644548662028e-01,-1.767005001647566353e-01,2.261091844034798237e-01
4.719999999999999751e-01,8.230610193163007127e-02,-2.968343952175692135e-01,1.956079099702633939e-01
4.729999999999999760e-01,3.477100425260833405e-01,-2.222667350680440912e-01,5.670847848892515003e-02
4.739999999999999769e-01,3.496586454599572846e-01,1.706469222078683609e-02,-1.695197064009355270e-01
4.749999999999999778e-01,1.581085425820911161e-01,2.667063433681300388e-01,-2.438575749425420380e-01
4.759999999999999787e-01,-1.248225596209250332e-01,3.164170819025904913e-01,-1.784688533275761435e-01
4.769999999999999796e-01,-3.553432245525888766e-01,1.957238973998371712e-01,-1.708901775557561051e-02
4.779999999999999805e-01,-3.584157117253400360e-01,-6.807221669202982717e-02,1.331829159242856331e-01
4.789999999999999813e-01,-7.935685009289533687e-02,-2.729728375909102889e-01,2.132623486964155268e-01
4.799999999999999822e-01,2.430810485205875671e-01,-2.971545841672191268e-01,1.356455797337619007e-01
4.809999999999999831e-01,3.923212947795162719e-01,-1.251788825582620113e-01,-8.424450640873722140e-03
4.819999999999999840e-01,2.749146625718530967e-01,1.761506701120600371e-01,-1.634044421324819529e-01
4.829999999999999849e-01,2.918659508036802047e-02,2.707500228794146313e-01,-2.305506736680409674e-01
4.839999999999999858e-01,-2.865302447409913134e-01,2.704438434956814574e-01,-1.493190046167280904e-01
4.849999999999999867e-01,-3.693675351004805374e-01,6.281757524555575678e-02,2.985069556851562000e-02
4.859999999999999876e-01,-2.754625392701119946e-01,-1.818708441116385910e-01,2.145755146478862674e-01
4.869999999999999885e-01,3.857042276333705333e-02,-3.136984946141085917e-01,2.361462503225953413e-01
4.879999999999999893e-01,3.098929286393783955e-01,-2.412202772947015239e-01,1.021470512819082355e-01
4.889999999999999902e-01,3.895109802432162871e-01,-2.053609666071102777e-02,-6.327443268195023784e-02
4.899999999999999911e-01,1.659058567951036123e-01,2.198196513142378627e-01,-2.317563949723508432e-01
4.909999999999999920e-01,-1.033081842133500433e-01,2.606020554734881922e-01,-2.448849627838833032e-01
4.919999999999999929e-01,-3.174924796243257519e-01,1.306704217216531350e-01,-7.154539204116036610e-02
4.929999999999999938e-01,-3.484248843763198544e-01,-7.912706751513012837e-02,9.849974787636381346e-02
4.939999999999999947e-01,-1.252222949508595140e-01,-2.808230197634545844e-01,2.239802915209431755e-01
4.949999999999999956e-01,1.762026149420234111e-01,-2.789006862459537661e-01,1.768912953497622509e-01
4.959999999999999964e-01,3.524397997542569883e-01,-1.177434150291739867e-01,1.416471616995944836e-02
4.969999999999999973e-01,3.236849396290324421e-01,1.431326617609593177e-01,-1.300496103287377414e-01
4.979999999999999982e-01,8.659594939973874750e-02,3.092053766734280118e-01,-2.122190398458105587e-01
4.989999999999999991e-01,-2.004408268246958558e-01,2.505251392810542432e-01,-1.434637289202967125e-01
5.000000000000000000e-01,-3.774760397235132348e-01,3.863903946312673837e-02,-1.057829532868130411e-03
5.010000000000000009e-01,-2.779933316493370943e-01,-1.883241572063862612e-01,1.498295960633790891e-01
5.020000000000000018e-01,-9.564776765473560066e-03,-3.132770583079749205e-01,2.020283957113964413e-01
5.030000000000000027e-01,2.620369522676980756e-01,-2.115874270270780011e-01,1.670001321435138908e-01
5.040000000000000036e-01,3.696555461186572522e-01,8.412524169908763491e-03,-2.316655751617225853e-02
5.050000000000000044e-01,2.317386175472119780e-01,2.216757789004416002e-01,-1.725357221364557103e-01
5.060000000000000053e-01,-6.815701883442878972e-02,3.126880720528276147e-01,-2.132899886454401872e-01
5.070000000000000062e-01,-2.911617702591746681e-01,1.716296242901430569e-01,-1.100587089922112072e-01
5.080000000000000071e-01,-3.471548686624532087e-01,-4.530984487426721607e-02,2.901778095211409586e-02
5.090000000000000080e-01,-1.955603296030772875e-01,-2.949349395966467391e-01,2.041148018539337694e-01
5.100000000000000089e-01,1.156992811340211841e-01,-2.925003517039452827e-01,2.259510517066531388e-01
5.110000000000000098e-01,3.350625366343067957e-01,-1.508577666913914761e-01,1.189959913319486445e-01
5.120000000000000107e-01,3.303430352918105273e-01,1.356092067275670443e-01,-1.355083055911188439e-01
5.130000000000000115e-01,1.265453786398292868e-01,2.951546223032543992e-01,-2.175905479180376412e-01
5.140000000000000124e-01,-1.790238163149772965e-01,2.952884552452797462e-01,-1.897234177336294125e-01
5.150000000000000133e-01,-3.738836839971017012e-01,7.917224470191892849e-02,-3.717582906093146178e-02
5.160000000000000142e-01,-3.166314805987044401e-01,-1.683903901776677425e-01,1.261451809303937022e-01
5.170000000000000151e-01,-3.546151276331016566e-02,-2.956906893444471995e-01,2.116717838297623167e-01
5.180000000000000160e-01,2.516318000791257226e-01,-2.221870165093401683e-01,1.679780904743224668e-01
5.190000000000000169e-01,3.458349767748069015e-01,-9.914425443698710733e-03,2.284260475453836828e-02
5.200000000000000178e-01,2.971006374603580302e-01,2.475390031956670178e-01,-1.389214531871323099e-01
5.210000000000000187e-01,-2.716754787944264046e-02,3.180384464660859223e-01,-2.341891493197593710e-01
5.220000000000000195e-01,-2.823108370768150355e-01,1.754298900043047560e-01,-1.252883213351137226e-01
5.230000000000000204e-01,-3.720605065225411900e-01,-5.491023936685455326e-02,8.881448807342219240e-03
5.240000000000000213e-01,-1.922273507826238459e-01,-2.789796498017531046e-01,1.901128392683233137e-01
5.250000000000000222e-01,7.173390156444012233e-02,-2.632704237707998440e-01,2.464788974747989525e-01
5.260000000000000231e-01,3.122593859860294807e-01,-8.561105939079168003e-02,1.287186744231210156e-01
5.270000000000000240e-01,3.583628059537518618e-01,1.704554049361113044e-01,-4.366561430497126368e-03
5.280000000000000249e-01,1.450921966682746367e-01,2.759608761366457164e-01,-1.706454738570417073e-01
5.290000000000000258e-01,-1.779035586303689687e-01,2.418881486126010227e-01,-2.198392528039797844e-01
5.300000000000000266e-01,-3.910305119333222224e-01,6.215262819567481806e-02,-1.096223270486476470e-01
5.310000000000000275e-01,-3.348736593716216681e-01,-1.754584789708802661e-01,7.820953377156565633e-02
5.320000000000000284e-01,-9.672996684649041998e-02,-2.877915674350144948e-01,1.760228877246909074e-01
5.330000000000000293e-01,1.836574138842218817e-01,-2.598296722294350936e-01,2.092655507170729234e-01
5.340000000000000302e-01,3.888678139895453412e-01,-4.660936913464740899e-02,6.744378672871799429e-02
5.350000000000000311e-01,2.966917259695341369e-01,2.062476254770065631e-01,-9.788771140101679147e-02
5.360000000000000320e-01,1.031857780996058190e-02,2.930177991198773535e-01,-2.227876709973859171e-01
5.370000000000000329e-01,-2.339336333249874555e-01,1.866660233123636214e-01,-2.062886352539055890e-01
5.380000000000000338e-01,-3.682776099219152721e-01,-6.414692056333749781e-02,-6.540723186464376948e-02
5.390000000000000346e-01,-2.436618004652646163e-01,-2.575887149991892278e-01,1.205143350316505435e-01
5.400000000000000355e-01,2.940042031091514435e-02,-2.813615281132436086e-01,1.814475196763241094e-01
5.410000000000000364e-01,2.882237296567445872e-01,-1.140899837159740082e-01,1.744841462222609108e-01
5.420000000000000373e-01,3.725916752853852820e-01,1.101462229949474875e-01,9.960171930842177945e-03
5.430000000000000382e-01,1.682907676535770336e-01,3.072305637353178742e-01,-1.552718359095719425e-01
5.440000000000000391e-01,-8.373787384497857755e-02,2.512239439966842958e-01,-2.424658434095026127e-01
5.450000000000000400e-01,-3.769405822783687965e-01,6.288865590177397658e-02,-1.661813681809832799e-01
5.460000000000000409e-01,-3.787180781411256802e-01,-2.090950270709082126e-01,-4.310252418285846591e-03
5.470000000000000417e-01,-1.229952819934622688e-01,-3.287535893199812209e-01,1.870830412215505889e-01
5.480000000000000426e-01,1.823155831553988082e-01,-2.162911538813081513e-01,2.644028265709709724e-01
5.490000000000000435e-01,3.467986016977147590e-01,2.768732108970105299e-02,1.358785285960888711e-01
5.500000000000000444e-01,3.089707501078378105e-01,1.874771448088117520e-01,-5.557124645777448274e-02
5.510000000000000453e-01,6.859689331032702009e-02,3.557411650243337831e-01,-1.817144107525145436e-01
5.520000000000000462e-01,-1.929997075913030269e-01,1.855538742841169042e-01,-2.108128612670583935e-01
5.530000000000000471e-01,-3.599012090295027888e-01,-4.563693725835187009e-02,-6.995672552102050190e-02
5.540000000000000480e-01,-2.813220028379887494e-01,-2.710888601346749804e-01,7.480657799538832642e-02
5.550000000000000488e-01,-2.089053157313924131e-02,-3.069759690695077481e-01,2.410648796673737770e-01
5.560000000000000497e-01,2.796993799935910685e-01,-1.242483256464418651e-01,2.199141672784325208e-01
5.570000000000000506e-01,3.724656989871963364e-01,1.442633709602399450e-01,9.166392655318825189e-02
5.580000000000000515e-01,2.469487595450430284e-01,3.038379954893986046e-01,-9.887311394412541532e-02
5.590000000000000524e-01,-4.712299525580103399e-02,2.460305970068180359e-01,-2.005246138628672958e-01
5.600000000000000533e-01,-3.205599015253781658e-01,5.283728363852778498e-02,-2.056174281565523454e-01
5.610000000000000542e-01,-3.801555482613097059e-01,-1.726122035454915049e-01,-7.260326764973246139e-02
5.620000000000000551e-01,-2.069787856983330843e-01,-3.026083259173024675e-01,1.559438480524070747e-01
5.629999999999999449e-01,7.424164035335324707e-02,-2.215936276901709356e-01,2.043032658472590246e-01
5.639999999999999458e-01,3.580006180112364489e-01,-1.975451201434780257e-02,1.742315540390612372e-01
5.649999999999999467e-01,3.793991966336458521e-01,2.021533710850945964e-01,-1.416906938986915894e-02
5.659999999999999476e-01,1.289615559308682768e-01,2.822180462713641536e-01,-1.220775818889717618e-01
5.669999999999999485e-01,-1.594886235840020372e-01,1.598138977821647877e-01,-2.325129220632514981e-01
5.679999999999999494e-01,-3.543609124613747996e-01,-6.903185362976110850e-02,-1.830974123965270484e-01
5.689999999999999503e-01,-3.487293811051985215e-01,-2.810674807557980159e-01,1.917119898660059676e-02
5.699999999999999512e-01,-8.679516308723078666e-02,-2.795223074410435604e-01,1.769592242594891784e-01
5.709999999999999520e-01,2.234919988240605948e-01,-1.198830005540160032e-01,2.142764246532305183e-01
5.719999999999999529e-01,3.487483248169430117e-01,1.110647883592744828e-01,1.295510555606467495e-01
5.729999999999999538e-01,2.703306064812688314e-01,2.782932934723434393e-01,-3.164961354266850047e-02
5.739999999999999547e-01,-1.092309617123376000e-02,2.683146999437729385e-01,-1.886471784299411369e-01
5.749999999999999556e-01,-2.538422607347433080e-01,4.710654267911167786e-02,-2.131428803988941190e-01
5.759999999999999565e-01,-3.642635980774887594e-01,-2.130374114336407998e-01,-6.108768367384988934e-02
5.769999999999999574e-01,-2.116129574963178661e-01,-3.011559959853227775e-01,7.658362617545207141e-02
5.779999999999999583e-01,8.094993664707177128e-02,-2.111230515653119144e-01,1.975709581191677222e-01
5.789999999999999591e-01,2.794486805785338368e-01,1.022414501342925469e-02,1.897048137448058280e-01
5.799999999999999600e-01,3.345443531460032260e-01,2.227627843565954113e-01,7.933992392315157571e-02
5.809999999999999609e-01,2.077382155420659515e-01,2.949314620156526789e-01,-1.323191313242864375e-01
5.819999999999999618e-01,-1.415389151433255610e-01,1.632946950266177255e-01,-2.201578350013975727e-01
5.829999999999999627e-01,-3.543079755231918759e-01,-7.012269378355709404e-02,-1.764445819601471177e-01
5.839999999999999636e-01,-3.161468037603148429e-01,-2.599282905814335742e-01,-1.819564038375604334e-02
5.849999999999999645e-01,-9.823660468002194668e-02,-2.653417414917330630e-01,1.141897212930596817e-01
5.859999999999999654e-01,1.647228400915192181e-01,-1.347849263326568459e-01,2.544135728307393984e-01
5.869999999999999662e-01,3.842631192721570610e-01,8.280322711774165678e-02,1.901410720078210714e-01
5.879999999999999671e-01,2.810086543131608550e-01,2.848737885494623812e-01,-2.233930824437181141e-03
5.889999999999999680e-01,3.932362585279178951e-02,2.905564825585635336e-01,-1.469838527344270174e-01
5.899999999999999689e-01,-2.506955929947543571e-01,9.229003819726221136e-02,-2.218759005506965865e-01
5.909999999999999698e-01,-3.762413114661180558e-01,-2.046120787192538260e-01,-1.414987011828910402e-01
5.919999999999999707e-01,-2.699373092564625876e-01,-2.889820600867641920e-01,2.938602067662374889e-02
5.929999999999999716e-01,2.071381919309719585e-02,-2.254634165098623744e-01,1.943494898052587072e-01
5.939999999999999725e-01,2.850413642144962734e-01,-2.843180996198537563e-02,1.699761180048949549e-01
5.949999999999999734e-01,3.554285421633183173e-01,1.972754396901819918e-01,1.309518704847000281e-01
5.959999999999999742e-01,2.017276912718982129e-01,2.903298089487864053e-01,-2.879718188572451265e-02
5.969999999999999751e-01,-7.981771325729632161e-02,1.611045297774958973e-01,-1.988714505587386439e-01
5.979999999999999760e-01,-3.191096373421688503e-01,-6.996805155928126352e-03,-2.259910361300008219e-01
5.989999999999999769e-01,-3.809627241614248483e-01,-2.395333298117142962e-01,-9.491212711296073690e-02
5.999999999999999778e-01,-1.473100955442657178e-01,-2.765117107807538166e-01,8.698473247589193214e-02
6.009999999999999787e-01,1.529411314373879116e-01,-1.442546590868244716e-01,1.946894595917390280e-01
6.019999999999999796e-01,3.392177451168691960e-01,9.761905608158073788e-02,1.882652172060823303e-01
6.029999999999999805e-01,3.473552504901516458e-01,2.578193581787961985e-01,5.380406262269249451e-02
6.039999999999999813e-01,1.148674906726263878e-01,2.509860835551782077e-01,-1.356988671258401724e-01
6.049999999999999822e-01,-2.090601694140523381e-01,7.832422693823094806e-02,-2.236706508353190348e-01
6.059999999999999831e-01,-3.703620447334273202e-01,-1.828395598702408087e-01,-2.215502606997017954e-01
6.069999999999999840e-01,-3.182735762812780589e-01,-2.814387493348172176e-01,-1.944288595636910894e-02
6.079999999999999849e-01,-2.474302041594257651e-02,-2.466964516387334105e-01,1.365946871720629396e-01
6.089999999999999858e-01,2.189487047173974688e-01,-5.187424843411686352e-03,2.247863619686731596e-01
6.099999999999999867e-01,3.829128652663733035e-01,2.444373620071786657e-01,1.746962045660022111e-01
6.109999999999999876e-01,2.593919638286154017e-01,3.023195791487633399e-01,2.851535314070399729e-02
6.119999999999999885e-01,-3.315204231606627694e-02,1.580254262656854702e-01,-1.777387653227464059e-01
6.129999999999999893e-01,-2.717082954043397724e-01,-7.819901122546815686e-02,-2.259107387408546275e-01
6.139999999999999902e-01,-3.847785325634442977e-01,-2.565326413943053163e-01,-1.367369197457556917e-01
6.149999999999999911e-01,-1.783908806263894697e-01,-2.939553800162873487e-01,4.724496576314567847e-02
6.159999999999999920e-01,4.688510998111636990e-02,-1.284044155640661489e-01,1.759712472166471975e-01
6.169999999999999929e-01,3.530687846078381931e-01,1.236820414631098208e-01,2.050420295580903662e-01
6.179999999999999938e-01,3.848984637349027738e-01,3.011052627777335844e-01,1.122894043825184290e-01
6.189999999999999947e-01,1.546057834276623466e-01,2.542210642573513590e-01,-4.432730308836144162e-02
6.199999999999999956e-01,-1.592482947578872099e-01,7.270559439378285194e-02,-2.103213889291623284e-01
6.209999999999999964e-01,-3.347663778240573818e-01,-1.387371324486257884e-01,-2.158064500722244317e-01
6.219999999999999973e-01,-3.156702728686662240e-01,-2.814118360312455880e-01,-6.469485901872561173e-02
6.229999999999999982e-01,-8.264695702395964683e-02,-2.553491929342101008e-01,1.100665620211176143e-01
6.239999999999999991e-01,2.250824360785318168e-01,8.988454128536245771e-03,2.207521578276567809e-01
6.250000000000000000e-01,3.646386429427792564e-01,2.309813662232488296e-01,2.092043232679353659e-01
6.260000000000000009e-01,2.659298016694600086e-01,3.164405700914195152e-01,6.760890280250970996e-02
6.270000000000000018e-01,2.424097819346519508e-02,1.715312294638686452e-01,-9.619907663236709761e-02
6.280000000000000027e-01,-2.322264254995354271e-01,-8.667142530374949416e-02,-2.169764073360464507e-01
6.290000000000000036e-01,-3.539180956660279431e-01,-2.452248138050754644e-01,-2.025875927578978664e-01
6.300000000000000044e-01,-2.502541118580894897e-01,-2.874739494898023717e-01,-3.863910229527395962e-02
6.310000000000000053e-01,4.322075222203690392e-02,-1.046652548699926744e-01,1.237453068507428505e-01
6.320000000000000062e-01,3.127548466408512362e-01,1.163070358293451234e-01,2.217642285546575776e-01
6.330000000000000071e-01,3.875966480205882969e-01,2.741108573384884450e-01,1.879219230933250606e-01
6.340000000000000080e-01,1.959955496030029998e-01,2.928409626127525534e-01,-5.227633854089910187e-02
6.350000000000000089e-01,-1.433679878103832628e-01,6.459942048307465434e-02,-1.150169401212386977e-01
6.360000000000000098e-01,-3.411770568243662760e-01,-1.636383489832656524e-01,-2.458449834517823507e-01
6.370000000000000107e-01,-3.241773170853737285e-01,-3.003778773553338333e-01,-1.392357551923583403e-01
6.380000000000000115e-01,-1.506856917618309699e-01,-2.137352400475553138e-01,2.993491492021065764e-02
6.390000000000000124e-01,1.825448950154870131e-01,2.739948065134456285e-03,1.658085030564489804e-01
6.400000000000000133e-01,3.784174112838137316e-01,2.186049571848732720e-01,2.377044124098934563e-01
6.410000000000000142e-01,3.229790836042324420e-01,2.915850120043194105e-01,1.405329875460731015e-01
6.420000000000000151e-01,5.021085208651248494e-02,2.104446455052640663e-01,-4.758049791197702799e-02
6.430000000000000160e-01,-2.119585261591659109e-01,-2.305121568981806715e-02,-1.942951488085224165e-01
6.440000000000000169e-01,-3.426452654798791131e-01,-2.989917626752570667e-01,-2.081490034442491088e-01
6.450000000000000178e-01,-2.603837281557760952e-01,-3.050144536162250897e-01,-7.688151343893115386e-02
6.460000000000000187e-01,2.213006846077785958e-02,-1.441646756743599489e-01,8.834892375109276719e-02
6.470000000000000195e-01,2.779393264420499388e-01,1.117911857573767737e-01,2.230370952985115118e-01
6.480000000000000204e-01,3.883248916323137068e-01,3.189816495961630971e-01,1.986112151169593942e-01
6.490000000000000213e-01,2.309675308188708920e-01,2.613188355561567033e-01,6.548330364716663243e-02
6.500000000000000222e-01,-4.927355119665081939e-02,1.137673471805598080e-01,-7.821751165468324163e-02
6.510000000000000231e-01,-3.416232453208816189e-01,-1.819604592506287033e-01,-2.252247968841061265e-01
6.520000000000000240e-01,-3.767092291759192024e-01,-2.775320964456131079e-01,-1.857876357289289238e-01
6.530000000000000249e-01,-1.313932786305075373e-01,-2.635840970153229268e-01,-4.269116322659038953e-02
6.540000000000000258e-01,1.260210666087578646e-01,-2.455041566624989804e-02,1.459157036863547030e-01
6.550000000000000266e-01,3.603280021658905596e-01,2.325294690140071452e-01,1.663530557061728699e-01
6.560000000000000275e-01,3.316536553614412575e-01,2.829043635225201303e-01,1.575744639719648399e-01
6.570000000000000284e-01,8.687440502011871402e-02,1.892858966754110417e-01,1.489267231942121780e-02
6.580000000000000293e-01,-1.877255249420385907e-01,-2.180719691561661469e-02,-1.813338407270380925e-01
6.590000000000000302e-01,-3.472438165473586413e-01,-2.623596860096364392e-01,-2.144815263276297068e-01
6.600000000000000311e-01,-3.046732874433643601e-01,-3.212701281029534117e-01,-1.312945158245971411e-01
6.610000000000000320e-01,-4.066031068379132030e-02,-1.308619187373783743e-01,6.938183987802622188e-02
6.620000000000000329e-01,2.561209159720369555e-01,1.217725556204992815e-01,1.798427567859893494e-01
6.630000000000000338e-01,3.792758981315544342e-01,2.874940105352326580e-01,2.080206540678140037e-01
6.640000000000000346e-01,2.740929795757954812e-01,2.770816187887427673e-01,1.224548509376781613e-01
6.650000000000000355e-01,-6.053365149429147662e-03,5.594341975267588807e-02,-6.688356988086521793e-02
6.660000000000000364e-01,-2.639481279939825953e-01,-1.895858970371176733e-01,-1.910928094458482496e-01
6.670000000000000373e-01,-3.748804035899642173e-01,-2.878470620493279730e-01,-1.949962240326188478e-01
6.680000000000000382e-01,-1.851205337714917631e-01,-2.260358055019642265e-01,-4.098481581312644895e-02
6.690000000000000391e-01,8.081166053312005548e-02,-4.834208723766758586e-02,1.373480346263356022e-01
6.700000000000000400e-01,3.625918397964139062e-01,2.169904314582188076e-01,2.284703164732467817e-01
6.710000000000000409e-01,3.870251504603501314e-01,3.080358446731782385e-01,1.937227185688848163e-01
6.720000000000000417e-01,1.496123180633424921e-01,1.741254129758291469e-01,2.242157401051019308e-02
6.730000000000000426e-01,-1.287886098160847814e-01,-6.566365790040099015e-02,-1.194788769264242545e-01
6.740000000000000435e-01,-3.344388203701070816e-01,-2.627477107791882371e-01,-2.363432307827293410e-01
6.750000000000000444e-01,-3.098335603117861048e-01,-2.961735261624197646e-01,-1.402051512770567943e-01
6.760000000000000453e-01,-1.002953876283799867e-01,-1.372674078185286972e-01,-3.343879310578314057e-02
6.770000000000000462e-01,1.931996668910797577e-01,1.146173376155339568e-01,1.432569577332997168e-01
6.780000000000000471e-01,3.294251084675632879e-01,2.722908744297523054e-01,2.057896519473752239e-01
6.790000000000000480e-01,2.552886977094372400e-01,2.762647462908925378e-01,1.665263649658550726e-01
6.800000000000000488e-01,5.975923112075567228e-02,6.674425896596875019e-02,-1.576107246483797811e-02
6.810000000000000497e-01,-2.189829923037525938e-01,-1.281322936304034321e-01,-1.926560258892688060e-01
6.820000000000000506e-01,-3.438400542747444555e-01,-3.021497740907395646e-01,-1.987252007629124462e-01
6.830000000000000515e-01,-2.692559002057062223e-01,-2.181348826406554198e-01,-1.521356495533904007e-01
6.840000000000000524e-01,6.045500802677665486e-02,-2.294675247102881746e-02,6.533814353319396251e-02
6.850000000000000533e-01,2.886831449616069079e-01,2.309785702676790675e-01,1.642904375791575944e-01
6.860000000000000542e-01,3.592325226101359958e-01,2.720958564406878444e-01,2.223962671570791083e-01
6.870000000000000551e-01,2.036596597977690937e-01,1.862140326996109263e-01,7.546478000838355293e-02
6.879999999999999449e-01,-9.806174045982739285e-02,-4.429777186902424113e-02,-8.723988444786222318e-02
6.889999999999999458e-01,-3.430365670053520666e-01,-2.589023346921724977e-01,-2.247436783608713906e-01
6.899999999999999467e-01,-3.876324875925967195e-01,-3.187342881364597091e-01,-2.233727062371810013e-01
6.909999999999999476e-01,-1.594915862795438233e-01,-1.130325793035649590e-01,-7.814255370509064214e-02
6.919999999999999485e-01,1.488081032242682955e-01,1.358048706869143807e-01,7.596466144641907114e-02
6.929999999999999494e-01,3.477380925913081677e-01,2.778375569183270111e-01,1.909713961675729710e-01
6.939999999999999503e-01,3.442986153622096257e-01,2.441581099873680050e-01,2.015907734023326126e-01
6.949999999999999512e-01,6.916778113803948025e-02,5.280031472133247389e-02,7.590411079950050086e-03
6.959999999999999520e-01,-2.023334425998088715e-01,-1.757707273959500105e-01,-1.129277100881316276e-01
6.969999999999999529e-01,-3.787914959239274126e-01,-2.665226082128475116e-01,-2.171883094319739804e-01
6.979999999999999538e-01,-3.039831643339844791e-01,-2.372266605464570799e-01,-1.669719193396307089e-01
6.989999999999999547e-01,-7.546853635195041599e-03,-1.975480824183079714e-02,3.032266315678150762e-02
6.999999999999999556e-01,2.775100466875432548e-01,2.095378845293424108e-01,1.327588810728965452e-01
7.009999999999999565e-01,3.891657434559506745e-01,3.186641925655409602e-01,2.130805277739619141e-01
7.019999999999999574e-01,2.498378081316519617e-01,1.868901684468979307e-01,1.334676494284983139e-01
7.029999999999999583e-01,-6.263149497122459664e-02,-2.035791951528451475e-04,-3.416206233898580382e-03
7.039999999999999591e-01,-2.982934561813628260e-01,-2.352181984290520056e-01,-1.925107732043475350e-01
7.049999999999999600e-01,-3.617458660734967357e-01,-2.974199414273913100e-01,-1.945448162048984686e-01
7.059999999999999609e-01,-1.955962289560271850e-01,-1.380770066735630408e-01,-1.506939852367200350e-01
7.069999999999999618e-01,1.204529730861926828e-01,1.194755243646912629e-01,5.011448063913648276e-02
7.079999999999999627e-01,3.398842437591106380e-01,2.549991570679631114e-01,1.879316380442549450e-01
7.089999999999999636e-01,3.320323239097235368e-01,2.687927147524196703e-01,2.287498282803917538e-01
7.099999999999999645e-01,1.411280377308757050e-01,8.136775756424483030e-02,1.011948182373013649e-01
7.109999999999999654e-01,-1.670172386997387792e-01,-1.699020459817299489e-01,-7.255480391589733125e-02
7.119999999999999662e-01,-3.567919494303994354e-01,-3.041750585210071245e-01,-2.263465500937656694e-01
7.129999999999999671e-01,-3.369504241965768365e-01,-2.339021323656124418e-01,-1.829249487881784986e-01
7.139999999999999680e-01,-5.527015806021855909e-02,-3.102871178615660905e-02,-6.539935024383616846e-02
7.149999999999999689e-01,2.340554718695301850e-01,2.237245711598756792e-01,1.246132369490258185e-01
7.159999999999999698e-01,3.870354052722668747e-01,3.261039322111058403e-01,2.510785196335941771e-01
7.169999999999999707e-01,2.624792138232077132e-01,2.234103174234283173e-01,1.973528628533301743e-01
7.179999999999999716e-01,-2.236782357441598548e-02,-4.009642353392998959e-02,-2.648811206067483871e-03
7.189999999999999725e-01,-2.478823646458623298e-01,-2.334861280817312479e-01,-1.574941643790833956e-01
7.199999999999999734e-01,-3.870380798291345736e-01,-2.741699523983898712e-01,-2.535851103810357055e-01
7.209999999999999742e-01,-2.136630509367090369e-01,-1.390304327062334422e-01,-1.660230579090110903e-01
7.219999999999999751e-01,5.604448978142016757e-02,8.952861330359355996e-02,2.147166107337836801e-03
7.229999999999999760e-01,2.981439688637137486e-01,2.967211036338269214e-01,1.584548086438798409e-01
7.239999999999999769e-01,3.519300750761769070e-01,2.850461494989536271e-01,2.163326772126706599e-01
7.249999999999999778e-01,1.385541954981036605e-01,1.018254013730134494e-01,1.540262194658190698e-01
7.259999999999999787e-01,-1.511385404515360742e-01,-1.567577816638351385e-01,-3.964665262117912647e-02
7.269999999999999796e-01,-3.357246649906414637e-01,-3.174001933794087793e-01,-1.734744781604102837e-01
7.279999999999999805e-01,-3.105645268640102041e-01,-2.173846112191414603e-01,-2.270962376920256098e-01
7.289999999999999813e-01,-1.470389154224293893e-01,-2.080936902787274695e-02,-1.288817009117936840e-01
7.299999999999999822e-01,1.789651157516511382e-01,1.831324064843673216e-01,9.074819324586168301e-02
7.309999999999999831e-01,3.855883196716026751e-01,2.807556838604035598e-01,2.088640899973707443e-01
7.319999999999999840e-01,3.172257506042466813e-01,1.976617529230713377e-01,1.933451680572351172e-01
7.329999999999999849e-01,1.376245734527597499e-02,-3.605567412585342080e-02,7.705027817186488326e-02
7.339999999999999858e-01,-2.278053653388886213e-01,-2.360898897401934871e-01,-9.469860063744768575e-02
7.349999999999999867e-01,-3.316596266870426857e-01,-2.395180979382935949e-01,-2.231577261837947579e-01
7.359999999999999876e-01,-2.392486545114227703e-01,-1.558464230961333352e-01,-1.827139138761145754e-01
7.369999999999999885e-01,1.551021906211832828e-02,8.013338317447024628e-02,-5.014812471113742204e-02
7.379999999999999893e-01,2.837825635054899154e-01,2.792928347759147112e-01,1.009011741657759864e-01
7.389999999999999902e-01,3.626455269883273602e-01,2.511541420032129546e-01,2.251198719097504408e-01
7.399999999999999911e-01,2.013138511339501446e-01,9.606146003846115222e-02,1.586582333353970808e-01
7.409999999999999920e-01,-7.538252861128939830e-02,-1.416874250771303079e-01,2.059390079831212306e-02
7.419999999999999929e-01,-2.968918430156492483e-01,-2.800430157000499132e-01,-8.967204127926692303e-02
7.429999999999999938e-01,-3.290693486333221562e-01,-2.339943633111769838e-01,-2.387716890705022244e-01
7.439999999999999947e-01,-1.650300017110049033e-01,-1.497465116536921687e-02,-1.717671408387933252e-01
7.449999999999999956e-01,1.505708966146604710e-01,2.067533270441206106e-01,2.369395295534726387e-02
7.459999999999999964e-01,3.054964887267887508e-01,2.911484353583114193e-01,1.552783410905763106e-01
7.469999999999999973e-01,3.166398533562066464e-01,1.930919681792029052e-01,2.081619244260443646e-01
7.479999999999999982e-01,6.166014385444165691e-02,-8.046890748792676074e-02,1.634893992713883082e-01
7.489999999999999991e-01,-2.227439149886652481e-01,-2.586330241393469120e-01,-2.959159128525144442e-02
7.500000000000000000e-01,-3.908684309032166015e-01,-3.201651907249756235e-01,-1.687686495401733155e-01
7.510000000000000009e-01,-2.709951864548544309e-01,-1.534385661767964926e-01,-2.279565868304123666e-01
7.520000000000000018e-01,-2.831747926704590926e-02,1.014914018559552600e-01,-1.282691319443237665e-01
7.530000000000000027e-01,2.641871886799724289e-01,2.880396624056961730e-01,5.601679501096160779e-02
7.540000000000000036e-01,3.663999443541963719e-01,2.623227536328747722e-01,2.064943331866556653e-01
7.550000000000000044e-01,2.765477481521086967e-01,9.691657862448892213e-02,2.001248215717014445e-01
7.560000000000000053e-01,-3.165895579744022748e-02,-1.667965014366117882e-01,7.084873613109041179e-02
7.570000000000000062e-01,-3.080666963802475289e-01,-2.628449181090130593e-01,-9.803816733533234073e-02
7.580000000000000071e-01,-3.728263893394639927e-01,-2.576553482414946639e-01,-2.140006249757769319e-01
7.590000000000000080e-01,-2.111186782978506649e-01,6.664848473320989300e-03,-1.963077792515818265e-01
7.600000000000000089e-01,9.524329943972406620e-02,2.213334464012931269e-01,-5.054052134006557090e-02
7.610000000000000098e-01,3.423514104713116790e-01,3.147607713446995970e-01,1.287791243422778120e-01
7.620000000000000107e-01,3.582274476455660772e-01,1.985316610659647596e-01,2.372221125080654636e-01
7.630000000000000115e-01,1.560067621929976667e-01,-3.732892116070925942e-02,1.509553504026199533e-01
7.640000000000000124e-01,-1.485946738727318694e-01,-2.598241971547707307e-01,1.556475516403538900e-02
7.650000000000000133e-01,-3.590778874174150870e-01,-3.093134514253343959e-01,-1.659386618408600356e-01
7.660000000000000142e-01,-3.277764585839364475e-01,-1.559919564076624743e-01,-2.257665156721246902e-01
7.670000000000000151e-01,-8.007077697846516628e-02,9.600731687149391402e-02,-1.315676923757947703e-01
7.680000000000000160e-01,2.007067521085849349e-01,3.078954163071980776e-01,1.587224892278817426e-02
7.690000000000000169e-01,4.025969454882642462e-01,2.931402399080222931e-01,1.701223637007487355e-01
7.700000000000000178e-01,2.991543266140698210e-01,9.481649702892451514e-02,2.392285625363496371e-01
7.710000000000000187e-01,-2.094433592088365027e-03,-1.343580294692891530e-01,1.032690618905785229e-01
7.720000000000000195e-01,-2.632224841317624686e-01,-2.981621640080969748e-01,-3.435565922266594491e-02
7.730000000000000204e-01,-4.042987401933071379e-01,-2.315641493361001446e-01,-2.361024049836379646e-01
7.740000000000000213e-01,-2.663674522510878773e-01,3.006364353616927491e-03,-2.063516801654587396e-01
7.750000000000000222e-01,5.545295566203548715e-02,2.056111129332315601e-01,-1.208390555826899526e-01
7.760000000000000231e-01,2.825044437441630585e-01,3.296827309515246163e-01,8.819102597379221975e-02
7.770000000000000240e-01,4.083789490620168827e-01,2.217541592929652972e-01,1.998377739480241277e-01
7.780000000000000249e-01,1.758100034020625979e-01,-4.764862583778025490e-02,2.053522479969497327e-01
7.790000000000000258e-01,-1.082241990487545213e-01,-2.274857829446432222e-01,5.944771848454325630e-02
7.800000000000000266e-01,-3.516190197690452490e-01,-3.159689069871635114e-01,-7.428698924418430938e-02
7.810000000000000275e-01,-3.325208881681870343e-01,-1.261868943290146983e-01,-2.195591508180102513e-01
7.820000000000000284e-01,-1.284349061765909239e-01,1.071314023027428591e-01,-2.100305894018151820e-01
7.830000000000000293e-01,1.932375976696195652e-01,3.078480107576845315e-01,-6.639605090124620079e-02
7.840000000000000302e-01,3.512333485849129522e-01,2.301504162463361147e-01,1.149372202700476853e-01
7.850000000000000311e-01,3.202734939048522134e-01,1.250018501182897368e-01,2.507961188200606983e-01
7.860000000000000320e-01,9.816047960925119997e-02,-1.243636117933825391e-01,1.755791260389648889e-01
7.870000000000000329e-01,-2.146504081946780662e-01,-2.652322723045538733e-01,3.387033961073377536e-02
7.880000000000000338e-01,-3.802603045863044984e-01,-2.260178676949961274e-01,-1.470831514175599264e-01
7.890000000000000346e-01,-2.532713595059569167e-01,-1.393531084665226372e-03,-2.120361448931570025e-01
7.900000000000000355e-01,-2.186085200118350821e-02,1.754372547480550770e-01,-1.726713479562618225e-01
7.910000000000000364e-01,2.446427824089024428e-01,3.257055922136151138e-01,1.392559868120469939e-02
7.920000000000000373e-01,3.740122486867382134e-01,2.346888229838250961e-01,2.071424709412411913e-01
7.930000000000000382e-01,2.536636291002140609e-01,-6.439382412120929489e-02,2.257239354598264691e-01
7.940000000000000391e-01,-5.547002227285308118e-02,-2.480661677182946223e-01,1.289781274463187299e-01
7.950000000000000400e-01,-3.304795758702102071e-01,-2.806697134051954756e-01,-4.432423673221033006e-02
7.960000000000000409e-01,-3.717213402664917843e-01,-1.036939640182002881e-01,-1.711214865601495549e-01
7.970000000000000417e-01,-1.744611544574551643e-01,1.216691750450257514e-01,-1.911816652560912599e-01
7.980000000000000426e-01,1.152334373702934844e-01,2.696613651828274616e-01,-1.025731362512126987e-01
7.990000000000000435e-01,3.591770129620833196e-01,2.729433881389385363e-01,8.262988545340459179e-02
8.000000000000000444e-01,3.269898023978853319e-01,1.002172480713684477e-01,2.049523993039030489e-01
8.010000000000000453e-01,7.827081474140279438e-02,-1.073110391832342442e-01,1.896609144959726934e-01
8.020000000000000462e-01,-1.744837766833472747e-01,-3.049299479269346747e-01,7.880841590187033507e-02
8.030000000000000471e-01,-3.783482818031640438e-01,-2.449280761002444740e-01,-9.663262211876756658e-02
8.040000000000000480e-01,-3.093565023451609330e-01,-3.710993014782130311e-02,-2.043773616722147912e-01
8.050000000000000488e-01,-1.265196069803634776e-02,2.053088072648494022e-01,-1.878968086506415947e-01
8.060000000000000497e-01,2.336545749214634371e-01,3.289458926410694373e-01,-2.143730350306617335e-02
8.070000000000000506e-01,3.707286024920106726e-01,2.090507582779771167e-01,1.471349067958559187e-01
8.080000000000000515e-01,2.889211432328273044e-01,-4.414983974436981207e-02,1.940811612077859016e-01
8.090000000000000524e-01,5.899969950947058644e-03,-2.399645567604411223e-01,1.557718009467417009e-01
8.100000000000000533e-01,-2.786888867557845706e-01,-2.913527540555399531e-01,3.199699572658191993e-02
8.110000000000000542e-01,-3.477578305409012582e-01,-1.899529818042654250e-01,-1.604756647860121066e-01
8.120000000000000551e-01,-1.818820741421195430e-01,7.400266020919295251e-02,-2.316940362810134268e-01
8.129999999999999449e-01,9.617952906182924977e-02,2.812599230110633952e-01,-1.623050600440161528e-01
8.139999999999999458e-01,3.597925396771822770e-01,3.113734952722802540e-01,3.188319669206274298e-02
8.149999999999999467e-01,3.627909972348073442e-01,1.048553181239530174e-01,2.029178916109601882e-01
8.159999999999999476e-01,1.834481274875029710e-01,-1.647066104498470240e-01,2.246209051577552906e-01
8.169999999999999485e-01,-1.564473282861853776e-01,-2.887331068646265542e-01,9.501147381346430887e-02
8.179999999999999494e-01,-3.187402776912914848e-01,-2.566264615523231041e-01,-6.047348343272940935e-02
8.189999999999999503e-01,-3.132274190372044687e-01,-5.216230452611438778e-02,-2.123002837315975666e-01
8.199999999999999512e-01,-1.005599057368168764e-01,1.825293925562309905e-01,-1.874321927114004360e-01
8.209999999999999520e-01,2.223091868981766084e-01,2.839763209608718308e-01,-8.354358068473662080e-02
8.219999999999999529e-01,3.440283355188392678e-01,1.790729584724230494e-01,9.875383599148865321e-02
8.229999999999999538e-01,3.038608758772805007e-01,-5.612047308994266154e-02,2.248032991434281980e-01
8.239999999999999547e-01,1.836621520092834858e-02,-2.314097066112225376e-01,1.752164391853813508e-01
8.249999999999999556e-01,-1.951414960448822344e-01,-2.777528235643105248e-01,5.401571481725698370e-02
8.259999999999999565e-01,-3.774726881327979955e-01,-1.447754960410082559e-01,-1.298044430778441116e-01
8.269999999999999574e-01,-2.569477342871329673e-01,9.814653117464423870e-02,-2.148861998748385627e-01
8.279999999999999583e-01,2.241945286899291179e-02,2.970524323736740135e-01,-1.767313633128573813e-01
8.289999999999999591e-01,3.352475285464424637e-01,2.510236028566700250e-01,-5.879804929183862772e-02
8.299999999999999600e-01,3.621388515478021208e-01,1.135179615953912230e-01,1.390929195095508830e-01
8.309999999999999609e-01,1.951888855050008809e-01,-1.382450385284072769e-01,2.191071063827737253e-01
8.319999999999999618e-01,-9.003818632890678297e-02,-2.821490065976961503e-01,1.856701815917591591e-01
8.329999999999999627e-01,-3.400506660567750861e-01,-2.436078329932848396e-01,-2.286228675351202611e-02
8.339999999999999636e-01,-3.549210160458839414e-01,-3.044610020640314135e-02,-1.865964469248089230e-01
8.349999999999999645e-01,-1.539471515491624143e-01,2.437353355709368230e-01,-2.215794899359920800e-01
8.359999999999999654e-01,1.482188737318959892e-01,2.957788203724477927e-01,-9.944945184681322492e-02
8.369999999999999662e-01,3.750464590106654672e-01,2.226506774629548324e-01,4.302537902796547964e-02
8.379999999999999671e-01,3.149786263932675134e-01,-5.462163803477348284e-02,1.890259930293221036e-01
8.389999999999999680e-01,1.044532120623943711e-01,-2.033183365290947009e-01,2.222880935890891307e-01
8.399999999999999689e-01,-2.326540314500226692e-01,-3.099660586969227305e-01,1.394235675687185427e-01
8.409999999999999698e-01,-3.695110993649570186e-01,-1.340853727028342712e-01,-5.999644052149064738e-02
8.419999999999999707e-01,-2.788687936085708641e-01,6.445869441507511011e-02,-2.200152173449941850e-01
8.429999999999999716e-01,-1.885724000984942764e-02,2.694157227544148880e-01,-2.121443705491613818e-01
8.439999999999999725e-01,2.974012506821385182e-01,2.998190315927198868e-01,-9.929681861911907048e-02
8.449999999999999734e-01,3.819102807334898708e-01,1.142198230154778810e-01,6.392568940265316857e-02
8.459999999999999742e-01,2.348793011833521516e-01,-1.798946144697025351e-01,2.198954384820928087e-01
8.469999999999999751e-01,-5.247401198875234485e-02,-2.800585774433009822e-01,1.683267914582134428e-01
8.479999999999999760e-01,-3.126786514255966987e-01,-2.719448763710000105e-01,8.766954993010893371e-02
8.489999999999999769e-01,-3.262156237927588687e-01,-3.828619187454424932e-03,-1.102562928017681992e-01
8.499999999999999778e-01,-2.122771548076619053e-01,2.145088782698127972e-01,-2.215796572798380826e-01
8.509999999999999787e-01,1.190583909091522397e-01,3.107122737727181505e-01,-1.845090266902426335e-01
8.519999999999999796e-01,3.453955588557947598e-01,2.022734231087781887e-01,-4.196302888989527496e-02
8.529999999999999805e-01,3.235609419800955511e-01,-2.660451824405203267e-02,1.267697726504879163e-01
8.539999999999999813e-01,1.186874334842308448e-01,-2.335456839237334825e-01,2.039063145112092745e-01
8.549999999999999822e-01,-1.742402925336940800e-01,-3.357953380566037205e-01,1.810190964483254228e-01
8.559999999999999831e-01,-3.880136133621831518e-01,-1.540580013283182059e-01,-9.218763386685605021e-03
8.569999999999999840e-01,-3.302323750050726869e-01,1.043714549859039997e-01,-1.693715218801285227e-01
8.579999999999999849e-01,-6.591485599299741482e-02,2.443741001018408521e-01,-2.315212991480382343e-01
8.589999999999999858e-01,2.506425264479588688e-01,3.099614636752667240e-01,-1.572070162554130845e-01
8.599999999999999867e-01,3.573944358446086156e-01,9.026559747009911538e-02,6.506680612073229009e-02
8.609999999999999876e-01,2.682839096122493494e-01,-1.522252048493644705e-01,2.064106455513957661e-01
8.619999999999999885e-01,4.652453945236220863e-03,-2.764076890645209561e-01,2.492884723775780076e-01
8.629999999999999893e-01,-2.799607690595383724e-01,-2.605956159111353365e-01,1.017444614814420195e-01
8.639999999999999902e-01,-3.926259270624404829e-01,-1.211299172616064901e-02,-4.935010893163109535e-02
8.649999999999999911e-01,-2.444649143586802020e-01,2.297167372679675135e-01,-1.847882292003276972e-01
8.659999999999999920e-01,4.896923839182869276e-02,2.869132140103091144e-01,-2.017362053945802036e-01
8.669999999999999929e-01,3.196928990085429745e-01,2.038794440241829264e-01,-9.480095967971290116e-02
8.679999999999999938e-01,3.634953740801521449e-01,-3.330033524491664287e-02,1.013926806181995599e-01
8.689999999999999947e-01,1.807873851480538696e-01,-2.186067018162383135e-01,2.167788075771962808e-01
8.699999999999999956e-01,-1.224722095531666083e-01,-2.653643079826032980e-01,1.854658123400292069e-01
8.709999999999999964e-01,-3.604040861320488287e-01,-1.616925255487813018e-01,7.108710229977979744e-02
8.719999999999999973e-01,-3.564868411106211221e-01,1.142735691372703394e-01,-1.148699906958252082e-01
8.729999999999999982e-01,-1.209750564255454991e-01,3.004161817345242236e-01,-2.327177993877283801e-01
8.739999999999999991e-01,1.947302153219629128e-01,2.818500993335103511e-01,-1.850071352471402142e-01
8.750000000000000000e-01,3.514444459144377420e-01,1.084510806011420164e-01,-4.334433587260531906e-02
8.760000000000000009e-01,3.420761752142165713e-01,-1.381323187513223694e-01,1.662830519315682265e-01
8.770000000000000018e-01,7.678822832847163882e-02,-2.452007098454085654e-01,2.076762698695491238e-01
8.780000000000000027e-01,-2.401313812391491220e-01,-2.703365041145583403e-01,1.231925087314545281e-01
8.790000000000000036e-01,-3.930355315513977543e-01,-2.583146145864994442e-02,-5.297059420133336943e-02
8.800000000000000044e-01,-2.693010208789586857e-01,1.788305238641301476e-01,-1.617153804243690596e-01
8.810000000000000053e-01,7.036369818407215045e-03,2.803526390066088947e-01,-2.281251484572348887e-01
8.820000000000000062e-01,2.799980748545826126e-01,2.075356616635994356e-01,-1.001512921373395870e-01
8.830000000000000071e-01,3.576379150593473888e-01,-1.734160432943636365e-02,4.278691506932872507e-02
8.840000000000000080e-01,2.034145899666381929e-01,-2.548950259987907141e-01,1.708390711483642743e-01
8.850000000000000089e-01,-9.320513127934991482e-02,-3.004775801987898953e-01,2.195261936572857064e-01
8.860000000000000098e-01,-3.613340195215984374e-01,-1.698218344534489221e-01,1.394103436521440254e-01
8.870000000000000107e-01,-3.608718169105623597e-01,9.328354267844878034e-02,-8.905843560655274382e-02
8.880000000000000115e-01,-1.660310509110995703e-01,2.492297089385100695e-01,-1.892842653520492857e-01
8.890000000000000124e-01,1.329603624911281923e-01,2.728501325547497136e-01,-1.977931772310445868e-01
8.900000000000000133e-01,3.663052752369576615e-01,1.237658825598582923e-01,-9.496308329242218738e-02
8.910000000000000142e-01,3.479784683198821060e-01,-1.511089238990846739e-01,9.904217048312714822e-02
8.920000000000000151e-01,8.897905305710505919e-02,-2.904230722852815250e-01,2.489771044856251003e-01
8.930000000000000160e-01,-1.954070210290073384e-01,-2.635536556275666076e-01,1.859022970048603007e-01
8.940000000000000169e-01,-3.292569228676588966e-01,-3.338611473893707271e-02,4.864455815411807688e-02
8.950000000000000178e-01,-3.019007570626219827e-01,1.967020947910143591e-01,-1.600601302459958575e-01
8.960000000000000187e-01,-3.890864526546247010e-02,3.167259162967867026e-01,-2.085102473745381879e-01
8.970000000000000195e-01,2.133951177409011135e-01,2.088406140228165064e-01,-1.966288896408503739e-01
8.980000000000000204e-01,3.851761788686583476e-01,2.701784213417045364e-03,-3.308825068940654535e-02
8.990000000000000213e-01,2.421322542389540977e-01,-2.641900012668039199e-01,1.134764465143419526e-01
9.000000000000000222e-01,-5.769404176712364905e-03,-2.902658842726882904e-01,2.379457087865317622e-01
9.010000000000000231e-01,-3.023347741435793434e-01,-1.369831157797247734e-01,1.308859174189287988e-01
9.020000000000000240e-01,-3.897293956385902702e-01,8.244789536829118248e-02,-4.697023421762597933e-02
9.030000000000000249e-01,-1.893333118126681591e-01,2.673602734414989301e-01,-1.796182808159910715e-01
9.040000000000000258e-01,8.984772360008563830e-02,2.838009364371439358e-01,-2.139921970207520618e-01
9.050000000000000266e-01,3.748850384621960630e-01,1.063321246512957119e-01,-1.354273404905494971e-01
9.060000000000000275e-01,3.519944338088546454e-01,-1.354664444547760416e-01,5.135872305188812076e-02
9.070000000000000284e-01,1.441566537530216130e-01,-2.828780339588276571e-01,2.316214294219694492e-01
9.080000000000000293e-01,-1.493007924150923371e-01,-2.362625244734282703e-01,2.410127185290545926e-01
9.090000000000000302e-01,-3.686544131469566832e-01,-2.843854634232336268e-02,9.601996737825325978e-02
9.100000000000000311e-01,-3.277594448494977608e-01,1.798299670003856154e-01,-7.769806214092883634e-02
9.110000000000000320e-01,-1.040828266210526570e-01,3.107294723780486545e-01,-2.077439551236393844e-01
9.120000000000000329e-01,2.462663696176422001e-01,2.297791199003957896e-01,-1.786266724821459484e-01
9.130000000000000338e-01,3.629162209261220240e-01,-3.050652817982153070e-02,-1.023298723820436074e-01
9.140000000000000346e-01,2.528904166035618184e-01,-2.269342200991590341e-01,1.155083415427970855e-01
9.150000000000000355e-01,1.985739662267186831e-02,-2.939563555068754330e-01,1.816068208261023831e-01
9.160000000000000364e-01,-2.455611716077024942e-01,-1.423958237912435754e-01,2.023288119755286274e-01
9.170000000000000373e-01,-4.061272805775208439e-01,6.563956492889801153e-02,4.261538318141174647e-02
9.180000000000000382e-01,-2.528623099675226804e-01,2.866426475449923572e-01,-1.495543639418473458e-01
9.190000000000000391e-01,6.460893764370610748e-02,2.703096580097745227e-01,-2.327841209548376367e-01
9.200000000000000400e-01,3.277693023645645298e-01,1.239050270926449343e-01,-1.758177838339059218e-01
9.210000000000000409e-01,4.014868177831890650e-01,-1.283695900568911363e-01,-7.860627312057472116e-03
9.220000000000000417e-01,1.840510306210572100e-01,-2.670864706720796899e-01,1.639498986795559221e-01
9.230000000000000426e-01,-1.059280959092154667e-01,-2.204547965919438635e-01,2.186229556044873013e-01
9.240000000000000435e-01,-3.157593081605213903e-01,-4.616480974605323417e-02,1.172381339896293728e-01
9.250000000000000444e-01,-3.586047125095726540e-01,1.955737251672013677e-01,-2.167589427472995864e-02
9.260000000000000453e-01,-1.151862077728467854e-01,2.818156996468344500e-01,-2.031869953243682914e-01
9.270000000000000462e-01,1.553849275724127621e-01,1.876617660211111760e-01,-1.981625452255494912e-01
9.280000000000000471e-01,3.611505772069912856e-01,-4.225819282884623468e-02,-7.973087424872050966e-02
9.290000000000000480e-01,3.201966367386776535e-01,-2.154258252777151994e-01,7.028934668917495576e-02
9.300000000000000488e-01,8.267217890295264215e-02,-3.168285491795325148e-01,1.952933425536282908e-01
9.310000000000000497e-01,-2.250026113634468194e-01,-1.197222631846400626e-01,2.427038742905636148e-01
9.320000000000000506e-01,-3.655596550319304971e-01,8.294017158834983416e-02,7.238460629454457340e-02
9.330000000000000515e-01,-2.731939992218335167e-01,2.609464497054149179e-01,-8.410442950745995738e-02
9.340000000000000524e-01,1.337389100712980602e-02,2.517683418422775321e-01,-2.333668027492357411e-01
9.350000000000000533e-01,2.975599327746490941e-01,1.101542031849522263e-01,-2.213862764035833264e-01
9.360000000000000542e-01,3.730778067772744233e-01,-1.786215368437860940e-01,-7.927944488347304919e-02
9.370000000000000551e-01,2.271955520087728941e-01,-2.995625206601036927e-01,1.203578723876875117e-01
9.379999999999999449e-01,-5.672448530671563016e-02,-2.547474600595317495e-01,2.198733948738121335e-01
9.389999999999999458e-01,-2.952122742762510188e-01,-4.903015894120561768e-02,1.904253748266778179e-01
9.399999999999999467e-01,-3.566961966991824551e-01,1.652049112180593859e-01,5.145029504974230755e-02
9.409999999999999476e-01,-1.858084043859812295e-01,2.825276966211686669e-01,-1.112429461212988413e-01
9.419999999999999485e-01,1.543385922875213923e-01,2.342947821785727469e-01,-2.128845830536840456e-01
9.429999999999999494e-01,3.602237811931089384e-01,-2.467036357926890439e-02,-1.568946517979293853e-01
9.439999999999999503e-01,3.260191797168301986e-01,-2.104562378764890107e-01,-2.514517513986609665e-02
9.449999999999999512e-01,1.125405859756087867e-01,-2.627930069170226757e-01,1.766006294558402634e-01
9.459999999999999520e-01,-2.072206260209777939e-01,-1.485033025470245682e-01,2.065014858304905776e-01
9.469999999999999529e-01,-3.810906087343873261e-01,1.032344412047206117e-01,1.482774188064059362e-01
9.479999999999999538e-01,-3.077725478936122472e-01,2.545765308052290177e-01,-7.341497931911825092e-02
9.489999999999999547e-01,-4.931546695097319827e-02,2.379880465573838977e-01,-1.733935168244169489e-01
9.499999999999999556e-01,2.327725310448553742e-01,1.111837050455422859e-01,-2.166752483515597405e-01
9.509999999999999565e-01,3.769640296570439530e-01,-1.280065442274415932e-01,-1.190643827933506177e-01
9.519999999999999574e-01,2.700752295412383042e-01,-2.590858464652041060e-01,5.660769125974297877e-02
9.529999999999999583e-01,-3.257718593189108669e-02,-2.489613118941690351e-01,1.665143342407286176e-01
9.539999999999999591e-01,-3.057494852934229956e-01,-5.654135608290724452e-02,2.054372806554408681e-01
9.549999999999999600e-01,-3.954034441262907484e-01,2.136323363926585783e-01,7.401618002130126717e-02
9.559999999999999609e-01,-2.196686759805404343e-01,3.072458550241563557e-01,-9.700179429957041244e-02
9.569999999999999618e-01,6.066084139223213573e-02,2.011796381725733385e-01,-1.811505464394017884e-01
9.579999999999999627e-01,3.397755385173067411e-01,-3.198373260814881686e-02,-1.769033217932823310e-01
9.589999999999999636e-01,3.442767520565768180e-01,-2.328714200225174835e-01,-7.302439252434468620e-02
9.599999999999999645e-01,1.876239196051022462e-01,-2.784347363644265605e-01,9.800406412482562390e-02
9.609999999999999654e-01,-1.479171195754884482e-01,-1.247702921269156356e-01,2.282422319682623491e-01
9.619999999999999662e-01,-3.594211561674238720e-01,4.381297795075209806e-02,1.813637845582307950e-01
9.629999999999999671e-01,-2.942708089203241451e-01,2.566210263244119716e-01,4.169209472615585665e-02
9.639999999999999680e-01,-7.483221008191413837e-02,2.563816851132032504e-01,-1.622389441951800626e-01
9.649999999999999689e-01,2.152176200334550704e-01,1.343963869348412943e-01,-2.576581045589098617e-01
9.659999999999999698e-01,3.288786032016814964e-01,-1.346574226933990870e-01,-1.825601114420063731e-01
9.669999999999999707e-01,3.141256365613829815e-01,-2.905459455170323335e-01,-5.980772000582480763e-03
9.679999999999999716e-01,5.022907562954904981e-02,-2.132117315331721885e-01,1.636543440144251904e-01
9.689999999999999725e-01,-2.496106628435776909e-01,-5.314438268650799324e-02,2.624458468770234365e-01
9.699999999999999734e-01,-3.567420854282148390e-01,1.782850445220450497e-01,1.040028708136446767e-01
9.709999999999999742e-01,-2.623878558346103840e-01,3.213384400502665161e-01,-3.791179897157918866e-02
9.719999999999999751e-01,1.963011226118542563e-02,2.019616615679664384e-01,-1.830810315726374149e-01
9.729999999999999760e-01,3.090998973997817756e-01,5.469578062643225790e-03,-1.831038071445561521e-01
9.739999999999999769e-01,3.629977083805994709e-01,-2.308305414739831862e-01,-9.469111423006475181e-02
9.749999999999999778e-01,1.970019449605165951e-01,-2.948021461329118353e-01,5.744636245362604726e-02
9.759999999999999787e-01,-7.927749240014297927e-02,-1.160232792388112694e-01,2.344868526627002792e-01
9.769999999999999796e-01,-3.475404814465352654e-01,9.039725490259419016e-02,2.034591338339298561e-01
9.779999999999999805e-01,-3.560052418410055153e-01,2.561415471207392214e-01,1.222833550817372383e-01
9.789999999999999813e-01,-1.363925491070306917e-01,2.382322424727593146e-01,-9.381660050416731900e-02
9.799999999999999822e-01,1.363370971913499541e-01,1.036427630779108711e-01,-2.020786041890029749e-01
9.809999999999999831e-01,3.703104959867565826e-01,-1.477525683299504011e-01,-1.990899511662609089e-01
9.819999999999999840e-01,3.133943205674480925e-01,-2.994843352450100582e-01,-6.348300042542365240e-02
9.829999999999999849e-01,6.480484347062651085e-02,-2.565828005305649251e-01,1.500417937628029108e-01
9.839999999999999858e-01,-2.414816184820932909e-01,-2.350713444742960276e-02,2.410161470893130431e-01
9.849999999999999867e-01,-3.844749520199318704e-01,2.112757174724844700e-01,1.732711052701036980e-01
9.859999999999999876e-01,-2.647464420647207550e-01,2.994835845576540589e-01,-1.795553751738056952e-02
9.869999999999999885e-01,-1.430224494877437719e-02,2.302703187387640793e-01,-1.588269268944935975e-01
9.879999999999999893e-01,2.528972917738366299e-01,-2.015525827355774385e-03,-2.301749180821102136e-01
9.889999999999999902e-01,3.666173364877102769e-01,-2.445387564519983792e-01,-1.295472075102734877e-01
9.899999999999999911e-01,2.617897342376478975e-01,-2.955879423536978412e-01,2.377099170470027122e-03
9.909999999999999920e-01,-5.885599178991401254e-02,-1.719855399017106712e-01,1.645345727259178992e-01
9.919999999999999929e-01,-2.992897941984380417e-01,6.684590225580668010e-02,2.001139284244118910e-01
9.929999999999999938e-01,-3.433187248411511683e-01,2.593605394005307763e-01,1.064025030006016254e-01
9.939999999999999947e-01,-1.873257546089001357e-01,2.683630235347779780e-01,-4.110049256721281380e-02
9.949999999999999956e-01,1.344643900439400908e-01,8.607043534283420616e-02,-2.042774462126420998e-01
9.959999999999999964e-01,3.311367707351676182e-01,-1.289152664631749434e-01,-2.146572154723631609e-01
9.969999999999999973e-01,3.444600892387262303e-01,-3.112178527388563265e-01,-9.629934120985920998e-02
9.979999999999999982e-01,1.243167536417326274e-01,-2.342568594997720688e-01,5.529693073533471781e-02
9.989999999999999991e-01,-1.704147413506337527e-01,-4.545072275756602276e-02,2.517514330901302055e-01
1.000000000000000000e+00,-3.788322659872325748e-01,1.750857305383482776e-01,1.918035339813779772e-01
1.000999999999999890e+00,-3.290369383374200929e-01,2.905411307692797318e-01,4.666304434846331450e-02
1.002000000000000002e+00,-6.540306814873772523e-02,2.362512150887029483e-01,-9.512707515931673186e-02
1.002999999999999892e+00,2.505052661443042950e-01,7.129661879925820386e-03,-2.031748457761428650e-01
1.004000000000000004e+00,3.737575240348502414e-01,-2.232269016944346818e-01,-2.019551608532467735e-01
1.004999999999999893e+00,2.507045615247734949e-01,-3.269611782242880516e-01,-3.521785848652569939e-02
1.006000000000000005e+00,-2.859104406410441224e-02,-1.685014723871720299e-01,1.425099722281757686e-01
1.006999999999999895e+00,-3.299808655595286577e-01,7.167764971950735253e-02,2.286627317354229805e-01
1.008000000000000007e+00,-3.807718432978419720e-01,2.607227316228072911e-01,1.428862877179007673e-01
1.008999999999999897e+00,-2.515972509456966266e-01,2.862278227949392462e-01,-1.327958639763973138e-02
1.010000000000000009e+00,5.996862380859215025e-02,1.363465819760395215e-01,-1.863155909287817769e-01
1.010999999999999899e+00,3.221404574910226026e-01,-1.285144529111303668e-01,-2.111004967813005229e-01
1.012000000000000011e+00,3.577988567812241949e-01,-2.922341247531284880e-01,-1.641804060545164201e-01
1.012999999999999901e+00,1.908699382141770817e-01,-2.577201440542806754e-01,-5.621482029746515709e-03
1.014000000000000012e+00,-1.234031691414161497e-01,-2.428331536710475955e-02,1.819039297905011565e-01
1.014999999999999902e+00,-3.681428413712233283e-01,1.999892008863008164e-01,1.972243069650054803e-01
1.016000000000000014e+00,-3.395956119067800039e-01,3.191046685916206216e-01,1.162200048032275279e-01
1.016999999999999904e+00,-1.274331923815975876e-01,1.956420431637944379e-01,-8.741720157895482846e-02
1.018000000000000016e+00,1.998802334582194529e-01,-5.810468657482580589e-03,-1.682802502019393742e-01
1.018999999999999906e+00,3.786062019783036914e-01,-2.019457445169118293e-01,-2.394292755958940255e-01
1.020000000000000018e+00,3.106170512531958305e-01,-3.000269207745621114e-01,-9.348106870450960393e-02
1.020999999999999908e+00,5.960312737831877095e-02,-1.577284610068126480e-01,1.005533978575095383e-01
1.022000000000000020e+00,-2.382895282739639908e-01,6.170939487626146691e-02,2.151011759341296403e-01
1.022999999999999909e+00,-3.937877886393427174e-01,2.420001848850072967e-01,1.712889541376745872e-01
1.024000000000000021e+00,-2.548172210476816746e-01,2.629617157040004538e-01,8.867352131690275918e-02
1.024999999999999911e+00,2.792533961759879196e-02,1.191256092391538707e-01,-7.078077923770928481e-02
1.026000000000000023e+00,3.161322630828375391e-01,-1.344879571978742916e-01,-1.997732740805023555e-01
1.026999999999999913e+00,3.253134498588525214e-01,-2.411066028131266248e-01,-1.924536187949681953e-01
1.028000000000000025e+00,2.328127758227385435e-01,-2.527558010654495368e-01,-4.559813251160688835e-02
1.028999999999999915e+00,-6.458898276712907172e-02,-3.173375295784260086e-02,1.634537927967120996e-01
1.030000000000000027e+00,-3.273284858004739117e-01,1.765068456651466278e-01,1.968081085439519207e-01
1.030999999999999917e+00,-3.126612264055556589e-01,3.113038029256920414e-01,1.672281188721169154e-01
1.032000000000000028e+00,-1.531844086954520789e-01,2.123568893611469943e-01,3.180261201697014758e-03
1.032999999999999918e+00,1.789179818007105849e-01,-4.396826253781105365e-02,-1.629644734008947049e-01
1.034000000000000030e+00,3.321381966928418361e-01,-2.151119667792018297e-01,-2.375942541242028472e-01
1.034999999999999920e+00,3.412009493928304660e-01,-3.036123473054652688e-01,-1.451600657886302215e-01
1.036000000000000032e+00,9.495711864040405625e-02,-1.311932940892781285e-01,1.226680278734031690e-03
1.036999999999999922e+00,-2.117562289740931303e-01,7.742377195579766558e-02,2.029171562075248181e-01
1.038000000000000034e+00,-3.571103463870936578e-01,2.699423054890993101e-01,2.273941176137983522e-01
1.038999999999999924e+00,-2.824282504313713749e-01,2.916044204274212959e-01,1.001523317346734721e-01
1.040000000000000036e+00,-3.942908243963143960e-02,1.279320638925384723e-01,-2.118239254078692693e-02
1.040999999999999925e+00,2.677584192126414298e-01,-1.345764236517812684e-01,-1.899319103084021187e-01
1.042000000000000037e+00,4.132961692830094402e-01,-2.738622522484991384e-01,-2.086764447043134851e-01
1.042999999999999927e+00,2.356546742977745079e-01,-2.629736800031290955e-01,-1.025972678133194455e-01
1.044000000000000039e+00,-1.974827690651110093e-02,-3.959134990544081051e-02,5.108139812069098507e-02
1.044999999999999929e+00,-2.952946082391640914e-01,1.974542820150313738e-01,2.295025890586379069e-01
1.046000000000000041e+00,-3.736478299558602112e-01,2.911714732568678188e-01,1.977990304023942436e-01
1.046999999999999931e+00,-2.060707132845548128e-01,1.951447159693355804e-01,6.212442934366507047e-02
1.048000000000000043e+00,8.866031312630230643e-02,-3.814667605217322149e-02,-1.109610880153205636e-01
1.048999999999999932e+00,3.407734706687488013e-01,-2.217940408035397604e-01,-2.057216330592669118e-01
1.050000000000000044e+00,3.562286029898500961e-01,-2.630234412109676012e-01,-2.078825034181094877e-01
1.050999999999999934e+00,1.300527031900520492e-01,-1.691025322435850131e-01,-1.477687175236005665e-02
1.052000000000000046e+00,-1.633810357300556348e-01,4.629000009274950728e-02,1.409680334956296133e-01
1.052999999999999936e+00,-3.818175981276648034e-01,2.855868319427611879e-01,1.895205998314166418e-01
1.054000000000000048e+00,-3.383251367278274913e-01,3.058019394138663527e-01,1.718488558972091351e-01
1.054999999999999938e+00,-8.197158315791390482e-02,1.245519798481351664e-01,3.542875317820621834e-03
1.056000000000000050e+00,2.182717099337641575e-01,-1.429044557063465226e-01,-1.573339222549486605e-01
1.056999999999999940e+00,3.834983862850075975e-01,-3.320423052040229472e-01,-2.292251318392923565e-01
1.058000000000000052e+00,3.140801201474421323e-01,-2.725438987639206001e-01,-1.454408390491709335e-01
1.058999999999999941e+00,2.773756439821769768e-02,-1.009202125088349278e-01,-1.317566026514890376e-03
1.060000000000000053e+00,-2.757183232647556492e-01,1.683592629586318223e-01,2.326007917924554358e-01
1.060999999999999943e+00,-3.764426503494119336e-01,2.859104515044317840e-01,2.541225176238061656e-01
1.062000000000000055e+00,-2.571869068727675178e-01,2.381983132961705274e-01,1.418925894446728397e-01
1.062999999999999945e+00,6.835541607136928766e-02,1.550372067395021543e-02,-6.979470853251147633e-02
1.064000000000000057e+00,3.160821142313519627e-01,-2.094965584992893870e-01,-1.542747723588960285e-01
1.064999999999999947e+00,3.616648558484896747e-01,-3.059355540254970474e-01,-2.006833366753376924e-01
1.066000000000000059e+00,1.596115392416862788e-01,-1.519743507884651068e-01,-8.985881883886547017e-02
1.066999999999999948e+00,-1.218513855012352959e-01,4.938336586061224665e-02,1.067916759221700512e-01
1.068000000000000060e+00,-3.445649290386958996e-01,2.684800333016286733e-01,2.242821830692424412e-01
1.068999999999999950e+00,-3.931868463645361578e-01,2.689997763523565011e-01,1.868074341709736463e-01
1.070000000000000062e+00,-1.552729510644733635e-01,1.059226673359124765e-01,3.490976748397726231e-02
1.070999999999999952e+00,1.772958018355550724e-01,-1.535847709881777712e-01,-1.246095068109439041e-01
1.072000000000000064e+00,3.504825105096313620e-01,-3.208877347419667458e-01,-2.307872017498053818e-01
1.072999999999999954e+00,3.125670287252230173e-01,-2.706432535962245978e-01,-1.946795903978202624e-01
1.074000000000000066e+00,5.421539147819983556e-02,-6.229479634488212930e-02,9.792075698137463549e-03
1.074999999999999956e+00,-2.188389364744766641e-01,1.661473483560452769e-01,1.529863084821815322e-01
1.076000000000000068e+00,-3.770143089411245874e-01,2.947422354317748572e-01,2.100274547151483873e-01
1.076999999999999957e+00,-2.846635390004077504e-01,1.912010038977140225e-01,1.641533027882092766e-01
1.078000000000000069e+00,1.354639022538168917e-02,1.086111190156023067e-02,-3.503342913226351052e-02
1.078999999999999959e+00,2.743856758746806568e-01,-2.296934174114835248e-01,-1.663288419106356553e-01
1.080000000000000071e+00,3.453833292026146085e-01,-2.703576347164687865e-01,-2.099150685447261078e-01
1.080999999999999961e+00,2.337128380536296623e-01,-1.748828476174319746e-01,-1.221597296242315500e-01
1.082000000000000073e+00,-7.067186850814118071e-02,5.926124696352395166e-02,1.762140014741176916e-02
1.082999999999999963e+00,-3.256217557738526058e-01,2.831406622837899234e-01,1.835342971888072605e-01
1.084000000000000075e+00,-3.605180719134984946e-01,2.669524803742769903e-01,2.073750461134852840e-01
1.084999999999999964e+00,-1.994037401998481340e-01,1.474465727264271109e-01,8.791275719742785988e-02
1.086000000000000076e+00,9.110735463226800335e-02,-9.790681075198584549e-02,-1.167117813961665168e-01
1.086999999999999966e+00,3.439820506486255258e-01,-2.993448939362881034e-01,-2.138674294588716884e-01
1.088000000000000078e+00,3.265335273209256095e-01,-3.027464529280876060e-01,-2.230243645812571285e-01
1.088999999999999968e+00,1.083440189124461744e-01,-2.974614434948103306e-02,-9.753636523418378335e-02
1.090000000000000080e+00,-1.470921196933273056e-01,2.067478482577853327e-01,1.049411214298464901e-01
1.090999999999999970e+00,-3.735059362194238508e-01,2.487564239622888917e-01,1.879100024209295339e-01
1.092000000000000082e+00,-2.971686640850248473e-01,2.506163671158624928e-01,1.931062867088633728e-01
1.092999999999999972e+00,-3.340225897674482802e-02,-1.451180623818923779e-02,3.968696453818085917e-02
1.094000000000000083e+00,2.209538587953509825e-01,-2.495786873590772892e-01,-1.240448656439670921e-01
1.094999999999999973e+00,3.769786719034249334e-01,-3.116772540090804733e-01,-2.184274144933852357e-01
1.096000000000000085e+00,2.669563682112462977e-01,-1.592718052204382395e-01,-1.808575194937875608e-01
1.096999999999999975e+00,-2.257743598734004639e-02,8.245544824176916088e-02,-1.639511534588745587e-02
1.098000000000000087e+00,-2.806011815885942062e-01,2.391098307903736231e-01,1.432430121665559386e-01
1.098999999999999977e+00,-3.743104800136482502e-01,2.539627253001788265e-01,2.195919804547788734e-01
1.100000000000000089e+00,-2.336508736945205611e-01,1.150185985465075611e-01,1.561935415011501682e-01
1.100999999999999979e+00,8.606310936867285488e-02,-1.235766621808679910e-01,-5.708225078787539358e-04
1.102000000000000091e+00,3.027578623960777149e-01,-2.791103061445867617e-01,-1.897959395751086520e-01
1.102999999999999980e+00,3.466023921359524529e-01,-2.427217461053600422e-01,-2.167880733611546318e-01
1.104000000000000092e+00,1.831064436475935142e-01,-3.221504822472144591e-02,-1.315590330935887120e-01
1.104999999999999982e+00,-1.801064203432136968e-01,2.175657429764060458e-01,2.443264121492481553e-02
1.106000000000000094e+00,-3.429807756384715134e-01,2.961687374262814698e-01,2.016590999402992634e-01
1.106999999999999984e+00,-2.987948264799740739e-01,2.428265699251878351e-01,2.327040994089900339e-01
1.108000000000000096e+00,-8.556216197954567837e-02,1.064473786957458902e-02,9.571230252538009964e-02
1.108999999999999986e+00,1.718901543327599757e-01,-2.244316386081683379e-01,-9.730263965818712613e-02
1.110000000000000098e+00,3.907823919525277301e-01,-3.028618139454091751e-01,-1.906743000403312294e-01
1.110999999999999988e+00,2.989075493642947001e-01,-1.685224440193467121e-01,-2.142383695614180072e-01
1.112000000000000099e+00,1.687731807838532133e-02,5.687841913807154676e-02,-7.622622773192995471e-02
1.112999999999999989e+00,-2.717744224026082955e-01,2.710607378564632852e-01,1.218474688962004615e-01
1.114000000000000101e+00,-3.955193098043663924e-01,3.100110645226851203e-01,1.743534436764901108e-01
1.114999999999999991e+00,-2.508072756538616277e-01,1.384144617502276187e-01,1.616096593880111676e-01
1.116000000000000103e+00,4.356841676767218147e-02,-1.271687089877958088e-01,6.155832380517048397e-02
1.116999999999999993e+00,3.172559241962296661e-01,-2.761843385572497755e-01,-1.260288500054879135e-01
1.118000000000000105e+00,3.555214108662290706e-01,-2.549875589112347574e-01,-2.111832321791790035e-01
1.118999999999999995e+00,1.769465987927373307e-01,-1.154327743454858085e-01,-1.576288608383149270e-01
1.120000000000000107e+00,-1.142611346673041983e-01,1.976825281677729307e-01,4.048219148706681987e-03
1.120999999999999996e+00,-3.784784656241314549e-01,2.701443082090281278e-01,1.543584307867195693e-01
1.122000000000000108e+00,-3.294992768148247153e-01,2.141156910197505869e-01,2.050233504879458435e-01
1.122999999999999998e+00,-1.251131729402614745e-01,9.895924445684734731e-04,1.704926112124512116e-01
1.124000000000000110e+00,1.491105115560935057e-01,-2.351610433126956057e-01,-1.664403085732225895e-02
1.125000000000000000e+00,3.858649519357988389e-01,-2.981277371774197493e-01,-1.721066920709479198e-01
1.125999999999999890e+00,3.174673746212008374e-01,-1.841813660219612792e-01,-2.039113826246398975e-01
1.127000000000000002e+00,5.469323686725367090e-02,8.091186245637946306e-02,-1.167381766371649171e-01
1.127999999999999892e+00,-2.042944829072772805e-01,2.231346174734441523e-01,3.318618183256356186e-02
1.129000000000000004e+00,-3.726684114410818704e-01,2.981976660883582930e-01,1.972645757096653241e-01
1.129999999999999893e+00,-2.782787831720938687e-01,1.294800412308654003e-01,1.716565790068823594e-01
1.131000000000000005e+00,-1.371091803707254544e-02,-1.052764577088236425e-01,1.157081664113438213e-01
1.131999999999999895e+00,2.573047831536038332e-01,-3.121816458331567179e-01,-6.277813024465629665e-02
1.133000000000000007e+00,4.012415942894850818e-01,-2.761848832655518504e-01,-2.452150229854153651e-01
1.133999999999999897e+00,2.345284327587605078e-01,-1.102027553304311680e-01,-2.158038814011241924e-01
1.135000000000000009e+00,-8.320047215840646604e-02,1.679215808800086918e-01,-6.316735248733162944e-02
1.135999999999999899e+00,-3.649617839696565613e-01,2.880434535974972232e-01,9.525226711255654899e-02
1.137000000000000011e+00,-3.707045955379257296e-01,2.166654605966491787e-01,1.838044232088570096e-01
1.137999999999999901e+00,-1.709566159700154908e-01,8.183533153808344313e-03,2.106562495105517296e-01
1.139000000000000012e+00,1.040559251336397040e-01,-2.562756290231501533e-01,1.485377403914837219e-02
1.139999999999999902e+00,3.215858886946530992e-01,-2.824192362305552595e-01,-1.227705240093261568e-01
1.141000000000000014e+00,3.571794807718397524e-01,-1.955325434441784749e-01,-2.421744444822448716e-01
1.141999999999999904e+00,1.347860505726151126e-01,5.427861284030152667e-02,-1.536261128967816580e-01
1.143000000000000016e+00,-1.976561946739933406e-01,2.911082206015609408e-01,6.945785374860545276e-04
1.143999999999999906e+00,-3.803736627152049521e-01,3.010141402639157637e-01,1.687701104963741927e-01
1.145000000000000018e+00,-3.115139067096875936e-01,1.659575936840576860e-01,2.080160339278215864e-01
1.145999999999999908e+00,-5.240803308533321936e-02,-1.416836231366960797e-01,1.420667179088741239e-01
1.147000000000000020e+00,2.553360777636852208e-01,-2.519471011465487242e-01,8.230182059736603634e-03
1.147999999999999909e+00,3.549812978879453573e-01,-2.877455867597210060e-01,-1.844481257349101233e-01
1.149000000000000021e+00,2.938420956232788983e-01,-9.750029841542334763e-02,-1.889605180838593579e-01
1.149999999999999911e+00,-2.085837826384144902e-02,2.027336063660614973e-01,-9.959860510004686640e-02
1.151000000000000023e+00,-2.852335969533062454e-01,3.337408136114609070e-01,4.685406361533093339e-02
1.151999999999999913e+00,-3.948135906308766208e-01,2.457247773483146325e-01,1.821012217729927329e-01
1.153000000000000025e+00,-2.121348636576830815e-01,-1.319442895215455411e-04,1.920249864467931111e-01
1.153999999999999915e+00,7.986827457007873721e-02,-1.937139440642652033e-01,8.344440100302850938e-02
1.155000000000000027e+00,3.179080884530837703e-01,-2.912606541378224279e-01,-1.187279424594570448e-01
1.155999999999999917e+00,3.526738607604081865e-01,-1.851929015728804584e-01,-2.279313632957122304e-01
1.157000000000000028e+00,1.717778227028791682e-01,8.398318267004777071e-02,-2.120968458573066207e-01
1.157999999999999918e+00,-8.691501567384597726e-02,2.700654344601951529e-01,-5.355876625326533996e-02
1.159000000000000030e+00,-3.557398534863016604e-01,2.700990907404704489e-01,9.406248244916756707e-02
1.159999999999999920e+00,-3.103102621072038048e-01,1.145635604524200823e-01,2.172559059369139900e-01
1.161000000000000032e+00,-7.955357830309474354e-02,-1.216691838659864078e-01,1.775703276451005563e-01
1.161999999999999922e+00,1.887333359128224031e-01,-3.094467578011148579e-01,3.087360433841003851e-02
1.163000000000000034e+00,3.896922632799011965e-01,-2.692445254511719455e-01,-1.425343240632301889e-01
1.163999999999999924e+00,2.953682006333921417e-01,-4.111390395480917642e-02,-2.280223613634881907e-01
1.165000000000000036e+00,3.763136797036342740e-02,1.690289682072326494e-01,-1.392251092262228040e-01
1.165999999999999925e+00,-2.696585194376949213e-01,3.053337302310268342e-01,2.707625122672420795e-02
1.167000000000000037e+00,-3.639229393454623263e-01,2.563706016386072539e-01,1.738794812915187837e-01
1.167999999999999927e+00,-2.774881857613414327e-01,-6.956847687688148991e-03,2.495330488897926913e-01
1.169000000000000039e+00,4.378418164711794791e-02,-2.006654567422239410e-01,1.530302313071805476e-01
1.169999999999999929e+00,2.690453603757997358e-01,-3.249807003025464991e-01,-3.672011450823534084e-02
1.171000000000000041e+00,3.668029468504269142e-01,-2.008500845591125461e-01,-1.877223274839159850e-01
1.171999999999999931e+00,2.047191485692360924e-01,5.441375960289885488e-02,-2.032009749808219579e-01
1.173000000000000043e+00,-6.823721603304658267e-02,2.521628787651766235e-01,-1.302543768014189363e-01
1.173999999999999932e+00,-3.293884834120503480e-01,2.566364542887741296e-01,8.503455708957052828e-02
1.175000000000000044e+00,-3.546069535177059917e-01,1.329789244938604786e-01,2.107437596180689876e-01
1.175999999999999934e+00,-1.681473288533969768e-01,-1.281838879868523184e-01,1.995070057290214138e-01
1.177000000000000046e+00,1.349909735364451246e-01,-2.949424266966877428e-01,9.717482210752621807e-02
1.177999999999999936e+00,3.455478019329139561e-01,-2.837685563522257537e-01,-1.159747255854687714e-01
1.179000000000000048e+00,3.266542457317085368e-01,-7.359942704545220649e-02,-2.623980563836084134e-01
1.179999999999999938e+00,9.518856939403072537e-02,1.873136947861893109e-01,-1.938939702811880994e-01
1.181000000000000050e+00,-1.714720865297097718e-01,2.833656671350520684e-01,-4.571195006484089773e-02
