time,acc_x,acc_y,acc_z
0.000000000000000000e+00,-1.300107076706556210e-02,-1.277879452774192404e-01,9.469165959956891976e-02
1.000000000000000021e-03,-6.350547943797843486e-02,-1.681165437469223367e-01,2.566573698664322348e-02
2.000000000000000042e-03,-9.454401010008413320e-02,-2.174508646838059500e-01,6.649360678829164747e-03
3.000000000000000062e-03,-1.649818536399774160e-01,-2.416002761079869554e-01,2.874178114329370426e-02
4.000000000000000083e-03,-1.451226491232792681e-01,-2.324981489125235723e-01,-3.578300753286224600e-02
5.000000000000000104e-03,-2.186635094268781498e-01,-2.523173219171347403e-01,-6.580192846310457810e-02
6.000000000000000125e-03,-2.669528276036162717e-01,-2.928095494564503798e-01,-7.923119354931104641e-02
7.000000000000000146e-03,-3.140499877501851667e-01,-2.737082467211481851e-01,-1.072277527772712985e-01
8.000000000000000167e-03,-3.589429898046194722e-01,-3.588239998200549730e-01,-1.524292364818013723e-01
8.999999999999999320e-03,-3.087637446933951257e-01,-3.727431624750742190e-01,-1.442185360791110316e-01
1.000000000000000021e-02,-3.923698545827894457e-01,-4.086371263127170916e-01,-1.861417278400582520e-01
1.099999999999999936e-02,-3.978835049783436828e-01,-3.936503491926241494e-01,-1.969906328630428860e-01
1.200000000000000025e-02,-3.795255963728294546e-01,-3.618112767592142620e-01,-2.367275801277349823e-01
1.299999999999999940e-02,-4.524451596785893370e-01,-3.830061182575471013e-01,-2.204554622874493053e-01
1.400000000000000029e-02,-4.453697091172839073e-01,-3.211560440112087855e-01,-2.490444760413622061e-01
1.499999999999999944e-02,-4.523594324516891363e-01,-3.613314566917026349e-01,-2.373214992164166537e-01
1.600000000000000033e-02,-4.690240934467624911e-01,-3.101704358387796234e-01,-2.428862553016133963e-01
1.700000000000000122e-02,-4.677088561883859241e-01,-3.023253608708505458e-01,-2.705052344872819758e-01
1.799999999999999864e-02,-4.294378783413587142e-01,-2.937571566607812268e-01,-2.541866395757606534e-01
1.899999999999999953e-02,-3.915720947003863972e-01,-2.478802942756122285e-01,-2.677658694913703230e-01
2.000000000000000042e-02,-4.054475666633605702e-01,-2.658424118253017165e-01,-2.815501383646324962e-01
2.100000000000000130e-02,-3.849916182328418923e-01,-2.190859201272656043e-01,-2.394306847440304808e-01
2.199999999999999872e-02,-3.309443168586635453e-01,-1.863791254363238448e-01,-2.628577012497088639e-01
2.299999999999999961e-02,-3.491718573227921563e-01,-1.275867894307740336e-01,-2.530247734510553959e-01
2.400000000000000050e-02,-2.895734443845698891e-01,-1.269113463907211858e-01,-2.247490034610678533e-01
2.500000000000000139e-02,-2.945296470218037310e-01,-9.901544844969838166e-02,-2.194604987339362212e-01
2.599999999999999881e-02,-1.779679578510795224e-01,-3.866519549175320702e-02,-2.072125166996040824e-01
2.699999999999999969e-02,-1.821591350151118283e-01,1.395056911731200680e-02,-1.380824579871585411e-01
2.800000000000000058e-02,-1.359288209146581883e-01,9.116509210000988891e-03,-1.704676229496148165e-01
2.900000000000000147e-02,-8.421480989008688078e-02,1.045732953694437223e-01,-1.286642819102288005e-01
2.999999999999999889e-02,1.067907720290212640e-04,1.105040024962851836e-01,-1.045053832098881003e-01
3.099999999999999978e-02,2.170719090155461863e-03,1.563164608019354807e-01,-9.467482744931260408e-02
3.200000000000000067e-02,8.285007157045473636e-02,1.769324780322060753e-01,-5.668396269667260595e-02
3.300000000000000155e-02,1.164520092796501871e-01,2.247444053270955533e-01,-6.950349089085227673e-03
3.400000000000000244e-02,1.784423085802452902e-01,2.475256210003122515e-01,-1.152809297230908588e-02
3.500000000000000333e-02,1.862872246418706412e-01,2.623630077428035223e-01,6.212037702926462811e-03
3.599999999999999728e-02,2.309578504991306458e-01,2.956633874062519762e-01,9.357767937250362211e-02
3.699999999999999817e-02,2.550116169107500830e-01,3.082844196013356242e-01,8.432477849957660532e-02
3.799999999999999906e-02,3.072371091378661712e-01,3.612442602283675863e-01,1.342990289444050134e-01
3.899999999999999994e-02,3.299180822635029986e-01,3.178008759713719655e-01,1.234933881288844126e-01
4.000000000000000083e-02,3.822881752372211395e-01,3.355217606060130753e-01,1.591774425904917134e-01
4.100000000000000172e-02,4.027119694733114486e-01,3.177034099916123955e-01,1.723845643896936841e-01
4.200000000000000261e-02,4.214390896857159730e-01,3.516004173595951854e-01,1.662737655555180660e-01
4.299999999999999656e-02,4.191462153409153957e-01,3.689028616997881982e-01,2.316808399351441006e-01
4.399999999999999745e-02,4.483038657552466666e-01,3.330177627160177956e-01,2.168121808160786423e-01
4.499999999999999833e-02,4.407601676589952833e-01,3.864173941007770230e-01,2.383191313737077488e-01
4.599999999999999922e-02,4.460614795285734457e-01,3.540777753745242284e-01,2.669345656482050022e-01
4.700000000000000011e-02,4.239351586901351499e-01,3.305218467895893464e-01,2.915555339478980712e-01
4.800000000000000100e-02,4.398849522633123121e-01,2.841037577193310515e-01,2.513465505439977932e-01
4.900000000000000189e-02,4.219787796935788871e-01,2.691370177960443200e-01,2.692841469869591275e-01
5.000000000000000278e-02,4.107958178009329386e-01,2.618900761231668373e-01,3.049021407759115454e-01
5.099999999999999672e-02,4.012789492994120466e-01,2.468080840998818637e-01,2.970499989078136949e-01
5.199999999999999761e-02,3.630959577384866299e-01,1.878004598246885981e-01,2.898724623824427415e-01
5.299999999999999850e-02,3.573988351169846145e-01,1.751865131500072170e-01,2.808229011008087084e-01
5.399999999999999939e-02,3.297011516383190899e-01,1.406960220588078236e-01,2.139949364271162002e-01
5.500000000000000028e-02,2.617005891458270561e-01,9.156168434098180264e-02,2.439955747973025779e-01
5.600000000000000117e-02,2.487354248526808809e-01,5.121229083603771881e-02,2.067727826658375401e-01
5.700000000000000205e-02,1.977340975105375542e-01,2.794919554949368019e-03,2.012004738520908054e-01
5.800000000000000294e-02,1.112527688412889848e-01,-1.281108990613881449e-02,2.067314270745795879e-01
5.899999999999999689e-02,1.246713660887826119e-01,-3.960626907772218930e-02,1.451879875773444961e-01
5.999999999999999778e-02,8.460137209013979254e-03,-6.418642359828305444e-02,1.191062183701430272e-01
6.099999999999999867e-02,2.607956474586918191e-02,-1.126856294390975455e-01,1.157134982926836808e-01
6.199999999999999956e-02,-4.204515655119900330e-02,-1.799515967497826996e-01,6.561992928568602390e-02
6.300000000000000044e-02,-8.926615737340441725e-02,-1.899391846515907922e-01,4.530904269175216326e-02
6.400000000000000133e-02,-1.259749235654481214e-01,-1.939595292579084640e-01,4.315459736736395463e-02
6.500000000000000222e-02,-1.246350558818533905e-01,-2.784805464883117754e-01,9.098033908937255484e-03
6.600000000000000311e-02,-2.503142500713851915e-01,-2.773471081359963342e-01,-5.282384961986689303e-02
6.700000000000000400e-02,-2.278917246046416600e-01,-2.610984063994365445e-01,-5.621522588881746468e-02
6.800000000000000488e-02,-3.217970390718197793e-01,-3.373631690539938832e-01,-5.602686622679494549e-02
6.900000000000000577e-02,-3.207949120738648463e-01,-3.531542716764697332e-01,-1.156289418768207261e-01
7.000000000000000666e-02,-3.314307191365665206e-01,-3.483266663911214200e-01,-1.460466967387466231e-01
7.099999999999999367e-02,-3.993766435164241013e-01,-3.587494119056312547e-01,-1.535429656210954286e-01
7.199999999999999456e-02,-4.208034532095438762e-01,-3.286471630285660028e-01,-1.559271547625966925e-01
7.299999999999999545e-02,-4.174829670981872742e-01,-3.467292274900538596e-01,-1.879703660644638785e-01
7.399999999999999634e-02,-4.605163636485757883e-01,-3.688221701833848121e-01,-1.937824485087494830e-01
7.499999999999999722e-02,-4.251755484611209890e-01,-3.439700611469250768e-01,-2.241453547741473762e-01
7.599999999999999811e-02,-4.628845761483141308e-01,-3.359952261858039635e-01,-2.428922849897819647e-01
7.699999999999999900e-02,-4.495251336770484940e-01,-3.483828789067866527e-01,-2.609062994200397889e-01
7.799999999999999989e-02,-4.294961567748090681e-01,-3.114605909029167230e-01,-2.310116009546599736e-01
7.900000000000000078e-02,-4.033803646630961248e-01,-3.187106244568210789e-01,-2.608724385483582875e-01
8.000000000000000167e-02,-4.446628072399503306e-01,-2.702097763218133109e-01,-2.551512266142241803e-01
8.100000000000000255e-02,-4.157604524896280629e-01,-2.340220307597489779e-01,-2.849932670130702062e-01
8.200000000000000344e-02,-3.895059359883196737e-01,-2.181930825218268977e-01,-2.955364367768893441e-01
8.300000000000000433e-02,-3.747413643730668764e-01,-1.677522998877549465e-01,-2.766058205026557526e-01
8.400000000000000522e-02,-3.707818987323900917e-01,-1.333787188620141340e-01,-2.797142657491593631e-01
8.500000000000000611e-02,-3.309482250760809041e-01,-1.706207851677575826e-01,-2.475162667221087465e-01
8.599999999999999312e-02,-2.717711402785119024e-01,-7.669243336473569039e-02,-2.080223737434250542e-01
8.699999999999999400e-02,-2.410967922693406651e-01,-7.558722839681898675e-02,-2.511381056339053175e-01
8.799999999999999489e-02,-1.764588626241432590e-01,1.264790407698326846e-02,-2.119751051026993183e-01
8.899999999999999578e-02,-1.255068621000607343e-01,1.597034214743329322e-02,-1.768547759479349446e-01
8.999999999999999667e-02,-9.089703552080033444e-02,6.594691606257215011e-02,-1.335972900585488121e-01
9.099999999999999756e-02,-3.336277133079009610e-02,1.305859538975193967e-01,-1.574538806630226828e-01
9.199999999999999845e-02,-3.434059786090370298e-02,1.347093648961832368e-01,-1.079693443637296385e-01
9.299999999999999933e-02,1.599856250418991641e-02,1.861902075111012411e-01,-9.415125141707871015e-02
9.400000000000000022e-02,1.068343424507266909e-01,2.173436269621343286e-01,-6.678404434188077443e-02
9.500000000000000111e-02,1.237677620501236864e-01,2.355764124717212582e-01,-1.142479362793765362e-03
9.600000000000000200e-02,1.593227264171632462e-01,2.743043150085180404e-01,-1.986133870535446958e-04
9.700000000000000289e-02,1.635184557744605860e-01,2.928334580104332563e-01,2.507135185924352916e-02
9.800000000000000377e-02,2.569296747880304155e-01,3.146321239817383986e-01,2.954072071270526234e-02
9.900000000000000466e-02,3.049602612400730828e-01,3.286317214823464283e-01,7.745456169541671543e-02
1.000000000000000056e-01,3.143997180721239126e-01,3.722657154002776414e-01,9.292863875182665045e-02
1.010000000000000064e-01,3.662086705957137700e-01,3.080595600367847520e-01,1.427309756913696104e-01
1.019999999999999934e-01,3.778696290091705934e-01,4.098220421386301604e-01,1.813132898417185446e-01
1.029999999999999943e-01,3.682224155966105639e-01,3.633008978611382278e-01,1.530860751876453596e-01
1.039999999999999952e-01,4.001054809860785100e-01,3.311978360054451676e-01,2.098005016160414404e-01
1.049999999999999961e-01,4.141630016567173778e-01,3.325393834506344959e-01,2.496806735413976686e-01
1.059999999999999970e-01,4.328264857948364019e-01,3.541398229132816655e-01,2.583788949752590658e-01
1.069999999999999979e-01,4.400521183707758466e-01,3.327468330228653959e-01,2.449148534305642666e-01
1.079999999999999988e-01,4.513344608148047166e-01,3.116343744989524267e-01,2.357271417601185803e-01
1.089999999999999997e-01,4.235320949168213112e-01,3.124828426591930719e-01,2.871181621154394459e-01
1.100000000000000006e-01,4.193698906354147993e-01,2.521670597051466345e-01,2.833394744125263265e-01
1.110000000000000014e-01,4.051683390160193965e-01,3.013472705555493847e-01,2.480899180331527509e-01
1.120000000000000023e-01,4.071412808813753004e-01,2.249149489606199204e-01,3.113167599481596604e-01
1.130000000000000032e-01,3.613455900428554357e-01,2.151597320097498600e-01,2.926350691062320486e-01
1.140000000000000041e-01,3.588016542095217032e-01,1.942060899702692245e-01,2.622917147572205732e-01
1.150000000000000050e-01,3.039951857499190724e-01,1.272875890047320269e-01,2.458743009048762751e-01
1.160000000000000059e-01,2.781553658422728503e-01,1.019722262035832189e-01,2.480415013170757799e-01
1.170000000000000068e-01,2.554255434340292896e-01,7.854166528528247482e-02,2.298324735473399327e-01
1.179999999999999938e-01,2.110859185643357006e-01,3.784692766490598513e-03,2.073815042354605065e-01
1.189999999999999947e-01,1.562408682138675675e-01,-2.037441896401320784e-02,1.801294201780795079e-01
1.199999999999999956e-01,1.466990280603011898e-01,-2.486642799870725576e-02,1.876385359406300690e-01
1.209999999999999964e-01,9.368213811480752273e-02,-8.401329145432512302e-02,1.467370034986049676e-01
1.219999999999999973e-01,4.986054027788101167e-02,-8.360559513804710630e-02,1.565445152878021384e-01
1.229999999999999982e-01,-4.643462575441764445e-04,-1.764634815935047507e-01,1.084904460040321261e-01
1.239999999999999991e-01,-2.548455462434412455e-02,-2.161272670224363424e-01,1.050629989715415047e-01
1.250000000000000000e-01,-9.423480781815141150e-02,-2.561668932843755853e-01,7.684477018916066604e-02
1.260000000000000009e-01,-1.076767725174700013e-01,-2.331060921497348226e-01,2.608882764407904030e-03
1.270000000000000018e-01,-1.711971519512644757e-01,-2.616671566262475102e-01,6.527921654027907250e-03
1.280000000000000027e-01,-2.006532428319157679e-01,-3.080014125502400502e-01,-5.997981787932770564e-02
1.290000000000000036e-01,-2.618468566420792953e-01,-2.990434195314586874e-01,-4.823670842980028878e-02
1.300000000000000044e-01,-2.894636659954976654e-01,-3.166645640543674922e-01,-6.672387742550212053e-02
1.310000000000000053e-01,-3.162592697385335216e-01,-3.416672417096612846e-01,-9.808856885686152716e-02
1.320000000000000062e-01,-3.625913221104977158e-01,-3.279168518533367993e-01,-1.175472541811137389e-01
1.330000000000000071e-01,-3.652251571849954304e-01,-3.488773587865466874e-01,-9.624628221505351910e-02
1.340000000000000080e-01,-3.918923973927240234e-01,-3.517551451005331842e-01,-1.562574936749361043e-01
1.350000000000000089e-01,-3.876451647866541728e-01,-3.879598325329433051e-01,-1.797909400323350060e-01
1.360000000000000098e-01,-4.116528427494886011e-01,-3.553170716498089132e-01,-2.025077250732670586e-01
1.370000000000000107e-01,-4.540760356173609846e-01,-3.470614433656261655e-01,-2.526126187188558747e-01
1.380000000000000115e-01,-4.361825122775842001e-01,-3.032802608290252055e-01,-2.410204312815742989e-01
1.390000000000000124e-01,-4.560875217610927956e-01,-3.029915719166357269e-01,-2.564365218445391337e-01
1.400000000000000133e-01,-4.325550198146809744e-01,-3.367894215018269466e-01,-2.679782779306189022e-01
1.409999999999999865e-01,-4.465561553345307466e-01,-2.561933780036110830e-01,-2.768430116468344471e-01
1.419999999999999873e-01,-4.334862099599813834e-01,-2.661056271453348665e-01,-3.146221186536296011e-01
1.429999999999999882e-01,-4.062844109590992847e-01,-2.217831476933625479e-01,-2.385784894772464415e-01
1.439999999999999891e-01,-3.931360368867359845e-01,-1.735606533154139541e-01,-2.787764798637216157e-01
1.449999999999999900e-01,-3.387294915971528209e-01,-1.604206639660941403e-01,-2.440343991774899801e-01
1.459999999999999909e-01,-3.307016210854475391e-01,-1.440571327666854973e-01,-2.663987112303641269e-01
1.469999999999999918e-01,-2.578417369160894146e-01,-8.211545332049328960e-02,-2.908926490356376626e-01
1.479999999999999927e-01,-2.708339209556219207e-01,-3.533309739454770781e-02,-2.669645297037434584e-01
1.489999999999999936e-01,-2.391204927480949372e-01,-7.507828677482664831e-03,-2.046845377851318759e-01
1.499999999999999944e-01,-1.706995838235687846e-01,5.274409860978204745e-02,-1.892849168550659322e-01
1.509999999999999953e-01,-9.166803869977557806e-02,4.360742448961126005e-02,-2.122588069281331202e-01
1.519999999999999962e-01,-8.273447397349567578e-02,8.994122493956779874e-02,-1.351667298743012002e-01
1.529999999999999971e-01,-5.420723230028078737e-02,1.607514303760959884e-01,-1.579683651102187503e-01
1.539999999999999980e-01,1.658679446540961035e-03,1.541339169091402450e-01,-1.370139118263725420e-01
1.549999999999999989e-01,4.656409848478958863e-02,1.710793798335460414e-01,-1.007855431872366619e-01
1.559999999999999998e-01,1.035286687757092927e-01,2.530203669903430264e-01,-9.165215820899601240e-02
1.570000000000000007e-01,1.090715381720174237e-01,2.330476202461968238e-01,-3.307625282021353641e-02
1.580000000000000016e-01,1.527341229030556302e-01,2.659798112892288180e-01,1.919766573644530322e-02
1.590000000000000024e-01,2.303512172313336992e-01,3.403885886828578733e-01,-1.967393534470972608e-02
1.600000000000000033e-01,2.591852513361755928e-01,3.035878602488639721e-01,1.712354903000928505e-02
1.610000000000000042e-01,3.014607866271197256e-01,3.376514482419702423e-01,7.459694838228736469e-02
1.620000000000000051e-01,3.236343371768942712e-01,3.605032434527973284e-01,1.007750182973594227e-01
1.630000000000000060e-01,3.302729396378572546e-01,3.577296950617144256e-01,9.993030922253261228e-02
1.640000000000000069e-01,3.893649415562318583e-01,3.671760186627314182e-01,1.198545721348862891e-01
1.650000000000000078e-01,4.535887958696636635e-01,3.558491582326098190e-01,1.503333201884092807e-01
1.660000000000000087e-01,4.291741248912872009e-01,3.310555382987968587e-01,1.951411508496436464e-01
1.670000000000000095e-01,4.385603689381082360e-01,3.377193227836057243e-01,2.160179541444226803e-01
1.680000000000000104e-01,4.506589492727827717e-01,3.555479664024874253e-01,2.327546476551252130e-01
1.690000000000000113e-01,4.636049274532114683e-01,3.150670444807869841e-01,2.466804760008340092e-01
1.700000000000000122e-01,4.267753028941092541e-01,3.148129709484789873e-01,2.175480794636144577e-01
1.710000000000000131e-01,4.756775802890609861e-01,2.624378341290173333e-01,2.691917401311061941e-01
1.719999999999999862e-01,4.228770118972314807e-01,2.403543555054075964e-01,2.541977202532033075e-01
1.729999999999999871e-01,4.253667723809014811e-01,1.998973449020778337e-01,2.564306630145842814e-01
1.739999999999999880e-01,4.350216211665556831e-01,1.822092027048360929e-01,2.802342059723343382e-01
1.749999999999999889e-01,3.768715435138977887e-01,1.467236446710458997e-01,2.661864419453781605e-01
1.759999999999999898e-01,3.615118237284196123e-01,1.135012361258454089e-01,2.533335059565998693e-01
1.769999999999999907e-01,3.154650015413378306e-01,5.595752418956558005e-02,2.221689981061643893e-01
1.779999999999999916e-01,2.900884079258301274e-01,6.658477204837343066e-02,2.698602023280453066e-01
1.789999999999999925e-01,2.330806076848574160e-01,6.374096906162129983e-02,2.282163311605135414e-01
1.799999999999999933e-01,2.224156027996455065e-01,-2.376468142687648485e-02,2.025030661824903655e-01
1.809999999999999942e-01,1.703827801221378391e-01,-2.449756089659167399e-02,2.314066116288375496e-01
1.819999999999999951e-01,9.782729796115371967e-02,-9.029439400014110939e-02,1.810022310353136543e-01
1.829999999999999960e-01,8.765546624318892865e-02,-9.646278940741259689e-02,1.921857990435092700e-01
1.839999999999999969e-01,4.784032378438415889e-02,-1.207145801931890916e-01,1.582579648563585406e-01
1.849999999999999978e-01,-2.026690368863360431e-02,-1.691898764644935160e-01,1.564489539068911750e-01
1.859999999999999987e-01,-2.118536302433459903e-02,-2.077626179913926729e-01,9.028458928506108427e-02
1.869999999999999996e-01,-7.309266075561032805e-02,-2.337066061785168514e-01,8.965601985113398620e-02
1.880000000000000004e-01,-1.577709479910588408e-01,-2.301659526437799530e-01,6.044009107392359081e-02
1.890000000000000013e-01,-1.809836516491272751e-01,-2.869328709044263737e-01,4.076023525433659228e-02
1.900000000000000022e-01,-2.005339251193936079e-01,-3.229462866337953209e-01,1.968914824936390112e-02
1.910000000000000031e-01,-2.778066736999562636e-01,-3.190561999859471420e-01,-1.817197197683658588e-02
1.920000000000000040e-01,-2.994351914861718145e-01,-3.715617685494974065e-01,-6.996689533460555277e-02
1.930000000000000049e-01,-3.371092231730783984e-01,-3.591069115808416812e-01,-4.564011689305425001e-02
1.940000000000000058e-01,-3.275769187718906572e-01,-3.785206340189262164e-01,-1.085952524047432005e-01
1.950000000000000067e-01,-3.860095174404801210e-01,-3.884262107259607300e-01,-1.378974764754133109e-01
1.960000000000000075e-01,-4.245713939250541635e-01,-3.645503161132015446e-01,-1.500751142039263852e-01
1.970000000000000084e-01,-4.234451142256782652e-01,-3.477932526079071107e-01,-1.955516159732739179e-01
1.980000000000000093e-01,-4.351101334607066495e-01,-2.993690056669258692e-01,-1.629895780858192367e-01
1.990000000000000102e-01,-4.333375644979348129e-01,-3.210404299691725916e-01,-2.166773981845533104e-01
2.000000000000000111e-01,-4.647705587974182984e-01,-3.181841742969956366e-01,-2.263054349647097840e-01
2.010000000000000120e-01,-4.594110156820794266e-01,-2.761874332195065063e-01,-2.243117368637214670e-01
2.020000000000000129e-01,-3.991936971698610837e-01,-2.661837551967132787e-01,-2.705939848285525140e-01
2.030000000000000138e-01,-3.926574279151788249e-01,-2.209161067696490122e-01,-2.931560235920808166e-01
2.039999999999999869e-01,-4.472336073073402973e-01,-1.898367379052176007e-01,-2.306228956070301706e-01
2.049999999999999878e-01,-4.092894910413937271e-01,-2.146136630466854989e-01,-2.840625378022674785e-01
2.059999999999999887e-01,-3.855904101182576760e-01,-1.293075907001294267e-01,-2.634740092350209562e-01
2.069999999999999896e-01,-3.684498766386047897e-01,-1.315958508304858332e-01,-2.793651333328772135e-01
2.079999999999999905e-01,-3.249955190020075158e-01,-8.977829170309102602e-02,-2.752001403492257414e-01
2.089999999999999913e-01,-3.127556548031701911e-01,-4.310607235330306264e-02,-2.825411764197263143e-01
2.099999999999999922e-01,-2.505159369599493369e-01,-2.467116046252256639e-02,-2.635712630364304143e-01
2.109999999999999931e-01,-2.241625507350133162e-01,8.185752402293985583e-03,-2.373176143516274872e-01
2.119999999999999940e-01,-1.698601103421627234e-01,5.395422968670664926e-02,-2.078487304272103320e-01
2.129999999999999949e-01,-1.339792340992654318e-01,8.467073136719804882e-02,-2.051105119073690641e-01
2.139999999999999958e-01,-6.493963211910086519e-02,1.566603488109479525e-01,-1.688038576459892914e-01
2.149999999999999967e-01,-7.753640030686072271e-02,1.550526939812348903e-01,-1.507976628862462976e-01
2.159999999999999976e-01,3.425688544288965631e-02,2.268464961937639301e-01,-1.694583407644028594e-01
2.169999999999999984e-01,5.914652047605554325e-02,2.467619171817026780e-01,-1.066648997848679281e-01
2.179999999999999993e-01,1.366325189336739521e-01,2.598067278499561761e-01,-7.334672176019133016e-02
2.190000000000000002e-01,1.716164739458582167e-01,2.581126180783921420e-01,-6.496669779343694495e-02
2.200000000000000011e-01,1.924450402947086580e-01,3.082633884806612046e-01,-6.069266831733790592e-03
2.210000000000000020e-01,2.705038814956870485e-01,2.901057302519632897e-01,-1.940772358933067626e-02
2.220000000000000029e-01,2.367158720348900014e-01,3.578357024975948320e-01,3.635645980216205275e-02
2.230000000000000038e-01,3.162204506914248481e-01,3.251837186819199199e-01,7.220401514572442891e-02
2.240000000000000047e-01,3.330631581714676992e-01,3.518759601514502289e-01,9.442921180860297525e-02
2.250000000000000056e-01,3.254864860584857911e-01,3.805929927228145493e-01,1.092959171018671322e-01
2.260000000000000064e-01,4.106890853658050067e-01,3.817814686608512198e-01,1.040078815867370304e-01
2.270000000000000073e-01,4.102216896364305199e-01,3.461098324873182475e-01,1.457034355034118600e-01
2.280000000000000082e-01,4.299361406538865227e-01,3.363423576451093910e-01,1.792063076845543113e-01
2.290000000000000091e-01,4.679764615186822185e-01,3.204374708896357560e-01,1.974640486604254397e-01
2.300000000000000100e-01,4.288139993218955115e-01,3.213741474177984614e-01,2.071956160158550109e-01
2.310000000000000109e-01,4.407560475408346390e-01,3.329568649608622977e-01,2.351809452013823021e-01
2.320000000000000118e-01,4.186097616766023544e-01,3.184992433571858794e-01,2.148090194130246045e-01
2.330000000000000127e-01,4.493203509081793445e-01,2.670600149295516146e-01,2.272402621165514891e-01
2.340000000000000135e-01,4.237759709308469569e-01,2.420018953417971963e-01,2.948194820354299583e-01
2.349999999999999867e-01,4.150019621033829709e-01,1.841429186497473836e-01,2.590490326665705334e-01
2.359999999999999876e-01,4.169636293355619694e-01,1.915148964776632046e-01,2.359740753924673418e-01
2.369999999999999885e-01,3.684703410721357764e-01,1.658008075055859010e-01,2.816784115547020795e-01
2.379999999999999893e-01,3.284361674364489891e-01,9.191661521268673640e-02,2.524146588884809139e-01
2.389999999999999902e-01,3.270119959040326818e-01,7.967370743584706316e-02,2.357523458807641581e-01
2.399999999999999911e-01,2.793341528584972755e-01,3.291154924173469998e-02,2.947011701132309369e-01
2.409999999999999920e-01,2.773104869265791694e-01,1.011382314668353433e-02,2.181562935863144426e-01
2.419999999999999929e-01,2.144985909958374848e-01,-3.137616788833424292e-02,2.145329114167636442e-01
2.429999999999999938e-01,1.759834383731537222e-01,-4.898246389297481601e-02,2.190601872631870728e-01
2.439999999999999947e-01,1.190426884497436388e-01,-9.738205263616966922e-02,1.990500289217487784e-01
2.449999999999999956e-01,8.002938162935595290e-02,-1.388280306039597900e-01,1.782096927668865294e-01
2.459999999999999964e-01,1.276253789425036214e-02,-1.615172118127255751e-01,1.487880833386923396e-01
2.469999999999999973e-01,-8.465992771213753975e-04,-2.196805606911656772e-01,9.489880342063923557e-02
2.479999999999999982e-01,-6.843787483828094043e-02,-2.183920000833920461e-01,1.123089376116669230e-01
2.489999999999999991e-01,-9.162624081788871278e-02,-2.691396115042964943e-01,1.312578431667887624e-01
2.500000000000000000e-01,-1.785088916411011473e-01,-2.898997599802464742e-01,2.512019141598462527e-02
2.510000000000000009e-01,-2.016742965057507220e-01,-2.588761219054992457e-01,3.290641968881125728e-02
2.520000000000000018e-01,-2.183549388299097227e-01,-3.252234547908061657e-01,-5.266267826967743759e-02
2.530000000000000027e-01,-2.816126162359903207e-01,-3.530623492102650807e-01,-3.424773340446195941e-02
2.540000000000000036e-01,-3.116783871045565313e-01,-3.805319167354430654e-01,-4.868880368839476752e-02
2.550000000000000044e-01,-3.191576478661026783e-01,-3.971137842312600919e-01,-8.825612202912255788e-02
2.560000000000000053e-01,-3.943027260506823950e-01,-3.406462529407330853e-01,-1.084529387475032386e-01
2.570000000000000062e-01,-3.741336727470748191e-01,-3.653821162537422285e-01,-1.366869110346883576e-01
2.580000000000000071e-01,-3.993395983918468506e-01,-3.551896049671291467e-01,-1.763664313149130580e-01
2.590000000000000080e-01,-4.444511519432171598e-01,-3.275422506787638577e-01,-1.687549720369303785e-01
2.600000000000000089e-01,-4.143538370018527428e-01,-3.388494912140422866e-01,-1.748875664203264346e-01
2.610000000000000098e-01,-4.429837613706920640e-01,-3.200365279298060806e-01,-2.069649001951484046e-01
2.620000000000000107e-01,-4.457864430931937627e-01,-2.888322965946210630e-01,-2.443368212180756505e-01
2.630000000000000115e-01,-4.741424134471426410e-01,-2.532464871814318341e-01,-2.474325871952681166e-01
2.640000000000000124e-01,-4.127127366556995192e-01,-2.814858249335495666e-01,-2.387612667535124744e-01
2.650000000000000133e-01,-4.030438976875558854e-01,-2.186718414279656963e-01,-2.635718441689353653e-01
2.660000000000000142e-01,-3.957977229616747028e-01,-1.801089621017522291e-01,-2.717561865550507938e-01
2.670000000000000151e-01,-3.825964950166007017e-01,-1.948051850947562780e-01,-2.565899450739205778e-01
2.680000000000000160e-01,-3.401157372919473287e-01,-1.276284830878710586e-01,-2.813992246352822191e-01
2.690000000000000169e-01,-3.576830949160804130e-01,-1.324821959053982534e-01,-2.534838993305218446e-01
2.700000000000000178e-01,-3.140869792299565977e-01,-6.258101918124582552e-02,-2.537279755525204683e-01
2.710000000000000187e-01,-2.437503997143016798e-01,-5.204274655765679658e-02,-2.698957739433635594e-01
2.720000000000000195e-01,-2.653059273797735429e-01,-2.087943528871830101e-03,-2.563946848406168932e-01
2.730000000000000204e-01,-2.143406827099165191e-01,8.204479963756404481e-02,-2.201643965485688692e-01
2.740000000000000213e-01,-1.549662084278907725e-01,8.972872838834705655e-02,-1.885814182510978376e-01
2.750000000000000222e-01,-6.158438555591760205e-02,1.055831021957726046e-01,-1.861988131445674044e-01
2.760000000000000231e-01,-5.189740409243129293e-02,1.791773661965227193e-01,-1.785257618666329926e-01
2.770000000000000240e-01,-3.052830042937813328e-03,2.101117316102520116e-01,-1.365410660323547742e-01
2.780000000000000249e-01,1.125911120937043985e-02,2.297426399512144668e-01,-1.435709818055633802e-01
2.790000000000000258e-01,5.184556216266721085e-02,2.399811683774114579e-01,-1.365705590500947975e-01
2.800000000000000266e-01,1.094772026041810203e-01,2.782476539348070488e-01,-6.334269325251144778e-02
2.810000000000000275e-01,1.838752476125337376e-01,3.088165532086851739e-01,-2.718507959219557471e-02
2.819999999999999729e-01,2.047646205362624039e-01,3.423002410811761820e-01,-3.674281325086167088e-02
2.829999999999999738e-01,2.621267457191254757e-01,3.558686491365569693e-01,-2.879777252795550843e-02
2.839999999999999747e-01,2.536752791810474306e-01,3.346626124413386583e-01,4.975769436346602192e-04
2.849999999999999756e-01,3.346216748270261498e-01,3.859064386348207143e-01,4.033589574617431339e-02
2.859999999999999765e-01,3.517809570154522003e-01,3.430769503327817382e-01,9.229322250194285648e-02
2.869999999999999774e-01,3.853335224454493280e-01,3.387405064436312396e-01,7.690127532731844129e-02
2.879999999999999782e-01,4.204215447942834527e-01,3.471534990953796807e-01,1.533958329615770222e-01
2.889999999999999791e-01,3.934864109407858468e-01,2.984712339598097341e-01,1.382391395661619893e-01
2.899999999999999800e-01,4.237012750758331059e-01,3.329147921843894076e-01,1.746632810052826112e-01
2.909999999999999809e-01,4.561502605527714138e-01,3.224845960341520823e-01,1.663415401087318946e-01
2.919999999999999818e-01,4.549792514867112558e-01,3.186807689461664816e-01,1.890566100011910611e-01
2.929999999999999827e-01,4.424386718388526041e-01,2.969361561307626851e-01,2.127411994729301037e-01
2.939999999999999836e-01,4.364577482727349800e-01,2.426339346717084344e-01,2.429589535066125905e-01
2.949999999999999845e-01,4.489334100528307170e-01,2.292656160799093346e-01,2.487720231335475707e-01
2.959999999999999853e-01,4.239669103034106601e-01,1.808927338956608233e-01,2.774408277803575018e-01
2.969999999999999862e-01,4.218584126620372188e-01,1.761255585548581748e-01,2.848051907393859272e-01
2.979999999999999871e-01,3.992609952400005824e-01,1.587131115145319071e-01,2.498552778022954945e-01
2.989999999999999880e-01,3.563774011342627501e-01,1.334186967699005633e-01,2.617036981744459978e-01
2.999999999999999889e-01,3.532087270128800305e-01,9.408195475088411419e-02,2.800148611883703786e-01
3.009999999999999898e-01,2.551041408384558395e-01,5.339745301476941930e-02,2.681871902287364939e-01
3.019999999999999907e-01,2.614234787850768238e-01,-6.625592860155795141e-03,2.645345141302613001e-01
3.029999999999999916e-01,2.385849674420461586e-01,-2.520976658121014402e-02,2.475895033105823539e-01
3.039999999999999925e-01,2.113182915094922731e-01,-6.918153840144122824e-02,1.984639291926948157e-01
3.049999999999999933e-01,1.552178301035447294e-01,-1.207017763275737704e-01,2.299204414473753622e-01
3.059999999999999942e-01,1.127399200119182376e-01,-1.568518713899057504e-01,1.648760723615956547e-01
3.069999999999999951e-01,5.740024652140240241e-02,-1.688832354494118337e-01,1.854972453852710701e-01
3.079999999999999960e-01,-1.808243328295775724e-03,-2.030837273166524459e-01,1.825575119517209854e-01
3.089999999999999969e-01,-9.379946919490352031e-03,-2.337845373627601420e-01,1.367072437997037815e-01
3.099999999999999978e-01,-7.665633057341098011e-02,-2.709299710422550245e-01,9.675254750664752379e-02
3.109999999999999987e-01,-1.341032626357581969e-01,-3.218227787617840008e-01,6.204162246026875133e-02
3.119999999999999996e-01,-1.851262688807232826e-01,-3.157980267109519734e-01,6.504439696919264713e-02
3.130000000000000004e-01,-2.193631204219737008e-01,-3.716379232117881237e-01,3.361264709273624474e-02
3.140000000000000013e-01,-2.471786794977265944e-01,-3.303564466491480389e-01,1.675602426866040426e-02
3.150000000000000022e-01,-2.968204757999560184e-01,-3.326067183827161600e-01,-1.402844259275624027e-02
3.160000000000000031e-01,-2.885005166175023117e-01,-3.439674544988388649e-01,-1.937309262475592903e-02
3.170000000000000040e-01,-3.855684555858423512e-01,-3.586232192101135308e-01,-3.700620442038927288e-02
3.180000000000000049e-01,-3.706588456547446064e-01,-3.546222218185658415e-01,-9.251193095860608950e-02
3.190000000000000058e-01,-3.807051650454255087e-01,-3.110015575475096328e-01,-1.220802486062533138e-01
3.200000000000000067e-01,-4.468503293382491970e-01,-3.807156734205421889e-01,-1.381517485929427691e-01
3.210000000000000075e-01,-4.725596323456612291e-01,-3.276505337454858613e-01,-1.683055242571901144e-01
3.220000000000000084e-01,-4.191199442638468553e-01,-3.451384662721983521e-01,-1.715640479485071590e-01
3.230000000000000093e-01,-4.538786880922953682e-01,-3.127064601254987974e-01,-2.223472717269674714e-01
3.240000000000000102e-01,-4.647805213294646243e-01,-2.666719024760321188e-01,-2.624291596484449318e-01
3.250000000000000111e-01,-4.704085731412553928e-01,-2.561193221737332881e-01,-2.288103204080379760e-01
3.260000000000000120e-01,-4.508391746124072452e-01,-2.431360087097207134e-01,-2.177264808856564371e-01
3.270000000000000129e-01,-4.361259881233875979e-01,-1.608582283479873809e-01,-2.346894860587279696e-01
3.280000000000000138e-01,-4.092268679948740662e-01,-1.117379861710091488e-01,-2.888389802813985385e-01
3.290000000000000147e-01,-3.701223140922166310e-01,-1.327365834121765342e-01,-2.469290999383571827e-01
3.300000000000000155e-01,-3.373896359601145090e-01,-1.010476535860552194e-01,-2.664373714638411661e-01
3.310000000000000164e-01,-3.248592514073453952e-01,-6.020786593051264540e-02,-2.745185979168148216e-01
3.320000000000000173e-01,-2.997398953352820583e-01,-1.272393326176777910e-02,-2.769075938317159813e-01
3.330000000000000182e-01,-2.811660182810092889e-01,4.034413898817949817e-02,-2.675058168463654296e-01
3.340000000000000191e-01,-2.338269622259181446e-01,2.659378845587507742e-02,-2.240934677299566968e-01
3.350000000000000200e-01,-1.630110460351538171e-01,7.870735128664319014e-02,-2.447580113544101932e-01
3.360000000000000209e-01,-1.519676936651320753e-01,1.057673291126724202e-01,-1.895849407576843948e-01
3.370000000000000218e-01,-7.852130929361680889e-02,1.451926780802599015e-01,-2.188295806299679347e-01
3.380000000000000226e-01,-2.445358715142293901e-02,1.951301697460412488e-01,-1.856481219556102569e-01
3.390000000000000235e-01,5.524168449769070038e-02,2.560611974567101878e-01,-2.095489565319099134e-01
3.400000000000000244e-01,7.298687837192101985e-03,2.592450533686770919e-01,-1.476310162703678430e-01
3.410000000000000253e-01,1.104186317127582584e-01,2.743194832064341226e-01,-1.152077181485226670e-01
3.420000000000000262e-01,1.102625658185044794e-01,2.728176504004601877e-01,-1.054223090447564126e-01
3.430000000000000271e-01,1.521610953960747525e-01,3.117123209775939929e-01,-1.315453548829241259e-01
3.439999999999999725e-01,2.380151343844665590e-01,3.071065083156335751e-01,-3.582159417001611751e-02
3.449999999999999734e-01,2.799843823347882843e-01,3.320365148518677478e-01,-2.307229046363209676e-02
3.459999999999999742e-01,2.951091658936162432e-01,3.309107753630855520e-01,-9.242717013183049174e-04
3.469999999999999751e-01,2.874318197538216491e-01,3.595510691944764914e-01,6.546204215605166965e-02
3.479999999999999760e-01,3.376183434933105465e-01,3.960950871719237099e-01,4.707662423489931969e-02
3.489999999999999769e-01,3.336491909674889622e-01,3.774848924042003007e-01,6.942244699129693219e-02
3.499999999999999778e-01,3.367327780546893190e-01,3.736616481350853447e-01,9.218499987598847978e-02
3.509999999999999787e-01,4.310790432508084802e-01,2.939179453857025948e-01,1.345502604913439426e-01
3.519999999999999796e-01,4.099491789326060176e-01,3.605014431994298385e-01,1.769865542174471895e-01
3.529999999999999805e-01,4.461118747479522195e-01,3.134946895561775970e-01,1.679874442343745333e-01
3.539999999999999813e-01,4.256092066919572314e-01,2.940670051304034027e-01,1.963846327985314388e-01
3.549999999999999822e-01,4.308929244442491480e-01,2.866467944454517136e-01,2.099564907974955930e-01
3.559999999999999831e-01,4.608853359921026294e-01,2.490555302545240657e-01,1.998387849632276558e-01
3.569999999999999840e-01,4.466249615427055342e-01,2.040223962706782523e-01,2.413421618009105041e-01
3.579999999999999849e-01,4.001543895340101131e-01,1.827364613300528629e-01,2.584517142736305617e-01
3.589999999999999858e-01,3.965780028174443195e-01,1.270755316906114207e-01,2.791780037637557332e-01
3.599999999999999867e-01,3.655280532014744121e-01,1.156863939039245726e-01,2.799486548427279620e-01
3.609999999999999876e-01,3.663923877877544033e-01,4.787680019699133011e-02,3.171253929528176640e-01
3.619999999999999885e-01,3.224499232110645264e-01,5.063747677760421784e-02,2.510719718674950252e-01
3.629999999999999893e-01,3.187092053043282247e-01,2.148886569988717188e-02,2.749230464069853941e-01
3.639999999999999902e-01,2.727705887327933065e-01,-9.916693274050696061e-03,2.296759593993304149e-01
3.649999999999999911e-01,1.884924699724943864e-01,-6.407658832135128268e-02,2.300416098880887494e-01
3.659999999999999920e-01,1.757829376042266967e-01,-1.257386161154716853e-01,2.560683185061466971e-01
3.669999999999999929e-01,1.383750499009709922e-01,-1.532087624638424905e-01,2.195381527302606994e-01
3.679999999999999938e-01,8.549037762501975057e-02,-1.460086027119521512e-01,2.044220868972285721e-01
3.689999999999999947e-01,9.668672683055307138e-02,-2.187940771997861911e-01,2.146075450244483707e-01
3.699999999999999956e-01,-2.648578134888466065e-02,-2.043006711772893946e-01,1.925497808162599800e-01
3.709999999999999964e-01,-4.904668843568072562e-02,-3.064136458609067470e-01,1.272404267413591861e-01
3.719999999999999973e-01,-5.492779257141834626e-02,-2.786869410054699236e-01,1.405468379988632777e-01
3.729999999999999982e-01,-1.409320065396960087e-01,-3.103725823692004004e-01,9.086452220538782099e-02
3.739999999999999991e-01,-1.460010899008302998e-01,-3.447913013273439797e-01,6.558952272884122081e-02
3.750000000000000000e-01,-1.961507452332969526e-01,-3.285679664755796758e-01,4.476579835851791922e-02
3.760000000000000009e-01,-2.473872063836291268e-01,-3.274283912142389452e-01,6.156353258562299001e-03
3.770000000000000018e-01,-2.349152963590172005e-01,-3.722084664451695279e-01,2.537382294916583000e-02
3.780000000000000027e-01,-3.524111693921465061e-01,-3.994740031016976167e-01,-2.411525881897716439e-02
3.790000000000000036e-01,-3.688718848475337486e-01,-3.731394838808611558e-01,-6.649280065126429717e-02
3.800000000000000044e-01,-3.736509875205772380e-01,-3.475165518945623200e-01,-8.699931409642064351e-02
3.810000000000000053e-01,-4.217118172330491244e-01,-3.663840455372373017e-01,-1.185199161718724081e-01
3.820000000000000062e-01,-3.936014444785363442e-01,-3.559963083709227760e-01,-1.180731774968101777e-01
3.830000000000000071e-01,-4.441592490630191792e-01,-3.305741383510383824e-01,-1.426255545326041985e-01
3.840000000000000080e-01,-4.655839219426586295e-01,-3.159964117505140169e-01,-1.849124627580075175e-01
3.850000000000000089e-01,-4.237425075069318758e-01,-2.766074094915537684e-01,-1.995787008947918495e-01
3.860000000000000098e-01,-4.587881471386819343e-01,-2.557896580394365960e-01,-1.912344811106684583e-01
3.870000000000000107e-01,-4.714009455878301336e-01,-2.183047302994388095e-01,-2.205755085727971465e-01
3.880000000000000115e-01,-4.350361754682117721e-01,-2.112846949991862566e-01,-2.526241751604169083e-01
3.890000000000000124e-01,-4.328654982300137455e-01,-1.385389914982087800e-01,-2.564136547163560209e-01
3.900000000000000133e-01,-4.061406066272351123e-01,-1.498328498748438820e-01,-2.448516807577960641e-01
3.910000000000000142e-01,-3.667713886873504303e-01,-1.117358048846206764e-01,-2.777591949544678807e-01
3.920000000000000151e-01,-3.339832392672251737e-01,-7.090171107223895708e-02,-2.418692600249962299e-01
3.930000000000000160e-01,-3.345348656701491730e-01,-2.505785163746391056e-02,-2.462428450271690050e-01
3.940000000000000169e-01,-3.038637016574712302e-01,1.990475689414102772e-02,-2.539009751179207020e-01
3.950000000000000178e-01,-2.477788736975720940e-01,3.823975716339085562e-02,-2.736949798390289623e-01
3.960000000000000187e-01,-2.013486094671562698e-01,9.326853872212066687e-02,-2.426914913800142792e-01
3.970000000000000195e-01,-1.650454703749935081e-01,1.362220563346796254e-01,-2.480444651086864682e-01
3.980000000000000204e-01,-1.413524128020988146e-01,1.549467658978648799e-01,-2.296787837170570779e-01
3.990000000000000213e-01,-5.031741933203324330e-02,1.962173907708738285e-01,-1.764004698935730253e-01
4.000000000000000222e-01,-7.108254706244604426e-02,2.165908789535953560e-01,-1.575358520295467024e-01
4.010000000000000231e-01,-3.071957283575236369e-03,2.429120067866080146e-01,-1.927876119213859651e-01
4.020000000000000240e-01,1.657952553996780432e-02,2.538978027851084285e-01,-1.535550780416299055e-01
4.030000000000000249e-01,6.237245649795845198e-02,2.849114048580784209e-01,-1.386343279459817668e-01
4.040000000000000258e-01,1.203967916548542988e-01,3.105918144110396129e-01,-9.245218840310587272e-02
4.050000000000000266e-01,1.734891499009633131e-01,3.549942194471532586e-01,-6.344984229691362498e-02
4.060000000000000275e-01,2.001301317237314525e-01,3.672822361193603391e-01,-3.625872564497867323e-02
4.069999999999999729e-01,2.424562628455990687e-01,3.294855665319770810e-01,-6.883329207024854735e-02
4.079999999999999738e-01,2.928705549476790515e-01,3.498100076605989983e-01,3.631667487641169513e-03
4.089999999999999747e-01,3.207640886674495428e-01,3.444988020887417846e-01,1.849861909067467350e-02
4.099999999999999756e-01,3.711985029716525220e-01,3.715323450066177480e-01,7.199490406326691794e-02
4.109999999999999765e-01,4.010297484226394982e-01,3.259532114807229264e-01,4.766448761377241328e-02
4.119999999999999774e-01,4.207807694999332604e-01,3.537826291144869906e-01,8.779470687144305674e-02
4.129999999999999782e-01,4.163833150130034633e-01,3.120079303610686638e-01,1.403740850998111134e-01
4.139999999999999791e-01,4.443979595843366992e-01,2.804789062857428461e-01,1.677326578616161745e-01
4.149999999999999800e-01,4.279774909275208539e-01,2.574886222584918394e-01,2.205018257109910007e-01
4.159999999999999809e-01,4.344519048682404794e-01,2.907186482148613194e-01,1.672636699766729129e-01
4.169999999999999818e-01,4.056302516512804712e-01,2.552720016457435959e-01,2.036332411820876986e-01
4.179999999999999827e-01,4.718294646355343791e-01,2.178533535469183158e-01,2.099653879313331806e-01
4.189999999999999836e-01,4.388205197218694731e-01,1.875120086183140466e-01,2.551198348153879691e-01
4.199999999999999845e-01,4.069045649213747229e-01,1.742801442194524819e-01,2.536282057787371258e-01
4.209999999999999853e-01,4.423041090754928351e-01,1.264857256288612342e-01,2.598640941452927122e-01
4.219999999999999862e-01,3.967609641266701126e-01,9.459256826503287252e-02,3.001551319686497354e-01
4.229999999999999871e-01,3.414320563726598312e-01,1.702821539912484014e-02,2.682643706963564467e-01
4.239999999999999880e-01,2.785750928043878583e-01,2.973054863948337845e-02,2.875880499043135807e-01
4.249999999999999889e-01,2.912881994834773391e-01,-2.564194086070844744e-02,2.691500259076918256e-01
4.259999999999999898e-01,2.470079524257234316e-01,-8.281778000704337339e-02,2.677896630631984021e-01
4.269999999999999907e-01,1.950698523317134225e-01,-9.370122909775663311e-02,2.525139324503097304e-01
4.279999999999999916e-01,1.774503791231732963e-01,-1.367894173478757247e-01,2.772653960271301843e-01
4.289999999999999925e-01,1.176299185529424557e-01,-1.918183600138482492e-01,2.359331002084084916e-01
4.299999999999999933e-01,6.511049217126838040e-02,-2.384869632387507099e-01,2.096753504405632906e-01
4.309999999999999942e-01,4.867010837674416723e-02,-2.011824441660970408e-01,2.095019165186706445e-01
4.319999999999999951e-01,-2.791324583546135260e-02,-2.599682174992775652e-01,1.685552206102933770e-01
4.329999999999999960e-01,-3.761528899619279165e-02,-2.552260377541545333e-01,1.837039503044542443e-01
4.339999999999999969e-01,-1.075495006561962424e-01,-2.775833576230375410e-01,1.484580921335684200e-01
4.349999999999999978e-01,-1.422125288027682732e-01,-3.429900026537606728e-01,8.478838829829916934e-02
4.359999999999999987e-01,-2.417616576921352289e-01,-3.454595046791875679e-01,7.235832058922973820e-02
4.369999999999999996e-01,-2.276201913023205292e-01,-3.425182023013673693e-01,6.240865914443869539e-02
4.380000000000000004e-01,-2.448955164127537554e-01,-3.770096028749345130e-01,3.399251334299314975e-02
4.390000000000000013e-01,-2.823226358023838700e-01,-3.779200206567462916e-01,-5.672002575776832756e-02
4.400000000000000022e-01,-3.502361575022875928e-01,-3.412274049468645432e-01,-3.014047816578538722e-02
4.410000000000000031e-01,-3.295011888804688649e-01,-3.637126777371282316e-01,-5.380952820298657430e-02
4.420000000000000040e-01,-3.964055795758860690e-01,-3.532833674319529327e-01,-4.020416394720950637e-02
4.430000000000000049e-01,-4.116072250567594515e-01,-3.007567028421008204e-01,-1.090296510767990307e-01
4.440000000000000058e-01,-4.289382954077699539e-01,-3.574017509116090840e-01,-1.224166183825972781e-01
4.450000000000000067e-01,-4.550771957360612019e-01,-2.849046848236694296e-01,-1.356708541110020483e-01
4.460000000000000075e-01,-4.870074170317945095e-01,-2.718057583905925112e-01,-1.398413934057217978e-01
4.470000000000000084e-01,-4.288300421382515437e-01,-3.025913050764970080e-01,-1.568089637934876324e-01
4.480000000000000093e-01,-4.792775423897125964e-01,-2.048221390449908308e-01,-1.879534495122313908e-01
4.490000000000000102e-01,-3.914537531886792543e-01,-1.657957604592475431e-01,-2.323809666764387327e-01
4.500000000000000111e-01,-4.488223583949545459e-01,-1.554314858589307957e-01,-2.233260624561399510e-01
4.510000000000000120e-01,-3.798649230410178768e-01,-1.335378734765315378e-01,-2.528735954298922950e-01
4.520000000000000129e-01,-3.708925961555075701e-01,-8.367927255180118706e-02,-2.410214797136931708e-01
4.530000000000000138e-01,-3.838170586472473000e-01,-4.635598011075584696e-02,-2.567107643343696233e-01
4.540000000000000147e-01,-3.240330790467370603e-01,-1.741254973611451942e-02,-2.921300303685088751e-01
4.550000000000000155e-01,-3.129913302567735589e-01,1.009875731551797447e-02,-2.894479873869151287e-01
4.560000000000000164e-01,-2.484980448761754668e-01,3.329651785176019479e-02,-2.589697420871390765e-01
4.570000000000000173e-01,-2.487973097958259550e-01,7.719799906019231273e-02,-2.636396190734408562e-01
4.580000000000000182e-01,-1.666092037085433186e-01,1.391775349866984368e-01,-2.424266246850154127e-01
4.590000000000000191e-01,-1.504946208987735790e-01,1.358256566953037203e-01,-2.305502485145315694e-01
4.600000000000000200e-01,-1.129008759852641736e-01,1.573996851122009544e-01,-2.208239566795830167e-01
4.610000000000000209e-01,-5.243852052386466928e-02,1.834340356055076948e-01,-2.236180019993073698e-01
4.620000000000000218e-01,-7.062116319509800788e-02,2.466219373095795697e-01,-2.500767890329164134e-01
4.630000000000000226e-01,3.323973435131495624e-02,2.803287151777144603e-01,-1.929846979864403844e-01
4.640000000000000235e-01,5.151697175961726660e-02,2.581066070094662490e-01,-2.024353509514585647e-01
4.650000000000000244e-01,8.875532614233758166e-02,3.367007187691009595e-01,-1.513616014556825873e-01
4.660000000000000253e-01,1.477389154194511667e-01,3.229460768578507057e-01,-1.552837786847774126e-01
4.670000000000000262e-01,1.743476705362086154e-01,3.407415392547881172e-01,-8.970907765970563552e-02
4.680000000000000271e-01,1.906667445719648912e-01,3.505080468046053999e-01,-5.934541678030313266e-02
4.689999999999999725e-01,2.521042149430930412e-01,3.516706575817314939e-01,-2.512958863194441825e-02
4.699999999999999734e-01,3.249060316593938014e-01,3.598220047856874326e-01,2.562674285348186601e-02
4.709999999999999742e-01,3.609538529387849026e-01,3.382839185662266934e-01,4.172567068268279861e-02
4.719999999999999751e-01,3.704907177128838325e-01,3.450785842376834500e-01,5.600576279739288843e-02
4.729999999999999760e-01,3.848089873205796652e-01,3.976830328688916727e-01,7.874481203067350277e-02
4.739999999999999769e-01,3.945523022389292311e-01,3.383732682470738662e-01,7.429540309415899602e-02
4.749999999999999778e-01,4.156775826968939769e-01,3.332646589780056678e-01,1.300255757340875729e-01
4.759999999999999787e-01,4.318674245276138968e-01,3.045974310086653203e-01,1.314639708426458553e-01
4.769999999999999796e-01,4.816803905968252697e-01,2.491578260394736177e-01,1.694541326655998603e-01
4.779999999999999805e-01,4.356227143847689609e-01,2.139566574500469109e-01,2.010540393774934986e-01
4.789999999999999813e-01,4.412110606418213621e-01,2.160645861614523544e-01,2.098732965744707080e-01
4.799999999999999822e-01,4.553143504146516252e-01,1.977636480199302660e-01,2.314544783454253463e-01
4.809999999999999831e-01,4.397137147859425665e-01,1.568811894011693520e-01,2.516762416636448285e-01
4.819999999999999840e-01,3.790434910199261820e-01,1.278689915788875087e-01,2.696977579563509808e-01
4.829999999999999849e-01,4.196705484590579349e-01,1.003397308070137495e-01,2.644589480899582346e-01
4.839999999999999858e-01,3.818694049512680877e-01,4.048300024879571829e-02,2.792732751228858556e-01
4.849999999999999867e-01,3.379713062812772506e-01,1.053221268255584951e-02,2.835872056048566736e-01
4.859999999999999876e-01,3.196467395761224406e-01,1.222095711892920260e-02,2.543959065430627109e-01
4.869999999999999885e-01,2.469740098897606206e-01,-5.047373999103661746e-02,2.439436088776629763e-01
4.879999999999999893e-01,2.361447176477892984e-01,-7.568422756143601549e-02,2.495178267056397947e-01
4.889999999999999902e-01,1.406894921178243330e-01,-1.093392304353655725e-01,2.538563727163863359e-01
4.899999999999999911e-01,1.555811309136372611e-01,-1.556440919216079688e-01,2.894713889707566934e-01
4.909999999999999920e-01,1.133942363820173022e-01,-1.891816971827367799e-01,2.394932225801484904e-01
4.919999999999999929e-01,3.786899949572111734e-02,-1.972550035061355345e-01,2.386287752588416577e-01
4.929999999999999938e-01,2.970419166582761311e-02,-2.498207346646520721e-01,2.131860270567240701e-01
4.939999999999999947e-01,-3.950360247891862575e-02,-2.995765460695278826e-01,1.968288514712101533e-01
4.949999999999999956e-01,-2.864304310601966871e-02,-3.038104243185443254e-01,1.712578123556548482e-01
4.959999999999999964e-01,-1.029579619944083202e-01,-3.203470754233173068e-01,1.346716035255811073e-01
4.969999999999999973e-01,-1.336083980057086729e-01,-3.095687037998589020e-01,7.572950225842470240e-02
4.979999999999999982e-01,-2.226558576263106548e-01,-3.942481317930777163e-01,8.876930635799649971e-02
4.989999999999999991e-01,-2.499489450274233748e-01,-3.609141112106115101e-01,6.110555167636540219e-02
5.000000000000000000e-01,-2.917958831773255213e-01,-3.761122408321306287e-01,4.295553046216574883e-02
5.010000000000000009e-01,-3.153073726948278921e-01,-3.602188415183841252e-01,1.307990022472514495e-02
5.020000000000000018e-01,-3.515870050541842762e-01,-3.081984736886393961e-01,2.092370780481657769e-02
5.030000000000000027e-01,-3.827623064792677887e-01,-3.565851589772492947e-01,-3.539454244390225629e-02
5.040000000000000036e-01,-3.957071143962121451e-01,-3.623708491005220300e-01,-5.317093587198476468e-02
5.050000000000000044e-01,-4.011491066486558843e-01,-3.307512760733525292e-01,-8.468987728961191452e-02
5.060000000000000053e-01,-4.535618366187218475e-01,-3.255585860763834938e-01,-1.216060034900393605e-01
5.070000000000000062e-01,-4.129897246742634809e-01,-3.230104696525281094e-01,-1.447077647348696816e-01
5.080000000000000071e-01,-4.129544743423153030e-01,-2.519137964148902009e-01,-1.583855591451893141e-01
5.090000000000000080e-01,-4.466086712566980643e-01,-2.255729294195072121e-01,-1.864020321371202826e-01
5.100000000000000089e-01,-4.617211720778442996e-01,-1.913853931884919868e-01,-1.838276219673632694e-01
5.110000000000000098e-01,-4.598582267287170122e-01,-1.870214055095996142e-01,-2.358033491380719104e-01
5.120000000000000107e-01,-4.185102928700067393e-01,-1.273599095404681358e-01,-2.330812555690681409e-01
5.130000000000000115e-01,-4.134358062298754688e-01,-9.902721651797471991e-02,-2.090669688897087708e-01
5.140000000000000124e-01,-3.895155506733168349e-01,-7.696113719997323133e-02,-2.442844360483545085e-01
5.150000000000000133e-01,-3.385997653274352426e-01,-2.326735748134510506e-02,-2.625909859995317897e-01
5.160000000000000142e-01,-3.638198725833146630e-01,2.467710539823810348e-02,-2.638974658860299694e-01
5.170000000000000151e-01,-2.827637720042077141e-01,4.945862957790210512e-02,-2.546605855775044280e-01
5.180000000000000160e-01,-2.533797511810285674e-01,6.221584637985352884e-02,-2.828549808178643099e-01
5.190000000000000169e-01,-2.448046897537561328e-01,1.127142441489579622e-01,-2.798350614179678231e-01
5.200000000000000178e-01,-2.015111112965902451e-01,1.199391101628321799e-01,-2.302682427699281886e-01
5.210000000000000187e-01,-1.735250139253638191e-01,1.883800401907161914e-01,-2.228419802414450535e-01
5.220000000000000195e-01,-1.236803518851724987e-01,2.144923102679897331e-01,-2.215891069960759241e-01
5.230000000000000204e-01,-6.070782432228833542e-02,2.298093247057658717e-01,-2.242302601344051682e-01
5.240000000000000213e-01,1.218534195396974232e-02,2.665113265952150923e-01,-2.063097169431975797e-01
5.250000000000000222e-01,6.023124389496291309e-02,2.780836924803999355e-01,-1.788111809027045085e-01
5.260000000000000231e-01,9.915991856829549367e-02,2.753393967066220527e-01,-1.814274852606793942e-01
5.270000000000000240e-01,1.176408182181754164e-01,3.613405875130914491e-01,-1.508343012263679839e-01
5.280000000000000249e-01,1.856964598884078832e-01,3.514936620487009167e-01,-1.369188257716888735e-01
5.290000000000000258e-01,2.094552233210682790e-01,3.549360258360061970e-01,-1.284978065758317634e-01
5.300000000000000266e-01,2.665784120212865149e-01,3.592591605416023404e-01,-6.657101813774184140e-02
5.310000000000000275e-01,2.770475333945450203e-01,3.547501169318263980e-01,-9.755566398857043117e-03
5.320000000000000284e-01,3.451251071506551971e-01,3.881592425295465332e-01,-5.039970697004744066e-02
5.330000000000000293e-01,3.449142299990986538e-01,3.490931275404323131e-01,1.346668335648688875e-02
5.340000000000000302e-01,3.719335969474203418e-01,3.364968420776451308e-01,6.254798515465925801e-02
5.350000000000000311e-01,3.874291475299251886e-01,3.112285396776206525e-01,7.965594080709353930e-02
5.360000000000000320e-01,3.771133380036659211e-01,2.913694179045673294e-01,9.513286044443662604e-02
5.370000000000000329e-01,4.511141595924463843e-01,2.950422554619416271e-01,9.062891886323067026e-02
5.380000000000000338e-01,4.419883845383221210e-01,2.887826388717451009e-01,1.537836655464258351e-01
5.390000000000000346e-01,4.508004892250968565e-01,2.527008435357306348e-01,1.430665701276704338e-01
5.400000000000000355e-01,4.479767892444152522e-01,2.085013159023311746e-01,1.833406022609963548e-01
5.410000000000000364e-01,4.723547849124776765e-01,1.834640004115697665e-01,2.071881895668610529e-01
5.420000000000000373e-01,4.375556494997282497e-01,1.529294324569807073e-01,2.295761553589087955e-01
5.430000000000000382e-01,4.217222364255079903e-01,1.276375025404193064e-01,2.304613390873095635e-01
5.440000000000000391e-01,4.126993700821633970e-01,9.658396425856140277e-02,2.370244668227270979e-01
5.450000000000000400e-01,3.849142785376578058e-01,1.069430901367328379e-01,2.564465217523951845e-01
5.460000000000000409e-01,3.369335885856977186e-01,3.895800063534958588e-03,2.682925722782788513e-01
5.470000000000000417e-01,3.219459537573212127e-01,-1.307273979095028606e-02,2.598037642955791093e-01
5.480000000000000426e-01,3.056739257384091246e-01,-3.663189675236205173e-02,2.569630646445429378e-01
5.490000000000000435e-01,2.544274640232789264e-01,-5.904033873957059003e-02,2.608436204618516663e-01
5.500000000000000444e-01,2.101747893889254482e-01,-1.158997659081241333e-01,2.623330503171400485e-01
5.510000000000000453e-01,1.954224366767398358e-01,-1.672542430435281779e-01,2.409438407106173630e-01
5.520000000000000462e-01,1.781806173877510113e-01,-2.065579603584926371e-01,2.795141373600220636e-01
5.530000000000000471e-01,7.381566535582850808e-02,-2.407738020783961319e-01,2.351966599638743438e-01
5.540000000000000480e-01,2.816127167313677362e-02,-2.490148843086237851e-01,2.100385562872645884e-01
5.550000000000000488e-01,1.733275610325312605e-02,-2.820871457198710353e-01,2.165048079637846845e-01
5.560000000000000497e-01,-5.332322036437798368e-02,-3.383037040568138698e-01,1.752316848615343148e-01
5.570000000000000506e-01,-6.601302264780679885e-02,-3.089105819355127958e-01,1.725239766441242772e-01
5.580000000000000515e-01,-1.013084179481832103e-01,-3.042739869840307421e-01,1.510093754737750205e-01
5.590000000000000524e-01,-1.872922591561035632e-01,-3.312699233421476097e-01,1.239759942059701497e-01
5.600000000000000533e-01,-1.960143452953286847e-01,-3.792799886521626695e-01,8.146940635456338675e-02
5.610000000000000542e-01,-2.725680502050550347e-01,-3.792723245460521975e-01,9.293020998331810723e-02
5.620000000000000551e-01,-2.779687248028849256e-01,-3.729393701770404856e-01,3.017251566964658516e-02
5.629999999999999449e-01,-2.948502834564449282e-01,-3.416458308430788682e-01,-6.778843933671219874e-03
5.639999999999999458e-01,-3.565915874389880558e-01,-3.591888817305127768e-01,-5.297638532891356389e-03
5.649999999999999467e-01,-3.794570564349045716e-01,-3.410760659112885285e-01,-5.737358889533750866e-02
5.659999999999999476e-01,-4.161845276356687662e-01,-3.267664029519933289e-01,-6.197020628864407382e-02
5.669999999999999485e-01,-4.518616138884970490e-01,-2.906692914050046928e-01,-7.205121086946957021e-02
5.679999999999999494e-01,-4.072249215827153379e-01,-2.692069459098688222e-01,-7.636368230404583235e-02
5.689999999999999503e-01,-4.221282944043033836e-01,-2.955006715297791575e-01,-1.165612949288695743e-01
5.699999999999999512e-01,-4.378860696587856260e-01,-2.340118208205753114e-01,-1.378709110462457976e-01
5.709999999999999520e-01,-4.865857061751740487e-01,-2.373583980064876420e-01,-1.412316879999291896e-01
5.719999999999999529e-01,-4.583712725061038773e-01,-1.506672414591150866e-01,-1.908626488638784924e-01
5.729999999999999538e-01,-4.386845320037100482e-01,-1.400030564720042003e-01,-2.420224474231257861e-01
5.739999999999999547e-01,-3.886696381443587867e-01,-1.110327373444350285e-01,-2.463654197261278822e-01
5.749999999999999556e-01,-3.979875885718195394e-01,-4.235757106629964297e-02,-2.177111110919477677e-01
5.759999999999999565e-01,-3.652582513117674234e-01,-4.748571726493881068e-02,-2.555443062838189672e-01
5.769999999999999574e-01,-3.736577230233099622e-01,8.314473408324985979e-03,-2.625714425559569909e-01
5.779999999999999583e-01,-3.254003453059988171e-01,8.247049625669729267e-02,-2.562803725842178193e-01
5.789999999999999591e-01,-3.056455671945802477e-01,8.283472556073527560e-02,-3.035148373337848149e-01
5.799999999999999600e-01,-2.532943387065473284e-01,1.020293783495775652e-01,-2.685338333976698411e-01
5.809999999999999609e-01,-2.131572863609923207e-01,1.389068282399663345e-01,-2.644086186659639903e-01
5.819999999999999618e-01,-1.853523594037504718e-01,1.605491648353380985e-01,-2.926510045244012370e-01
5.829999999999999627e-01,-1.732631085548374250e-01,1.882833211981977950e-01,-2.327181248160154203e-01
5.839999999999999636e-01,-9.412960226297890920e-02,2.188399140843730328e-01,-2.568952025372490677e-01
5.849999999999999645e-01,-3.301708068906366450e-02,2.871457407473942958e-01,-1.822891604262061871e-01
5.859999999999999654e-01,-1.975820372258358174e-02,2.860597077503967411e-01,-2.171157261622025103e-01
5.869999999999999662e-01,4.962061917381885984e-02,2.902980853247517090e-01,-1.897130773831993134e-01
5.879999999999999671e-01,8.431805012705301250e-02,3.229002245111828873e-01,-1.865711647480012836e-01
5.889999999999999680e-01,1.199258316992313084e-01,2.936878339925423909e-01,-1.110859075545567037e-01
5.899999999999999689e-01,1.503697329331418475e-01,3.711842876572102878e-01,-1.319323541455283133e-01
5.909999999999999698e-01,2.097991395086180599e-01,3.481769775893770458e-01,-9.783660346000959407e-02
5.919999999999999707e-01,2.510747071814830589e-01,3.265541964425749955e-01,-8.352509255436363356e-02
5.929999999999999716e-01,3.177874802848132396e-01,3.389624239343242973e-01,-6.199575180892504672e-02
5.939999999999999725e-01,2.778107709769728761e-01,3.444457023700023823e-01,3.911608448819024059e-03
5.949999999999999734e-01,3.881065065925873858e-01,3.426339310252030645e-01,8.550853937838749988e-03
5.959999999999999742e-01,4.035805330726612294e-01,3.197312020325824289e-01,2.014630261289224178e-02
5.969999999999999751e-01,4.117132087280189201e-01,2.803948146746952919e-01,6.873577486122735281e-02
5.979999999999999760e-01,4.109373886003414578e-01,3.042110094589650093e-01,3.711440391731381933e-02
5.989999999999999769e-01,4.310331169835661114e-01,2.521575625453982838e-01,1.005198779677707460e-01
5.999999999999999778e-01,4.612056769254467836e-01,2.582066227634782218e-01,1.041183316608890880e-01
6.009999999999999787e-01,4.071005367274319608e-01,2.003299468748022394e-01,1.373008108995552867e-01
6.019999999999999796e-01,4.463246604943517659e-01,1.952267012849954464e-01,2.011340069404949082e-01
6.029999999999999805e-01,4.271961676755697823e-01,1.649087459584408777e-01,2.389953300211520582e-01
6.039999999999999813e-01,4.252214876663425458e-01,1.388800701807097193e-01,2.052265020260976847e-01
6.049999999999999822e-01,4.234379196522367050e-01,8.716540657954019444e-02,2.024751372163011154e-01
6.059999999999999831e-01,4.171525605414417304e-01,7.411979322989381558e-02,1.935970595488011592e-01
6.069999999999999840e-01,3.923879182216863382e-01,1.583459489378663543e-02,3.067118891197174180e-01
6.079999999999999849e-01,3.898780508487839636e-01,-2.124086743574767414e-02,2.341622005369263237e-01
6.089999999999999858e-01,3.185698601606896663e-01,-3.664635628998805933e-02,2.586342787222694062e-01
6.099999999999999867e-01,2.856094587865741219e-01,-6.315677779810002779e-02,2.841838370410446624e-01
6.109999999999999876e-01,2.446450638613359707e-01,-1.246248627876679060e-01,2.865415181643592435e-01
6.119999999999999885e-01,2.104997718847530508e-01,-1.544095452588963024e-01,2.493430659388005122e-01
6.129999999999999893e-01,1.436132502391533894e-01,-1.655845899225346085e-01,2.838824199265986281e-01
6.139999999999999902e-01,1.435417582006267567e-01,-2.233649156183083184e-01,2.581930368945554721e-01
6.149999999999999911e-01,9.379869638308169222e-02,-2.341747760966342295e-01,2.375430728464965890e-01
6.159999999999999920e-01,8.299565601206038146e-02,-2.610115400545620634e-01,2.312847973118043465e-01
6.169999999999999929e-01,-7.519636368837892201e-03,-2.582079453739658526e-01,2.143501200683689545e-01
6.179999999999999938e-01,-5.756613328743637181e-02,-3.196246564664147471e-01,2.113937661604836371e-01
6.189999999999999947e-01,-1.233954441000029295e-01,-3.054184396257118017e-01,1.750560554835170202e-01
6.199999999999999956e-01,-1.336044658303150168e-01,-3.966991380761923924e-01,1.813526926712659970e-01
6.209999999999999964e-01,-1.342432500230186787e-01,-3.591044287889428865e-01,1.047448749022911046e-01
6.219999999999999973e-01,-2.089455397632063172e-01,-3.344176474890031003e-01,1.411888065458554165e-01
6.229999999999999982e-01,-2.540459536056059453e-01,-3.029665465084935838e-01,8.790984705091366147e-02
6.239999999999999991e-01,-2.712486953385605526e-01,-3.623988134526524019e-01,5.238439493024979465e-02
6.250000000000000000e-01,-3.458936981985829551e-01,-3.411863853342660402e-01,2.160390396484530851e-02
6.260000000000000009e-01,-3.367429614780057534e-01,-3.199111342690497684e-01,2.082340724249696559e-02
6.270000000000000018e-01,-3.808516652314809514e-01,-3.271225719834885415e-01,-3.100716682680640379e-02
6.280000000000000027e-01,-4.135301469375277650e-01,-3.061356270882268360e-01,-8.392738463578842956e-02
6.290000000000000036e-01,-4.470467700064400529e-01,-2.598739159316645342e-01,-8.064646535746430867e-02
6.300000000000000044e-01,-4.247688374169049097e-01,-2.499850103969283865e-01,-1.008243241931505857e-01
6.310000000000000053e-01,-4.412752238221011591e-01,-2.585612060696944603e-01,-1.362640051285136100e-01
6.320000000000000062e-01,-4.082900726043464656e-01,-2.104751173850689383e-01,-1.680995681253641127e-01
6.330000000000000071e-01,-4.545960802762062936e-01,-1.557182500286545812e-01,-2.024077009423217999e-01
6.340000000000000080e-01,-4.401213527940023851e-01,-1.674925849408226974e-01,-1.563319860249678117e-01
6.350000000000000089e-01,-4.168520177994110010e-01,-1.074641680349710943e-01,-2.100078987945514786e-01
6.360000000000000098e-01,-4.570407568613780724e-01,-7.195104457081918925e-02,-2.166487393367951819e-01
6.370000000000000107e-01,-3.978252720676331289e-01,-7.905729848046356978e-02,-2.637553848191370176e-01
6.380000000000000115e-01,-3.469257005663592963e-01,-1.991963874217139024e-02,-2.373968655092802693e-01
6.390000000000000124e-01,-3.468658902332497074e-01,4.381427386300033866e-02,-2.513442962524474744e-01
6.400000000000000133e-01,-3.095614894967410047e-01,4.076463452683024014e-02,-2.616718496495035740e-01
6.410000000000000142e-01,-2.909986461473281216e-01,1.344545959162433413e-01,-2.549150137692573481e-01
6.420000000000000151e-01,-2.417819428170032425e-01,1.293760874770380209e-01,-2.990536786115874368e-01
6.430000000000000160e-01,-1.990683676203063024e-01,1.716725790253494366e-01,-2.772954309592786659e-01
6.440000000000000169e-01,-1.579499672837821889e-01,2.009686432989432614e-01,-2.867292157817420972e-01
6.450000000000000178e-01,-1.042040816755313570e-01,2.302881091967337313e-01,-2.275516604032304657e-01
6.460000000000000187e-01,-7.261963852746594617e-02,2.521887353123317688e-01,-2.790454315705252486e-01
6.470000000000000195e-01,-6.437014026769168062e-02,2.738340220996762775e-01,-2.406471670635228211e-01
6.480000000000000204e-01,3.630869580807028884e-03,2.719791905001799903e-01,-2.191908305323382045e-01
6.490000000000000213e-01,3.313876588127960543e-02,3.052266354284230987e-01,-1.751092405480223213e-01
6.500000000000000222e-01,8.399831709536990931e-02,3.372489409250582493e-01,-1.789833860889605832e-01
6.510000000000000231e-01,1.479516870588577226e-01,3.422558279451302643e-01,-1.449715946823251500e-01
6.520000000000000240e-01,2.117646970225857961e-01,3.544576305886136813e-01,-1.518336638014667617e-01
6.530000000000000249e-01,2.391254461731836811e-01,3.407043384416654219e-01,-8.495233427859534558e-02
6.540000000000000258e-01,2.686652694146641207e-01,3.748788112039299070e-01,-1.172155507104247485e-01
6.550000000000000266e-01,2.634130676160090778e-01,3.436318486893712443e-01,-8.873762702630089150e-02
6.560000000000000275e-01,3.272911592094218669e-01,3.201731783650001995e-01,-5.896505326569934091e-02
6.570000000000000284e-01,3.670874731971174310e-01,3.560880424020154700e-01,-2.597363940046900493e-02
6.580000000000000293e-01,3.883101797411286915e-01,3.237652504713244284e-01,1.148362843547162844e-02
6.590000000000000302e-01,4.231765511140350156e-01,3.038161858598648069e-01,1.366225879873109866e-02
6.600000000000000311e-01,4.495851609797923421e-01,2.923392022562008030e-01,7.650932532687275411e-02
6.610000000000000320e-01,4.317139190688457084e-01,2.580219276139170126e-01,1.119136167340193944e-01
6.620000000000000329e-01,4.507121234664057674e-01,2.305744788014399138e-01,1.117404721534947520e-01
6.630000000000000338e-01,4.641857030902631909e-01,1.921731671039157985e-01,1.447497376534819524e-01
6.640000000000000346e-01,4.591021086198627255e-01,1.469578026660601777e-01,1.721619265971872925e-01
6.650000000000000355e-01,4.400417611006305907e-01,9.997327253979061690e-02,1.813725831081502426e-01
6.660000000000000364e-01,4.085992000515459854e-01,1.347412861024829267e-01,1.901001495154584775e-01
6.670000000000000373e-01,4.038101549736117235e-01,9.330591194089082885e-02,2.132617578893405419e-01
6.680000000000000382e-01,4.332374588983845531e-01,3.076732145671524574e-02,2.174520882909824482e-01
6.690000000000000391e-01,3.871059191145311829e-01,5.302044095499544368e-04,2.464312531553332075e-01
6.700000000000000400e-01,3.600562912051557540e-01,-8.381840621980643849e-03,2.687146311015812250e-01
6.710000000000000409e-01,3.325514896352131378e-01,-8.304235571272179650e-02,2.699059426937863715e-01
6.720000000000000417e-01,2.693114435624064384e-01,-1.110660420903082646e-01,2.561927113380742527e-01
6.730000000000000426e-01,2.503812354642562243e-01,-1.298106729878395760e-01,2.501912075265795288e-01
6.740000000000000435e-01,1.976146957006981730e-01,-2.134404496998421330e-01,3.070428939067124108e-01
6.750000000000000444e-01,1.274279006497054390e-01,-2.108103282488730801e-01,2.463249408380352445e-01
6.760000000000000453e-01,1.140896935213247393e-01,-2.756133525875772428e-01,2.616190991467833293e-01
6.770000000000000462e-01,7.152074648899098275e-02,-2.724822080487742659e-01,2.738176313586734856e-01
6.780000000000000471e-01,2.145632387649061210e-02,-3.253910135377245383e-01,2.752267438314028314e-01
6.790000000000000480e-01,-2.955193416777084775e-02,-2.889079078561146985e-01,1.950444953455755803e-01
6.800000000000000488e-01,-3.983994316790621937e-02,-3.153609270693044642e-01,1.923050997845852095e-01
6.810000000000000497e-01,-1.194492220158079043e-01,-3.406371906472054345e-01,1.798760870468915918e-01
6.820000000000000506e-01,-1.788362190788739814e-01,-3.388485627491830687e-01,1.636576626869954976e-01
6.830000000000000515e-01,-2.221434555771541475e-01,-3.748792370382498240e-01,1.636486923915801417e-01
6.840000000000000524e-01,-2.278152705596070415e-01,-3.689038367657650475e-01,1.258803494546270885e-01
6.850000000000000533e-01,-2.595598990518088733e-01,-3.539694481162112272e-01,3.428917014534760277e-02
6.860000000000000542e-01,-2.911520699672431323e-01,-3.411929140392669368e-01,4.216826761533410545e-02
6.870000000000000551e-01,-3.307501855127443768e-01,-3.250722452872983892e-01,1.974869237415430648e-02
6.879999999999999449e-01,-3.529097537472510315e-01,-3.240086841421001562e-01,3.147461578897112373e-03
6.889999999999999458e-01,-4.141495271422060975e-01,-3.172424064104848451e-01,2.313734199264761912e-02
6.899999999999999467e-01,-3.972378798562370417e-01,-2.913120411665607867e-01,-1.906508878382384004e-02
6.909999999999999476e-01,-4.282161801780444144e-01,-2.561410408016915885e-01,-6.645308064834824779e-02
6.919999999999999485e-01,-4.396573189377531166e-01,-2.246570417180961399e-01,-7.692339980184524639e-02
6.929999999999999494e-01,-4.293210634747671728e-01,-2.151383849473793297e-01,-1.302593619473844111e-01
6.939999999999999503e-01,-4.688836240510574904e-01,-2.049872751319098962e-01,-1.375259497353391314e-01
6.949999999999999512e-01,-4.722716796037683684e-01,-1.415071276443888859e-01,-1.596881494789847977e-01
6.959999999999999520e-01,-4.389844175154251071e-01,-1.086517151322888841e-01,-1.865782603163877729e-01
6.969999999999999529e-01,-4.147641772562142837e-01,-7.535113214628740008e-02,-2.288566944836162298e-01
6.979999999999999538e-01,-3.902126780364758019e-01,-3.039855914331017483e-02,-1.994163630363846862e-01
6.989999999999999547e-01,-4.075784440351414850e-01,9.714200659435326098e-04,-2.163289120393075970e-01
6.999999999999999556e-01,-3.563565230123244554e-01,2.800377868690602512e-02,-2.535700531069096098e-01
7.009999999999999565e-01,-3.052650575896416751e-01,8.409730929076054962e-02,-2.515633587601933119e-01
7.019999999999999574e-01,-3.094966182102603658e-01,1.008788897938640572e-01,-2.361945931839864732e-01
7.029999999999999583e-01,-2.325897292683792028e-01,1.117240600803165451e-01,-2.563271780166044289e-01
7.039999999999999591e-01,-2.323744223153133281e-01,1.731406779706269883e-01,-2.465926028641521051e-01
7.049999999999999600e-01,-1.807601352893252744e-01,1.678390258274855273e-01,-2.640267478276435709e-01
7.059999999999999609e-01,-1.590392058956074384e-01,2.166261792529435848e-01,-2.243395754172252399e-01
7.069999999999999618e-01,-9.578808597586352391e-02,2.730703590493344657e-01,-2.594700346448256534e-01
7.079999999999999627e-01,-8.758319744126220885e-02,3.209574526693736440e-01,-2.497102615985628826e-01
7.089999999999999636e-01,-3.043904631139960140e-02,2.978239709119874790e-01,-2.836806843010991619e-01
7.099999999999999645e-01,7.407900418266695486e-02,3.195648682729501089e-01,-2.199284188942587093e-01
7.109999999999999654e-01,8.884504129170535391e-02,3.618730178407132958e-01,-2.137379946191816926e-01
7.119999999999999662e-01,1.155040322008892006e-01,3.283299223042377424e-01,-1.799795228541773706e-01
7.129999999999999671e-01,1.754310749442777040e-01,3.188994527849627891e-01,-1.619301456685870444e-01
7.139999999999999680e-01,2.146484679145245489e-01,3.490303950274568634e-01,-1.349859128808914566e-01
7.149999999999999689e-01,2.815758474721437032e-01,3.366166333517482956e-01,-1.303922570110398194e-01
7.159999999999999698e-01,2.430432712409452412e-01,3.374469703785946129e-01,-6.425951528060927509e-02
7.169999999999999707e-01,3.046778340672026686e-01,3.651051210217511334e-01,-1.295653582683400640e-01
7.179999999999999716e-01,3.233013117143734294e-01,3.118600422186307286e-01,-3.611591092422003491e-02
7.189999999999999725e-01,3.859049152806089400e-01,3.445735472755517836e-01,-1.936821307679858009e-02
7.199999999999999734e-01,3.832936705733172023e-01,2.703447382316402359e-01,2.135645436798894528e-02
7.209999999999999742e-01,4.008052186879669243e-01,3.006911092900899640e-01,5.195153880241051153e-02
7.219999999999999751e-01,3.885247823508528597e-01,2.826729977279141548e-01,7.809289204020099240e-02
7.229999999999999760e-01,4.485428305260991677e-01,2.189343868463801135e-01,9.576180952699940574e-02
7.239999999999999769e-01,4.572113439044154237e-01,1.986295181193329651e-01,1.070342013783591173e-01
7.249999999999999778e-01,4.408727813723627986e-01,1.647258745388653356e-01,1.266200524334755162e-01
7.259999999999999787e-01,4.463812686990021872e-01,1.360862508772212320e-01,1.416712940885979655e-01
7.269999999999999796e-01,4.540207115588682507e-01,8.480898121849586579e-02,1.618043225027065157e-01
7.279999999999999805e-01,4.715081416043575557e-01,6.671759688523548615e-02,2.128475749077949064e-01
7.289999999999999813e-01,3.832553993676709458e-01,2.521813147006606373e-02,2.742269279348388267e-01
7.299999999999999822e-01,3.457299639592317786e-01,-8.677689026358717875e-03,2.305001813694499413e-01
7.309999999999999831e-01,3.517442941416707436e-01,-5.163694723041761109e-02,2.292998122946985073e-01
7.319999999999999840e-01,3.283804467298374608e-01,-6.870028478373611802e-02,2.380797066306124254e-01
7.329999999999999849e-01,2.693650203769425433e-01,-1.175983937102356713e-01,2.327444799635830230e-01
7.339999999999999858e-01,2.638819647492793852e-01,-1.411486955683554090e-01,2.361049743550751312e-01
7.349999999999999867e-01,2.213466416275439164e-01,-2.001102295565448663e-01,2.748867984124157005e-01
7.359999999999999876e-01,1.805924484424089038e-01,-2.063910088182125124e-01,2.557251175809547306e-01
7.369999999999999885e-01,1.243390040585052592e-01,-2.191662534806441409e-01,2.851110528063985905e-01
7.379999999999999893e-01,9.823271337643181556e-02,-2.626171657723381792e-01,2.125525626369367815e-01
7.389999999999999902e-01,4.425405451118741285e-02,-3.208987766162409994e-01,2.374775107184478595e-01
7.399999999999999911e-01,-3.647851303061359993e-03,-3.020073808334644561e-01,2.394316929719614573e-01
7.409999999999999920e-01,-5.343012316490373947e-02,-3.306537289128378965e-01,2.318942837926918354e-01
7.419999999999999929e-01,-5.608055119741849059e-02,-3.498438699460946766e-01,2.051774146654473663e-01
7.429999999999999938e-01,-7.155269652643947431e-02,-3.427221255154724311e-01,1.999196929355699648e-01
7.439999999999999947e-01,-1.591453150706187147e-01,-3.766531983873669942e-01,1.902927116358983650e-01
7.449999999999999956e-01,-2.279636629089077660e-01,-3.442418111511934553e-01,1.573984835720026176e-01
7.459999999999999964e-01,-2.401956839471623695e-01,-3.336946949760431491e-01,1.329243228564540580e-01
7.469999999999999973e-01,-2.908534297736214969e-01,-3.137947219577831848e-01,1.081627774468802566e-01
7.479999999999999982e-01,-3.601741454554654998e-01,-3.272852302751417253e-01,8.077833122524809284e-02
7.489999999999999991e-01,-3.424572312133281060e-01,-3.006029531916343256e-01,5.643779072052410029e-02
7.500000000000000000e-01,-3.983749011775675197e-01,-2.888371390747022094e-01,3.046834507226390751e-02
7.510000000000000009e-01,-3.948838650616676715e-01,-3.077132046977308355e-01,-1.715413684699145305e-02
7.520000000000000018e-01,-4.162435673121441804e-01,-3.048831407565979479e-01,-4.090473580024758804e-02
7.530000000000000027e-01,-4.068041250515537777e-01,-2.510265418443903274e-01,-6.171176355194264024e-02
7.540000000000000036e-01,-4.500101529283742074e-01,-1.718378984836258783e-01,-1.285858268508644209e-01
7.550000000000000044e-01,-4.557111418004811121e-01,-1.856616643489782947e-01,-1.179537670254950793e-01
7.560000000000000053e-01,-4.514925921863424674e-01,-1.495931846364499940e-01,-1.179684721219080579e-01
7.570000000000000062e-01,-4.506652233209303970e-01,-1.170831692533918778e-01,-9.223722626367836241e-02
7.580000000000000071e-01,-4.262902541668419643e-01,-7.078859815751158135e-02,-1.490696604088872224e-01
7.590000000000000080e-01,-4.372433615237282800e-01,-8.991263605614360777e-02,-1.885786554677513494e-01
7.600000000000000089e-01,-3.916887210100459260e-01,-2.411491099438497002e-02,-2.162531824657765722e-01
7.610000000000000098e-01,-3.589707341340350744e-01,1.519097515890170322e-02,-2.452112344123024978e-01
7.620000000000000107e-01,-3.323951490869351821e-01,4.229842015463556454e-02,-2.325035728650068079e-01
7.630000000000000115e-01,-3.367216181958482824e-01,1.098923233859563642e-01,-2.393815198802057842e-01
7.640000000000000124e-01,-2.712061866878388572e-01,1.328155200114146950e-01,-2.646360264929231154e-01
7.650000000000000133e-01,-2.877452653365117352e-01,1.555706812216683943e-01,-3.003963461150289671e-01
7.660000000000000142e-01,-2.095858161810586484e-01,2.199152230476535130e-01,-2.971199514154536092e-01
7.670000000000000151e-01,-1.874786215672355205e-01,2.145814019425464347e-01,-2.573146264496917190e-01
7.680000000000000160e-01,-1.638596277833047898e-01,2.388840330174563653e-01,-2.578637070090319394e-01
7.690000000000000169e-01,-9.356304841434714969e-02,2.719863449372355579e-01,-2.870654221942364193e-01
7.700000000000000178e-01,-4.002041880619938014e-02,2.825224965209128802e-01,-2.781105872834382930e-01
7.710000000000000187e-01,-2.065460953751698664e-02,3.352789987115007420e-01,-2.322807807592478235e-01
7.720000000000000195e-01,4.897668682600062745e-02,3.323356441259133209e-01,-1.998477266266103780e-01
7.730000000000000204e-01,8.624167932569272443e-02,3.309036268200651887e-01,-1.979961894611755313e-01
7.740000000000000213e-01,1.278220714436895389e-01,3.605074825531816574e-01,-2.229356751661917824e-01
7.750000000000000222e-01,1.836186823211420349e-01,3.568898854730067627e-01,-1.780137403494002346e-01
7.760000000000000231e-01,2.350072351817417970e-01,3.699037693135941995e-01,-1.923028778138601014e-01
7.770000000000000240e-01,2.054598531418771745e-01,3.496319181340322158e-01,-1.229380177371742905e-01
7.780000000000000249e-01,2.507410752432708834e-01,3.668403722002592238e-01,-7.628775881952111482e-02
7.790000000000000258e-01,3.325638336751999824e-01,3.318131427180946447e-01,-1.090709096860562194e-01
7.800000000000000266e-01,3.670773772009470193e-01,3.419507047731976113e-01,-7.150620977529260902e-02
7.810000000000000275e-01,3.940638988161794809e-01,3.103073300735854079e-01,-6.188059588652652238e-02
7.820000000000000284e-01,4.073298229132438220e-01,2.691116444407754549e-01,-8.653651657559390670e-03
7.830000000000000293e-01,4.081919763456250405e-01,3.042723017665193708e-01,2.154510582497825080e-02
7.840000000000000302e-01,4.476876086371008867e-01,2.740808671568091825e-01,4.240632843822523396e-02
7.850000000000000311e-01,4.471025090910989430e-01,1.628107906456993659e-01,7.084689897219630106e-02
7.860000000000000320e-01,4.254819104516209261e-01,2.034832821611884113e-01,1.181218980584312628e-01
7.870000000000000329e-01,4.592141339528739152e-01,1.416493676071595709e-01,1.530104108923905359e-01
7.880000000000000338e-01,4.471027934236171952e-01,8.382665006755304904e-02,1.286481698775027438e-01
7.890000000000000346e-01,4.251277409558482656e-01,8.192880265451986388e-02,1.903221448131174331e-01
7.900000000000000355e-01,4.127854575589975372e-01,3.424789493057871920e-02,1.523694535040214515e-01
7.910000000000000364e-01,4.086243092192054505e-01,4.156901424999168843e-03,1.949243750928145169e-01
7.920000000000000373e-01,3.742006772440739648e-01,-3.501778430281215354e-02,2.442972364964593468e-01
7.930000000000000382e-01,3.433453692681821545e-01,-7.566242198614125947e-02,2.394553480798218836e-01
7.940000000000000391e-01,2.831293729716877761e-01,-1.096157673267367100e-01,2.348206015265046631e-01
7.950000000000000400e-01,3.240001894840192631e-01,-1.558783362382216986e-01,2.791361773102146726e-01
7.960000000000000409e-01,2.789383484183415307e-01,-1.961872764013325443e-01,2.566323043340673626e-01
7.970000000000000417e-01,1.800742811615122785e-01,-2.250480582212749936e-01,3.186870993431973886e-01
7.980000000000000426e-01,1.501107016718679354e-01,-2.389502470461070949e-01,2.605559917429676742e-01
7.990000000000000435e-01,1.182555247877189741e-01,-2.854112847140964915e-01,2.840933031871172298e-01
8.000000000000000444e-01,6.703450797242857528e-02,-2.820926465759102109e-01,2.519540433634549492e-01
8.010000000000000453e-01,5.082821388180049776e-02,-3.196268011609280091e-01,2.703468043241498697e-01
8.020000000000000462e-01,-1.696756133001330047e-02,-3.559553717444921550e-01,2.470540106324825846e-01
8.030000000000000471e-01,-7.123437752083189300e-02,-3.092218874797804107e-01,1.834431168880664986e-01
8.040000000000000480e-01,-9.399392580246371254e-02,-3.658507828633006942e-01,2.367963733110321489e-01
8.050000000000000488e-01,-1.545365425917580304e-01,-3.378836515258161755e-01,2.379188850699165136e-01
8.060000000000000497e-01,-1.996011546854382646e-01,-3.450685313730411097e-01,1.752170299691463706e-01
8.070000000000000506e-01,-1.982618244079697722e-01,-3.557347092297772351e-01,1.515390266730299029e-01
8.080000000000000515e-01,-2.428079237073794694e-01,-3.648842507693128567e-01,1.098547109298678298e-01
8.090000000000000524e-01,-2.956609751065486513e-01,-3.506586150763320031e-01,1.099916817352393494e-01
8.100000000000000533e-01,-3.486855986849474731e-01,-3.312680375848735537e-01,6.642671382177613160e-02
8.110000000000000542e-01,-3.516429744507278965e-01,-3.068823586004204018e-01,5.720474272867590720e-02
8.120000000000000551e-01,-3.694076742831379212e-01,-3.192414121567729302e-01,-7.174381618559928396e-04
8.129999999999999449e-01,-3.964227713262016839e-01,-2.540572344224388823e-01,2.149993237519251185e-02
8.139999999999999458e-01,-4.026289303348029036e-01,-2.351728953081392015e-01,-5.878748493172165912e-02
8.149999999999999467e-01,-4.083084316352857401e-01,-2.162812779008890240e-01,-6.871468730098520203e-03
8.159999999999999476e-01,-4.726633816052490111e-01,-1.951449450378441863e-01,-5.987324656872838879e-02
8.169999999999999485e-01,-4.690361886278166526e-01,-1.080110341032068932e-01,-8.482632738314270504e-02
8.179999999999999494e-01,-4.509632516528794821e-01,-8.154692344668119930e-02,-1.305785718673670159e-01
8.189999999999999503e-01,-4.628433801441771966e-01,-1.131361749594101129e-01,-1.351331086089484768e-01
8.199999999999999512e-01,-4.336777007868918843e-01,-3.647687938403496727e-02,-1.826467749794442319e-01
8.209999999999999520e-01,-4.373848601390741275e-01,-1.597618015910825737e-02,-1.606735706631381155e-01
8.219999999999999529e-01,-3.884750676939605074e-01,-1.495473089440090865e-02,-2.227009604578689128e-01
8.229999999999999538e-01,-3.518146262676866698e-01,4.040323244566173394e-02,-2.557959381710712132e-01
8.239999999999999547e-01,-3.405767995014685745e-01,9.545801621750188426e-02,-2.705257861072528636e-01
8.249999999999999556e-01,-2.833153674399172539e-01,1.219968736230491596e-01,-2.359031174617932380e-01
8.259999999999999565e-01,-2.814620014088703992e-01,1.449391610378633344e-01,-2.597499970751826481e-01
8.269999999999999574e-01,-2.333603370241086605e-01,2.031066764010417691e-01,-2.918935780621979559e-01
8.279999999999999583e-01,-1.900953576646826626e-01,2.108425184601068481e-01,-2.473181674089137694e-01
8.289999999999999591e-01,-1.767648020470778125e-01,2.309015614767682967e-01,-2.796858316592225613e-01
8.299999999999999600e-01,-6.325169844938466346e-02,2.921400239561468548e-01,-2.220687543967259370e-01
8.309999999999999609e-01,-8.065905275511923989e-02,3.054949350008737685e-01,-2.723721104017838845e-01
8.319999999999999618e-01,-4.034217809421016682e-02,3.352444136816153386e-01,-2.666096998292952769e-01
8.329999999999999627e-01,4.471110208030999039e-03,3.642048750901060172e-01,-2.392622288862103763e-01
8.339999999999999636e-01,5.774143034294484250e-02,3.573231487901298298e-01,-2.116441495105509107e-01
8.349999999999999645e-01,9.164283026169393886e-02,3.108384628449855080e-01,-1.705636535937665177e-01
8.359999999999999654e-01,1.225518911553283991e-01,3.545455471235611222e-01,-1.597107187710614384e-01
8.369999999999999662e-01,1.813752129787326861e-01,3.601035043406091152e-01,-2.123530362387395509e-01
8.379999999999999671e-01,1.987812928177872529e-01,3.786587209553408662e-01,-1.711327935834767167e-01
8.389999999999999680e-01,2.378597859381430257e-01,3.285417128810967924e-01,-1.327998053279590696e-01
8.399999999999999689e-01,2.831028488532574827e-01,2.933742735661657441e-01,-1.320387821168254039e-01
8.409999999999999698e-01,3.438705410147639974e-01,3.241085765582565892e-01,-6.751669184899973530e-02
8.419999999999999707e-01,3.907846267893558823e-01,3.063131416431389975e-01,-3.594349170391804987e-02
8.429999999999999716e-01,3.881257393504485842e-01,3.082600925142843784e-01,-2.601201753954590981e-02
8.439999999999999725e-01,3.896425211381373543e-01,2.782388859100551892e-01,3.587753050340203743e-04
8.449999999999999734e-01,4.236251695157235431e-01,2.395207334187763049e-01,-5.220639763442495862e-03
8.459999999999999742e-01,4.564714131217841864e-01,2.033239620792204327e-01,4.195879227689722907e-02
8.469999999999999751e-01,4.315897691765379629e-01,1.719755109414997651e-01,8.302330460321312444e-03
8.479999999999999760e-01,4.700228624063935712e-01,1.317269465601044187e-01,1.079159286647557864e-01
8.489999999999999769e-01,4.229769511332831522e-01,8.763418357514385360e-02,1.437037675092422417e-01
8.499999999999999778e-01,4.242440168058841943e-01,9.188097594479593955e-02,1.723283196687633856e-01
8.509999999999999787e-01,4.353503032350337643e-01,3.960295228835865322e-02,1.628168539862485109e-01
8.519999999999999796e-01,4.139857751839906008e-01,2.490206736683749783e-02,1.979200131055555978e-01
8.529999999999999805e-01,4.200951633885057768e-01,-4.550397657524204997e-02,2.213764741685638748e-01
8.539999999999999813e-01,3.576816957773450434e-01,-1.030824431106677069e-01,2.370185130444264210e-01
8.549999999999999822e-01,3.350123910731475085e-01,-1.284912655388860958e-01,2.404498434033064957e-01
8.559999999999999831e-01,3.372049995337910722e-01,-1.599860548856190667e-01,2.457971160346893724e-01
8.569999999999999840e-01,3.231112120622144368e-01,-1.512357191425230674e-01,2.710541566995723906e-01
8.579999999999999849e-01,2.070915008117435452e-01,-1.978611038323036531e-01,2.923268720740567761e-01
8.589999999999999858e-01,2.269374895623268440e-01,-2.306963082402947729e-01,2.486515452023136119e-01
8.599999999999999867e-01,1.451761502345912946e-01,-2.655610466839134487e-01,2.605869336961876281e-01
8.609999999999999876e-01,1.438157812384783796e-01,-2.912193893304687586e-01,2.774362876281551427e-01
8.619999999999999885e-01,9.175015180394141545e-02,-3.419917169126556189e-01,2.180452242721854228e-01
8.629999999999999893e-01,3.118876880469503496e-02,-3.229212259287457254e-01,2.153313339767802259e-01
8.639999999999999902e-01,-2.284569693831617343e-03,-3.637525749352859550e-01,2.486990563059211234e-01
8.649999999999999911e-01,-8.721975890578655133e-02,-3.237153341679169238e-01,2.249573897738089967e-01
8.659999999999999920e-01,-7.083057005875303958e-02,-3.651350406498620749e-01,1.911874714868680991e-01
8.669999999999999929e-01,-1.966054131314571296e-01,-3.632401362154802360e-01,2.254520678361554564e-01
8.679999999999999938e-01,-2.235019436640124924e-01,-3.679237124800439074e-01,1.979120133126740233e-01
8.689999999999999947e-01,-2.309037925755574316e-01,-3.653717575617890789e-01,1.898098105572200434e-01
8.699999999999999956e-01,-2.309657621801843030e-01,-3.159859851027569388e-01,1.255401718056496085e-01
8.709999999999999964e-01,-3.167090287887562861e-01,-3.120154515280739727e-01,1.055925248187766646e-01
8.719999999999999973e-01,-3.317250917100064145e-01,-3.136263792098274439e-01,7.989207568153973427e-02
8.729999999999999982e-01,-3.635161665489421434e-01,-2.906566779161343095e-01,6.777740138578733364e-02
8.739999999999999991e-01,-3.967765247867228173e-01,-2.870090787268335109e-01,6.042937535693640450e-02
8.750000000000000000e-01,-4.223196152938888948e-01,-2.563792691887738506e-01,1.742771432557403688e-02
8.760000000000000009e-01,-4.430091599979882333e-01,-2.279573872676426693e-01,6.235184329720556799e-03
8.770000000000000018e-01,-4.227219684182974002e-01,-2.098594442508825708e-01,-4.977243925627431592e-02
8.780000000000000027e-01,-4.573828229706238258e-01,-1.830279797271046061e-01,-7.478003943121855346e-02
8.790000000000000036e-01,-4.462059454313804241e-01,-1.235472277762337812e-01,-5.364875757592497962e-02
8.800000000000000044e-01,-4.370433130631217189e-01,-1.038234314346268700e-01,-1.174353632551817100e-01
8.810000000000000053e-01,-4.219842212649662083e-01,-6.280234406034708450e-02,-1.443990247792309722e-01
8.820000000000000062e-01,-4.474962449495425432e-01,-1.165580862379167817e-02,-1.641301527077758948e-01
8.830000000000000071e-01,-4.023444266762578603e-01,-6.841771126309834951e-03,-1.964833369805183139e-01
8.840000000000000080e-01,-3.660087918127106210e-01,5.585493388887542016e-02,-2.044759644449270497e-01
8.850000000000000089e-01,-3.682151888157580433e-01,9.455843848549216890e-02,-2.459864381451635773e-01
8.860000000000000098e-01,-3.466217175859152566e-01,1.049088419900745667e-01,-2.420155406909703655e-01
8.870000000000000107e-01,-2.570492189097324243e-01,1.735388992790933282e-01,-2.505178182135389120e-01
8.880000000000000115e-01,-2.992631784144651474e-01,2.034778467626977838e-01,-2.389267843453819207e-01
8.890000000000000124e-01,-2.343988335330533246e-01,2.262605957498249332e-01,-2.521280957628718733e-01
8.900000000000000133e-01,-1.937436107395802687e-01,2.563538176348877928e-01,-2.655135527107106985e-01
8.910000000000000142e-01,-1.551775482439132214e-01,2.617523371455150460e-01,-2.646510717969945969e-01
8.920000000000000151e-01,-1.136921464958751266e-01,3.301840444402541763e-01,-2.563891770256133684e-01
8.930000000000000160e-01,-6.688587616455088369e-02,3.050366172988052127e-01,-2.867700931319094315e-01
8.940000000000000169e-01,-3.721341183353042703e-02,3.583593898498189101e-01,-2.892045760931691301e-01
8.950000000000000178e-01,1.903971739059856505e-02,3.625246883975664081e-01,-2.604620426055404003e-01
8.960000000000000187e-01,2.719975691642904231e-02,3.441676887425332843e-01,-2.396389813493239596e-01
8.970000000000000195e-01,6.980051113189214562e-02,3.229396151143396065e-01,-2.475303365607961770e-01
8.980000000000000204e-01,1.428055279040162107e-01,3.921197455168164425e-01,-2.026916952295590990e-01
8.990000000000000213e-01,1.937860651461164319e-01,3.559545935725107468e-01,-1.716147825731107190e-01
9.000000000000000222e-01,2.370258078182858885e-01,3.687511921282579652e-01,-1.755669352360308133e-01
9.010000000000000231e-01,2.376819480088068481e-01,3.659161449804914645e-01,-1.306774539276758240e-01
9.020000000000000240e-01,2.814089081880218890e-01,3.019851686839218896e-01,-1.245414013954526944e-01
9.030000000000000249e-01,3.621334099486691604e-01,2.962914837565904236e-01,-1.188491597986304632e-01
9.040000000000000258e-01,3.503021138529991974e-01,3.065721403780896637e-01,-5.079526866221020787e-02
9.050000000000000266e-01,4.162882863178886117e-01,2.802053115687779261e-01,-3.753678331066355456e-02
9.060000000000000275e-01,4.099323892656228097e-01,2.070068424411477537e-01,-5.805143216361149938e-02
9.070000000000000284e-01,3.914951333634344999e-01,2.090376257114378300e-01,-3.063158958627222941e-02
9.080000000000000293e-01,4.325546317877861369e-01,1.718851602728003469e-01,-7.285242604652157269e-04
9.090000000000000302e-01,4.271682890189606452e-01,1.426815799669677309e-01,7.474779738128561890e-02
9.100000000000000311e-01,4.376580025777601080e-01,1.099222232601581306e-01,8.069107293432807582e-02
9.110000000000000320e-01,4.575572781896443675e-01,7.450929651314450175e-02,1.183910704194405389e-01
9.120000000000000329e-01,4.633989731571173665e-01,5.923498443614506892e-02,1.547154818535744492e-01
9.130000000000000338e-01,4.113442978990188292e-01,-1.336067488344021628e-02,1.535002979156450398e-01
9.140000000000000346e-01,4.202512630781557457e-01,-3.866878787380540611e-02,1.993129848712908436e-01
9.150000000000000355e-01,3.873106143205154450e-01,-7.582179539201008844e-02,1.873647358928071938e-01
9.160000000000000364e-01,3.847572048145451173e-01,-1.192052832363810072e-01,2.130278632462296873e-01
9.170000000000000373e-01,3.345195964643002395e-01,-1.530298463013323729e-01,2.333773633895248056e-01
9.180000000000000382e-01,2.776185146655042457e-01,-1.608847731420335603e-01,2.268349962777042594e-01
9.190000000000000391e-01,3.010223641853382870e-01,-1.987302949222025661e-01,2.704234766894271225e-01
9.200000000000000400e-01,2.275398975515046107e-01,-2.253969872530990626e-01,2.381772543741937920e-01
9.210000000000000409e-01,1.875519478092285974e-01,-2.556465660204845780e-01,3.047948244251396099e-01
9.220000000000000417e-01,1.466170747686650344e-01,-2.688861335309096212e-01,2.433470514080317837e-01
9.230000000000000426e-01,1.019011804358748302e-01,-3.163893524752834363e-01,2.573498233278315728e-01
9.240000000000000435e-01,8.583893426529659587e-02,-2.918753292287245005e-01,2.420816404641585318e-01
9.250000000000000444e-01,1.036036374002699371e-02,-3.258245341329317202e-01,2.526742166418980418e-01
9.260000000000000453e-01,-1.395843258357853250e-02,-3.658415279697905809e-01,3.048361113088265961e-01
9.270000000000000462e-01,-5.978305754393403726e-02,-3.353474416458933072e-01,2.000224712707426578e-01
9.280000000000000471e-01,-1.142712001110318398e-01,-3.761898947749375832e-01,2.242409105686576920e-01
9.290000000000000480e-01,-1.593089872555977504e-01,-3.492928027314916584e-01,2.142056523245767785e-01
9.300000000000000488e-01,-1.889877088426286378e-01,-3.848904718359145161e-01,1.985280550390061127e-01
9.310000000000000497e-01,-2.541155765163606306e-01,-3.314912058918944027e-01,2.028531026859035913e-01
9.320000000000000506e-01,-2.827828685491718397e-01,-3.165531692135932773e-01,1.551823604002564860e-01
9.330000000000000515e-01,-3.287205441966817854e-01,-3.193317119750022082e-01,1.464985150471243280e-01
9.340000000000000524e-01,-3.414741332602714841e-01,-2.806438031178914994e-01,9.131075434257260315e-02
9.350000000000000533e-01,-3.476334288869220579e-01,-2.629497675283765101e-01,4.470452333318403887e-02
9.360000000000000542e-01,-3.763793684328890499e-01,-2.310065577130107906e-01,9.271565332102839341e-02
9.370000000000000551e-01,-3.960771447344484386e-01,-2.364545816527482136e-01,1.086414058696594936e-02
9.379999999999999449e-01,-4.502191389821791345e-01,-1.780605482231395753e-01,-3.461456319789801752e-03
9.389999999999999458e-01,-4.487657922857727910e-01,-1.540803357506677629e-01,5.116190802528197169e-03
9.399999999999999467e-01,-4.298828905735238015e-01,-1.466551222554117462e-01,-8.289684005592046212e-02
9.409999999999999476e-01,-4.725359100595983852e-01,-1.217257470288512083e-01,-6.921764754950594789e-02
9.419999999999999485e-01,-4.322893996567537256e-01,-6.606609506769033080e-02,-9.618663145106919055e-02
9.429999999999999494e-01,-4.236806610227358272e-01,-2.926111635774502132e-02,-1.355181007790979830e-01
9.439999999999999503e-01,-4.092431793065082757e-01,5.261033228538414264e-02,-1.509028889284294295e-01
9.449999999999999512e-01,-3.875244886469000893e-01,6.543488774321853940e-02,-1.798643745589655063e-01
9.459999999999999520e-01,-3.556170290068364492e-01,1.100221207566045717e-01,-2.095957527707421608e-01
9.469999999999999529e-01,-3.542039180525790587e-01,1.201020352396505037e-01,-2.381752816200572720e-01
9.479999999999999538e-01,-3.472041119744144200e-01,1.543855044020861766e-01,-2.320835827052006028e-01
9.489999999999999547e-01,-2.945277248170621309e-01,2.095759028888771469e-01,-2.305614498450919425e-01
9.499999999999999556e-01,-2.601832538531126948e-01,2.109038088134372879e-01,-2.575892978566274860e-01
9.509999999999999565e-01,-2.308739805145155755e-01,2.351259416007419056e-01,-2.628719252001687767e-01
9.519999999999999574e-01,-1.834795189719581887e-01,3.176699882310489165e-01,-2.722435234374472879e-01
9.529999999999999583e-01,-1.380636761003181945e-01,2.697319796361911104e-01,-2.417286568414732661e-01
9.539999999999999591e-01,-7.503763950562487850e-02,3.213669039323669985e-01,-2.434792895529322154e-01
9.549999999999999600e-01,-7.973747300558742257e-02,3.526700984823037954e-01,-2.669109060222089047e-01
9.559999999999999609e-01,1.702330335707406828e-02,3.460670299020246476e-01,-2.617802222777025900e-01
9.569999999999999618e-01,4.310418051065841721e-02,3.605777619488949037e-01,-2.279285663833149345e-01
9.579999999999999627e-01,8.044159437672347701e-02,3.426176689132043873e-01,-2.130308659021225570e-01
9.589999999999999636e-01,7.848203527849162420e-02,3.626343286917624864e-01,-2.122460880411608519e-01
9.599999999999999645e-01,1.654544202167263223e-01,3.667644440402794137e-01,-1.493828996700503342e-01
9.609999999999999654e-01,2.265627067858999033e-01,3.195485284157947303e-01,-1.688688784537704657e-01
9.619999999999999662e-01,2.596616240427438993e-01,3.580689661172635763e-01,-1.834154210459686130e-01
9.629999999999999671e-01,2.786706563037549822e-01,3.437240079349541122e-01,-9.767107914600357821e-02
9.639999999999999680e-01,3.095436163173715949e-01,2.495915169313048521e-01,-1.366505658888008956e-01
9.649999999999999689e-01,3.000257288990695881e-01,2.638857889380135657e-01,-8.215900675057677405e-02
9.659999999999999698e-01,3.590922596639240516e-01,2.792838171229435340e-01,-4.953088724888291688e-02
9.669999999999999707e-01,4.153575940165006863e-01,2.566293299387368276e-01,-3.094595148244401461e-02
9.679999999999999716e-01,3.938046425393980643e-01,1.905470999775251140e-01,-1.639251447776017556e-02
9.689999999999999725e-01,4.299666515209910056e-01,2.019693847696266420e-01,8.627440051425634693e-03
9.699999999999999734e-01,4.133237903333362162e-01,1.780972804357656702e-01,1.399248776299246398e-02
9.709999999999999742e-01,4.470000281135955156e-01,8.754203478118413595e-02,7.036549401218919475e-02
9.719999999999999751e-01,4.925015653035116903e-01,8.059279592334638032e-02,1.061804010250770036e-01
9.729999999999999760e-01,4.404576238224128804e-01,3.171892576051108664e-02,1.218738295811155059e-01
9.739999999999999769e-01,4.478280476096665463e-01,1.178388050518620889e-02,1.209809495422482783e-01
9.749999999999999778e-01,4.405686316417528059e-01,-5.440532794949280715e-02,1.448915021422204352e-01
9.759999999999999787e-01,4.116776191218936010e-01,-6.695290742107876114e-02,1.691048749779265614e-01
9.769999999999999796e-01,4.054207262031443437e-01,-1.163875822755175843e-01,1.909200311642136882e-01
9.779999999999999805e-01,3.662378725460326279e-01,-1.441866765922339977e-01,2.239347260577933540e-01
9.789999999999999813e-01,3.249365834845661105e-01,-1.599260639389512295e-01,2.025614097290576454e-01
9.799999999999999822e-01,2.693183250556165365e-01,-1.769247480358711877e-01,2.477360326271129953e-01
9.809999999999999831e-01,2.333519230582430382e-01,-2.198473159774953778e-01,2.259262471561235830e-01
9.819999999999999840e-01,1.866868334340447688e-01,-2.740502555641726179e-01,2.855190567707822091e-01
9.829999999999999849e-01,2.042787983107786920e-01,-2.813509168384871195e-01,2.756385574293054308e-01
9.839999999999999858e-01,1.366207220160522706e-01,-3.145118066447047944e-01,2.364678082803439163e-01
9.849999999999999867e-01,9.593924329779462967e-02,-3.122510909353549691e-01,2.759447206480638570e-01
9.859999999999999876e-01,6.264314499418167925e-02,-3.279593820507044621e-01,2.870727683846251432e-01
9.869999999999999885e-01,-9.766612416997713306e-03,-3.549220150155282805e-01,2.555489883880565638e-01
9.879999999999999893e-01,-3.771999884513979259e-04,-3.521428328054329593e-01,2.319709565805980200e-01
9.889999999999999902e-01,-1.361655673557682911e-01,-3.805298705711676610e-01,2.619981513605263435e-01
9.899999999999999911e-01,-1.375729890104926134e-01,-3.722640660555235348e-01,2.266094921839042209e-01
9.909999999999999920e-01,-1.746198832293769099e-01,-3.468443078457540407e-01,2.137738744769862864e-01
9.919999999999999929e-01,-2.910493105354798327e-01,-3.455708380349691855e-01,1.983813527002400434e-01
9.929999999999999938e-01,-2.336646582401153416e-01,-3.555588707682270644e-01,1.654969118998817212e-01
9.939999999999999947e-01,-3.326195835270647216e-01,-3.509212990825684719e-01,1.615999834738120478e-01
9.949999999999999956e-01,-3.468982663814154654e-01,-3.084040830126690835e-01,1.370767421092254912e-01
9.959999999999999964e-01,-3.237152560295750714e-01,-2.801788646378346459e-01,1.230070299390210731e-01
9.969999999999999973e-01,-3.694304835052199532e-01,-2.513705873636329358e-01,1.019411750291812080e-01
9.979999999999999982e-01,-3.912713349648485606e-01,-2.308108674112046843e-01,5.776212030381566026e-02
9.989999999999999991e-01,-4.239428859065129118e-01,-1.811786624996601092e-01,5.773320688879500506e-02
1.000000000000000000e+00,-3.975833922839960843e-01,-1.708367995504403158e-01,3.981739862455903334e-03
1.000999999999999890e+00,-4.164504620019334746e-01,-1.541344576828985458e-01,-1.615384937058220172e-02
1.002000000000000002e+00,-5.184604512061528059e-01,-1.185165350292163022e-01,-3.910100858355432252e-02
1.002999999999999892e+00,-4.848455261513933134e-01,-4.507841513580218562e-02,-8.027440536916895242e-02
1.004000000000000004e+00,-4.569316539506484975e-01,-4.857437615385178098e-02,-9.716235085857198583e-02
1.004999999999999893e+00,-4.561633375531156664e-01,-2.513609712532952761e-03,-1.311745768826463876e-01
1.006000000000000005e+00,-4.439024745810762895e-01,2.764219776780917764e-02,-1.614182588400221441e-01
1.006999999999999895e+00,-3.940431085425889490e-01,4.539251494842038576e-02,-1.748469907812295610e-01
1.008000000000000007e+00,-3.780929653880660268e-01,1.263508054331246577e-01,-1.857183561259787841e-01
1.008999999999999897e+00,-3.511713196645449009e-01,1.580233379767168322e-01,-2.226727400628864817e-01
1.010000000000000009e+00,-3.248974226359512274e-01,1.505697556336418053e-01,-2.566487508591167033e-01
1.010999999999999899e+00,-3.040578419430771118e-01,2.310978898051247454e-01,-2.326921969317212180e-01
1.012000000000000011e+00,-2.358478080867676685e-01,2.216908968052636320e-01,-2.684862907963890821e-01
1.012999999999999901e+00,-1.860925927263910040e-01,2.997482427266138783e-01,-2.580399749486056438e-01
1.014000000000000012e+00,-1.878103515612379870e-01,2.855350341004750381e-01,-2.312260193239978889e-01
1.014999999999999902e+00,-1.172416790104825607e-01,3.195539401336419671e-01,-2.506434300364911993e-01
1.016000000000000014e+00,-9.961490199592473727e-02,3.217058812964402326e-01,-2.714983981879708352e-01
1.016999999999999904e+00,-3.144797378976534746e-02,3.567470413111846761e-01,-2.601774524772193509e-01
1.018000000000000016e+00,1.181782656065712839e-02,3.756984805583296616e-01,-2.783788752862253468e-01
1.018999999999999906e+00,1.658141556197878508e-02,3.299501504152737019e-01,-2.582836692385349631e-01
1.020000000000000018e+00,8.761259833968797206e-02,3.293361821544855128e-01,-2.605190736307684274e-01
1.020999999999999908e+00,1.078796523989586642e-01,3.121790168166511115e-01,-2.566092742553988115e-01
1.022000000000000020e+00,2.025729946080887245e-01,3.414381267390816377e-01,-1.849785212330413153e-01
1.022999999999999909e+00,2.289250536845226225e-01,3.776671135975481763e-01,-1.906299922325199458e-01
1.024000000000000021e+00,2.850333449230818550e-01,3.098946268309590857e-01,-1.612401109195457372e-01
1.024999999999999911e+00,3.058711738305223138e-01,2.926715736318900030e-01,-1.595425831413897211e-01
1.026000000000000023e+00,3.166213945248741446e-01,3.078438121719324072e-01,-1.499906258114168944e-01
1.026999999999999913e+00,3.972400782358807558e-01,2.666565803559945991e-01,-1.224161580983009479e-01
1.028000000000000025e+00,3.707341268651862531e-01,2.177629821478649086e-01,-8.353071231925848772e-02
1.028999999999999915e+00,4.231810861041376270e-01,2.040403062964007419e-01,-2.169570762975944062e-02
1.030000000000000027e+00,4.097400396178054183e-01,1.731986429721900089e-01,-4.391205856932209328e-02
1.030999999999999917e+00,3.991705685757265254e-01,1.972592180972461695e-01,-2.479369537633502318e-02
1.032000000000000028e+00,4.306333306586984655e-01,1.374852846014745500e-01,1.428595354056660461e-03
1.032999999999999918e+00,4.134265724299305278e-01,9.549562210466647216e-02,2.333402265339133350e-02
1.034000000000000030e+00,4.569147621220606137e-01,8.428157838739638863e-02,7.930915078055342238e-02
1.034999999999999920e+00,4.261009178234225758e-01,9.583416747693619675e-03,1.095500174689044287e-01
1.036000000000000032e+00,4.398008889156774237e-01,-3.546751055613945203e-03,1.503474288721723118e-01
1.036999999999999922e+00,4.093146908139708162e-01,-4.612904567194759525e-02,1.731620545240990239e-01
1.038000000000000034e+00,4.247176651496546995e-01,-6.414449785806393411e-02,1.675026647917150224e-01
1.038999999999999924e+00,3.817349545747306117e-01,-1.243765786203193113e-01,1.900944259097133160e-01
1.040000000000000036e+00,3.459569046048349694e-01,-1.705974947217322735e-01,2.080562269326019786e-01
1.040999999999999925e+00,3.488824362309315696e-01,-1.859168333141307805e-01,2.365903899563300550e-01
1.042000000000000037e+00,2.777447020219189766e-01,-1.912884520215259176e-01,2.317227896868347403e-01
1.042999999999999927e+00,2.691246162117850727e-01,-2.412031516941120224e-01,2.700587008330332384e-01
1.044000000000000039e+00,2.228453084265876460e-01,-2.928117963661508449e-01,2.885591986237710516e-01
1.044999999999999929e+00,1.849193930343514258e-01,-2.979131444895199987e-01,2.473755988490636826e-01
1.046000000000000041e+00,1.072216497919977751e-01,-3.013277649014776127e-01,2.601198246608834586e-01
1.046999999999999931e+00,5.389956380771449701e-02,-3.138148236266245505e-01,2.649025409247796059e-01
1.048000000000000043e+00,9.513072748286550973e-02,-3.515760038252746522e-01,2.775562327352976144e-01
1.048999999999999932e+00,4.842883605685679646e-03,-3.399244002320497282e-01,2.835877607836072012e-01
1.050000000000000044e+00,-7.007287912887597003e-02,-3.543684054236669878e-01,2.372507945038709876e-01
1.050999999999999934e+00,-8.668515259972663090e-02,-3.931260085753150446e-01,2.558316154466671044e-01
1.052000000000000046e+00,-1.060437993881959418e-01,-3.488904701309761824e-01,2.362100656748719052e-01
1.052999999999999936e+00,-1.912472543866562402e-01,-3.535044042626261374e-01,1.783111538591193035e-01
1.054000000000000048e+00,-1.924501469679546217e-01,-3.607456596334642218e-01,2.264014510081168163e-01
1.054999999999999938e+00,-3.097312011719495772e-01,-3.092148991865721341e-01,1.872101254947725890e-01
1.056000000000000050e+00,-3.002894417450552300e-01,-3.289993129542850281e-01,1.698697191720401067e-01
1.056999999999999940e+00,-3.357829456520723954e-01,-2.575196759487962117e-01,1.392460042696839206e-01
1.058000000000000052e+00,-3.633586988159618336e-01,-2.413434249178692259e-01,1.234901507146417138e-01
1.058999999999999941e+00,-3.863736486650605206e-01,-2.321577941618700180e-01,1.115420390497526004e-01
1.060000000000000053e+00,-3.822903066777588732e-01,-2.005070210820888432e-01,6.991333821746542609e-02
1.060999999999999943e+00,-4.325979095295247046e-01,-1.493125018649935076e-01,1.931131674371160470e-02
1.062000000000000055e+00,-4.170336289377605810e-01,-9.374918918947069968e-02,-2.076321559356973309e-02
1.062999999999999945e+00,-4.486007859629870254e-01,-1.059767220960056294e-01,-6.397230063966874436e-02
1.064000000000000057e+00,-4.418903628104148273e-01,-5.097968519085059602e-02,-2.790741116267502972e-02
1.064999999999999947e+00,-4.315919307254750259e-01,-4.244942252946631335e-03,-6.112545578418562831e-02
1.066000000000000059e+00,-4.629404429837842838e-01,-2.326733906764235152e-02,-7.644534261999536007e-02
1.066999999999999948e+00,-4.065524326562419133e-01,6.468150511821564932e-03,-1.297284824487857646e-01
1.068000000000000060e+00,-4.025462313016578975e-01,1.100306730720655990e-01,-1.161596791701317716e-01
1.068999999999999950e+00,-4.027491465984348595e-01,1.120484498256115041e-01,-1.553045606832544612e-01
1.070000000000000062e+00,-4.024550034187737713e-01,1.737616999415493024e-01,-2.100674460327989768e-01
1.070999999999999952e+00,-3.146845653254364827e-01,1.835884092633921771e-01,-2.110445690010706310e-01
1.072000000000000064e+00,-3.018416765770161603e-01,2.302916587524792280e-01,-2.144148111692619207e-01
1.072999999999999954e+00,-3.010611901276227798e-01,2.361062846576343077e-01,-2.384781648092789419e-01
1.074000000000000066e+00,-2.710220101459328013e-01,2.684253084269725975e-01,-2.291128941000050157e-01
1.074999999999999956e+00,-2.125372586811035691e-01,2.964808472045975529e-01,-2.379081916948435627e-01
1.076000000000000068e+00,-1.990895134302888281e-01,2.982134490271661220e-01,-2.665504161578673981e-01
1.076999999999999957e+00,-1.026927393384793608e-01,3.361089079872862651e-01,-2.658678208348537186e-01
1.078000000000000069e+00,-8.057015393840510908e-02,3.628692725977742395e-01,-2.945357133998944277e-01
1.078999999999999959e+00,-5.271735656115125040e-02,3.344228596755398075e-01,-2.596932273117785184e-01
1.080000000000000071e+00,2.699313135237671121e-02,3.656246723984965530e-01,-2.655549501689214442e-01
1.080999999999999961e+00,4.723359591425872056e-02,3.494228818634499967e-01,-2.432939446547570661e-01
1.082000000000000073e+00,1.000715451095371550e-01,3.792296011295055447e-01,-2.311973955515315426e-01
1.082999999999999963e+00,1.168947144177756303e-01,3.374473230162675641e-01,-1.752542114646353233e-01
1.084000000000000075e+00,1.796953630832698046e-01,3.613396868207789381e-01,-2.296664202075078265e-01
1.084999999999999964e+00,2.120299072502281890e-01,2.942082847118743238e-01,-1.925535497029187137e-01
1.086000000000000076e+00,2.426115541667548114e-01,2.960903551702182557e-01,-1.865259190553619773e-01
1.086999999999999966e+00,3.129376734069866939e-01,2.787073942351123712e-01,-1.711374609964199933e-01
1.088000000000000078e+00,3.684899610977648843e-01,2.492999505312454567e-01,-1.426214613268193820e-01
1.088999999999999968e+00,3.226462974282702789e-01,2.388862387214214789e-01,-1.265967341392184309e-01
1.090000000000000080e+00,3.850848804349370491e-01,2.248345918761849860e-01,-8.061449972283350751e-02
1.090999999999999970e+00,4.394573853789646156e-01,2.058422529875209295e-01,-8.283918500735780455e-02
1.092000000000000082e+00,4.089445862051711011e-01,1.595079090090725515e-01,-7.117133882315392068e-02
1.092999999999999972e+00,4.400122679387263314e-01,1.090768957590505794e-01,-5.992182641421854410e-03
1.094000000000000083e+00,4.503386003232281443e-01,6.018237944137614509e-02,7.692733224298066441e-03
1.094999999999999973e+00,4.557545717853941913e-01,4.951451747981246154e-02,1.724167919127481824e-02
1.096000000000000085e+00,4.652872859137752726e-01,3.931776039964001573e-02,5.762260056021777793e-02
1.096999999999999975e+00,4.405157969586145361e-01,8.493516591518798786e-03,8.588077133519994577e-02
1.098000000000000087e+00,4.112710328594108566e-01,-5.713070314231911973e-02,7.432063524003540422e-02
1.098999999999999977e+00,4.068043261288905588e-01,-7.264635867337908282e-02,1.243176402760260701e-01
1.100000000000000089e+00,4.032855788516676587e-01,-1.256327760234310642e-01,1.660626244941412200e-01
1.100999999999999979e+00,3.273484404959602911e-01,-1.600633145566899007e-01,1.584352507455457637e-01
1.102000000000000091e+00,3.217835631867680957e-01,-1.819429779137763381e-01,2.051127184172399365e-01
1.102999999999999980e+00,3.165769725957008895e-01,-2.344235425943596018e-01,1.897743522552669815e-01
1.104000000000000092e+00,3.151330706749389532e-01,-2.277674527565577700e-01,1.849092162533695904e-01
1.104999999999999982e+00,2.583082669100197903e-01,-2.894779550729003059e-01,2.761019284596639145e-01
1.106000000000000094e+00,1.726451923708698100e-01,-2.704893530978511595e-01,2.778560251933294145e-01
1.106999999999999984e+00,1.137243488780104173e-01,-2.955702994621180468e-01,2.839433826568571462e-01
1.108000000000000096e+00,1.145557394577201987e-01,-3.581884529165059172e-01,2.982097424584952972e-01
1.108999999999999986e+00,7.760772015824463077e-02,-3.580420321292693275e-01,2.633976685912382543e-01
1.110000000000000098e+00,2.946583396037937008e-02,-3.593053547416508731e-01,2.971734384633592518e-01
1.110999999999999988e+00,2.130172847689923953e-03,-3.519108780144480919e-01,2.619757823562057220e-01
1.112000000000000099e+00,-7.833616377720444002e-02,-3.566673700541058700e-01,2.656525233808235131e-01
1.112999999999999989e+00,-1.228123047089427350e-01,-3.615788377121432751e-01,2.577914230958970876e-01
1.114000000000000101e+00,-1.769920016436564436e-01,-3.544660991704517983e-01,2.568292080368541064e-01
1.114999999999999991e+00,-2.131767842300930915e-01,-3.604241112616208831e-01,2.450277056471497072e-01
1.116000000000000103e+00,-2.072384762460575680e-01,-3.145903844502344615e-01,1.761187699637729309e-01
1.116999999999999993e+00,-3.074066245195901104e-01,-3.336796544871664105e-01,1.724921120654923923e-01
1.118000000000000105e+00,-3.285461654877229187e-01,-2.618582565492580394e-01,1.657645294760498600e-01
1.118999999999999995e+00,-3.979331629932100767e-01,-2.549973434022309027e-01,1.298730868315290110e-01
1.120000000000000107e+00,-3.531882318246633568e-01,-2.284046850958490471e-01,1.289471173732575082e-01
1.120999999999999996e+00,-3.975763210559210004e-01,-2.448634952351805283e-01,4.853654449482416172e-02
1.122000000000000108e+00,-4.206623866390552524e-01,-1.633867570064495012e-01,7.517115675542210274e-02
1.122999999999999998e+00,-4.233855612305754690e-01,-1.319823768367516525e-01,7.038294467493502737e-02
1.124000000000000110e+00,-4.364959464597584771e-01,-1.082518257256169791e-01,6.638875359781093444e-02
1.125000000000000000e+00,-4.411883820780986287e-01,-9.564083897438309390e-02,-1.614220537729457727e-02
1.125999999999999890e+00,-4.257887920307795171e-01,-6.515396668929156199e-02,-6.014821236949955546e-02
1.127000000000000002e+00,-4.278963825820072953e-01,6.445957518858521675e-03,-8.234200547296892381e-02
1.127999999999999892e+00,-4.451588838049647667e-01,2.451365579536218808e-02,-8.318220104556937888e-02
1.129000000000000004e+00,-4.068627748296842483e-01,6.407071873532460549e-02,-1.313065104488954637e-01
1.129999999999999893e+00,-4.117574652735864205e-01,1.205343241543380545e-01,-1.338734728845498434e-01
1.131000000000000005e+00,-3.995294254739858442e-01,1.284008059839469029e-01,-1.228946199418512186e-01
1.131999999999999895e+00,-3.621657755464456341e-01,1.806886218025803847e-01,-1.724831657588312694e-01
1.133000000000000007e+00,-3.216198462924207968e-01,2.065598365834853400e-01,-2.455615747849306252e-01
1.133999999999999897e+00,-3.178598276918505050e-01,2.440968413854932018e-01,-2.211375875428571447e-01
1.135000000000000009e+00,-3.004858260404815185e-01,2.866047196892773097e-01,-2.424998357574846275e-01
1.135999999999999899e+00,-2.152242520751949939e-01,3.046420473616398006e-01,-2.453664280095508021e-01
1.137000000000000011e+00,-1.995200134613945298e-01,3.321464364211729747e-01,-2.328747935713212924e-01
1.137999999999999901e+00,-1.445251507220259024e-01,3.090464943006145382e-01,-2.339055602226025321e-01
1.139000000000000012e+00,-8.424469880404783506e-02,3.132577395807759624e-01,-2.289349695608200452e-01
1.139999999999999902e+00,-8.571649135269067410e-02,3.474663402620388752e-01,-2.397862339107120211e-01
1.141000000000000014e+00,-7.172539562220278664e-02,3.321036861063015322e-01,-2.564859733661704611e-01
1.141999999999999904e+00,6.726466841833471377e-02,3.782054067359392757e-01,-2.721479981427819550e-01
1.143000000000000016e+00,7.824729924317745666e-02,3.783444739716449456e-01,-2.373233531843026156e-01
1.143999999999999906e+00,9.697303737378618060e-02,3.817804364457298982e-01,-2.450847399490987677e-01
1.145000000000000018e+00,1.549008868496622726e-01,3.888325468859127887e-01,-2.335627159677133580e-01
1.145999999999999908e+00,1.857973419203627630e-01,3.515670906302151844e-01,-2.302600089642952985e-01
1.147000000000000020e+00,2.442256442002417594e-01,3.231965255002762771e-01,-2.119924949952461668e-01
1.147999999999999909e+00,2.732184944674330151e-01,3.040646454544954636e-01,-1.632105708965516933e-01
1.149000000000000021e+00,3.294140533547665894e-01,2.491024944923327100e-01,-1.639136228966515396e-01
1.149999999999999911e+00,3.212216301371013105e-01,2.594644533597697533e-01,-9.621844963312757570e-02
1.151000000000000023e+00,3.620538308594850041e-01,2.454779013049699365e-01,-1.414851658370226417e-01
1.151999999999999913e+00,3.859453378497535447e-01,1.817585158831403203e-01,-1.022855703167903640e-01
1.153000000000000025e+00,4.228326693214652932e-01,1.618654108304696249e-01,-1.145808194902630389e-01
1.153999999999999915e+00,4.535883837008520270e-01,1.789265718807729888e-01,-5.398866788027355951e-02
1.155000000000000027e+00,4.207956374833908830e-01,5.951752167317938408e-02,-4.244275400724852737e-02
1.155999999999999917e+00,4.295938508229467101e-01,4.814006058425931989e-02,-1.986628576285442982e-02
1.157000000000000028e+00,4.698617061555058205e-01,2.379584046251835908e-02,3.594924106143967957e-02
1.157999999999999918e+00,4.605009489431553527e-01,-3.205437178862812625e-02,5.113088578514651816e-02
1.159000000000000030e+00,4.591043355649483959e-01,-8.317940827126994729e-02,8.991952246179082953e-02
1.159999999999999920e+00,3.795929893210174821e-01,-8.888157694153869803e-02,1.187434936194455559e-01
1.161000000000000032e+00,4.207637043113429676e-01,-1.339675020700893393e-01,1.172384001388409175e-01
1.161999999999999922e+00,3.661525515929199837e-01,-1.413992070242246490e-01,1.676009719135341802e-01
1.163000000000000034e+00,3.552053898906860629e-01,-1.991262757779192760e-01,1.639310604737494736e-01
1.163999999999999924e+00,3.294380644581875739e-01,-2.102321183435263141e-01,2.289663420533276650e-01
1.165000000000000036e+00,3.035671143695886087e-01,-2.249025613925109690e-01,2.137867658919854474e-01
1.165999999999999925e+00,2.362175841412090804e-01,-3.060711562582512091e-01,2.574377260892573016e-01
1.167000000000000037e+00,2.443018293057733215e-01,-2.794115267834181848e-01,2.296940696418858507e-01
1.167999999999999927e+00,1.874107128804199385e-01,-3.190035599354182905e-01,2.698899618703021197e-01
1.169000000000000039e+00,1.377939439348758455e-01,-3.832910884847707256e-01,2.637865689090030386e-01
1.169999999999999929e+00,6.732464420757283685e-02,-3.546641763540849257e-01,2.317945674273239609e-01
1.171000000000000041e+00,5.163547684019955536e-02,-3.633383958727196550e-01,2.446709372727516318e-01
1.171999999999999931e+00,1.664471059162858299e-02,-3.927052588413237899e-01,2.645407505462570863e-01
1.173000000000000043e+00,-3.569486718328130498e-02,-3.193389976208856340e-01,2.346330392248026919e-01
1.173999999999999932e+00,-7.962289915722024769e-02,-3.591244564962071673e-01,2.406039278737960585e-01
1.175000000000000044e+00,-1.534161660490495904e-01,-3.291280267519334224e-01,2.519883065231707242e-01
1.175999999999999934e+00,-1.608706236688107749e-01,-3.532475181496443906e-01,2.280573437599343334e-01
1.177000000000000046e+00,-1.726677828581073548e-01,-3.623772002913947521e-01,2.544617789097632921e-01
1.177999999999999936e+00,-2.325777194538758141e-01,-3.147686722585953945e-01,2.120054222089644280e-01
1.179000000000000048e+00,-2.709117912698432717e-01,-2.766606104762913687e-01,2.100409920888568482e-01
1.179999999999999938e+00,-3.366320155695378125e-01,-2.727434377823348965e-01,1.688096188472297254e-01
