time,acc_x,acc_y,acc_z
0.000000000000000000e+00,-3.021660685254301537e-01,-3.490792049342947845e-01,-1.053616596927907934e-01
1.000000000000000021e-03,-4.333454971130822897e-01,-3.901793302542759800e-01,-2.239291290692053682e-01
2.000000000000000042e-03,-4.597172153070975265e-01,-3.158237718618909784e-01,-2.428505206846572617e-01
3.000000000000000062e-03,-3.959802859342057557e-01,-2.559712204118997914e-01,-2.798660839234482500e-01
4.000000000000000083e-03,-3.020797885014220863e-01,-1.350097336375306323e-01,-2.417417698034512730e-01
5.000000000000000104e-03,-1.372874660597500907e-01,4.160968889322925329e-02,-2.005490661898000904e-01
6.000000000000000125e-03,3.498590720291936546e-02,1.592604696790675678e-01,-6.933708169228949836e-02
7.000000000000000146e-03,2.188708243093325512e-01,2.737269573016129498e-01,5.440063243963785128e-03
8.000000000000000167e-03,3.500213502594496928e-01,3.898615937724778102e-01,1.339869312312233218e-01
8.999999999999999320e-03,4.219770401152369010e-01,3.810992626557314078e-01,1.830544870550137870e-01
1.000000000000000021e-02,4.404238096141256387e-01,2.897790699231974632e-01,2.768556401766527619e-01
1.099999999999999936e-02,4.137221770074474558e-01,2.387927814379137148e-01,3.039211117245996796e-01
1.200000000000000025e-02,3.018310546442143361e-01,9.753202219773994541e-02,2.752772531715612092e-01
1.299999999999999940e-02,1.202620160987326464e-01,-4.110135864764984104e-02,1.990966371869698215e-01
1.400000000000000029e-02,-4.475850846261801574e-02,-2.103234406193327521e-01,1.037549045988571395e-01
1.499999999999999944e-02,-2.107048421421193751e-01,-2.884011490080095053e-01,-1.454882243074949802e-02
1.600000000000000033e-02,-3.595216845667761896e-01,-3.490889703619718953e-01,-1.167487746102141011e-01
1.700000000000000122e-02,-4.434096340492389432e-01,-3.608165037466805614e-01,-2.164741596701662829e-01
1.799999999999999864e-02,-4.594445590401072255e-01,-2.959811832818559640e-01,-2.604636103600741492e-01
1.899999999999999953e-02,-4.119635874770433692e-01,-2.089701714677614508e-01,-2.724022559596000481e-01
2.000000000000000042e-02,-3.053252115743729234e-01,-7.164751543099878717e-02,-2.572673309466040892e-01
2.100000000000000130e-02,-1.054919467955510448e-01,8.508959049763011040e-02,-1.871408796178977429e-01
2.199999999999999872e-02,7.413245789452739543e-02,2.162469532120442350e-01,-1.157693210425501523e-01
2.299999999999999961e-02,2.304202764588391406e-01,3.117953230906652107e-01,4.633968517656696096e-02
2.400000000000000050e-02,3.799420836435882798e-01,3.717920784336553597e-01,1.098404219391857922e-01
2.500000000000000139e-02,4.492109842868764469e-01,3.381996897753318798e-01,1.760381958855282147e-01
2.599999999999999881e-02,4.542248978882594823e-01,2.966702680313073048e-01,2.476865332492836635e-01
2.699999999999999969e-02,3.883908142877800507e-01,1.743364638246364950e-01,2.991717662666456001e-01
2.800000000000000058e-02,2.953579647959768129e-01,3.262780867997736728e-02,2.687932192716538382e-01
2.900000000000000147e-02,1.057701905268862014e-01,-1.167592638627404089e-01,1.717528358559567148e-01
2.999999999999999889e-02,-7.374129454943267881e-02,-2.241728040244765630e-01,9.182966138496788389e-02
3.099999999999999978e-02,-2.280107009793647388e-01,-3.082579280659851206e-01,1.809362567583999368e-02
3.200000000000000067e-02,-3.749401852468653984e-01,-3.873619097713957848e-01,-1.082619236110736322e-01
3.300000000000000155e-02,-4.419691223407752334e-01,-3.567167850303238352e-01,-2.282832967609773056e-01
3.400000000000000244e-02,-4.497436158288702357e-01,-2.897385435859141656e-01,-2.676927878115869519e-01
3.500000000000000333e-02,-4.118061546691865193e-01,-1.778172847273910562e-01,-2.787105374341624087e-01
3.599999999999999728e-02,-2.664122644724673528e-01,-4.212642987826326763e-02,-2.783949180528824119e-01
3.699999999999999817e-02,-8.432527063091925512e-02,1.185006391665295034e-01,-1.887061032799738636e-01
3.799999999999999906e-02,6.805475726571894035e-02,2.573854005712284398e-01,-1.127558713356685699e-01
3.899999999999999994e-02,2.398537880819971990e-01,3.541827476727629764e-01,-8.314591245859412772e-04
4.000000000000000083e-02,3.908653872562147802e-01,3.499594524117456418e-01,1.231353992953129611e-01
4.100000000000000172e-02,4.547323031040739760e-01,3.337712729108642251e-01,2.053910459052172843e-01
4.200000000000000261e-02,4.343958289953000484e-01,2.755741055075753843e-01,2.509276943637654411e-01
4.299999999999999656e-02,3.547373655767917522e-01,1.249160019789286591e-01,2.713197099340320939e-01
4.399999999999999745e-02,2.244447555881498302e-01,4.145052686113856466e-03,2.610579333101386568e-01
4.499999999999999833e-02,7.962566474439368436e-02,-1.613650260502260958e-01,1.847398407520320085e-01
4.599999999999999922e-02,-1.191060253564891758e-01,-2.517728037317113476e-01,9.554590883027988535e-02
4.700000000000000011e-02,-2.793104708710805184e-01,-3.559935102412155050e-01,-1.738477606241795731e-02
4.800000000000000100e-02,-4.014812499682812175e-01,-3.791408589496281234e-01,-1.082355736780688388e-01
4.900000000000000189e-02,-4.594926029113346466e-01,-3.426711928908428573e-01,-1.942241378233333926e-01
5.000000000000000278e-02,-4.274420547110612256e-01,-2.359766822829076349e-01,-2.729029579076157619e-01
5.099999999999999672e-02,-3.654385023388714293e-01,-1.199364066154031544e-01,-2.863969097633636829e-01
5.199999999999999761e-02,-2.072243579022368665e-01,1.318348807312041439e-02,-2.545138084226252762e-01
5.299999999999999850e-02,-4.932746682687923212e-02,1.791330862949751246e-01,-1.944177218161184384e-01
5.399999999999999939e-02,1.263606480354295403e-01,2.834100995948845014e-01,-9.518831958694672080e-02
5.500000000000000028e-02,2.782744241925284578e-01,3.411579683149356668e-01,5.978313343716866457e-03
5.600000000000000117e-02,3.900255180281015921e-01,3.729745877654886965e-01,1.390922261340148125e-01
5.700000000000000205e-02,4.594350919651327136e-01,3.423968042682291046e-01,2.156635084967895577e-01
5.800000000000000294e-02,4.416093179697564430e-01,2.287982337019545953e-01,2.560142542459973303e-01
5.899999999999999689e-02,3.658057736269116900e-01,1.073406481480240621e-01,2.653338707770146465e-01
5.999999999999999778e-02,2.505043784521384098e-01,-4.652704052480774455e-02,2.665728180436377492e-01
6.099999999999999867e-02,4.829879856040222852e-02,-1.685290356162718328e-01,2.030827870109342126e-01
6.199999999999999956e-02,-1.074587005862335937e-01,-2.874548397892898177e-01,9.253146243442723906e-02
6.300000000000000044e-02,-2.876274918921423174e-01,-3.481194611280436502e-01,-8.227131229624640857e-03
6.400000000000000133e-02,-4.062658601826930616e-01,-3.648211851319782539e-01,-1.400402820403910398e-01
6.500000000000000222e-02,-4.505763853344058045e-01,-2.869931409996903660e-01,-1.861622493661239663e-01
6.600000000000000311e-02,-4.286121031242530743e-01,-2.344117135998969315e-01,-2.414623847953222269e-01
6.700000000000000400e-02,-3.700806013349725587e-01,-7.572436811568745985e-02,-2.732611145280435805e-01
6.800000000000000488e-02,-2.157892790459834953e-01,7.497211572039458316e-02,-2.310415497534892837e-01
6.900000000000000577e-02,-5.414397851897985448e-02,1.924568254822289770e-01,-2.071474770093130469e-01
7.000000000000000666e-02,1.616288815708319671e-01,3.453155646342337404e-01,-8.493350469363135369e-02
7.099999999999999367e-02,2.973696615623898087e-01,3.465622694729517117e-01,1.103721866073504795e-03
7.199999999999999456e-02,4.198166650770151498e-01,3.561023717222114304e-01,1.040664674690763708e-01
7.299999999999999545e-02,4.764555541510567815e-01,3.288818888309431032e-01,1.813128915624401816e-01
7.399999999999999634e-02,4.437065788729521176e-01,1.742345832506381198e-01,2.577730078651437329e-01
7.499999999999999722e-02,3.557141493609108918e-01,6.834159292697870869e-02,2.655489536719430332e-01
7.599999999999999811e-02,2.129503398773984757e-01,-9.619778846383467141e-02,2.568533263142255274e-01
7.699999999999999900e-02,2.801561098303039996e-02,-2.294533574948311450e-01,2.023011439802502032e-01
7.799999999999999989e-02,-1.428067724788726345e-01,-3.040803383236768132e-01,8.663101646727829064e-02
7.900000000000000078e-02,-3.192215516629046679e-01,-3.717982937702882795e-01,2.470949828034815689e-03
8.000000000000000167e-02,-4.134261407635403951e-01,-3.453507149044941493e-01,-9.835361449946088130e-02
8.100000000000000255e-02,-4.661355719509999718e-01,-2.621245601239436951e-01,-1.918315443888788940e-01
8.200000000000000344e-02,-4.055956723259897534e-01,-1.442524893493632721e-01,-2.601986238490632819e-01
8.300000000000000433e-02,-3.293269514452651925e-01,-6.528995118626321204e-02,-2.870485078539035673e-01
8.400000000000000522e-02,-1.820529069482935691e-01,9.181781615053791201e-02,-2.637150306818626944e-01
8.500000000000000611e-02,1.051051519597008890e-02,2.682133350938142868e-01,-1.981636337339235943e-01
8.599999999999999312e-02,1.769308910409747304e-01,3.226328943139458727e-01,-1.030108101902796891e-01
8.699999999999999400e-02,3.231973759696540882e-01,3.438849598034206534e-01,2.286335679489745129e-02
8.799999999999999489e-02,4.532867308221182334e-01,3.428036665688095619e-01,1.115480036979030060e-01
8.899999999999999578e-02,4.607362118828435271e-01,2.442641144962009736e-01,1.822062481668891842e-01
8.999999999999999667e-02,4.262748593481578974e-01,1.738418112404975235e-01,2.555472898738319620e-01
9.099999999999999756e-02,3.207070873938497324e-01,-2.730961891020166569e-03,2.708411898900649484e-01
9.199999999999999845e-02,1.845022233124609112e-01,-1.325521489285995114e-01,2.435333217289918639e-01
9.299999999999999933e-02,-2.797368074617475556e-03,-2.745399351763928575e-01,1.715067991017915905e-01
9.400000000000000022e-02,-1.987931231068300331e-01,-3.314061871744529153e-01,9.106247562154388964e-02
9.500000000000000111e-02,-3.283120880102657901e-01,-3.737145846430774410e-01,-1.239574006522163943e-02
9.600000000000000200e-02,-4.500693840822648784e-01,-3.384172817605073380e-01,-1.210622382052402579e-01
9.700000000000000289e-02,-4.808785619700871039e-01,-2.628336320765463086e-01,-2.177198469240889944e-01
9.800000000000000377e-02,-4.296934719332821673e-01,-1.233560732014314237e-01,-2.611671413829528277e-01
9.900000000000000466e-02,-3.298734266282605798e-01,3.301172471594554427e-04,-2.528597923193892094e-01
1.000000000000000056e-01,-1.446124450447625887e-01,1.691656823475539695e-01,-2.520499076416256590e-01
1.010000000000000064e-01,3.743586059423537407e-03,2.892091837800595533e-01,-1.771441839477813085e-01
1.019999999999999934e-01,1.958283144909751805e-01,3.218275740283599307e-01,-1.055297814283241153e-01
1.029999999999999943e-01,3.677851765136961881e-01,3.720240398067692356e-01,1.711609158431754915e-02
1.039999999999999952e-01,4.377238783892918317e-01,3.193183071853392119e-01,1.412858056642241900e-01
1.049999999999999961e-01,4.751835719066464514e-01,2.319410153755968040e-01,2.040154964315045449e-01
1.059999999999999970e-01,4.135656667524686969e-01,9.168372795203093284e-02,2.802174557211501993e-01
1.069999999999999979e-01,3.225052765358125129e-01,-5.181141955775982882e-02,2.626524346358914408e-01
1.079999999999999988e-01,1.211215011814617409e-01,-1.668040803174603570e-01,2.461439878362912392e-01
1.089999999999999997e-01,-1.860317825853231855e-02,-3.059111247453183968e-01,1.605821569342340549e-01
1.100000000000000006e-01,-2.247839745689161894e-01,-3.683378598976153051e-01,8.449690805535906013e-02
1.110000000000000014e-01,-3.507700830475620757e-01,-3.380673136840591786e-01,-1.298540694824516263e-02
1.120000000000000023e-01,-4.458415986726326219e-01,-3.088781469048546002e-01,-1.351248752451256474e-01
1.130000000000000032e-01,-4.519937267705624873e-01,-2.281915933296848331e-01,-2.131779440667344594e-01
1.140000000000000041e-01,-3.970158470526837236e-01,-9.363766587646964179e-02,-2.311949899194128133e-01
1.150000000000000050e-01,-3.015523713274568252e-01,6.307854041465957295e-02,-2.792863265300084552e-01
1.160000000000000059e-01,-1.487304177160578555e-01,1.763697942590667089e-01,-2.355204305774059592e-01
1.170000000000000068e-01,4.156023062588296707e-02,3.187239092716898647e-01,-1.793697681399185340e-01
1.179999999999999938e-01,2.043270919833102828e-01,3.766140081134071171e-01,-7.839381222870014931e-02
1.189999999999999947e-01,3.722608844432831465e-01,3.480819772323214822e-01,2.875053919605312716e-02
1.199999999999999956e-01,4.590093556537364061e-01,2.997718082809445739e-01,1.288112914486802540e-01
1.209999999999999964e-01,4.518940431296951110e-01,2.061275176649016161e-01,1.969647271055560700e-01
1.219999999999999973e-01,4.056758051059783932e-01,5.933816197747542737e-02,2.517011249358760416e-01
1.229999999999999982e-01,2.600507909318675037e-01,-8.889183646224191326e-02,2.967625174133416421e-01
1.239999999999999991e-01,1.204340638860591783e-01,-2.196466722344826428e-01,2.462098798476820005e-01
1.250000000000000000e-01,-9.057854068107833168e-02,-3.351964608120434064e-01,2.133915950314073384e-01
1.260000000000000009e-01,-2.372146158260593218e-01,-3.671481027805053587e-01,8.270726019961231745e-02
1.270000000000000018e-01,-3.754916870610393032e-01,-3.636896479564737383e-01,-1.652926457131543084e-02
1.280000000000000027e-01,-4.325104224585857859e-01,-3.012814233180075574e-01,-1.220521150267363658e-01
1.290000000000000036e-01,-4.538227087366323298e-01,-1.834102388485392698e-01,-2.217573646297715806e-01
1.300000000000000044e-01,-4.024867847636784401e-01,-2.984365461022002800e-02,-2.486447502049249914e-01
1.310000000000000053e-01,-2.447148520887474366e-01,1.080656539145906647e-01,-2.853132821158724242e-01
1.320000000000000062e-01,-1.124855021358510954e-01,2.519502948989047475e-01,-2.427338683953753906e-01
1.330000000000000071e-01,7.507653679642792288e-02,3.280407074112264842e-01,-1.583572873569841777e-01
1.340000000000000080e-01,2.642381547717978507e-01,3.703549346157347655e-01,-9.314144610652529133e-02
1.350000000000000089e-01,3.727907219423574059e-01,3.393395865467063177e-01,1.363688016298347620e-02
1.360000000000000098e-01,4.433473611416162696e-01,2.635882571454048473e-01,1.147646705716745263e-01
1.370000000000000107e-01,4.727770622769186804e-01,1.606230444524619216e-01,2.145889758322452601e-01
1.380000000000000115e-01,3.860133517457290386e-01,5.760834868365262993e-04,2.598657073431935305e-01
1.390000000000000124e-01,2.498763846378032061e-01,-1.011091114750661268e-01,2.722323098525014640e-01
1.400000000000000133e-01,8.192043846509484972e-02,-2.803958374071199300e-01,2.532542022331877862e-01
1.409999999999999865e-01,-1.133366431733568852e-01,-3.369362492295642220e-01,1.836067422941985716e-01
1.419999999999999873e-01,-2.639056101190048742e-01,-3.903332727729893481e-01,8.710066239864565352e-02
1.429999999999999882e-01,-3.720183490555595829e-01,-3.324523636684698080e-01,-1.300579280642099635e-02
1.439999999999999891e-01,-4.455695595262565423e-01,-2.534241790150554285e-01,-1.212450841351524339e-01
1.449999999999999900e-01,-4.276112617487156098e-01,-1.282954613025393542e-01,-2.070636838123671997e-01
1.459999999999999909e-01,-3.544693691462303398e-01,-4.208176787898896187e-04,-2.504676528586763373e-01
1.469999999999999918e-01,-2.367227825530209551e-01,1.566599516991248886e-01,-2.726263529490515203e-01
1.479999999999999927e-01,-7.460294628991531729e-02,2.843756256727287268e-01,-2.450873181784755939e-01
1.489999999999999936e-01,1.286729123987990220e-01,3.673937647438063614e-01,-2.103925926607603802e-01
1.499999999999999944e-01,2.739437665612806105e-01,3.841587602946470725e-01,-1.096198678557663564e-01
1.509999999999999953e-01,3.806798034623142812e-01,3.463239550686514900e-01,1.647754444961355494e-02
1.519999999999999962e-01,4.727064569543689698e-01,2.388258926465678667e-01,1.197928576562285324e-01
1.529999999999999971e-01,4.374494426215826404e-01,8.680190903344961462e-02,2.063623644622959719e-01
1.539999999999999980e-01,3.439536208977899134e-01,-4.482466883948672820e-02,2.578180675157857316e-01
1.549999999999999989e-01,2.291674186732836627e-01,-1.716762433753082073e-01,2.729956092026624148e-01
1.559999999999999998e-01,3.125352277305223220e-02,-2.880697312704464386e-01,2.631466681000471652e-01
1.570000000000000007e-01,-1.149280083451537232e-01,-3.374000336994389948e-01,1.826227472094661131e-01
1.580000000000000016e-01,-2.923738126582550723e-01,-3.762874918055689188e-01,7.885831584355031121e-02
1.590000000000000024e-01,-4.049275149065842405e-01,-3.282803381399425624e-01,-4.751128384614312049e-03
1.600000000000000033e-01,-4.427635549016400995e-01,-2.045827124484105031e-01,-1.117946429001243913e-01
1.610000000000000042e-01,-4.354698700661242539e-01,-9.689094589747326847e-02,-2.146333692348051658e-01
1.620000000000000051e-01,-3.736071541838998367e-01,9.716881874478863756e-02,-2.669916626639793900e-01
1.630000000000000060e-01,-2.140667373511037919e-01,1.919919530051727719e-01,-2.815583783206159763e-01
1.640000000000000069e-01,-3.509601540729478247e-02,2.912132957756101703e-01,-2.531124327314459577e-01
1.650000000000000078e-01,1.465937335420824106e-01,3.735000066699474264e-01,-1.649797114014969479e-01
1.660000000000000087e-01,2.757779188521380376e-01,3.457009834949870131e-01,-1.004526346031090339e-01
1.670000000000000095e-01,4.184076553081562677e-01,3.097617587041744946e-01,3.094166494202864673e-02
1.680000000000000104e-01,4.547587467776949555e-01,1.906423879237109931e-01,1.074130189719782608e-01
1.690000000000000113e-01,4.346707647431589661e-01,6.710771773907638071e-02,1.949901946339624159e-01
1.700000000000000122e-01,3.444658059409360651e-01,-9.112634800050302408e-02,2.464247142586633299e-01
1.710000000000000131e-01,2.031318350365498571e-01,-2.038654221347415973e-01,2.983269040863896771e-01
1.719999999999999862e-01,2.971638010627534673e-02,-3.133729660081586710e-01,2.337657503786966517e-01
1.729999999999999871e-01,-1.822283095959365551e-01,-3.911387191996061330e-01,1.745952883272004486e-01
1.739999999999999880e-01,-3.073872447290102450e-01,-3.609654639793243858e-01,8.128389078366879406e-02
1.749999999999999889e-01,-4.381544787704462207e-01,-2.757801212444772609e-01,-1.154124324299161952e-02
1.759999999999999898e-01,-4.772695237208731123e-01,-1.768078365645937289e-01,-1.204271582571773691e-01
1.769999999999999907e-01,-4.351393868285522437e-01,-3.516201942262930230e-02,-1.590527565413797362e-01
1.779999999999999916e-01,-3.634072384672911160e-01,1.108928616527283806e-01,-2.547137516489800801e-01
1.789999999999999925e-01,-1.969354410505216868e-01,2.372385698865548120e-01,-2.786175725206440079e-01
1.799999999999999933e-01,-2.219114536936795529e-02,3.221658775546659692e-01,-2.403294698220124204e-01
1.809999999999999942e-01,1.840414983651790237e-01,3.701712809193168918e-01,-2.023549795913127669e-01
1.819999999999999951e-01,3.378509377408826508e-01,3.494952714454754861e-01,-1.121694689345645868e-01
1.829999999999999960e-01,4.031315019505499753e-01,2.721792743498469558e-01,3.566200985094759857e-02
1.839999999999999969e-01,4.560893825428121717e-01,1.663741786205134299e-01,1.443363217281350419e-01
1.849999999999999978e-01,4.132942980453261361e-01,1.413648780082528075e-02,1.973867162495905048e-01
1.859999999999999987e-01,3.275083920816678762e-01,-1.368946972177114418e-01,2.800386851823865042e-01
1.869999999999999996e-01,1.566553272587683232e-01,-2.618809217766464581e-01,2.799539121087878946e-01
1.880000000000000004e-01,-6.140860450132182985e-03,-3.292268517740316036e-01,2.618236140715517468e-01
1.890000000000000013e-01,-1.608939159762464155e-01,-3.800059057176122246e-01,1.829010291529687693e-01
1.900000000000000022e-01,-3.651873400115166479e-01,-3.529945049575496929e-01,9.726904493577670507e-02
1.910000000000000031e-01,-4.311815561661522800e-01,-2.705125300092441343e-01,-1.262283674311329672e-02
1.920000000000000040e-01,-4.757140024485804197e-01,-1.355488994039789896e-01,-1.244379103534747344e-01
1.930000000000000049e-01,-4.226928457919962856e-01,4.285040814463775445e-03,-2.075543306961847301e-01
1.940000000000000058e-01,-3.098024341658035530e-01,1.420250235203093514e-01,-2.700861686343087320e-01
1.950000000000000067e-01,-1.226618515859002195e-01,2.543850354501736022e-01,-2.703230557929519051e-01
1.960000000000000075e-01,3.005711279961046506e-02,3.461887129137176666e-01,-2.358785389040456704e-01
1.970000000000000084e-01,1.869603649435477299e-01,3.764861995297533737e-01,-1.860403164313767788e-01
1.980000000000000093e-01,3.401630950063969649e-01,3.185611101117319932e-01,-1.027820289096264689e-01
1.990000000000000102e-01,4.637202158774110794e-01,2.430033686720551034e-01,4.573372075494983036e-02
2.000000000000000111e-01,4.736618753395395176e-01,1.029158004554237837e-01,1.176524120874078566e-01
2.010000000000000120e-01,4.052666990273512404e-01,-2.375859742351840720e-02,1.988767060342719606e-01
2.020000000000000129e-01,3.212272104198968803e-01,-1.735123700899789123e-01,2.744966727023860908e-01
2.030000000000000138e-01,1.199097018003193321e-01,-2.972213127154996193e-01,2.586353670936880622e-01
2.039999999999999869e-01,-3.882296482000031218e-02,-3.668860985014892329e-01,2.568815873112063053e-01
2.049999999999999878e-01,-2.133590290180040761e-01,-3.791655782352038595e-01,1.966463962621215478e-01
2.059999999999999887e-01,-3.607781582805690834e-01,-3.266917177909989811e-01,9.609678193918964884e-02
2.069999999999999896e-01,-4.537272631916746124e-01,-2.304666563312998129e-01,-2.038738290638031359e-02
2.079999999999999905e-01,-4.741804246496795772e-01,-9.374197502924599967e-02,-1.146002558942125077e-01
2.089999999999999913e-01,-4.161734579659246425e-01,5.130414274227301091e-02,-1.942122170535945103e-01
2.099999999999999922e-01,-2.993879467607987732e-01,1.914958211352452144e-01,-2.563898198383398608e-01
2.109999999999999931e-01,-1.182083835799693089e-01,3.213271502708691663e-01,-3.011568123937949926e-01
2.119999999999999940e-01,6.457463533044127679e-02,3.591145313374279335e-01,-2.455404019772842727e-01
2.129999999999999949e-01,2.204988745828459773e-01,3.787779045801690780e-01,-1.943334619806880714e-01
2.139999999999999958e-01,3.673991707674491569e-01,3.201975267224282939e-01,-9.702299465284910940e-02
2.149999999999999967e-01,4.401255267968047780e-01,2.251588457384355035e-01,4.296642342489512267e-02
2.159999999999999976e-01,4.512146252116926437e-01,7.798367078212652126e-02,1.173886877095775688e-01
2.169999999999999984e-01,4.129871480653737881e-01,-6.918378346074968710e-02,1.984525187661957402e-01
2.179999999999999993e-01,2.685734844724843029e-01,-2.295776774544786569e-01,2.572594156250859188e-01
2.190000000000000002e-01,1.187470587509797532e-01,-3.074559301174776826e-01,3.099245263179447596e-01
2.200000000000000011e-01,-6.758864822542375028e-02,-3.733458200736386456e-01,2.516621088405494033e-01
2.210000000000000020e-01,-2.254816868290087373e-01,-3.685066373368405257e-01,1.703581684362958093e-01
2.220000000000000029e-01,-3.736448335544195753e-01,-2.961617778743552698e-01,1.020684789417646704e-01
2.230000000000000038e-01,-4.472179746836006387e-01,-1.928971757002833076e-01,1.725307055615164439e-02
2.240000000000000047e-01,-4.531847044910188305e-01,-4.817776361100044313e-02,-1.049426031031520101e-01
2.250000000000000056e-01,-3.617030289761923312e-01,1.284605649930669613e-01,-2.170216259105847700e-01
2.260000000000000064e-01,-2.769571626715741641e-01,2.443911679346073562e-01,-2.520618736832906936e-01
2.270000000000000073e-01,-9.286804845930114738e-02,3.119887751882360338e-01,-2.771407143370694381e-01
2.280000000000000082e-01,8.270897868194984626e-02,3.653712929981464685e-01,-2.347801032711847036e-01
2.290000000000000091e-01,2.636318127890385221e-01,3.693048309119900119e-01,-1.763921545852511485e-01
2.300000000000000100e-01,3.676384041430942329e-01,3.023226802226767207e-01,-9.219947547032163182e-02
2.310000000000000109e-01,4.662044771365171925e-01,1.527324626706735577e-01,-5.517592018303596468e-03
2.320000000000000118e-01,4.554892197386425923e-01,1.268904168482111895e-03,1.398380588691729987e-01
2.330000000000000127e-01,3.532931677599569498e-01,-1.101396296785036727e-01,2.299263252314806827e-01
2.340000000000000135e-01,2.585604443659427210e-01,-2.637850012319820081e-01,2.550615598987651111e-01
2.349999999999999867e-01,7.631164710675475416e-02,-3.628511955724397775e-01,2.783837130779860392e-01
2.359999999999999876e-01,-8.622190309685724696e-02,-3.586139951020131944e-01,2.455656037677274861e-01
2.369999999999999885e-01,-2.808880254218050210e-01,-3.403316856975162064e-01,1.814515432927358840e-01
2.379999999999999893e-01,-3.998845499171723161e-01,-2.667332289073803819e-01,6.212220595070060136e-02
2.389999999999999902e-01,-4.391672683097322394e-01,-1.313248446892731625e-01,-2.374703626062038293e-03
2.399999999999999911e-01,-4.494459619421019014e-01,-3.864145391988937656e-03,-1.027044497123835998e-01
2.409999999999999920e-01,-3.688292628054039013e-01,1.484770849234581802e-01,-2.119157752094438796e-01
2.419999999999999929e-01,-2.199602870084230999e-01,2.525224093694360961e-01,-2.733727309814927287e-01
2.429999999999999938e-01,-8.298237720943930917e-02,3.435109106877284879e-01,-2.893289327187878457e-01
2.439999999999999947e-01,6.625872012959892199e-02,3.472258519709309210e-01,-2.484804028884680382e-01
2.449999999999999956e-01,2.802559311540750442e-01,3.381589584351335498e-01,-1.784756564576540083e-01
2.459999999999999964e-01,3.905629801786244526e-01,2.463387206770144000e-01,-1.102746117065227238e-01
2.469999999999999973e-01,4.691515769708033967e-01,1.215838962968368159e-01,9.505020682670319021e-03
2.479999999999999982e-01,4.476112026451410375e-01,-1.952761833705993211e-02,1.128971132058955579e-01
2.489999999999999991e-01,3.576769061981152631e-01,-1.673385785487091493e-01,1.885547733200565179e-01
2.500000000000000000e-01,2.344241973136354240e-01,-2.701785024648293843e-01,2.776308489156846249e-01
2.510000000000000009e-01,6.367564272279510607e-02,-3.384552834963550083e-01,2.747698332224142725e-01
2.520000000000000018e-01,-1.252224756891044399e-01,-3.820779045372400540e-01,2.392826061419294492e-01
2.530000000000000027e-01,-2.977053672560889264e-01,-3.067825149676208785e-01,1.865899032731809792e-01
2.540000000000000036e-01,-4.130502615343173423e-01,-2.184549801081952791e-01,7.285733540196437374e-02
2.550000000000000044e-01,-4.736017954991991186e-01,-1.063345757481084924e-01,-1.312312218325348105e-02
2.560000000000000053e-01,-4.650740968233084693e-01,5.593215730306438926e-02,-1.383486838605211267e-01
2.570000000000000062e-01,-3.553344892118008858e-01,1.930445169106540515e-01,-2.151165267757998156e-01
2.580000000000000071e-01,-2.153710697484858549e-01,2.867420873598258702e-01,-2.573510490172732923e-01
2.590000000000000080e-01,-4.088335057565797848e-02,3.557529244300847160e-01,-2.656536366884805767e-01
2.600000000000000089e-01,1.703234668835194032e-01,3.474587598042141456e-01,-2.393383903686484293e-01
2.610000000000000098e-01,2.979610785239311110e-01,3.004688980797508013e-01,-1.613141680438397174e-01
2.620000000000000107e-01,4.191700351867984620e-01,2.258353662081960256e-01,-7.556335043037254451e-02
2.630000000000000115e-01,4.717914726511591716e-01,8.373297263075828167e-02,7.949278070032239282e-03
2.640000000000000124e-01,4.345362453007171610e-01,-7.246278822419217891e-02,1.279923469466379138e-01
2.650000000000000133e-01,3.630741233950755542e-01,-2.014593227950635113e-01,2.055289258605899061e-01
2.660000000000000142e-01,2.008382519875939742e-01,-3.312379895407563946e-01,2.399396309064041333e-01
2.670000000000000151e-01,1.032155941040386292e-02,-3.878503251087673243e-01,2.423802365016793636e-01
2.680000000000000160e-01,-1.854928728003187310e-01,-3.615023856352699294e-01,2.458101552197153039e-01
2.690000000000000169e-01,-3.079671721788036498e-01,-2.880088407332317968e-01,2.012366993814063143e-01
2.700000000000000178e-01,-4.089995798040857444e-01,-2.065667929470612896e-01,9.123827996770088322e-02
2.710000000000000187e-01,-4.712346227404764498e-01,-4.887252284690601217e-02,-3.204912125653448102e-02
2.720000000000000195e-01,-4.260077024124104828e-01,1.392448256615211877e-01,-1.208532967172348399e-01
2.730000000000000204e-01,-3.314901108480636793e-01,2.270280683905898100e-01,-2.277835917382574904e-01
2.740000000000000213e-01,-1.688360657964137757e-01,3.239183881560999678e-01,-2.662445556706638516e-01
2.750000000000000222e-01,-3.409083685750350506e-02,3.646274714733246380e-01,-2.819770934819879060e-01
2.760000000000000231e-01,1.942209758253154450e-01,3.716352136492452329e-01,-2.596420129248592223e-01
2.770000000000000240e-01,3.324594469447750278e-01,2.725145765884825488e-01,-1.697490384023491172e-01
2.780000000000000249e-01,4.369369737225203831e-01,1.918962437462136683e-01,-1.041630422304714032e-01
2.790000000000000258e-01,4.765110081105252138e-01,4.369893866337078853e-02,2.772640063936781737e-02
2.800000000000000266e-01,4.350469209495557155e-01,-1.054542059339449445e-01,9.956373397489534649e-02
2.810000000000000275e-01,3.207090406835260143e-01,-2.174763938053038137e-01,2.002861237088342516e-01
2.819999999999999729e-01,1.927889565766563729e-01,-3.572927436700509829e-01,2.724141973988487009e-01
2.829999999999999738e-01,-8.653900783090574117e-03,-3.710740618285811032e-01,2.823161538512142243e-01
2.839999999999999747e-01,-1.845629821368888202e-01,-3.541924685366042436e-01,2.171939755260113014e-01
2.849999999999999756e-01,-3.420537309020907912e-01,-2.977946428689638436e-01,1.683851563408179930e-01
2.859999999999999765e-01,-4.339215175627445520e-01,-1.317709341851361904e-01,7.802884691436327846e-02
2.869999999999999774e-01,-4.501106619293529509e-01,-5.705101280425449971e-03,-2.623276517772850369e-02
2.879999999999999782e-01,-4.236361153856281203e-01,1.529460999316761827e-01,-1.122915906764124228e-01
2.889999999999999791e-01,-3.234751076079490084e-01,2.731371352878569359e-01,-2.002666849569677276e-01
2.899999999999999800e-01,-1.295147196718971216e-01,3.267956033384173953e-01,-2.766679068738513436e-01
2.909999999999999809e-01,2.150149347307517972e-02,3.722582562853474775e-01,-2.907063702514640635e-01
2.919999999999999818e-01,1.978974976469806413e-01,3.307570451767663511e-01,-2.416098889034827002e-01
2.929999999999999827e-01,3.618829157005366559e-01,2.205077397676047934e-01,-1.799740638300228457e-01
2.939999999999999836e-01,4.453023518876178533e-01,1.273644115347024042e-01,-7.457717327831624166e-02
2.949999999999999845e-01,4.534594377591515957e-01,-1.177323461465658652e-02,1.271985354716739444e-02
2.959999999999999853e-01,4.249505996272568975e-01,-1.681362699165509789e-01,1.076976911869504949e-01
2.969999999999999862e-01,3.066566652540230198e-01,-2.640918333492787151e-01,2.050333570413856443e-01
2.979999999999999871e-01,1.382118069329216492e-01,-3.688945483289330363e-01,2.445273057295724584e-01
2.989999999999999880e-01,-3.966625853954251768e-02,-3.599416339366479090e-01,2.843121012778893619e-01
2.999999999999999889e-01,-2.281931142137724189e-01,-3.467026269556483520e-01,2.688235500284121282e-01
3.009999999999999898e-01,-3.322091394433941969e-01,-2.229513430670266583e-01,1.722763891759251931e-01
3.019999999999999907e-01,-4.510065127723858480e-01,-1.214850732058988109e-01,9.926643282855814043e-02
3.029999999999999916e-01,-4.429843797437653663e-01,5.089394676601959044e-02,-7.467823139247839123e-03
3.039999999999999925e-01,-3.895666537074003455e-01,1.869581927552894929e-01,-1.259861985857034794e-01
3.049999999999999933e-01,-2.759549787959172940e-01,2.959674423893388084e-01,-1.998012566930489620e-01
3.059999999999999942e-01,-1.152580085356618711e-01,3.551254874093805469e-01,-2.704211158051774699e-01
3.069999999999999951e-01,6.343140938167986242e-02,3.852477454399154122e-01,-2.572581177738474945e-01
3.079999999999999960e-01,2.120144184550104005e-01,3.167147720131607835e-01,-2.244066246477212090e-01
3.089999999999999969e-01,3.811403044273221075e-01,2.300413320986318400e-01,-1.802532412161825248e-01
3.099999999999999978e-01,4.354960195623813757e-01,9.125717593508833603e-02,-9.143554754912462668e-02
3.109999999999999987e-01,4.509295774690093017e-01,-5.338873336559256388e-02,2.723812771759943560e-02
3.119999999999999996e-01,3.790917881875400242e-01,-2.154059535642841861e-01,1.529380236445325725e-01
3.130000000000000004e-01,3.002919723676908403e-01,-2.908083213401449485e-01,2.023834309894488315e-01
3.140000000000000013e-01,1.150848441322266380e-01,-3.773991138603947082e-01,2.779553556932631286e-01
3.150000000000000022e-01,-9.380112662678040392e-02,-3.626517131794180782e-01,2.768950542778366164e-01
3.160000000000000031e-01,-2.079066156776704921e-01,-2.985571364094353197e-01,2.267646262768439613e-01
3.170000000000000040e-01,-3.897774560835075008e-01,-2.037313648531993704e-01,1.823216594233255938e-01
3.180000000000000049e-01,-4.638342472421054796e-01,-6.491300339946545761e-02,9.691241587373829180e-02
3.190000000000000058e-01,-4.287624252890587795e-01,6.699115421845988627e-02,-2.568878397217155829e-02
3.200000000000000067e-01,-3.825426187603760408e-01,2.177404631909265753e-01,-1.332245198361014515e-01
3.210000000000000075e-01,-2.913704111196021018e-01,3.103885998254786172e-01,-2.094002685118677709e-01
3.220000000000000084e-01,-8.024998192834661981e-02,3.401750061214748877e-01,-2.630436099232579261e-01
3.230000000000000093e-01,7.070534586350117612e-02,3.333320703706508792e-01,-2.614408105698251550e-01
3.240000000000000102e-01,2.476917779484348603e-01,2.941253743362062800e-01,-2.303145914474010736e-01
3.250000000000000111e-01,4.003007951424190636e-01,1.547595304623717583e-01,-1.584143039871883651e-01
3.260000000000000120e-01,4.877457176684896756e-01,3.645605093990390150e-02,-8.487809528753567645e-02
3.270000000000000129e-01,4.571307556346690948e-01,-1.376597743969942000e-01,3.139655913604384729e-02
3.280000000000000138e-01,3.894023026062314874e-01,-2.415931509595204418e-01,1.217972605587022972e-01
3.290000000000000147e-01,2.442701751871096949e-01,-3.200457216274237293e-01,2.130057009159805614e-01
3.300000000000000155e-01,9.279781678386916921e-02,-3.900458957627948031e-01,2.523509794435757625e-01
3.310000000000000164e-01,-9.764659033371261843e-02,-3.610899587528124122e-01,2.659250506280732562e-01
3.320000000000000173e-01,-2.697584668941415686e-01,-2.561186021653155676e-01,2.513244508661238164e-01
3.330000000000000182e-01,-3.966008872249202066e-01,-1.810112327998684989e-01,1.851991450108036730e-01
3.340000000000000191e-01,-4.663983325793593648e-01,-2.345803608009158683e-03,7.673550296059006293e-02
3.350000000000000200e-01,-4.380190513832055155e-01,1.647435252515063731e-01,-1.273273558073921043e-02
3.360000000000000209e-01,-3.891804350969024773e-01,2.544160482707372162e-01,-1.213898648683190556e-01
3.370000000000000218e-01,-2.416046298036140239e-01,3.347850913664928152e-01,-2.340415079136001220e-01
3.380000000000000226e-01,-5.735212671006833379e-02,3.911102547190685730e-01,-2.703985022601384514e-01
3.390000000000000235e-01,1.066363204248614305e-01,3.283828865466366653e-01,-2.824539015973662193e-01
3.400000000000000244e-01,2.837810732443731276e-01,2.857972818360460798e-01,-2.585706535123067362e-01
3.410000000000000253e-01,4.038283499309459623e-01,1.046310595795772319e-01,-1.861546924993799368e-01
3.420000000000000262e-01,4.660677300459522554e-01,-1.095742883854495912e-02,-9.759151588093389895e-02
3.430000000000000271e-01,4.714283633006012275e-01,-1.688621620226095355e-01,2.934640102304732906e-02
3.439999999999999725e-01,3.464241655722442581e-01,-2.720335136840593138e-01,1.357665374202026987e-01
3.449999999999999734e-01,2.302390926619624911e-01,-3.444672660004303721e-01,2.206886159112521895e-01
3.459999999999999742e-01,6.255169065685586838e-02,-3.390028025237581955e-01,2.507166451714524236e-01
3.469999999999999751e-01,-1.196935554562454790e-01,-3.171311683109289126e-01,2.866802564131711306e-01
3.479999999999999760e-01,-2.992291269433947631e-01,-2.623178059325987355e-01,2.412455532874504538e-01
3.489999999999999769e-01,-3.774899975026694277e-01,-1.218971556737371842e-01,1.957962840414857464e-01
3.499999999999999778e-01,-4.683254836239090779e-01,4.050492742221658421e-02,7.859392873698541060e-02
3.509999999999999787e-01,-4.449305409906833542e-01,1.809656348132601122e-01,-2.975068685157003165e-02
3.519999999999999796e-01,-3.613011088531383752e-01,3.011852805666028754e-01,-1.058103411404428262e-01
3.529999999999999805e-01,-2.249101827328915393e-01,3.435535228786213979e-01,-1.842602504194002788e-01
3.539999999999999813e-01,-5.985075785681685107e-02,3.666145732345509889e-01,-2.462671655815813210e-01
3.549999999999999822e-01,1.379974109943499228e-01,3.140726751598196809e-01,-2.702872915485692307e-01
3.559999999999999831e-01,2.952085637768921411e-01,2.115967927446656960e-01,-2.385158051271091817e-01
3.569999999999999840e-01,4.052259830575852262e-01,9.696468214442056921e-02,-2.029810586790032900e-01
3.579999999999999849e-01,4.768571190653189684e-01,-7.165590966497446812e-02,-9.111282433734629871e-02
3.589999999999999858e-01,4.314311954290948048e-01,-2.125384377520147805e-01,5.447961808607586220e-02
3.599999999999999867e-01,3.502817411776801837e-01,-3.254751673392127231e-01,1.121778269472935297e-01
3.609999999999999876e-01,2.008226889923984959e-01,-3.480112549915311826e-01,1.904725890496287988e-01
3.619999999999999885e-01,6.382636169304988991e-03,-3.683924187031820674e-01,2.581794386696956156e-01
3.629999999999999893e-01,-1.525287415966136706e-01,-2.914598481672119323e-01,2.917980752166680625e-01
3.639999999999999902e-01,-3.103715979784900103e-01,-2.050006568458274947e-01,2.385536763622189416e-01
3.649999999999999911e-01,-4.276654934423076981e-01,-7.384993421967409044e-02,1.813642997465577389e-01
3.659999999999999920e-01,-4.556147650049376940e-01,7.420204189692099217e-02,7.577433646091456809e-02
3.669999999999999929e-01,-4.176731239506340509e-01,2.196724918829936202e-01,-9.566866992275057519e-03
3.679999999999999938e-01,-3.233926302385965457e-01,3.387068131618808930e-01,-1.591986403523598659e-01
3.689999999999999947e-01,-2.103215347999067841e-01,3.558131383120225477e-01,-2.127245020061288572e-01
3.699999999999999956e-01,2.142937272263543969e-02,3.686246495815662105e-01,-2.781158091195983229e-01
3.709999999999999964e-01,1.679287931223379382e-01,2.862611926047272659e-01,-2.743622956048636374e-01
3.719999999999999973e-01,3.266506713780927273e-01,1.681377560150900952e-01,-2.503170206067836800e-01
3.729999999999999982e-01,4.134651361514648515e-01,3.856581493553176698e-02,-1.870010677750387484e-01
3.739999999999999991e-01,4.491623702597025702e-01,-1.166664047997535564e-01,-9.687254699087305410e-02
3.750000000000000000e-01,4.040508708519192083e-01,-2.400802799748383010e-01,2.425738577930198342e-02
3.760000000000000009e-01,3.281374452947085074e-01,-3.183395868447320698e-01,1.188245115667418694e-01
3.770000000000000018e-01,1.773588797866542943e-01,-3.725640556081140642e-01,1.947119732518083901e-01
3.780000000000000027e-01,-2.452500422429185201e-02,-3.550174688982352666e-01,2.684253768513074068e-01
3.790000000000000036e-01,-1.835289095060667897e-01,-2.616419908207160416e-01,2.679694422974314150e-01
3.800000000000000044e-01,-3.120348263398670108e-01,-1.477051655321020562e-01,2.558461146076036474e-01
3.810000000000000053e-01,-4.432087411375484898e-01,-1.835128293087941870e-02,1.716152071414453473e-01
3.820000000000000062e-01,-4.619230190586641749e-01,1.401531999336292633e-01,8.731370704500510116e-02
3.830000000000000071e-01,-4.286088852369570601e-01,2.524095471276143199e-01,-5.843239453836095512e-03
3.840000000000000080e-01,-3.244607181223829739e-01,3.516993949681556653e-01,-1.262890261179556162e-01
3.850000000000000089e-01,-1.563472477221574675e-01,3.569082140080810372e-01,-1.848413124311418243e-01
3.860000000000000098e-01,2.307690929515162498e-02,3.624977525855429539e-01,-2.644556339888312624e-01
3.870000000000000107e-01,1.801955673838903094e-01,2.557108970502421919e-01,-2.603661325224975731e-01
3.880000000000000115e-01,3.378116308690259917e-01,1.533109250043683536e-01,-2.507588474733781214e-01
3.890000000000000124e-01,4.107325970984764818e-01,-1.355987990633412965e-02,-1.958270608350279052e-01
3.900000000000000133e-01,4.677515662486070869e-01,-1.417514778699885403e-01,-9.832281855564142803e-02
3.910000000000000142e-01,4.383765399577534971e-01,-2.756285607293361695e-01,3.759809513550752685e-02
3.920000000000000151e-01,2.900804148894417511e-01,-3.463534995860766963e-01,1.153244877968652993e-01
3.930000000000000160e-01,1.595055707345438833e-01,-3.619311499918465014e-01,2.201744957125457702e-01
3.940000000000000169e-01,-5.038269750353176896e-02,-3.366198691492520156e-01,2.643131514233498791e-01
3.950000000000000178e-01,-2.143668739206463225e-01,-2.345203137880525479e-01,2.739307669176153648e-01
3.960000000000000187e-01,-3.569677141418177158e-01,-1.285578301935415835e-01,2.359229671509787407e-01
3.970000000000000195e-01,-4.420240273400362074e-01,4.554010888513363581e-02,1.830101174030735744e-01
3.980000000000000204e-01,-4.836969276881835089e-01,1.928911536888226752e-01,8.609857468743295494e-02
3.990000000000000213e-01,-4.078562840873531381e-01,3.053007084996995912e-01,-4.739617276696547060e-02
4.000000000000000222e-01,-2.713230149233628041e-01,3.575113709589333166e-01,-1.389725719034232698e-01
4.010000000000000231e-01,-1.107463290241991749e-01,3.719847863123232345e-01,-1.994123129724479360e-01
4.020000000000000240e-01,2.878276855063531883e-02,3.067148391361307347e-01,-2.489175557250876136e-01
4.030000000000000249e-01,2.284693969865446150e-01,2.209984218553311397e-01,-2.760506380932588044e-01
4.040000000000000258e-01,3.486521044312465567e-01,9.537399187941464351e-02,-2.518792956690306117e-01
4.050000000000000266e-01,4.554255160784961287e-01,-6.057859979368169362e-02,-1.786753134123935383e-01
4.060000000000000275e-01,4.450936808858135252e-01,-1.941890187849997507e-01,-1.115605593210302615e-01
4.069999999999999729e-01,3.817146853625545955e-01,-2.711090241769255615e-01,3.870063943714555782e-02
4.079999999999999738e-01,2.880422308678981524e-01,-3.647139803323289908e-01,1.417798126621366561e-01
4.089999999999999747e-01,1.176595222667378565e-01,-3.665636838679286469e-01,1.895607436392356404e-01
4.099999999999999756e-01,-9.209329727220444406e-02,-3.038413582413819758e-01,2.672874101762285348e-01
4.109999999999999765e-01,-2.555144658398604829e-01,-1.963066367747436369e-01,2.810490443303698127e-01
4.119999999999999774e-01,-3.888521447812017806e-01,-5.490876318944633294e-02,2.430361782605311161e-01
4.129999999999999782e-01,-4.572730494704444482e-01,6.056059480434089481e-02,1.785476950624682313e-01
4.139999999999999791e-01,-4.597189072600542104e-01,2.107655066570449376e-01,8.957906246069775869e-02
4.149999999999999800e-01,-4.017819639438787171e-01,3.015913185558856680e-01,-6.571099951520257068e-03
4.159999999999999809e-01,-2.665989619934324706e-01,3.743180274077174130e-01,-1.380581561759347542e-01
4.169999999999999818e-01,-1.152154313037479227e-01,3.807500341260531829e-01,-2.107073596253112580e-01
4.179999999999999827e-01,6.361616721708662769e-02,3.009995724761519442e-01,-2.743936134208744271e-01
4.189999999999999836e-01,2.569509207255656902e-01,1.652059767238753529e-01,-2.903998759213305969e-01
4.199999999999999845e-01,3.793901054069345191e-01,3.421827643524090468e-02,-2.266192657234156194e-01
4.209999999999999853e-01,4.335666771164742861e-01,-1.091511292784713844e-01,-1.824483608684676628e-01
4.219999999999999862e-01,4.677908488471297921e-01,-2.255105352684474151e-01,-8.752983951580101118e-02
4.229999999999999871e-01,4.042235053612521223e-01,-3.339591447787264022e-01,3.077970862584405304e-02
4.239999999999999880e-01,2.541655385903390241e-01,-3.579127398921158054e-01,1.152688336472348640e-01
4.249999999999999889e-01,7.297287072172053968e-02,-3.409740520214525339e-01,2.063149552485518123e-01
4.259999999999999898e-01,-8.615789097843293276e-02,-2.735277169916307538e-01,2.584929901786753303e-01
4.269999999999999907e-01,-2.784173569895674327e-01,-1.809156000211201154e-01,2.789403377962133002e-01
4.279999999999999916e-01,-3.704715979008696980e-01,6.029379468144704067e-03,2.278770691479617416e-01
4.289999999999999925e-01,-4.703646499373111411e-01,1.465948695107606170e-01,1.776716033494184499e-01
4.299999999999999933e-01,-4.538188838862469154e-01,2.471037055552323947e-01,7.157955316807620982e-02
4.309999999999999942e-01,-3.486935248892352734e-01,3.691922827365151094e-01,-7.029073014840737411e-03
4.319999999999999951e-01,-2.222438770359042026e-01,3.773478818365708087e-01,-1.456264993916883133e-01
4.329999999999999960e-01,-7.461856849566432526e-02,3.676242971567318385e-01,-1.965192565339209108e-01
4.339999999999999969e-01,1.120288039734002455e-01,2.511631634909579081e-01,-2.589917470537891897e-01
4.349999999999999978e-01,2.911299817908035714e-01,1.359727423046942218e-01,-2.658157758302046036e-01
4.359999999999999987e-01,3.793714479595874378e-01,-2.577269368393993870e-02,-2.503457868936823649e-01
4.369999999999999996e-01,4.691440341394310098e-01,-1.758099903540013553e-01,-1.621649302693923822e-01
4.380000000000000004e-01,4.690649882904222023e-01,-2.807683638979697749e-01,-7.762203436055077621e-02
4.390000000000000013e-01,3.427194632433996913e-01,-3.586927822482716688e-01,6.309431261378473446e-03
4.400000000000000022e-01,2.142670009415596211e-01,-3.724255033970806372e-01,1.312506727635035231e-01
4.410000000000000031e-01,7.361049596749603963e-02,-3.578095585691769553e-01,1.943223549388482241e-01
4.420000000000000040e-01,-1.301977629310922258e-01,-2.263195966448394991e-01,2.469115394738796709e-01
4.430000000000000049e-01,-2.656273798911545914e-01,-1.183484477557446291e-01,3.015922356778039659e-01
4.440000000000000058e-01,-4.268826486300616452e-01,2.604909166631584269e-02,2.594867740792070054e-01
4.450000000000000067e-01,-4.668878222226991448e-01,1.837393809179917736e-01,1.664461253464726564e-01
4.460000000000000075e-01,-4.576446117592202767e-01,2.919993607580004813e-01,5.945489609787585339e-02
4.470000000000000084e-01,-3.488255469646727169e-01,3.641015448268082877e-01,-3.008479267009842029e-02
4.480000000000000093e-01,-2.316899448134066564e-01,3.596074609368491437e-01,-1.383023862276875349e-01
4.490000000000000102e-01,-4.196849896732532392e-02,3.364209324147690028e-01,-2.252962760183452873e-01
4.500000000000000111e-01,1.415588768789457774e-01,2.140653562180465097e-01,-2.583324374873404161e-01
4.510000000000000120e-01,3.136727736790750898e-01,1.023762821454541339e-01,-2.761069996492076517e-01
4.520000000000000129e-01,4.151291457779944238e-01,-4.608818416065836587e-02,-2.458943524872561071e-01
4.530000000000000138e-01,4.574769550892562875e-01,-2.017993801358229089e-01,-1.663067153333003534e-01
4.540000000000000147e-01,4.354043525296706352e-01,-3.040730352967770389e-01,-1.068451829642226847e-01
4.550000000000000155e-01,3.519622595439829693e-01,-3.583037032466621641e-01,2.770554451106262833e-02
4.560000000000000164e-01,1.903511759069531906e-01,-3.692590795447486807e-01,1.315087262361968046e-01
4.570000000000000173e-01,2.712665736659002763e-02,-2.986444142067647967e-01,2.076528238566750506e-01
4.580000000000000182e-01,-1.493675067486911201e-01,-2.013996253945412040e-01,2.730588564816053276e-01
4.590000000000000191e-01,-3.193214470945007766e-01,-9.323227762902283611e-02,2.883839784958591168e-01
4.600000000000000200e-01,-4.215220860397486113e-01,7.427071002518381704e-02,2.351629906538509895e-01
4.610000000000000209e-01,-4.656130893320098996e-01,2.068628301261477009e-01,1.720030700475021213e-01
4.620000000000000218e-01,-4.447726785146179918e-01,3.259576345779640061e-01,7.265739987373810715e-02
4.630000000000000226e-01,-3.339432235050110997e-01,3.538002084872277075e-01,-3.148631350607539875e-02
4.640000000000000235e-01,-1.836902781490674375e-01,3.741489601123880737e-01,-1.270990299705310744e-01
4.650000000000000244e-01,-1.665223422205230550e-02,2.891571043030400912e-01,-2.293307677850694171e-01
4.660000000000000253e-01,1.780831452864795050e-01,1.947588772165923798e-01,-2.571309778972871718e-01
4.670000000000000262e-01,3.209164639671675534e-01,4.464248555524962664e-02,-3.042499619313643322e-01
4.680000000000000271e-01,4.453687235017135815e-01,-9.707405200842419979e-02,-2.604247373748402317e-01
4.689999999999999725e-01,4.649191876338710228e-01,-2.273386167366756028e-01,-2.082848826791254548e-01
4.699999999999999734e-01,4.346429496199097908e-01,-3.293881541584914863e-01,-8.592582808029912422e-02
4.709999999999999742e-01,3.189860015792132519e-01,-3.428577699677493040e-01,2.204418519319862116e-02
4.719999999999999751e-01,1.813386427268928458e-01,-3.540945926326395377e-01,1.343382084937685406e-01
4.729999999999999760e-01,-1.388385842376596221e-02,-2.848041990547640068e-01,2.152828865776106326e-01
4.739999999999999769e-01,-1.845813270493707747e-01,-1.525046855466114792e-01,2.486996177326954993e-01
4.749999999999999778e-01,-3.427510313077525295e-01,-1.458478167192305344e-02,2.821710768900221322e-01
4.759999999999999787e-01,-4.184885161461001091e-01,1.150678027326692415e-01,2.587706145230768140e-01
4.769999999999999796e-01,-4.410157746117580047e-01,2.518748012237878586e-01,1.614644809178415186e-01
4.779999999999999805e-01,-4.166979114319829813e-01,3.209339244436323901e-01,6.957750598764657346e-02
4.789999999999999813e-01,-2.886598332705619940e-01,3.763621542675871789e-01,-5.151095877924482744e-03
4.799999999999999822e-01,-1.741733641523611764e-01,3.186099627450184602e-01,-1.251536891774583937e-01
4.809999999999999831e-01,1.782856384390391416e-02,2.644028746013689646e-01,-2.278378111221256441e-01
4.819999999999999840e-01,2.088812017974414625e-01,1.353938977979710634e-01,-2.680921773780434170e-01
4.829999999999999849e-01,3.482717984766404151e-01,-1.855356916356821866e-03,-2.771885134998431366e-01
4.839999999999999858e-01,4.134125607140844427e-01,-1.473664929238497068e-01,-2.519589851584182472e-01
4.849999999999999867e-01,4.736100971460722731e-01,-2.785713542445653612e-01,-1.549738114876812456e-01
4.859999999999999876e-01,4.163117514049355927e-01,-3.679800646412874632e-01,-8.834268244216300636e-02
4.869999999999999885e-01,3.026704160968936574e-01,-3.790915478493490642e-01,3.010643591663609425e-02
4.879999999999999893e-01,1.616435125708873544e-01,-3.315678288267390195e-01,1.254894760872631299e-01
4.889999999999999902e-01,-3.361000092384849869e-02,-2.550330645556206366e-01,1.965050171913688970e-01
4.899999999999999911e-01,-2.049983638312293244e-01,-1.326629260129558729e-01,2.583716337165036792e-01
4.909999999999999920e-01,-3.732540318527543532e-01,1.544393023940150364e-02,2.461430237272232702e-01
4.919999999999999929e-01,-4.392110494477517446e-01,1.689063040238291680e-01,2.443434661371967076e-01
4.929999999999999938e-01,-4.731184813430972524e-01,2.771845719189123813e-01,1.866211367839492319e-01
4.939999999999999947e-01,-3.968330346656838703e-01,3.500537276687049615e-01,9.362208292335083559e-02
4.949999999999999956e-01,-3.018481302401825328e-01,3.809070769257631439e-01,-2.191812749601477692e-02
4.959999999999999964e-01,-1.216441959061565631e-01,3.080677303361576413e-01,-1.174970054949259490e-01
4.969999999999999973e-01,6.003662467001164016e-02,2.488070015685373004e-01,-2.338340109564695790e-01
4.979999999999999982e-01,2.232389185988461755e-01,1.129071067010130047e-01,-2.827435011672942977e-01
4.989999999999999991e-01,3.739920277553986927e-01,-2.928279205957949952e-02,-2.903173441749468120e-01
5.000000000000000000e-01,4.541330526997046091e-01,-1.905655587271926632e-01,-2.435657554081768761e-01
5.010000000000000009e-01,4.455714115587808832e-01,-3.083556276180901001e-01,-2.014572808972570628e-01
5.020000000000000018e-01,4.093552976160096391e-01,-4.009814976414829424e-01,-9.109691771576446107e-02
5.030000000000000027e-01,2.785781200141844716e-01,-3.735744050860996812e-01,4.180472168639283274e-03
5.040000000000000036e-01,1.133633962596041073e-01,-3.097601243175037156e-01,1.194137532308428701e-01
5.050000000000000044e-01,-5.311050773470836484e-02,-2.301148581077386013e-01,2.254212230982143850e-01
5.060000000000000053e-01,-2.396381006274339587e-01,-8.678092192113286141e-02,2.605332405010084562e-01
5.070000000000000062e-01,-3.585599016499186886e-01,6.017535565034097533e-02,2.848139114401460614e-01
5.080000000000000071e-01,-4.602243261471311575e-01,2.061594607728774453e-01,2.610584344759946940e-01
5.090000000000000080e-01,-4.681921422500359697e-01,2.874656077996700088e-01,1.752562849071400974e-01
5.100000000000000089e-01,-3.946693354873581638e-01,3.665232294201954399e-01,6.207930319803219021e-02
5.110000000000000098e-01,-2.461330484557611442e-01,3.622536528408635270e-01,-3.742967865076739925e-02
5.120000000000000107e-01,-1.016782374192691796e-01,3.130623481786211637e-01,-1.762177689770243472e-01
5.130000000000000115e-01,7.786126378436386553e-02,2.108124036633515774e-01,-2.244691257348510327e-01
5.140000000000000124e-01,2.356783207617005327e-01,1.850759279340525101e-02,-2.567323825448523111e-01
5.150000000000000133e-01,3.922564729178055210e-01,-1.074687074704651774e-01,-2.802791120515651380e-01
5.160000000000000142e-01,4.577764839121392648e-01,-2.319306301725298503e-01,-2.570727161175230258e-01
5.170000000000000151e-01,4.331054029477005574e-01,-3.224268984089201928e-01,-1.787273524711863459e-01
5.180000000000000160e-01,3.922278335221207057e-01,-3.502088186204854736e-01,-9.086271025555699155e-02
5.190000000000000169e-01,2.562304554713312199e-01,-3.495641188498123109e-01,2.868193826070747701e-02
5.200000000000000178e-01,6.944639585736145371e-02,-3.039043063652556165e-01,1.301004062475789036e-01
5.210000000000000187e-01,-9.598126968188840091e-02,-1.510863364974686374e-01,2.006425896055319680e-01
5.220000000000000195e-01,-2.826282563934234271e-01,-9.255851074306400278e-03,2.664028599326049851e-01
5.230000000000000204e-01,-3.981941217974328540e-01,1.167432980374141088e-01,2.850055032757177198e-01
5.240000000000000213e-01,-4.546579308949788012e-01,2.484251762870313129e-01,2.341192038114814911e-01
5.250000000000000222e-01,-4.433956318344511316e-01,3.686176230170667978e-01,1.742801129133464688e-01
5.260000000000000231e-01,-3.983157497918604628e-01,3.574796080923233754e-01,6.092000691314099908e-02
5.270000000000000240e-01,-2.571493710019736034e-01,3.453371015158336887e-01,-3.945073234805742540e-02
5.280000000000000249e-01,-7.175006834228335462e-02,2.351047761988556140e-01,-1.205738698404031223e-01
5.290000000000000258e-01,1.002527072741555281e-01,1.394649045755253225e-01,-1.977283428667672427e-01
5.300000000000000266e-01,2.881366141724057695e-01,-1.327783233608233367e-02,-2.731090081181952733e-01
5.310000000000000275e-01,3.789048204575017897e-01,-1.242724428703162604e-01,-2.853599754025951674e-01
5.320000000000000284e-01,4.760901541688225547e-01,-2.405746149827885649e-01,-2.390097255080476935e-01
5.330000000000000293e-01,4.523174329412367745e-01,-3.286150790964527113e-01,-1.653433801457441510e-01
5.340000000000000302e-01,3.674219736519326318e-01,-3.839732970859475181e-01,-7.871056608611347316e-02
5.350000000000000311e-01,2.469695994632252756e-01,-3.439749477525208543e-01,3.341815176271167170e-02
5.360000000000000320e-01,5.910587138384833933e-02,-2.620047528608990262e-01,1.218342290745801637e-01
5.370000000000000329e-01,-1.374411356633947479e-01,-1.296418724495553843e-01,2.192137321656127680e-01
5.380000000000000338e-01,-2.914042663181144466e-01,1.265582624948625480e-02,2.236480665893649522e-01
5.390000000000000346e-01,-3.888965151899018147e-01,1.743690913661549435e-01,2.928985958916867083e-01
5.400000000000000355e-01,-4.574950265223684531e-01,3.170265929124455040e-01,2.388085515679751469e-01
5.410000000000000364e-01,-4.416027995744684631e-01,3.861054683619801198e-01,1.707615705468054912e-01
5.420000000000000373e-01,-3.720739833824394105e-01,3.691148561867313438e-01,9.657346753566405095e-02
5.430000000000000382e-01,-2.178251594846376538e-01,3.204303975136989502e-01,-3.061577304198465077e-02
5.440000000000000391e-01,-2.902264344193205767e-02,2.193620994587570650e-01,-1.258202278442724364e-01
5.450000000000000400e-01,1.725963817138332634e-01,9.740088749348278785e-02,-2.216240309638465300e-01
5.460000000000000409e-01,2.754005152767972087e-01,-5.538587609353196051e-02,-2.659618344179831562e-01
5.470000000000000417e-01,4.235384888447355500e-01,-2.093939325481844749e-01,-2.823309884404181513e-01
5.480000000000000426e-01,4.766865392393330181e-01,-2.929013728079349344e-01,-2.415932897411663671e-01
5.490000000000000435e-01,4.443720093973095864e-01,-3.406309454510867973e-01,-1.942520545005715360e-01
5.500000000000000444e-01,3.503375893571027966e-01,-3.582102993318089790e-01,-8.138439275124600969e-02
5.510000000000000453e-01,2.100032516018164042e-01,-3.151404273339095674e-01,2.670581003476683174e-02
5.520000000000000462e-01,4.241739399628410151e-02,-2.074542007344706285e-01,1.470588117791966631e-01
5.530000000000000471e-01,-1.617205763852962441e-01,-6.065736179663969163e-02,2.093832444204229981e-01
5.540000000000000480e-01,-3.128399853571295908e-01,5.648867513879649721e-02,2.703637770224526227e-01
5.550000000000000488e-01,-4.177285502910663695e-01,2.040736597839988564e-01,2.890526134247382029e-01
5.560000000000000497e-01,-4.613737882775810206e-01,2.967212724783150346e-01,2.213738644053874216e-01
5.570000000000000506e-01,-4.320710948773134330e-01,3.739449731389888343e-01,1.738827870637544570e-01
5.580000000000000515e-01,-3.371317678936626150e-01,3.698642716405117215e-01,7.413786584352034803e-02
5.590000000000000524e-01,-1.911367497810229077e-01,3.092720085780057415e-01,-5.432487378413464879e-02
5.600000000000000533e-01,-2.610468078872081599e-02,2.270608314108929771e-01,-1.313647201559477729e-01
5.610000000000000542e-01,1.929549683937639148e-01,5.527138937862117324e-02,-1.987268911976297625e-01
5.620000000000000551e-01,3.338077108354432498e-01,-8.808270531496202593e-02,-2.509689872966291424e-01
5.629999999999999449e-01,4.197437329158291153e-01,-2.239124429185594123e-01,-2.707016873890748521e-01
5.639999999999999458e-01,4.827594090004110328e-01,-3.480705872852832838e-01,-2.504010838303618591e-01
5.649999999999999467e-01,4.322664886610095847e-01,-3.840917221237218349e-01,-1.563951299834122344e-01
5.659999999999999476e-01,3.163917010360525195e-01,-3.397668662900530379e-01,-8.562426506657758174e-02
5.669999999999999485e-01,1.795811849625570666e-01,-2.733572133671933191e-01,3.644258386106002945e-02
5.679999999999999494e-01,-2.101133619800746571e-03,-1.809099516662238949e-01,1.377543995371401098e-01
5.689999999999999503e-01,-1.696386089255462470e-01,-3.173240326050281307e-02,2.434438378694721017e-01
5.699999999999999512e-01,-3.268426965937163975e-01,1.151092157986530751e-01,2.623308003304787306e-01
5.709999999999999520e-01,-4.241515589889355287e-01,2.603818594303581868e-01,2.930914895677557697e-01
5.719999999999999529e-01,-4.897215353650544167e-01,3.564303958737464195e-01,2.382380517506398343e-01
5.729999999999999538e-01,-4.145315309768222156e-01,3.865008857190174174e-01,2.049055366636446662e-01
5.739999999999999547e-01,-3.176046150023159598e-01,3.669518287730519357e-01,9.702666072611165760e-02
5.749999999999999556e-01,-1.735475475586914229e-01,2.579310930591848239e-01,-3.256545826420783468e-02
5.759999999999999565e-01,1.798290953608694051e-02,1.477203768703982678e-01,-1.381200405139098586e-01
5.769999999999999574e-01,1.964081373595580049e-01,1.576654856704345214e-02,-2.357671169515748733e-01
5.779999999999999583e-01,3.444054897454873476e-01,-1.625621519085418965e-01,-2.523947296245884764e-01
5.789999999999999591e-01,4.437364664922295310e-01,-2.723168476322381792e-01,-2.462016513750931168e-01
5.799999999999999600e-01,4.715966845521241124e-01,-3.614884291834070673e-01,-2.502993854130783347e-01
5.809999999999999609e-01,4.233709573750795707e-01,-3.916582990104482409e-01,-1.739389262645114342e-01
5.819999999999999618e-01,3.156652516341739156e-01,-3.436883201343206573e-01,-1.081494532238783113e-01
5.829999999999999627e-01,1.575371032998305887e-01,-2.516656693460252447e-01,4.520786132271279595e-02
5.839999999999999636e-01,-2.933709969303564813e-02,-1.296952559507044966e-01,1.398447204289098023e-01
5.849999999999999645e-01,-2.167951846551093575e-01,1.639106826335954073e-02,1.997794956268014177e-01
5.859999999999999654e-01,-3.410698619340769566e-01,1.423557192619382128e-01,2.466666826973063775e-01
5.869999999999999662e-01,-4.503883531407420482e-01,2.727036810771900077e-01,2.661181309210653434e-01
5.879999999999999671e-01,-4.814680522933565965e-01,3.696178580498603039e-01,2.463665944435906030e-01
5.889999999999999680e-01,-4.219154962197136927e-01,3.659384807190335653e-01,1.713403378047924364e-01
5.899999999999999689e-01,-2.829968907312822579e-01,3.331538727530768962e-01,6.796984038611410261e-02
5.909999999999999698e-01,-1.082095053891487801e-01,2.279285802996774135e-01,-2.715385229044031679e-02
5.919999999999999707e-01,3.529320093002939057e-02,1.068950892588444168e-01,-1.274640010873696050e-01
5.929999999999999716e-01,2.326646786450190796e-01,-5.466888414092904019e-02,-2.407226906389890453e-01
5.939999999999999725e-01,3.460610339386570034e-01,-1.730449199855474685e-01,-2.694192814467611385e-01
5.949999999999999734e-01,4.435710415894346670e-01,-2.910652845288135282e-01,-2.788461293783918715e-01
5.959999999999999742e-01,4.595876437125243630e-01,-3.572769520941062038e-01,-2.394939525273661052e-01
5.969999999999999751e-01,4.046966157634863115e-01,-3.878781891767242307e-01,-1.566076175443025242e-01
5.979999999999999760e-01,3.118825680573590886e-01,-3.088493888000456433e-01,-7.687397624603875546e-02
5.989999999999999769e-01,1.253191923470150237e-01,-2.019080809595208970e-01,3.979765765693679680e-02
5.999999999999999778e-01,-5.858234553865097199e-02,-7.733066287976196607e-02,1.390460691531016646e-01
6.009999999999999787e-01,-2.568832965043685856e-01,6.582305050365311327e-02,2.258435433591652886e-01
6.019999999999999796e-01,-3.750405264457222776e-01,1.866880103003354385e-01,2.783820685532489847e-01
6.029999999999999805e-01,-4.293984539798915145e-01,3.138271299213107324e-01,2.483979684492431395e-01
6.039999999999999813e-01,-4.685260262993887759e-01,3.819133276205062821e-01,2.353013085037140295e-01
6.049999999999999822e-01,-3.862504191072187454e-01,3.901404336873353085e-01,1.619320174341233043e-01
6.059999999999999831e-01,-2.629273337690334333e-01,2.988077005966193189e-01,7.286457680363123135e-02
6.069999999999999840e-01,-1.014151280464205551e-01,1.890856845651276708e-01,-3.759423455420832227e-02
6.079999999999999849e-01,7.683469086264230197e-02,5.334804110795317300e-02,-1.342458451245671092e-01
6.089999999999999858e-01,2.308080887648685797e-01,-8.908860176047087021e-02,-2.284395719997423801e-01
6.099999999999999867e-01,3.864552464363383288e-01,-2.096409325243889510e-01,-2.707882619000984148e-01
6.109999999999999876e-01,4.621198187855938277e-01,-3.202085868863255858e-01,-2.922438213609893642e-01
6.119999999999999885e-01,4.572931462848721651e-01,-3.402282601372375037e-01,-2.358235113085369317e-01
6.129999999999999893e-01,4.102520943126837794e-01,-3.665329114995497517e-01,-1.685388257897389719e-01
6.139999999999999902e-01,2.348617416570143723e-01,-2.763498303888554664e-01,-8.397855774132945150e-02
6.149999999999999911e-01,7.189737271160843990e-02,-1.903037832174028776e-01,4.299489176776434551e-02
6.159999999999999920e-01,-8.727313945645336080e-02,-4.438840545278734812e-02,1.378410841508411200e-01
6.169999999999999929e-01,-2.554561896386290387e-01,8.149059210724218794e-02,2.300817866181271432e-01
6.179999999999999938e-01,-3.852782816457661075e-01,2.320014213428299998e-01,2.664590023076333081e-01
6.189999999999999947e-01,-4.638614284270977661e-01,3.194431758753151218e-01,2.768571834643142604e-01
6.199999999999999956e-01,-4.470881146905810177e-01,3.439384340193029077e-01,2.101378202005743934e-01
6.209999999999999964e-01,-3.717227267404678570e-01,3.270330261627069079e-01,1.831755810336197221e-01
6.219999999999999973e-01,-2.511805875064175297e-01,2.925551391863607797e-01,8.840745151296601489e-02
6.229999999999999982e-01,-5.837648824753510768e-02,1.419297525231969781e-01,-2.910478187663046931e-02
6.239999999999999991e-01,1.195283963832607099e-01,2.013760044557951628e-02,-1.391955964009761737e-01
6.250000000000000000e-01,2.729055141585143285e-01,-1.362401384258117576e-01,-2.102983104635844924e-01
6.260000000000000009e-01,4.089109019377459298e-01,-2.496622976052947085e-01,-2.589338105405894486e-01
6.270000000000000018e-01,4.527504694328454704e-01,-3.490303260041895395e-01,-2.857614494638734959e-01
6.280000000000000027e-01,4.547396173198791636e-01,-3.636012200060408928e-01,-2.241180785079657511e-01
6.290000000000000036e-01,3.615135495064436544e-01,-3.485887069682164774e-01,-1.977346932458668438e-01
6.300000000000000044e-01,2.264907909868360270e-01,-2.563444584936788173e-01,-7.795283615679955702e-02
6.310000000000000053e-01,5.945173664445493195e-02,-1.001334723158684159e-01,4.447197226080749910e-02
6.320000000000000062e-01,-1.378136277179461966e-01,6.843983499492666510e-03,1.180632040323891935e-01
6.330000000000000071e-01,-2.825861088276991895e-01,1.426247998456702526e-01,2.135680540328968591e-01
6.340000000000000080e-01,-4.065325058368645661e-01,2.832153028588768606e-01,2.474463548411716118e-01
6.350000000000000089e-01,-4.321831287918069808e-01,3.302512094214945515e-01,2.725825011186514546e-01
6.360000000000000098e-01,-4.507891411277569760e-01,3.557226336938936195e-01,2.427967429017620637e-01
6.370000000000000107e-01,-3.551133359055159144e-01,3.346943078192358700e-01,1.782790891989877169e-01
6.380000000000000115e-01,-2.342097824124257655e-01,2.352464596429634514e-01,7.134356601774072271e-02
6.390000000000000124e-01,-4.259879695336684508e-02,9.902811076228459908e-02,-1.522915663836427874e-02
6.400000000000000133e-01,1.235291147037924780e-01,-4.362257611570093813e-02,-1.282212144070298543e-01
6.410000000000000142e-01,2.935521275548004794e-01,-1.657020914763439601e-01,-2.158043469580468166e-01
6.420000000000000151e-01,3.944867910572075753e-01,-2.700494100650790985e-01,-2.676041968093505474e-01
6.430000000000000160e-01,4.747055558250878327e-01,-3.493968347106892192e-01,-2.743428381116052028e-01
6.440000000000000169e-01,4.495497049846510773e-01,-3.536208776488579675e-01,-2.484202230475026918e-01
6.450000000000000178e-01,3.600826911913452832e-01,-3.208409410259924210e-01,-1.798785597459712504e-01
6.460000000000000187e-01,2.211381277053935390e-01,-2.215030809091664277e-01,-8.835693562246749178e-02
6.470000000000000195e-01,1.587773708205112225e-02,-1.081236632450462004e-01,4.159913303109851607e-02
6.480000000000000204e-01,-1.293132205451265893e-01,3.319156773691032264e-02,1.337397837896526498e-01
6.490000000000000213e-01,-3.193821241634836605e-01,1.915366087643808890e-01,2.136111959118542070e-01
6.500000000000000222e-01,-4.320742278615898879e-01,2.884711121568956371e-01,2.428299531133826794e-01
6.510000000000000231e-01,-4.679371840585392350e-01,3.672623515420658791e-01,2.719861584445650848e-01
6.520000000000000240e-01,-4.322195000866290715e-01,3.573310389882019544e-01,2.451171704567361997e-01
6.530000000000000249e-01,-3.219524860287735768e-01,3.387781042961523492e-01,1.613444966548930604e-01
6.540000000000000258e-01,-2.060443068734331973e-01,1.946255943621339468e-01,6.044407193225307534e-02
6.550000000000000266e-01,-1.667236017198085295e-03,5.622218492059150724e-02,-2.085570575851740036e-02
6.560000000000000275e-01,1.716087364373941604e-01,-7.178015771108552101e-02,-1.286719736766389066e-01
6.570000000000000284e-01,3.124467906794704541e-01,-2.276266364070252401e-01,-2.071631863911712612e-01
6.580000000000000293e-01,4.371277682949578081e-01,-3.286473248821375481e-01,-2.524392706922862772e-01
6.590000000000000302e-01,4.684870301847205987e-01,-3.704819448083841449e-01,-2.821843449114191382e-01
6.600000000000000311e-01,4.349662174615341326e-01,-3.848059329869067957e-01,-2.388773314861596386e-01
6.610000000000000320e-01,3.314562634185660439e-01,-2.836132525814868965e-01,-1.710846944158712635e-01
6.620000000000000329e-01,1.642643892412429807e-01,-1.950117452184493283e-01,-1.081319967459938441e-01
6.630000000000000338e-01,7.060427222750710434e-03,-3.909545585642052595e-02,3.419639808359963007e-02
6.640000000000000346e-01,-1.840432041426374454e-01,1.049459432051455671e-01,1.373085401512956494e-01
6.650000000000000355e-01,-3.193499734136411305e-01,2.498584680774276756e-01,2.000462962304029590e-01
6.660000000000000364e-01,-4.124429200613939916e-01,3.165636823328841221e-01,2.798204414113880101e-01
6.670000000000000373e-01,-4.686833147524474552e-01,3.498918238258244551e-01,2.874524844001776769e-01
6.680000000000000382e-01,-4.260725821425183635e-01,3.423725607067230614e-01,2.348254625661067296e-01
6.690000000000000391e-01,-3.131933925053274059e-01,2.692341244225005537e-01,1.691757448044861889e-01
6.700000000000000400e-01,-1.418118954059836012e-01,1.782986875484900147e-01,1.066774293757008912e-01
6.710000000000000409e-01,2.564262583947438806e-02,2.435086601457455910e-02,-2.697582174900114635e-02
6.720000000000000417e-01,1.852857191529056757e-01,-1.393536011428611610e-01,-1.253846831722844335e-01
6.730000000000000426e-01,3.504683058410844043e-01,-2.746515853058329459e-01,-2.242713745950324633e-01
6.740000000000000435e-01,4.388997780760279244e-01,-3.383266841224356059e-01,-2.649630800173702894e-01
6.750000000000000444e-01,4.678414440601674218e-01,-3.598385173946990756e-01,-2.800202551615725843e-01
6.760000000000000453e-01,4.076419910574663463e-01,-3.483288893015133447e-01,-2.149855774285699128e-01
6.770000000000000462e-01,2.913389551140758704e-01,-2.835101063272237321e-01,-1.757413846726053885e-01
6.780000000000000471e-01,1.561040250363576187e-01,-1.316139617426661523e-01,-6.260652362699885287e-02
6.790000000000000480e-01,-4.217463239647632756e-02,1.288644690624381195e-02,6.046121582494891344e-02
6.800000000000000488e-01,-2.224831923678008139e-01,1.559945493169184738e-01,1.458477444699618764e-01
6.810000000000000497e-01,-3.376869886894973694e-01,2.585286995076346850e-01,2.147722501396855666e-01
6.820000000000000506e-01,-4.199173242874888468e-01,3.584988556108129054e-01,2.422276539622334468e-01
6.830000000000000515e-01,-4.674179330706355606e-01,3.774450147018880153e-01,2.565910552937387124e-01
6.840000000000000524e-01,-4.095946070268706163e-01,3.468845020215365893e-01,2.486546830600391000e-01
6.850000000000000533e-01,-3.103575004030572071e-01,2.577806327084484206e-01,1.797435184799467955e-01
6.860000000000000542e-01,-1.370451454755877707e-01,1.260004198819439647e-01,9.245757213119093487e-02
6.870000000000000551e-01,3.187011014637387146e-02,-4.543839181524698262e-02,-1.658325982216864516e-02
6.879999999999999449e-01,2.405206561933861675e-01,-1.832323948286277426e-01,-1.192673356320176764e-01
6.889999999999999458e-01,3.679984192221943951e-01,-2.869254622221675266e-01,-2.105485372399438504e-01
6.899999999999999467e-01,4.480335813132783063e-01,-3.405195192644017155e-01,-2.940651856041191503e-01
6.909999999999999476e-01,4.781802823871861285e-01,-3.870434111718276671e-01,-3.019029594691394203e-01
6.919999999999999485e-01,4.282442487184309199e-01,-3.173905755708065768e-01,-2.210997265511236709e-01
6.929999999999999494e-01,2.723104393658498101e-01,-2.073925453569666066e-01,-1.659255062246099144e-01
6.939999999999999503e-01,1.085781832331948610e-01,-8.501147203884647230e-02,-9.871541901898873983e-02
6.949999999999999512e-01,-6.931410746463274875e-02,4.950111891677212717e-02,2.409429259536242235e-02
6.959999999999999520e-01,-2.482771835478288502e-01,2.010827657079959085e-01,1.501936814274449916e-01
6.969999999999999529e-01,-3.761073161845826518e-01,2.961452358098559112e-01,2.380609462698970447e-01
6.979999999999999538e-01,-4.630250061271522499e-01,3.775883038110787737e-01,2.872097292729602347e-01
6.989999999999999547e-01,-4.512309636160677373e-01,3.535207276763163708e-01,2.764918523107054993e-01
6.999999999999999556e-01,-4.226018303849157220e-01,3.122444799590786135e-01,2.535432903841595143e-01
7.009999999999999565e-01,-2.925772975883393356e-01,1.965728840311772585e-01,1.871298624361240337e-01
7.019999999999999574e-01,-8.334465743326151255e-02,8.607424959805916320e-02,8.735406732836256682e-02
7.029999999999999583e-01,8.062987338715839336e-02,-8.892533969344815215e-02,-1.996635352009226358e-02
7.039999999999999591e-01,2.365803671176668344e-01,-2.054592403704905423e-01,-1.429699570195223368e-01
7.049999999999999600e-01,4.186453436217867918e-01,-3.345255207703362599e-01,-2.219942245558630955e-01
7.059999999999999609e-01,4.267530331618490380e-01,-3.709653375314147516e-01,-2.603657879742635184e-01
7.069999999999999618e-01,4.778022845634113391e-01,-3.514281775213090042e-01,-2.690125548580677983e-01
7.079999999999999627e-01,3.567206974550687359e-01,-2.851292122534158091e-01,-2.186664973069751827e-01
7.089999999999999636e-01,2.658397230603276040e-01,-1.920040614382330368e-01,-1.884717556562692242e-01
7.099999999999999645e-01,9.163741691443468007e-02,-5.953385470119670203e-02,-9.048949755690313679e-02
7.109999999999999654e-01,-1.376551759663846575e-01,8.175399082686486685e-02,3.776453137060491877e-02
7.119999999999999662e-01,-2.470835955539960327e-01,2.448216630862540266e-01,1.346216257696152274e-01
7.129999999999999671e-01,-3.923900659338693253e-01,3.201892407050564993e-01,2.091271935319141684e-01
7.139999999999999680e-01,-4.471397486338964944e-01,3.613715766896475334e-01,2.609857984052429414e-01
7.149999999999999689e-01,-4.568974540963223752e-01,3.891993006813005973e-01,2.939625668918432466e-01
7.159999999999999698e-01,-3.742711251117386562e-01,2.790349764130440335e-01,2.379671922398493566e-01
7.169999999999999707e-01,-2.586273689921514407e-01,1.727257297773002465e-01,1.897987910830600811e-01
7.179999999999999716e-01,-7.237531485530590558e-02,-3.258090674199025979e-03,5.074733441537131878e-02
7.189999999999999725e-01,7.332708778123876725e-02,-1.190980322122367485e-01,-3.968385808824855671e-02
7.199999999999999734e-01,2.812629082142933390e-01,-2.398828879106745249e-01,-1.331301093751370013e-01
7.209999999999999742e-01,3.983248132851611722e-01,-3.538251365325535414e-01,-2.256185229547387483e-01
7.219999999999999751e-01,4.477861002124463030e-01,-3.802233378277208309e-01,-2.853534045368407157e-01
7.229999999999999760e-01,4.790780576566717741e-01,-3.542653788916052537e-01,-2.724871950829533818e-01
7.239999999999999769e-01,3.763306499565041707e-01,-2.713691259219985219e-01,-2.377394003767780983e-01
7.249999999999999778e-01,2.306485571674369572e-01,-1.337421516263201937e-01,-1.679590527518347864e-01
7.259999999999999787e-01,2.824778185931322086e-02,-1.049816308890676869e-02,-7.794345626952943473e-02
7.269999999999999796e-01,-1.021579029481778089e-01,1.583529062863353598e-01,5.296319516612721379e-02
7.279999999999999805e-01,-2.923484068814657388e-01,2.629772290095961362e-01,1.486236004880121253e-01
7.289999999999999813e-01,-3.880512281655036366e-01,3.424844754812398917e-01,2.391978985667770896e-01
7.299999999999999822e-01,-4.830528721655978908e-01,3.624936618035987657e-01,2.896937195962294709e-01
7.309999999999999831e-01,-4.486959223264015972e-01,3.445914959782696574e-01,2.936521732594741252e-01
7.319999999999999840e-01,-3.388522284810751573e-01,2.420414638091867021e-01,2.409348060126377256e-01
7.329999999999999849e-01,-2.064494063066052709e-01,1.306685615583551008e-01,1.901818080211523099e-01
7.339999999999999858e-01,-5.346050625662551042e-02,-3.910558320026413792e-02,4.679231986096871188e-02
7.349999999999999867e-01,1.352793304719654977e-01,-1.882006371509049036e-01,-6.410799857795358714e-02
7.359999999999999876e-01,3.071977644669374730e-01,-2.645684369868088748e-01,-1.391980083380414679e-01
7.369999999999999885e-01,4.216582176607688304e-01,-3.699002603194732619e-01,-2.036038673900590623e-01
7.379999999999999893e-01,4.588977005247171781e-01,-3.723972287916736401e-01,-2.625731217024363517e-01
7.389999999999999902e-01,4.467148300952069051e-01,-3.347327008541535198e-01,-2.622331872470370362e-01
7.399999999999999911e-01,3.426730037398556528e-01,-2.447797558132471796e-01,-2.346928015845275994e-01
7.409999999999999920e-01,2.300683825132231186e-01,-1.054705859536437668e-01,-1.665408107659100689e-01
7.419999999999999929e-01,3.117436740958469399e-02,6.719665208252413591e-02,-7.906777679600486552e-02
7.429999999999999938e-01,-1.637703626816252589e-01,1.878392629250720536e-01,2.825082811702523192e-02
7.439999999999999947e-01,-3.146096426061508744e-01,3.039340949942911929e-01,1.387611500641058038e-01
7.449999999999999956e-01,-3.991563810208321184e-01,3.396719717528715599e-01,1.889529572230423393e-01
7.459999999999999964e-01,-4.670374150701554483e-01,3.508871323892182037e-01,2.637401893881193837e-01
7.469999999999999973e-01,-4.311560832855698688e-01,3.074083727458422621e-01,2.612604130325311136e-01
7.479999999999999982e-01,-3.472150296778968026e-01,2.116314627187853015e-01,2.477066851535694170e-01
7.489999999999999991e-01,-1.955758134821732885e-01,5.494360478122136543e-02,1.694379794866143762e-01
7.500000000000000000e-01,-1.707596247769799583e-02,-6.549096113670055397e-02,7.871674171417812615e-02
7.510000000000000009e-01,1.492786264496579751e-01,-1.938750085676275714e-01,-3.833730238069383428e-02
7.520000000000000018e-01,3.159713592654099790e-01,-3.013511413324163057e-01,-1.504312712162970689e-01
7.530000000000000027e-01,4.530904009085725548e-01,-3.372183239637508434e-01,-2.271665193265303140e-01
7.540000000000000036e-01,4.651693009009811308e-01,-3.513810936139047936e-01,-2.483860069225349021e-01
7.550000000000000044e-01,4.252129564737554546e-01,-2.972194716901619960e-01,-2.749607285209060836e-01
7.560000000000000053e-01,3.101942660418493536e-01,-1.916974184124890235e-01,-2.109200186209872208e-01
7.570000000000000062e-01,1.839694782420885633e-01,-3.773047553365713180e-02,-1.568513021397776042e-01
7.580000000000000071e-01,-9.199857212063412490e-03,1.053035198436752667e-01,-5.189971346242515382e-02
7.590000000000000080e-01,-1.755973054460406857e-01,2.302269727369912200e-01,3.546580735746063251e-02
7.600000000000000089e-01,-3.218895763472390259e-01,3.370013480706098297e-01,1.435517103301904018e-01
7.610000000000000098e-01,-4.182164387148881168e-01,3.611085898801974503e-01,2.072424881327035173e-01
7.620000000000000107e-01,-4.502676474254981298e-01,3.686902416968497742e-01,2.501643615171992852e-01
7.630000000000000115e-01,-4.280646457972992480e-01,2.832801428565072110e-01,2.624312036666013315e-01
7.640000000000000124e-01,-3.141482460280761724e-01,1.854038046320330424e-01,2.170773779726399288e-01
7.650000000000000133e-01,-1.483888972039615339e-01,3.505544513792581418e-02,1.745484262509318651e-01
7.660000000000000142e-01,8.091044704567694479e-03,-1.116859347660228707e-01,9.266305588876785904e-02
7.670000000000000151e-01,1.921568352656155554e-01,-2.515598049511600376e-01,-4.386567587255937872e-02
7.680000000000000160e-01,3.813858206550223007e-01,-3.345855932921439901e-01,-1.387829428379357966e-01
7.690000000000000169e-01,4.445263678558434850e-01,-3.841113572470261084e-01,-1.966761180895660321e-01
7.700000000000000178e-01,4.605890917403730467e-01,-3.433721674462944518e-01,-2.764479657799694956e-01
7.710000000000000187e-01,4.215740386969474285e-01,-2.764279943250595450e-01,-2.694654140677645859e-01
7.720000000000000195e-01,3.080056027545742259e-01,-1.360450736314606224e-01,-2.616010752533087236e-01
7.730000000000000204e-01,1.482593337230202757e-01,2.211695973197644067e-03,-1.681249699856654789e-01
7.740000000000000213e-01,-4.820743781690929597e-02,1.521942836364654772e-01,-7.328608235869490950e-02
7.750000000000000222e-01,-1.896491934902868048e-01,2.653781652497383958e-01,4.117226279812102180e-02
7.760000000000000231e-01,-3.588965212163469642e-01,3.372530247000940506e-01,1.489671330909013991e-01
7.770000000000000240e-01,-4.447146156184494936e-01,3.589455262037788974e-01,2.199239393156235955e-01
7.780000000000000249e-01,-4.610633017321167926e-01,3.126318556313671393e-01,2.747357548901049329e-01
7.790000000000000258e-01,-4.126205472704742583e-01,2.388833526817244479e-01,2.564232949421553220e-01
7.800000000000000266e-01,-2.975391507217744480e-01,1.469046107888006825e-01,2.166681857522145260e-01
7.810000000000000275e-01,-1.486003053873166946e-01,-1.864675494392580360e-02,1.644245277153800200e-01
7.820000000000000284e-01,5.833505691607596827e-02,-1.893259392698530830e-01,9.274262482096441718e-02
7.830000000000000293e-01,2.057409875703609392e-01,-2.759659579876171387e-01,-4.309441219917096305e-02
7.840000000000000302e-01,3.842093679182063681e-01,-3.549208887290563053e-01,-1.515144820921974778e-01
7.850000000000000311e-01,4.492575190389900275e-01,-3.724232193764741017e-01,-2.195318322325041926e-01
7.860000000000000320e-01,4.698016691629266495e-01,-3.159560357776357575e-01,-2.730122404941759395e-01
7.870000000000000329e-01,4.267738460021511804e-01,-2.059321912231167617e-01,-2.813503169228986911e-01
7.880000000000000338e-01,3.006173915456573642e-01,-1.083067766863637094e-01,-2.493353453950270526e-01
7.890000000000000346e-01,1.411943184463969325e-01,4.881738787625492654e-02,-1.634914015948599197e-01
7.900000000000000355e-01,-6.158697203311064294e-02,2.071681505783981025e-01,-5.283048967792826345e-02
7.910000000000000364e-01,-2.459027503067927334e-01,3.363832252073067353e-01,2.642188282104113162e-02
7.920000000000000373e-01,-3.528899458660343935e-01,3.692613463250548067e-01,1.534455642798900066e-01
7.930000000000000382e-01,-4.530571371662452385e-01,3.484006877355778631e-01,2.421190915357638862e-01
7.940000000000000391e-01,-4.519243070822245856e-01,3.220406194674067524e-01,2.587171070420187236e-01
7.950000000000000400e-01,-3.877640141353614345e-01,2.105884223729168336e-01,2.959096219804581152e-01
7.960000000000000409e-01,-3.000440284896743748e-01,8.247750919487258081e-02,2.484616838765056623e-01
7.970000000000000417e-01,-1.020601567922902325e-01,-7.244962965286433354e-02,1.709657125627344620e-01
7.980000000000000426e-01,8.145329351467095469e-02,-2.031260252150443313e-01,7.543179681177560048e-02
7.990000000000000435e-01,2.506250912798009822e-01,-3.106798618720612581e-01,-4.607989640644206270e-02
8.000000000000000444e-01,3.766079942710149897e-01,-3.414574326120746184e-01,-1.408861962545601421e-01
8.010000000000000453e-01,4.590228590334616277e-01,-3.569650595451189234e-01,-2.197390889712937667e-01
8.020000000000000462e-01,4.689875910193496145e-01,-3.009418645820609584e-01,-2.605916735627792913e-01
8.030000000000000471e-01,3.930971435939834557e-01,-1.937739927173802168e-01,-3.039179120265602108e-01
8.040000000000000480e-01,2.566183268560530695e-01,-4.670665983508923841e-02,-2.432497495336811977e-01
8.050000000000000488e-01,7.605662912309343882e-02,9.109986941279646366e-02,-1.782577782101276154e-01
8.060000000000000497e-01,-8.463911648068835059e-02,2.040409613005683409e-01,-6.375024217476256416e-02
8.070000000000000506e-01,-2.473733428546725510e-01,3.254417891882177005e-01,2.018722337964158273e-02
8.080000000000000515e-01,-3.833657109514985728e-01,3.616932730359586068e-01,1.368848859345451474e-01
8.090000000000000524e-01,-4.641022302862348736e-01,3.474798786829959574e-01,1.857539864440757582e-01
8.100000000000000533e-01,-4.238994318754367163e-01,2.860980783305077102e-01,2.659585268659555024e-01
8.110000000000000542e-01,-3.875760729396219850e-01,1.866999964912587073e-01,2.616942438098897039e-01
8.120000000000000551e-01,-2.372259976773042067e-01,1.120380573640084379e-02,2.535537789989094626e-01
8.129999999999999449e-01,-7.497267279798047745e-02,-1.197335181636877410e-01,1.683727979781302064e-01
8.139999999999999458e-01,1.361286517919501893e-01,-2.313079691925736259e-01,6.753711504686731038e-02
8.149999999999999467e-01,2.766445827233662280e-01,-3.109960641600226228e-01,-4.660011346964283707e-02
8.159999999999999476e-01,4.059812911064910601e-01,-3.492861919596054188e-01,-1.446083092154476779e-01
8.169999999999999485e-01,4.492534923864981988e-01,-3.571512482883297812e-01,-2.122807081149354624e-01
8.179999999999999494e-01,4.497354064138723850e-01,-2.879364265338387185e-01,-2.810229051708713621e-01
8.189999999999999503e-01,3.658666934944667659e-01,-1.530089486884934624e-01,-2.506370717371704804e-01
8.199999999999999512e-01,2.071457028259135469e-01,8.624078478728106067e-03,-2.294481971072087900e-01
8.209999999999999520e-01,4.487739574478957078e-02,1.193274193495738739e-01,-1.682352662017249090e-01
8.219999999999999529e-01,-1.282776068692130511e-01,2.776550508201903744e-01,-5.975258549654404588e-02
8.229999999999999538e-01,-3.049484342230455725e-01,3.330347083116113605e-01,2.423834347453289462e-02
8.239999999999999547e-01,-4.032553979106156539e-01,3.572511091234644165e-01,1.382639974192620691e-01
8.249999999999999556e-01,-4.564941666863979730e-01,3.523203279788967857e-01,2.379883345653652504e-01
8.259999999999999565e-01,-4.682066634561204976e-01,2.434345456183493184e-01,2.739671748917895666e-01
8.269999999999999574e-01,-3.729957929917436243e-01,1.327695255365608229e-01,2.724053413549970548e-01
8.279999999999999583e-01,-2.130422309412847715e-01,-2.977896952404353315e-02,2.214794269333494048e-01
8.289999999999999591e-01,-3.519057230010458337e-02,-1.574334420281057467e-01,1.702734696965411409e-01
8.299999999999999600e-01,1.336704585227282971e-01,-2.868551186666430941e-01,6.772790960395068394e-02
8.309999999999999609e-01,2.833163569886279487e-01,-3.614709174899515265e-01,-3.905722539288070116e-02
8.319999999999999618e-01,4.194629997731608717e-01,-3.734716249653139974e-01,-1.393266639961325548e-01
8.329999999999999627e-01,4.781998849802321372e-01,-3.433075960803292914e-01,-2.164480397374114462e-01
8.339999999999999636e-01,4.440001762876455982e-01,-2.540849280343295269e-01,-2.881870862636889408e-01
8.349999999999999645e-01,3.419409689791480522e-01,-1.314485768297980750e-01,-2.552018541585614475e-01
8.359999999999999654e-01,2.113412931284081586e-01,4.533337822649283894e-02,-2.192706604803668913e-01
8.369999999999999662e-01,4.008522175798871073e-02,1.806278661966312371e-01,-1.581697257683011004e-01
8.379999999999999671e-01,-1.456818475679657332e-01,2.851751237646401593e-01,-5.684287244295987279e-02
8.389999999999999680e-01,-3.089548350913945418e-01,3.590199607568028695e-01,2.391315263048794312e-02
8.399999999999999689e-01,-4.210610797593365429e-01,3.684400965094036806e-01,1.483804809523652790e-01
8.409999999999999698e-01,-4.718951800479158076e-01,2.857803797846710236e-01,2.357823622999226099e-01
8.419999999999999707e-01,-4.390817092789553455e-01,2.469130597622845036e-01,2.455813726171016120e-01
8.429999999999999716e-01,-3.638234869798812610e-01,8.067674781138076123e-02,2.670003281470379464e-01
8.439999999999999725e-01,-2.053876213421128583e-01,-7.434762483726925497e-02,2.461385260728594371e-01
8.449999999999999734e-01,1.621417460869793064e-03,-2.043572246082115962e-01,1.643270673753633726e-01
8.459999999999999742e-01,1.536840088373100655e-01,-3.261543887679278497e-01,8.236001781829867252e-02
8.469999999999999751e-01,3.142753435344713964e-01,-3.827214923606145347e-01,-3.589596879162430809e-02
8.479999999999999760e-01,4.414755155909452777e-01,-3.429926473709172807e-01,-1.388751345669292370e-01
8.489999999999999769e-01,4.641318309030020295e-01,-3.082788907510184973e-01,-2.217198147121642593e-01
8.499999999999999778e-01,4.143532661541535211e-01,-1.982255531968943607e-01,-2.849719960083554327e-01
8.509999999999999787e-01,3.296408778761404923e-01,-5.344188557879966245e-02,-2.628873985730944551e-01
8.519999999999999796e-01,1.601870522510798478e-01,1.030399081673737532e-01,-2.200249976479358716e-01
8.529999999999999805e-01,8.543537924973148776e-03,2.268632899124260471e-01,-1.617192705262477381e-01
8.539999999999999813e-01,-1.957208107945105913e-01,3.072959830269256787e-01,-5.833358827130096652e-02
8.549999999999999822e-01,-3.561926472818819356e-01,3.569060206969658644e-01,3.357708658569865529e-02
8.559999999999999831e-01,-4.332202794098308218e-01,3.741139896552371225e-01,1.581845416818948302e-01
8.569999999999999840e-01,-4.572462465590399483e-01,2.724021742550415959e-01,2.168356064771299885e-01
8.579999999999999849e-01,-4.398313704708814997e-01,1.773550428952420654e-01,2.538191191746825837e-01
8.589999999999999858e-01,-3.516040631294791718e-01,3.724523888885606510e-02,2.771924579659574839e-01
8.599999999999999867e-01,-1.276661524422625926e-01,-1.238432044124420234e-01,2.200430905677627225e-01
8.609999999999999876e-01,1.454936034227879635e-02,-2.207791572200286379e-01,1.496879700893527787e-01
8.619999999999999885e-01,2.286026629750739780e-01,-3.433089463716639256e-01,5.460094917668766729e-02
8.629999999999999893e-01,3.480859916940348131e-01,-3.735273084338824878e-01,-3.602537201591572008e-02
8.639999999999999902e-01,4.661193056053323791e-01,-3.508013624164174060e-01,-1.497468384205653813e-01
8.649999999999999911e-01,4.705441397397011061e-01,-2.802298696850898385e-01,-2.323215169171841676e-01
8.659999999999999920e-01,4.050458469506703629e-01,-1.640937763461094712e-01,-2.659347757284323821e-01
8.669999999999999929e-01,3.042566295789415065e-01,-1.882464105203027205e-02,-2.872286493715761613e-01
8.679999999999999938e-01,1.280561013437395701e-01,1.557084938794533191e-01,-2.537078596319987112e-01
8.689999999999999947e-01,-3.561512595452254876e-02,2.675438836100941242e-01,-1.693199305899391327e-01
8.699999999999999956e-01,-2.209925282572967609e-01,3.593782384115488671e-01,-6.632226561438527013e-02
8.709999999999999964e-01,-3.359482867977971465e-01,3.682847992898535261e-01,2.467159642017861809e-02
8.719999999999999973e-01,-4.344255978146280284e-01,3.266377310035449844e-01,1.446944326850080620e-01
8.729999999999999982e-01,-4.658728647499117970e-01,2.334574270347457015e-01,2.161237873259383990e-01
8.739999999999999991e-01,-4.315733793925294326e-01,1.325653460104714298e-01,2.777118875903414330e-01
8.750000000000000000e-01,-2.853637923321380443e-01,-1.086751634250023198e-02,2.753063390951104306e-01
8.760000000000000009e-01,-1.348503760693105791e-01,-1.583985694486003126e-01,2.265738862850107116e-01
8.770000000000000018e-01,2.986300997393353043e-02,-2.874305857401538433e-01,1.672528647878115393e-01
8.780000000000000027e-01,2.087701230381548423e-01,-3.439754484197697915e-01,7.987311552248899105e-02
8.790000000000000036e-01,3.628799784907749681e-01,-3.780997018267694409e-01,-3.867792489340179246e-02
8.800000000000000044e-01,4.359319071260875922e-01,-3.306492092681581618e-01,-1.621880768294735597e-01
8.810000000000000053e-01,4.685695190301881752e-01,-2.458419835566571510e-01,-2.269502181146959285e-01
8.820000000000000062e-01,4.061265436197069589e-01,-1.132690970679569864e-01,-2.858612725403343879e-01
8.830000000000000071e-01,2.806835044460743167e-01,3.332986579180746006e-02,-2.831770180132859305e-01
8.840000000000000080e-01,1.370478859976077823e-01,1.473583759724377273e-01,-2.356539391116255489e-01
8.850000000000000089e-01,-5.675777160838672841e-02,2.895193521709122919e-01,-1.590075051213298007e-01
8.860000000000000098e-01,-2.206168742928539261e-01,3.491352198794132611e-01,-4.478166740617801900e-02
8.870000000000000107e-01,-3.869883401821645474e-01,3.653540877293423583e-01,2.628945803702588402e-02
8.880000000000000115e-01,-4.476516660466684505e-01,3.114513419643741843e-01,1.353911748430855211e-01
8.890000000000000124e-01,-4.601327968634327803e-01,2.609941264426769991e-01,2.150682822160241703e-01
8.900000000000000133e-01,-3.722051050981002862e-01,8.861405106817968336e-02,2.894966572125992621e-01
8.910000000000000142e-01,-2.898774470851853691e-01,-3.488313952696342479e-02,2.720028788461658076e-01
8.920000000000000151e-01,-1.191484456082862603e-01,-1.833818451848482356e-01,2.451533587865900865e-01
8.930000000000000160e-01,7.353858699425590284e-02,-3.009403730453718562e-01,1.693027240150279111e-01
8.940000000000000169e-01,2.426928721918985010e-01,-3.617219834975811121e-01,6.516177371792412909e-02
8.950000000000000178e-01,3.633719545437297804e-01,-3.546435263060822574e-01,-4.072193217975183382e-02
8.960000000000000187e-01,4.762052156363044131e-01,-3.044826971553616923e-01,-1.338201913988187886e-01
8.970000000000000195e-01,4.444108462895924316e-01,-1.881797143904096192e-01,-2.549230926222431637e-01
8.980000000000000204e-01,3.951425508317238378e-01,-6.595059091649511929e-02,-2.803624857028766404e-01
8.990000000000000213e-01,2.638447145755336010e-01,8.287999592283780415e-02,-2.722791002699441187e-01
9.000000000000000222e-01,8.354370194628482627e-02,2.346815560677576462e-01,-2.278428841447006359e-01
9.010000000000000231e-01,-1.155766706236254771e-01,3.055882236054143219e-01,-1.862037418165934932e-01
9.020000000000000240e-01,-2.473866461114852811e-01,3.774560010226763462e-01,-5.024246730034344355e-02
9.030000000000000249e-01,-4.098635906243885962e-01,3.610436759066653623e-01,5.470810483420190246e-02
9.040000000000000258e-01,-4.497299419639494977e-01,3.198418479324794395e-01,1.526106152589491172e-01
9.050000000000000266e-01,-4.454453743025837409e-01,1.882236923609467150e-01,2.325402176240390639e-01
9.060000000000000275e-01,-3.663815052240808612e-01,4.003310824038704835e-02,2.637910047453851936e-01
9.070000000000000284e-01,-2.383146625541564534e-01,-9.571771236690583551e-02,2.739306330205275031e-01
9.080000000000000293e-01,-7.699878181511204955e-02,-2.468078057591696073e-01,2.341953388634790689e-01
9.090000000000000302e-01,1.062764051321064412e-01,-3.292551738328488575e-01,1.547258381938513006e-01
9.100000000000000311e-01,2.841812044601608189e-01,-3.752155535787778384e-01,7.496307737231171220e-02
9.110000000000000320e-01,4.001488956835853594e-01,-3.528469200653064908e-01,-5.997633760483321586e-02
9.120000000000000329e-01,4.396020425185958591e-01,-2.935304552980913528e-01,-1.288105721690129823e-01
9.130000000000000338e-01,4.266082595660998789e-01,-1.556896040196249498e-01,-2.347524770885324186e-01
9.140000000000000346e-01,3.528812079721348471e-01,-2.286018155016967049e-02,-2.854676811121077407e-01
9.150000000000000355e-01,2.453424428412773473e-01,1.165920904700343680e-01,-2.872382317704714749e-01
9.160000000000000364e-01,6.132599615414142946e-02,2.462469393913621352e-01,-2.535202530119701758e-01
9.170000000000000373e-01,-1.181950807054607117e-01,3.517509657014641911e-01,-1.579679117497931884e-01
9.180000000000000382e-01,-2.531294188848222104e-01,3.366067444920844420e-01,-7.191470002050355526e-02
9.190000000000000391e-01,-4.101645164826911438e-01,3.395338718150364699e-01,7.904970069350113204e-02
9.200000000000000400e-01,-4.892054810786302665e-01,2.333677333299598589e-01,1.447956615785122303e-01
9.210000000000000409e-01,-4.621830453526928340e-01,1.166230593003237254e-01,2.153819664642417087e-01
9.220000000000000417e-01,-3.455818808626653915e-01,-6.565406690082253686e-03,2.664289177928326202e-01
9.230000000000000426e-01,-2.316997925130041547e-01,-1.639034252632292354e-01,2.862297472768947637e-01
9.240000000000000435e-01,-4.007532408930784135e-02,-2.922929474173874276e-01,2.326717210877184694e-01
9.250000000000000444e-01,1.448133891361020886e-01,-3.413718891600430183e-01,1.636256206771274646e-01
9.260000000000000453e-01,2.729436067087633866e-01,-3.597172305831356498e-01,7.578524453671221794e-02
9.270000000000000462e-01,4.029173848240973910e-01,-3.201884547666424830e-01,-6.593678224355539741e-02
9.280000000000000471e-01,4.541466559964223437e-01,-2.463133848799483883e-01,-1.725309458072662727e-01
9.290000000000000480e-01,4.278963856506962093e-01,-9.831830660875084948e-02,-2.314620120694874106e-01
9.300000000000000488e-01,3.742386145094490080e-01,2.919212983171676212e-02,-2.744133342963728239e-01
9.310000000000000497e-01,2.097702078259254810e-01,1.842972833483686734e-01,-2.559117318808807884e-01
9.320000000000000506e-01,3.139895595195069805e-02,2.771665752633880597e-01,-2.340657564582718231e-01
9.330000000000000515e-01,-1.448613550833853514e-01,3.359385240993967292e-01,-1.660018639117334105e-01
9.340000000000000524e-01,-2.977113956270405204e-01,3.795025693484605500e-01,-7.313116596957286442e-02
9.350000000000000533e-01,-4.219779475012327419e-01,3.255504618369006176e-01,3.386364408507581969e-02
9.360000000000000542e-01,-4.772586382713072117e-01,2.383814350821520101e-01,1.396251017908497760e-01
9.370000000000000551e-01,-4.336994680173981709e-01,8.131252269697052115e-02,2.117156235405006359e-01
9.379999999999999449e-01,-3.518440387825756410e-01,-6.218344497625768325e-02,2.886668714476403053e-01
9.389999999999999458e-01,-2.004466356335189714e-01,-1.990669575820851744e-01,2.833337815250921987e-01
9.399999999999999467e-01,8.621731479979642936e-04,-3.024517152226391392e-01,2.415388330094277169e-01
9.409999999999999476e-01,1.581439151241111896e-01,-3.753873990127971627e-01,1.720540927585068047e-01
9.419999999999999485e-01,3.283635631653768483e-01,-3.770057136829603195e-01,3.500159433226650990e-02
9.429999999999999494e-01,4.153161649209392570e-01,-3.189658086764191047e-01,-6.842935211709637311e-02
9.439999999999999503e-01,4.451311194452393649e-01,-2.128626704529002489e-01,-1.362440275619530294e-01
9.449999999999999512e-01,4.180777696645829322e-01,-8.953273364317480831e-02,-1.976401709691268105e-01
9.459999999999999520e-01,3.709270136976344223e-01,5.738241875332164565e-02,-2.682616352289277639e-01
9.469999999999999529e-01,2.203624173926371776e-01,1.957618147031039979e-01,-2.790456365353328749e-01
9.479999999999999538e-01,1.003531980751156023e-02,3.248063970713967463e-01,-2.308693402046073651e-01
9.489999999999999547e-01,-1.842674852011147169e-01,3.630502140285880586e-01,-1.506796212465610629e-01
9.499999999999999556e-01,-3.566564502596486497e-01,3.607909435466419845e-01,-7.004557278639693407e-02
9.509999999999999565e-01,-4.486255035728152207e-01,3.004915963767455511e-01,4.071603272318542049e-02
9.519999999999999574e-01,-4.580308346635222905e-01,1.939520945033136323e-01,1.457706436403686800e-01
9.529999999999999583e-01,-4.121819043414271522e-01,5.248195008365858644e-02,2.455552609214694815e-01
9.539999999999999591e-01,-3.284593575801581511e-01,-1.234774322514134298e-01,2.467150041490477341e-01
9.549999999999999600e-01,-1.411559149908696298e-01,-2.206008959529366098e-01,2.802471458803775239e-01
9.559999999999999609e-01,4.078271688951566609e-02,-3.328160703934109899e-01,2.227848636496365109e-01
9.569999999999999618e-01,1.880394024743120007e-01,-3.741474586688871562e-01,1.610177720653072075e-01
9.579999999999999627e-01,3.324586638950993156e-01,-3.278001482822135992e-01,7.606569051636272172e-02
9.589999999999999636e-01,4.274982205029518312e-01,-3.188894909377631981e-01,-2.760108418209692577e-02
9.599999999999999645e-01,4.652114780239727243e-01,-1.677355019375783018e-01,-1.416960782889667980e-01
9.609999999999999654e-01,4.024593027292410752e-01,-5.598641622373647965e-03,-2.225336419588944958e-01
9.619999999999999662e-01,3.027258603628896760e-01,1.420351607353614043e-01,-2.701194500698289591e-01
9.629999999999999671e-01,1.657073126618988645e-01,2.314646812519698116e-01,-2.850279331101233105e-01
9.639999999999999680e-01,-1.758696830935591385e-02,3.108914342698897437e-01,-2.515025097083801175e-01
9.649999999999999689e-01,-2.345446587772365143e-01,3.638556566706562800e-01,-1.674207217692917082e-01
9.659999999999999698e-01,-3.380482625791626505e-01,3.388929968235865897e-01,-5.097559420898632732e-02
9.669999999999999707e-01,-4.404789870876830160e-01,2.486508917922947148e-01,4.016512775697420046e-02
9.679999999999999716e-01,-4.590770852090501619e-01,1.481528929384117732e-01,1.685234193060762553e-01
9.689999999999999725e-01,-4.235958054082774038e-01,-8.702927087881066198e-03,2.341587816931032240e-01
9.699999999999999734e-01,-3.148859089309407056e-01,-1.869395895504671057e-01,2.891913977221365895e-01
9.709999999999999742e-01,-1.382229859832520835e-01,-2.842912153270083508e-01,2.704785830229538002e-01
9.719999999999999751e-01,5.137900749313873555e-02,-3.648280174682117516e-01,2.330400558080823747e-01
9.729999999999999760e-01,2.140741276838382667e-01,-3.503124099340264586e-01,1.418942881868013040e-01
9.739999999999999769e-01,3.429267616520578765e-01,-3.587452265463021983e-01,3.238983875146077274e-02
9.749999999999999778e-01,4.625431194414235114e-01,-2.385858492772958972e-01,-3.887164110998317379e-02
9.759999999999999787e-01,4.661663879833801150e-01,-1.295628990041646500e-01,-1.392573087212219118e-01
9.769999999999999796e-01,4.113767883905430911e-01,2.800413453865559926e-02,-2.175058559616522280e-01
9.779999999999999805e-01,2.890077977328424086e-01,1.692591878705533570e-01,-2.646467786487363139e-01
9.789999999999999813e-01,9.973638893886006829e-02,2.774328769077364365e-01,-2.695593097224562307e-01
9.799999999999999822e-01,-5.763418130122168609e-02,3.457951910167730847e-01,-2.513814281823555374e-01
9.809999999999999831e-01,-2.268722387925684314e-01,3.817126006691804463e-01,-1.501506835177831567e-01
9.819999999999999840e-01,-3.635093397742719667e-01,3.149569576579522301e-01,-5.448474332717995888e-02
9.829999999999999849e-01,-4.522013064670762361e-01,2.525523121809054028e-01,5.200002488022942293e-02
9.839999999999999858e-01,-4.365545076027275706e-01,7.904118556489721226e-02,1.282122264089217700e-01
9.849999999999999867e-01,-3.730843954126812356e-01,-5.753835726710093690e-02,2.278096735644867532e-01
9.859999999999999876e-01,-2.886600942700051631e-01,-1.975377212722675691e-01,2.747498775099205814e-01
9.869999999999999885e-01,-9.783524425977650762e-02,-2.984413999205294821e-01,2.911296038442831025e-01
9.879999999999999893e-01,8.576035313122287729e-02,-3.398375435566649005e-01,2.460147238233987843e-01
9.889999999999999902e-01,2.387723902054356417e-01,-3.465341580382200193e-01,1.613463410304226409e-01
9.899999999999999911e-01,3.695993326219156883e-01,-2.922223630406158845e-01,3.947070516907177223e-02
9.909999999999999920e-01,4.542988892734076134e-01,-2.211593724246275483e-01,-4.706400946727821999e-02
9.919999999999999929e-01,4.545201941155519454e-01,-9.509358806044912460e-02,-1.473943025034200327e-01
9.929999999999999938e-01,3.886373332951111315e-01,7.396384349277884684e-02,-2.264445755966628671e-01
9.939999999999999947e-01,2.484566972861190493e-01,2.309996319202838322e-01,-2.845095023417620328e-01
9.949999999999999956e-01,9.764022479178430247e-02,2.965284990356754080e-01,-2.452147970607448935e-01
9.959999999999999964e-01,-8.421503833226128000e-02,3.682537054127077436e-01,-2.305097201826837028e-01
9.969999999999999973e-01,-2.686164431647529716e-01,3.871875852434153997e-01,-1.703062899280496367e-01
9.979999999999999982e-01,-4.015915820758152455e-01,3.045368379622618860e-01,-5.179282401742342501e-02
9.989999999999999991e-01,-4.730434198969502568e-01,1.799540660959980110e-01,3.949949301241402477e-02
1.000000000000000000e+00,-4.578074392257618364e-01,3.931751742787247678e-02,1.216686032148168867e-01
1.000999999999999890e+00,-4.061034162908225831e-01,-9.155250879198176261e-02,2.075642107097454558e-01
1.002000000000000002e+00,-2.671771273746851305e-01,-2.462355310071278613e-01,2.874926241294080698e-01
1.002999999999999892e+00,-6.624356746690930609e-02,-3.022983026922885230e-01,2.775372254364154023e-01
1.004000000000000004e+00,1.113432044289169726e-01,-3.727090315413209565e-01,2.360971797510742765e-01
1.004999999999999893e+00,2.776406222392679424e-01,-3.393091903110308505e-01,1.665119646790280405e-01
1.006000000000000005e+00,3.915322822461215213e-01,-3.111754444169673173e-01,5.243521253222994949e-02
1.006999999999999895e+00,4.542200556358730323e-01,-1.618829339019182689e-01,-4.724147957580970142e-02
1.008000000000000007e+00,4.243672371212954819e-01,-2.041937136472849953e-02,-1.607791797932498212e-01
1.008999999999999897e+00,3.600473222791046313e-01,1.239835654041621660e-01,-2.332339507175505700e-01
1.010000000000000009e+00,2.392656714947195284e-01,2.411363861822902743e-01,-2.719524307203858848e-01
1.010999999999999899e+00,4.562551878060164268e-02,3.569226164295516424e-01,-2.429880562150235346e-01
1.012000000000000011e+00,-1.116781118007703771e-01,3.774949571465716636e-01,-2.121464494523531419e-01
1.012999999999999901e+00,-2.727641820244208759e-01,3.320769934152297265e-01,-1.633485264389792635e-01
1.014000000000000012e+00,-4.013157928952448272e-01,2.598711547415361589e-01,-4.161303469729506210e-02
1.014999999999999902e+00,-4.687092637363171055e-01,1.380762121165808598e-01,5.761885159072275414e-02
1.016000000000000014e+00,-4.755317125298105241e-01,3.687500766035328725e-03,1.422689911088172166e-01
1.016999999999999904e+00,-3.396700942088617392e-01,-1.464869332750546316e-01,2.252117086155376591e-01
1.018000000000000016e+00,-2.224767535503830995e-01,-2.819212711247503500e-01,2.695008069216334179e-01
1.018999999999999906e+00,-5.903927270164510688e-02,-3.596734792209526632e-01,2.786280081417747967e-01
1.020000000000000018e+00,1.432435547996246117e-01,-3.664095358744108855e-01,2.407306550561213454e-01
1.020999999999999908e+00,2.934782802483166808e-01,-3.497051723068346218e-01,1.653268551475917669e-01
1.022000000000000020e+00,4.340683329843949556e-01,-2.408294735083324201e-01,5.444896781962259985e-02
1.022999999999999909e+00,4.565794327917805373e-01,-1.161188864281717387e-01,-3.899801381232368552e-02
1.024000000000000021e+00,4.283234235043333338e-01,3.136512348145027718e-02,-1.240694387091571954e-01
1.024999999999999911e+00,3.451242050008492268e-01,1.599137462384354613e-01,-2.147674109030320855e-01
1.026000000000000023e+00,2.039675660519709721e-01,2.685997805793333137e-01,-2.530277575455681105e-01
1.026999999999999913e+00,4.522598419514651386e-02,3.303895603302364203e-01,-2.880115913902162039e-01
1.028000000000000025e+00,-1.342538463434361229e-01,3.647506456801019592e-01,-2.486792571677011177e-01
1.028999999999999915e+00,-3.095457886075130283e-01,3.315059260041071654e-01,-1.429010422365337429e-01
1.030000000000000027e+00,-4.254321323162967294e-01,2.390438583336315648e-01,-3.991426866253165034e-02
1.030999999999999917e+00,-4.331566542732689928e-01,1.167279723005477804e-01,3.099401025502176305e-02
1.032000000000000028e+00,-4.232576753973164574e-01,-5.401711843583636291e-02,1.498636979829736371e-01
1.032999999999999918e+00,-3.568422368142706858e-01,-1.771971255729636874e-01,2.179814683416242405e-01
1.034000000000000030e+00,-2.197761398072984318e-01,-3.053782660224164669e-01,2.658064962583910340e-01
1.034999999999999920e+00,-1.551971706471159604e-02,-3.742985984118392673e-01,2.582009726308623354e-01
1.036000000000000032e+00,1.676909841055378714e-01,-3.817844846995503416e-01,2.472835679481066584e-01
1.036999999999999922e+00,3.154325712002962745e-01,-3.030827948205926381e-01,1.568389163848230572e-01
1.038000000000000034e+00,4.070175396200548246e-01,-2.155713360383522403e-01,7.586815046928485629e-02
1.038999999999999924e+00,4.686758562168856779e-01,-8.610091671489351894e-02,-3.702199438712409918e-02
1.040000000000000036e+00,4.276205433486013896e-01,6.805804830307259079e-02,-1.315872861969961671e-01
1.040999999999999925e+00,3.424654788568927133e-01,2.021479074800127396e-01,-2.181445546506211031e-01
1.042000000000000037e+00,1.616040582655253743e-01,3.063996815502183502e-01,-2.429183981770662026e-01
1.042999999999999927e+00,2.603510452467180242e-02,3.577733376739231086e-01,-2.657977923046187518e-01
1.044000000000000039e+00,-1.734531912641137374e-01,3.595291963694455806e-01,-2.512239128247190090e-01
1.044999999999999929e+00,-3.421440486975638740e-01,3.051896443061065667e-01,-1.585073931113657186e-01
1.046000000000000041e+00,-4.267715075048481577e-01,1.899853397884258277e-01,-7.612524053311325867e-02
1.046999999999999931e+00,-4.526761731034102954e-01,3.024290762525645715e-02,5.030980622629860344e-02
1.048000000000000043e+00,-4.154307359973804514e-01,-7.108028625960052804e-02,1.530495418108620276e-01
1.048999999999999932e+00,-3.118511566031318405e-01,-2.364789238593032750e-01,2.327990598182861082e-01
1.050000000000000044e+00,-1.891135744404783825e-01,-3.215055406353408141e-01,2.829078026922220435e-01
1.050999999999999934e+00,-1.051522714050673324e-02,-3.799291739424213721e-01,2.750119512153518242e-01
1.052000000000000046e+00,1.972015185402201665e-01,-3.603982882706507906e-01,2.306546457914999682e-01
1.052999999999999936e+00,3.404169311852933144e-01,-2.793035982907078885e-01,1.618728282329412460e-01
1.054000000000000048e+00,4.353846075687545780e-01,-1.828924633410319300e-01,3.492527470326402261e-02
1.054999999999999938e+00,4.454366126337828136e-01,-1.344138028476098840e-02,-5.596862281520655069e-02
1.056000000000000050e+00,4.280784040210560137e-01,9.944927146347665170e-02,-1.630772714810714563e-01
1.056999999999999940e+00,2.792701463677032536e-01,2.105499477508935013e-01,-2.275978699912875325e-01
1.058000000000000052e+00,1.576005413365582641e-01,3.351393120917781632e-01,-2.999412504142570657e-01
1.058999999999999941e+00,-5.700216350235733087e-02,3.848204536749001425e-01,-2.607069697099464456e-01
1.060000000000000053e+00,-2.275172255199992000e-01,3.430127578159580248e-01,-2.405169236899430407e-01
1.060999999999999943e+00,-3.354347180488138624e-01,2.730828041759909008e-01,-1.488095219608581155e-01
1.062000000000000055e+00,-4.584019373624496074e-01,1.548432488867800549e-01,-4.864223375054056719e-02
1.062999999999999945e+00,-4.788251604644725989e-01,2.445295376727010805e-02,5.704920981206226122e-02
1.064000000000000057e+00,-4.434237580882510188e-01,-1.357218466830037717e-01,1.357948866590532599e-01
1.064999999999999947e+00,-2.945396445694204446e-01,-2.693718644164733167e-01,2.490369953035241057e-01
1.066000000000000059e+00,-1.495685764938259332e-01,-3.362611496927675470e-01,2.975567579042744382e-01
1.066999999999999948e+00,4.406921333245600314e-02,-3.770487739194041121e-01,2.477087932415598659e-01
1.068000000000000060e+00,2.124810601544460387e-01,-3.523776110669203931e-01,2.304970661579202884e-01
1.068999999999999950e+00,3.702625134491876469e-01,-2.535197317745149226e-01,1.550763281111868230e-01
1.070000000000000062e+00,4.280533365025542269e-01,-1.138016869836624007e-01,8.010409483637713490e-02
1.070999999999999952e+00,4.778757448615761905e-01,9.694323147863996570e-03,-5.932212350313156163e-02
1.072000000000000064e+00,4.037317119090475526e-01,1.718284069688593985e-01,-1.530019479026126505e-01
1.072999999999999954e+00,2.893615435064769148e-01,2.876911006413639393e-01,-2.489440857614546032e-01
1.074000000000000066e+00,1.284269654084720380e-01,3.474555590304035935e-01,-2.701279700151175689e-01
1.074999999999999956e+00,-5.658077587679750942e-02,3.732753145766397607e-01,-2.582830917807962812e-01
1.076000000000000068e+00,-2.342907862431389543e-01,3.198396838210467719e-01,-2.186291085162800907e-01
1.076999999999999957e+00,-3.529605202512931528e-01,2.194853444431258682e-01,-1.631792394589316186e-01
1.078000000000000069e+00,-4.610688874948661309e-01,9.341434443563625956e-02,-4.130721214702982175e-02
1.078999999999999959e+00,-4.821915537563479237e-01,-3.643275010089593036e-02,3.843864768483445243e-02
1.080000000000000071e+00,-4.003626756956666366e-01,-1.734168312884598606e-01,1.628477887402641489e-01
1.080999999999999961e+00,-2.660544008052140863e-01,-2.586267303264047634e-01,2.310694745695000829e-01
1.082000000000000073e+00,-1.054681269048449443e-01,-3.520429202455967466e-01,2.521300353505228631e-01
1.082999999999999963e+00,7.808853211695115926e-02,-3.707270008914909099e-01,2.735129242532081117e-01
1.084000000000000075e+00,2.507660108159971424e-01,-3.183393713964735583e-01,2.570744254257918970e-01
1.084999999999999964e+00,3.531268636219361268e-01,-2.213918421370031364e-01,1.529584777933458706e-01
1.086000000000000076e+00,4.422894913154690744e-01,-7.006298020176278396e-02,6.350091049706425850e-02
1.086999999999999966e+00,4.452199293818003834e-01,8.036112628774036426e-02,-3.859464480421152810e-02
1.088000000000000078e+00,4.005987241500509333e-01,1.909083921078618407e-01,-1.336609861373026786e-01
1.088999999999999968e+00,2.516582467228798414e-01,3.036240374100805939e-01,-2.384143499896141660e-01
1.090000000000000080e+00,9.704285454947514378e-02,3.600089125593201045e-01,-2.884088565441135232e-01
1.090999999999999970e+00,-8.511682239538952144e-02,3.775947410405180449e-01,-2.667196444212842632e-01
1.092000000000000082e+00,-2.389182704222351794e-01,2.899642064594155633e-01,-2.201207965608515948e-01
1.092999999999999972e+00,-4.024853386920520526e-01,1.859879781025687295e-01,-1.278384798154253987e-01
1.094000000000000083e+00,-4.722288640771489798e-01,5.608012602635451677e-02,-3.039228239263996531e-02
1.094999999999999973e+00,-4.585971219423762291e-01,-9.627798735244892658e-02,4.611896920312037740e-02
1.096000000000000085e+00,-3.702620900555614325e-01,-2.106322046782402035e-01,1.515866347068896558e-01
1.096999999999999975e+00,-2.746391085521052711e-01,-3.188935968095930606e-01,2.286611292129938633e-01
1.098000000000000087e+00,-5.784407381759650024e-02,-3.483197949127984083e-01,2.718791046470449002e-01
1.098999999999999977e+00,9.053557552843886913e-02,-3.769148461471039657e-01,2.757678401001816271e-01
1.100000000000000089e+00,2.698354927081746957e-01,-2.585756570138283417e-01,2.235700480190809247e-01
1.100999999999999979e+00,3.934171473055843582e-01,-2.042129609396440559e-01,1.301774874986051378e-01
1.102000000000000091e+00,4.865555871134109034e-01,-1.864470691261246177e-02,4.767579600302521842e-02
1.102999999999999980e+00,4.329314739734139161e-01,1.185948350170957372e-01,-3.616920122164736517e-02
1.104000000000000092e+00,3.654908270927652580e-01,2.347868466110144547e-01,-1.384907534342373625e-01
1.104999999999999982e+00,2.350390677238590187e-01,3.351851474768512418e-01,-2.345243611337741729e-01
1.106000000000000094e+00,8.242938982649086754e-02,3.907878720063653333e-01,-2.725250167042346794e-01
1.106999999999999984e+00,-1.468310810984010395e-01,3.310276826762967861e-01,-2.970394909103943326e-01
1.108000000000000096e+00,-2.927845372804366297e-01,2.688495233749751412e-01,-2.267499844453164104e-01
1.108999999999999986e+00,-4.116918518945971717e-01,1.671579096305254031e-01,-1.479834592590507647e-01
1.110000000000000098e+00,-4.740441996252827139e-01,1.658685781764517031e-02,-6.859371090681483374e-02
1.110999999999999988e+00,-4.441685804430021700e-01,-1.376969565590919486e-01,7.808341426401625707e-02
1.112000000000000099e+00,-3.767884135751601304e-01,-2.531623957533056246e-01,1.624506800109170312e-01
1.112999999999999989e+00,-2.103143462729461233e-01,-3.447471906701425337e-01,2.296141419477031598e-01
1.114000000000000101e+00,-6.500303584313718575e-02,-3.992783198125532951e-01,2.738281377212085088e-01
1.114999999999999991e+00,1.221210754503523344e-01,-3.468696107717599841e-01,2.930411735516417759e-01
1.116000000000000103e+00,2.871705089716851678e-01,-2.664701262205935173e-01,2.415527157636161715e-01
1.116999999999999993e+00,4.116894372702167293e-01,-1.423532063770922562e-01,1.385080647210035487e-01
1.118000000000000105e+00,4.675409271226182439e-01,-1.505738578093229708e-03,7.565632395679519617e-02
1.118999999999999995e+00,4.375980072639348850e-01,1.402730157733834138e-01,-4.423823700896784006e-02
1.120000000000000107e+00,3.675891208724834103e-01,2.755867867770053214e-01,-1.353564570441390946e-01
1.120999999999999996e+00,2.160765034697770537e-01,3.560527343664329769e-01,-2.072347860169085065e-01
1.122000000000000108e+00,5.100644101487791099e-02,3.857917048140033223e-01,-2.617879505239910642e-01
1.122999999999999998e+00,-1.507833710587130061e-01,3.422820454840335147e-01,-2.751344666548324880e-01
1.124000000000000110e+00,-2.984833858949922369e-01,2.466462164533939627e-01,-2.294308099905210674e-01
1.125000000000000000e+00,-4.171542289117474711e-01,1.049597916423155169e-01,-1.279911192683606258e-01
1.125999999999999890e+00,-4.752813955880960672e-01,-5.144178525432829135e-02,-5.637044746609576329e-02
1.127000000000000002e+00,-4.292226894182730179e-01,-1.815164086407928534e-01,6.766906553293300375e-02
1.127999999999999892e+00,-3.310819751463477401e-01,-2.971193034326447546e-01,1.774037305250974472e-01
1.129000000000000004e+00,-1.820166453560207453e-01,-3.385955457209439134e-01,2.426717426424151725e-01
1.129999999999999893e+00,-1.125336735078539922e-02,-3.666999096027156457e-01,2.597880807849817786e-01
1.131000000000000005e+00,1.666719139706272224e-01,-3.024736053125523516e-01,2.571771894958269633e-01
1.131999999999999895e+00,3.284138512567170709e-01,-2.367468234821431539e-01,2.169174403042660459e-01
1.133000000000000007e+00,4.472846462101515153e-01,-9.450608076841786331e-02,1.766410595147920315e-01
1.133999999999999897e+00,4.631103764937272160e-01,3.835661374911052135e-02,6.220838353660672337e-02
1.135000000000000009e+00,4.155171251156780099e-01,1.856838013702522550e-01,-7.017832849354437019e-02
1.135999999999999899e+00,3.245837268493693140e-01,2.825052930916270855e-01,-1.300654399180795895e-01
1.137000000000000011e+00,2.131996863548381305e-01,3.639702701082905834e-01,-2.131299089730575025e-01
1.137999999999999901e+00,1.515757165615756307e-03,3.700101624996363081e-01,-2.641640534134583329e-01
1.139000000000000012e+00,-1.626981461568530740e-01,3.206907084963928067e-01,-2.628818152401035113e-01
1.139999999999999902e+00,-3.386220111174195746e-01,1.771402874408018191e-01,-2.118973207623618127e-01
1.141000000000000014e+00,-4.339135266714109207e-01,7.085492928751123409e-02,-1.550738892621564835e-01
1.141999999999999904e+00,-4.899020282979180685e-01,-9.904402814111164244e-02,-6.825963006346376372e-02
1.143000000000000016e+00,-4.383523115677689930e-01,-2.057110697073856465e-01,4.253531028180881912e-02
1.143999999999999906e+00,-3.440732962112912352e-01,-3.345660098889035039e-01,1.327516936358168753e-01
1.145000000000000018e+00,-1.602081700703169853e-01,-3.763257000269810693e-01,2.168056585817582649e-01
1.145999999999999908e+00,2.633265756159521020e-02,-3.630173036952791255e-01,2.804552200672664197e-01
1.147000000000000020e+00,2.029839669514562073e-01,-3.140366137677482739e-01,2.933709862181633765e-01
1.147999999999999909e+00,3.170021223785408071e-01,-1.979480965687956395e-01,2.411844722261676233e-01
1.149000000000000021e+00,4.398423331677858150e-01,-2.370977133330537043e-02,1.568449446603909503e-01
1.149999999999999911e+00,4.434314954675830922e-01,1.238116053296828556e-01,5.809080250885909069e-02
1.151000000000000023e+00,4.663020101112864135e-01,2.239088390785227145e-01,-5.638501012125243794e-02
1.151999999999999913e+00,3.108125587738433948e-01,3.222577051183301289e-01,-1.552763722493266663e-01
1.153000000000000025e+00,1.753753514115343193e-01,3.605956981285114993e-01,-2.374422983511846885e-01
1.153999999999999915e+00,-3.520619860356738462e-02,3.484644777734923760e-01,-2.772004961676464707e-01
1.155000000000000027e+00,-2.107383913784641183e-01,2.739827778969662342e-01,-2.649799028666542933e-01
1.155999999999999917e+00,-3.347351406547691144e-01,1.594099843098111813e-01,-2.124013885684044589e-01
1.157000000000000028e+00,-4.498852697098028597e-01,6.040407065722443354e-03,-1.581091947638667561e-01
1.157999999999999918e+00,-4.582937777318905059e-01,-1.128633308998500812e-01,-6.021540974108365724e-02
1.159000000000000030e+00,-4.197621961205216801e-01,-2.569918216165449354e-01,5.806818319848360693e-02
1.159999999999999920e+00,-3.284176546841221511e-01,-3.325446937667175806e-01,1.290764470249267659e-01
1.161000000000000032e+00,-1.386032475782078555e-01,-3.765386649370636718e-01,2.070470671218846981e-01
1.161999999999999922e+00,3.013546569315617152e-02,-3.331113320785925036e-01,2.652334783744557112e-01
1.163000000000000034e+00,1.948001319313344970e-01,-2.536061644486218847e-01,2.731397476913390299e-01
1.163999999999999924e+00,3.647343816891899237e-01,-1.389668314758576162e-01,2.303549243228646404e-01
1.165000000000000036e+00,4.605810232011443017e-01,1.520777131431375398e-02,1.614426581075146805e-01
1.165999999999999925e+00,4.450812664161307719e-01,1.609327102561636524e-01,6.022728159924652103e-02
1.167000000000000037e+00,3.831268727505526828e-01,2.904519202354772234e-01,-5.744373243405358209e-02
1.167999999999999927e+00,3.017338970528668507e-01,3.621300344674981408e-01,-1.555407925648621403e-01
1.169000000000000039e+00,1.331334676001969530e-01,3.815481922725276753e-01,-2.404236023872915462e-01
1.169999999999999929e+00,-5.204523409815929591e-02,3.213042364193315348e-01,-2.773027508149812914e-01
1.171000000000000041e+00,-2.075409792289839850e-01,2.622076189601661445e-01,-2.860861589159479634e-01
1.171999999999999931e+00,-3.764029999289942308e-01,1.200320248368084292e-01,-2.490677368302444683e-01
1.173000000000000043e+00,-4.818108745470109922e-01,-6.554606675142188831e-03,-1.361432763917482802e-01
1.173999999999999932e+00,-4.727410899886915763e-01,-1.742648039238163249e-01,-2.511087094513693441e-02
1.175000000000000044e+00,-3.687278545136587482e-01,-3.026532201385211951e-01,4.871719606631551291e-02
1.175999999999999934e+00,-2.635972226382160555e-01,-3.585054554902194490e-01,1.296502069116941824e-01
1.177000000000000046e+00,-1.201510211826798680e-01,-3.437066727011993117e-01,2.161655493159872765e-01
1.177999999999999936e+00,5.579272761452881008e-02,-3.181458632229612338e-01,2.578697026654914182e-01
1.179000000000000048e+00,2.178971588280123606e-01,-2.215419999349871605e-01,2.683984830671100053e-01
1.179999999999999938e+00,3.675678314635397737e-01,-9.203802609421998793e-02,2.404174138012101225e-01
1.181000000000000050e+00,4.572663628513309875e-01,5.437534042506712156e-02,1.602052861142190809e-01
