time,acc_x,acc_y,acc_z
0.000000000000000000e+00,-2.136055360440208828e-02,-5.354665423633654664e-02,2.394841298336594995e-02
1.000000000000000021e-03,-1.089430538610512145e-01,-1.042303151626588625e-01,-4.387439509853154063e-02
2.000000000000000042e-03,-1.693953747125696851e-01,-1.222721677863502915e-01,-7.880400003264714792e-02
3.000000000000000062e-03,-1.549954970381283437e-01,-8.728299290284920187e-02,-9.646073467651933298e-02
4.000000000000000083e-03,-6.644416079177981049e-02,-2.775652939156047008e-02,-7.661096357106976507e-02
5.000000000000000104e-03,2.417357894586309036e-02,6.899057358068287626e-02,-1.501233984159592444e-02
6.000000000000000125e-03,1.073034836243227097e-01,1.206363429487163214e-01,3.731296716491283583e-02
7.000000000000000146e-03,1.493846645885077706e-01,1.241164667228311785e-01,7.966582811874707570e-02
8.000000000000000167e-03,1.477398608561882043e-01,8.318547430546456567e-02,1.025946328370821864e-01
8.999999999999999320e-03,6.473189501174106408e-02,-1.056850962850113158e-02,7.703227195896207580e-02
1.000000000000000021e-02,-3.404991006448519764e-02,-5.006431047767551101e-02,1.218870023011808454e-02
1.099999999999999936e-02,-1.195479460006371591e-01,-1.182470592093632367e-01,-4.546914663643041032e-02
1.200000000000000025e-02,-1.599558806386439658e-01,-1.058052010034862683e-01,-7.483358171111095802e-02
1.299999999999999940e-02,-1.441348570490038894e-01,-5.617925817529612065e-02,-8.987654831364842722e-02
1.400000000000000029e-02,-5.354784257907520273e-02,3.185170922038593061e-02,-6.791404208607608461e-02
1.499999999999999944e-02,5.024001996936484915e-02,8.035538236843153825e-02,-1.235645151725603581e-02
1.600000000000000033e-02,1.255139476583040370e-01,1.400832206957972337e-01,2.812723842157224471e-02
1.700000000000000122e-02,1.833514360830288403e-01,1.201597080271032264e-01,1.108331795284675375e-01
1.799999999999999864e-02,1.483226964664617620e-01,5.039914911042119722e-02,1.000932641496613956e-01
1.899999999999999953e-02,4.719323519697801728e-02,-6.307982026082616274e-03,4.816642757591610424e-02
2.000000000000000042e-02,-5.763256864553527314e-02,-1.003661586037923464e-01,2.529985497559569720e-03
2.100000000000000130e-02,-1.407324854813361836e-01,-1.148007797764810239e-01,-3.613715963480605003e-02
2.199999999999999872e-02,-1.557857074726199387e-01,-7.697629802604427640e-02,-8.196584374012046148e-02
2.299999999999999961e-02,-9.872742685593396961e-02,-6.151308096672344905e-02,-9.237455925456942996e-02
2.400000000000000050e-02,-3.857384192847557181e-02,3.905433004034195021e-02,-4.668032799154825385e-02
2.500000000000000139e-02,5.630396669814984045e-02,9.008758884847345438e-02,-1.096887133347727167e-02
2.599999999999999881e-02,1.464991021577866093e-01,1.225044423951508060e-01,6.488248695404122413e-02
2.699999999999999969e-02,1.697433674797941272e-01,9.782510758248659510e-02,7.499924008818469046e-02
2.800000000000000058e-02,1.033225118026572797e-01,2.444167583463446175e-02,7.951853526376767567e-02
2.900000000000000147e-02,1.948987374037173398e-02,-4.492407347518090344e-02,4.494643456390898240e-02
2.999999999999999889e-02,-9.658507220457662745e-02,-9.368718951489519997e-02,2.357459904886004785e-03
3.099999999999999978e-02,-1.471325855299768504e-01,-1.192216143065079753e-01,-5.184219751646079732e-02
3.200000000000000067e-02,-1.635577447881167712e-01,-1.002731509597215021e-01,-1.022295018366865538e-01
3.300000000000000155e-02,-9.405193772262604446e-02,-1.601359779776700965e-02,-6.808549854336312657e-02
3.400000000000000244e-02,-4.393732337106943941e-03,6.796714224297650819e-02,-5.077694124183155383e-02
3.500000000000000333e-02,8.431726222423549522e-02,1.351494358257218642e-01,1.687029618396141198e-02
3.599999999999999728e-02,1.392031804681098661e-01,1.307849732324663783e-01,5.257051623366369025e-02
3.699999999999999817e-02,1.574153539902292120e-01,8.698026972050550143e-02,9.265980077445211405e-02
3.799999999999999906e-02,9.000855154786899237e-02,3.622273566108366854e-03,8.150400924820358495e-02
3.899999999999999994e-02,-1.847222155555609119e-02,-6.571291110993464357e-02,2.723093317885866282e-02
4.000000000000000083e-02,-1.064299109762731343e-01,-1.316678578688425527e-01,-1.201657260559955975e-02
4.100000000000000172e-02,-1.549659994210852154e-01,-1.136410728737701492e-01,-5.930044540388301061e-02
4.200000000000000261e-02,-1.402779592792004204e-01,-7.060370565913073881e-02,-8.570386235303033284e-02
4.299999999999999656e-02,-8.180681013084879771e-02,2.017030257093359140e-03,-8.410541220578478250e-02
4.399999999999999745e-02,1.010376015203921611e-02,8.092117539586200781e-02,-4.291613988923070888e-02
4.499999999999999833e-02,1.009366487543998797e-01,1.117692158637962618e-01,2.014045862537668097e-02
4.599999999999999922e-02,1.589330817174860189e-01,1.063832632418793694e-01,7.013803402742090076e-02
4.700000000000000011e-02,1.479688887665282226e-01,5.452792271207756308e-02,8.883041660600529688e-02
4.800000000000000100e-02,5.169106248611303467e-02,-6.445126944433035923e-03,7.152385653807215304e-02
4.900000000000000189e-02,-4.084934441097783780e-02,-8.662398928476792992e-02,5.623676929182040707e-02
5.000000000000000278e-02,-1.409824914465374335e-01,-1.215347078039132611e-01,-3.169713718987109130e-02
5.099999999999999672e-02,-1.486250135102989978e-01,-9.401166460947890657e-02,-8.423153405188291143e-02
5.199999999999999761e-02,-1.332064640796640775e-01,-5.022083124239271751e-02,-8.759260896938801666e-02
5.299999999999999850e-02,-4.693967763649935232e-02,3.004091607899725749e-02,-1.019003069853801485e-01
5.399999999999999939e-02,4.120097506122363112e-02,9.753574240179618826e-02,-4.402036544595563927e-02
5.500000000000000028e-02,1.236468519931585436e-01,1.349629112465769443e-01,2.627636278234151204e-02
5.600000000000000117e-02,1.568061697646317698e-01,9.261096115460457079e-02,7.433553276448554015e-02
5.700000000000000205e-02,1.313581840043009652e-01,1.778479874831337404e-02,8.779564409296013172e-02
5.800000000000000294e-02,3.950411700598977643e-02,-4.227156580027736227e-02,5.683388396734967429e-02
5.899999999999999689e-02,-5.968878044297543095e-02,-1.054760702176061604e-01,3.427265911995190650e-02
5.999999999999999778e-02,-1.342783107895489103e-01,-1.214760274565230558e-01,-2.363106773929852383e-02
6.099999999999999867e-02,-1.760546328718220477e-01,-8.709010539194247946e-02,-7.472775649988752655e-02
6.199999999999999956e-02,-1.106708031076146098e-01,-8.972897058431576062e-03,-9.696367259494510782e-02
6.300000000000000044e-02,-3.268372989713917015e-02,5.538106646568477509e-02,-8.923453130668654310e-02
6.400000000000000133e-02,7.082186461701868441e-02,8.820317626824625279e-02,-1.764425227338627458e-02
6.500000000000000222e-02,1.456579399971602296e-01,1.348431142654031856e-01,3.231187689947327690e-02
6.600000000000000311e-02,1.499206741972591850e-01,8.463340849841119451e-02,7.955104274388630214e-02
6.700000000000000400e-02,1.271854178254194501e-01,1.522559824986070712e-03,1.216267961359829980e-01
6.800000000000000488e-02,2.176918040855260056e-02,-8.434025632603470157e-02,6.853913555080101694e-02
6.900000000000000577e-02,-5.889246642240768270e-02,-1.137826664085388878e-01,6.156046966969818540e-03
7.000000000000000666e-02,-1.414429531352517921e-01,-1.146090281203166056e-01,-4.046337294612268459e-02
7.099999999999999367e-02,-1.481809354277313362e-01,-7.077345397805084870e-02,-7.866517172767818755e-02
7.199999999999999456e-02,-1.033035661848551306e-01,-1.363221944442288662e-04,-8.782571438073578929e-02
7.299999999999999545e-02,-3.069012779092813569e-03,7.276111747556486542e-02,-8.039889756891870076e-02
7.399999999999999634e-02,1.068262516674054474e-01,1.242351851916742717e-01,-2.267076941558372055e-02
7.499999999999999722e-02,1.483491629027132441e-01,1.147147946491119536e-01,2.267291981550966645e-02
7.599999999999999811e-02,1.550515144298810766e-01,7.592635854286026997e-02,9.100932145256294958e-02
7.699999999999999900e-02,1.097613850509962519e-01,-2.293237966659224594e-02,1.033371962677979011e-01
7.799999999999999989e-02,8.719237092947947423e-03,-9.634735930879297083e-02,7.119350432499488290e-02
7.900000000000000078e-02,-9.327324598252510757e-02,-1.327051241066830867e-01,1.885036747624031783e-02
8.000000000000000167e-02,-1.423490761148939743e-01,-9.905500193110483576e-02,-4.905540684527132794e-02
8.100000000000000255e-02,-1.448132237003310063e-01,-4.000868810870856357e-02,-8.564536155814150842e-02
8.200000000000000344e-02,-8.371311188799356040e-02,3.988096305984889511e-02,-8.430366754601965884e-02
8.300000000000000433e-02,1.908087252261223693e-02,9.642218351973338986e-02,-5.735739921200933011e-02
8.400000000000000522e-02,1.060769664108435345e-01,1.240885228434864679e-01,-2.906818965961922505e-02
8.500000000000000611e-02,1.523605289642442906e-01,9.444233539187406323e-02,3.092575973972482017e-02
8.599999999999999312e-02,1.341990037643419065e-01,3.012950511789482672e-02,8.106591539920679490e-02
8.699999999999999400e-02,8.161127868267094299e-02,-3.885895423174021146e-02,1.016800539048477031e-01
8.799999999999999489e-02,-2.350555206871167771e-02,-1.002989270993845244e-01,5.488787721243048451e-02
8.899999999999999578e-02,-9.954875038899403672e-02,-1.163040865855283768e-01,-7.305146092080639329e-03
8.999999999999999667e-02,-1.599043357007488564e-01,-9.439438790713235161e-02,-3.829505742445776101e-02
9.099999999999999756e-02,-1.330586006681500066e-01,-1.842878125055919317e-02,-7.312806787750678050e-02
9.199999999999999845e-02,-7.091687883101319145e-02,6.961203896253170820e-02,-1.010035792689564088e-01
9.299999999999999933e-02,5.496071449931449332e-02,1.206990049917126134e-01,-6.801424678441146676e-02
9.400000000000000022e-02,1.186064892891643269e-01,1.348388608468485683e-01,-8.063000654142879475e-03
9.500000000000000111e-02,1.450634448156782053e-01,8.817685994597863897e-02,5.275497751978341227e-02
9.600000000000000200e-02,1.329761879577184558e-01,1.183106850838527152e-02,7.418726564383695821e-02
9.700000000000000289e-02,4.898502031005422946e-02,-6.953222574923918764e-02,9.807599985531124942e-02
9.800000000000000377e-02,-5.883209945301025312e-02,-1.223414684103910077e-01,5.304267794287780002e-02
9.900000000000000466e-02,-1.251992164045176714e-01,-1.227580073088689744e-01,-8.511239778915574705e-03
1.000000000000000056e-01,-1.480184916254211058e-01,-7.356025676216294829e-02,-5.438483727560861070e-02
1.010000000000000064e-01,-1.365934237385110495e-01,2.044223921876009084e-02,-1.068325019096353357e-01
1.019999999999999934e-01,-3.694788519269228549e-02,8.346910222626061082e-02,-7.355418116975424858e-02
1.029999999999999943e-01,5.714521479950679383e-02,1.139734791610182985e-01,-4.949025747081725601e-02
1.039999999999999952e-01,1.227748867648948278e-01,1.159007575419669922e-01,5.609839801814136932e-03
1.049999999999999961e-01,1.518925749960550464e-01,3.964250721344007161e-02,5.432479517634117294e-02
1.059999999999999970e-01,9.233346766798355976e-02,-3.348591695508831845e-02,8.918865617635293730e-02
1.069999999999999979e-01,3.371809744537571096e-02,-8.111616205940791469e-02,7.695280641800514299e-02
1.079999999999999988e-01,-8.187944298535711207e-02,-1.154775640912876905e-01,4.723145526677228340e-02
1.089999999999999997e-01,-1.286755485291968260e-01,-1.066558817598172032e-01,-5.564083648427570151e-04
1.100000000000000006e-01,-1.691158265681382000e-01,-4.273018038828944182e-02,-5.230347895095597416e-02
1.110000000000000014e-01,-1.162615330345053988e-01,2.469326861179396357e-02,-1.110778515681097034e-01
1.120000000000000023e-01,-1.581477787104473495e-02,1.026617569648755196e-01,-1.047455252668014480e-01
1.130000000000000032e-01,8.066540841709560206e-02,1.299506283341093915e-01,-4.952112520226542580e-02
1.140000000000000041e-01,1.303288742580213377e-01,1.061313514794636897e-01,-4.534666541322681255e-04
1.150000000000000050e-01,1.486244367792796672e-01,2.185951224740845591e-02,6.468115324330288296e-02
1.160000000000000059e-01,8.744068797626948497e-02,-6.483074832418087019e-02,8.936867103699544512e-02
1.170000000000000068e-01,-9.007791591828196928e-03,-1.053679536849806975e-01,7.464809981043947495e-02
1.179999999999999938e-01,-9.286164515376625628e-02,-1.295155541160601109e-01,4.425475254977748185e-02
1.189999999999999947e-01,-1.636213117336553502e-01,-9.455020924057046250e-02,-1.060157243715638235e-02
1.199999999999999956e-01,-1.576774346758597067e-01,-3.450762585017595752e-02,-7.936099656826275939e-02
1.209999999999999964e-01,-9.499275480216064216e-02,6.347291629445689365e-02,-1.082632863444832755e-01
1.219999999999999973e-01,2.869040811769382054e-02,1.171113875947327881e-01,-8.016237418940067028e-02
1.229999999999999982e-01,9.689088600469369927e-02,1.369305941432481244e-01,-4.454155057823808855e-02
1.239999999999999991e-01,1.520132692150337472e-01,7.037713790908001199e-02,9.770182984685536753e-03
1.250000000000000000e-01,1.377624375986631899e-01,8.728455992854503021e-03,8.644943208778817223e-02
1.260000000000000009e-01,7.733551817976772047e-02,-8.316548281757941974e-02,9.305660125313243436e-02
1.270000000000000018e-01,-2.982650543154618389e-02,-1.249534518166717095e-01,7.612825460039299164e-02
1.280000000000000027e-01,-9.825605892518543549e-02,-1.185264394487136191e-01,5.160562113529675726e-02
1.290000000000000036e-01,-1.663929014816578622e-01,-6.588026349644213187e-02,-4.856426677265222175e-02
1.300000000000000044e-01,-1.271237534251379586e-01,1.165865670833816752e-02,-7.931833486790343390e-02
1.310000000000000053e-01,-7.207699836818806660e-02,8.003702352069148873e-02,-1.038653493523676585e-01
1.320000000000000062e-01,3.829263385359809452e-02,1.120591190905624035e-01,-7.135636290936915593e-02
1.330000000000000071e-01,1.174118527658312983e-01,1.055982851789177696e-01,-1.582248397728502551e-02
1.340000000000000080e-01,1.550213206623212991e-01,5.817212411294810093e-02,1.750780860122867072e-02
1.350000000000000089e-01,1.500662049328745085e-01,-2.283541718612971949e-02,8.765007591404842813e-02
1.360000000000000098e-01,7.043818628800016524e-02,-8.162280827365538116e-02,1.039511548703497545e-01
1.370000000000000107e-01,-4.843716646850796531e-02,-1.258298346843026161e-01,6.609616918675476072e-02
1.380000000000000115e-01,-1.353694563131422335e-01,-1.222756221982233410e-01,3.222586882049063850e-02
1.390000000000000124e-01,-1.687227819814467455e-01,-3.257582684918537697e-02,-3.356782207894495190e-02
1.400000000000000133e-01,-1.272475708422264318e-01,2.878256491642695522e-02,-8.784928631979252445e-02
1.409999999999999865e-01,-3.921231349171683950e-02,1.044718086667943968e-01,-1.029615384733570532e-01
1.419999999999999873e-01,5.597408793742942451e-02,1.212831547958642675e-01,-7.116287897531260731e-02
1.429999999999999882e-01,1.381539861883904763e-01,1.006258622030024169e-01,-2.529341410017781414e-02
1.439999999999999891e-01,1.465696013306316270e-01,1.844211023545621816e-02,5.262817034180438530e-02
1.449999999999999900e-01,1.271568173077610164e-01,-3.945698326765633562e-02,7.872995286341964716e-02
1.459999999999999909e-01,3.005461325601835321e-02,-1.149076152604631001e-01,7.920359127184684045e-02
1.469999999999999918e-01,-7.792827350639583428e-02,-1.192196588677275487e-01,9.239588529514310145e-02
1.479999999999999927e-01,-1.429219995787913977e-01,-1.041742805745434486e-01,5.703347396333468752e-03
1.489999999999999936e-01,-1.619509043622285593e-01,-2.412981382416998569e-02,-3.419337196621217989e-02
1.499999999999999944e-01,-1.045605038866859460e-01,6.250215849466927986e-02,-8.653599510700245301e-02
1.509999999999999953e-01,-2.001158251883436781e-02,1.139385278527842715e-01,-1.051255295930579037e-01
1.519999999999999962e-01,6.705989000419315671e-02,1.182245886756221748e-01,-7.173652084120367423e-02
1.529999999999999971e-01,1.357222966108233564e-01,7.974109108260428458e-02,-1.684081117452307721e-02
1.539999999999999980e-01,1.494316916553667107e-01,1.288968391673491268e-02,4.133647719494775580e-02
1.549999999999999989e-01,1.020020224177762003e-01,-4.757033855165540559e-02,8.578065657775219011e-02
1.559999999999999998e-01,2.968098149883512810e-02,-1.134250256593324485e-01,9.185140077571757322e-02
1.570000000000000007e-01,-7.821449904340570247e-02,-9.962226046876004881e-02,7.304122065587118073e-02
1.580000000000000016e-01,-1.319521823141348027e-01,-6.519800083154864145e-02,2.452956675536256334e-02
1.590000000000000024e-01,-1.604894715550745088e-01,1.786668454456752722e-02,-4.434489361587198170e-02
1.600000000000000033e-01,-9.300302641720008257e-02,5.993869216372119807e-02,-9.877928023958591763e-02
1.610000000000000042e-01,-7.216938170362052589e-03,1.090883300961320718e-01,-1.030217080670992741e-01
1.620000000000000051e-01,1.013694171820034989e-01,1.037877350464582321e-01,-5.845902877327838892e-02
1.630000000000000060e-01,1.566092970708515830e-01,4.965334325325233833e-02,-5.941908512034002957e-03
1.640000000000000069e-01,1.502964331251654406e-01,-2.137042697570193384e-02,3.586860097625935856e-02
1.650000000000000078e-01,7.023707787587742113e-02,-1.030673633831242220e-01,9.034384768706928137e-02
1.660000000000000087e-01,-1.687349889599767255e-02,-1.062894492698170240e-01,8.798399981470537978e-02
1.670000000000000095e-01,-1.158298006792156110e-01,-1.163251577498908285e-01,6.381250751884783023e-02
1.680000000000000104e-01,-1.457504006954580267e-01,-5.263366199967008108e-02,-5.645469020888337248e-03
1.690000000000000113e-01,-1.473640186345316627e-01,4.985532752224523800e-02,-3.149525499518571192e-02
1.700000000000000122e-01,-7.551583667010629275e-02,1.039386363379296990e-01,-9.800778301703524931e-02
1.710000000000000131e-01,1.912658422206899023e-02,1.419661492169628503e-01,-8.988018753225535118e-02
1.719999999999999862e-01,1.202486764861790125e-01,1.136546127911864656e-01,-5.776270478953421383e-02
1.729999999999999871e-01,1.517563546107471018e-01,3.061526968216076589e-02,-7.634998248819140250e-03
1.739999999999999880e-01,1.511627334556500113e-01,-6.028852395392966801e-02,6.111364941001422302e-02
1.749999999999999889e-01,4.784493946464189740e-02,-1.075804636264570124e-01,9.082255702293884347e-02
1.759999999999999898e-01,-2.949566740989535696e-02,-1.250860525518820709e-01,1.123005404137890906e-01
1.769999999999999907e-01,-1.266397364477102327e-01,-8.654333945702451236e-02,7.450085376749494837e-02
1.779999999999999916e-01,-1.683897028887537672e-01,-1.476543525489731369e-02,-1.255345996254443597e-02
1.789999999999999925e-01,-1.426799407091473848e-01,7.040204392622995133e-02,-7.306729102076540971e-02
1.799999999999999933e-01,-5.797990095901884439e-02,1.357310275037132141e-01,-8.606798351679721681e-02
1.809999999999999942e-01,1.731508358049078933e-02,1.202759160472084005e-01,-9.267261557963921148e-02
1.819999999999999951e-01,1.358715509812244704e-01,7.761918245706647679e-02,-4.633829385626805214e-02
1.829999999999999960e-01,1.672153626030595253e-01,9.529157511210296222e-03,1.911683596647168609e-02
1.839999999999999969e-01,1.276678443403123087e-01,-6.308268030878753929e-02,6.079151712827209064e-02
1.849999999999999978e-01,4.568213979223080534e-02,-1.285744248330020212e-01,1.094763217232081060e-01
1.859999999999999987e-01,-5.615863697584593667e-02,-1.245183899452540766e-01,1.039622044786304988e-01
1.869999999999999996e-01,-1.298834646692054173e-01,-7.043506678719919922e-02,2.525707702086135015e-02
1.880000000000000004e-01,-1.424582980513637298e-01,1.232354849275934736e-02,-8.461952114649722023e-03
1.890000000000000013e-01,-1.277314622843926939e-01,9.114172041570431371e-02,-6.216488579214295151e-02
1.900000000000000022e-01,-4.726094884628125742e-02,1.136532632102828927e-01,-8.494317899766500035e-02
1.910000000000000031e-01,6.555395873351696490e-02,1.083078960294248660e-01,-1.036363338936835687e-01
1.920000000000000040e-01,1.404070913216933780e-01,6.224398115396315850e-02,-4.963086000868086739e-02
1.930000000000000049e-01,1.691563014282266297e-01,-2.242629693651959633e-02,2.142999210769905294e-02
1.940000000000000058e-01,1.163522795280630129e-01,-8.992772232843453117e-02,6.931134622205920026e-02
1.950000000000000067e-01,2.818668902299529405e-02,-1.430331177493299466e-01,9.418255553584931050e-02
1.960000000000000075e-01,-8.275477190746352574e-02,-1.033190839766991165e-01,8.750933283648842931e-02
1.970000000000000084e-01,-1.320742603160802164e-01,-4.094066398672368406e-02,3.403172264626438959e-02
1.980000000000000093e-01,-1.510411343482213065e-01,3.678970411161641002e-02,-3.525047625372900589e-02
1.990000000000000102e-01,-1.007696425086964387e-01,9.842944468933628732e-02,-8.342637692062222776e-02
2.000000000000000111e-01,-1.756516628162098359e-02,1.299956536708583021e-01,-8.351359438991640127e-02
2.010000000000000120e-01,7.615083192562578651e-02,9.378063698240418633e-02,-9.025071960891029033e-02
2.020000000000000129e-01,1.519221554414121877e-01,2.033459433217063225e-02,-3.181534989810411163e-02
2.030000000000000138e-01,1.476609316474701006e-01,-5.767302332781460567e-02,3.747455372766766296e-02
2.039999999999999869e-01,1.008359381442742453e-01,-9.967362191851719677e-02,6.361480845694300612e-02
2.049999999999999878e-01,-2.397290331938648628e-02,-1.386902137353528686e-01,9.447612983508189843e-02
2.059999999999999887e-01,-1.017271935380486408e-01,-9.218759237363584325e-02,7.134939095020624567e-02
2.069999999999999896e-01,-1.466012529287605559e-01,-2.577856212865698923e-02,3.808930235364860195e-02
2.079999999999999905e-01,-1.516994984931529511e-01,5.951712429781354230e-02,-3.426291405471575124e-02
2.089999999999999913e-01,-8.143169754354807888e-02,1.333415536418209313e-01,-8.197772620943176436e-02
2.099999999999999922e-01,1.749033741123711891e-02,1.141309287969240471e-01,-7.799886570713565614e-02
2.109999999999999931e-01,1.100548755523302336e-01,7.753825560683477724e-02,-6.915810788313743462e-02
2.119999999999999940e-01,1.511317115834661662e-01,2.214272335563204769e-02,-2.789940702312451032e-02
2.129999999999999949e-01,1.523000684537164362e-01,-6.132698327876888456e-02,3.729141614484225709e-02
2.139999999999999958e-01,5.570479971975711431e-02,-1.092694950318480879e-01,7.944251751548343787e-02
2.149999999999999967e-01,-3.680928868450961122e-02,-1.336151593769212553e-01,8.447768938104797953e-02
2.159999999999999976e-01,-1.452834591929659525e-01,-6.631949072449937199e-02,6.918041200624953924e-02
2.169999999999999984e-01,-1.516069241155131586e-01,1.891415148812942634e-02,2.754531991580059375e-02
2.179999999999999993e-01,-1.500984296683282038e-01,7.861952503733513065e-02,-4.716732858124406819e-02
2.190000000000000002e-01,-5.469858256254714335e-02,1.115556074989709906e-01,-7.659682640215427496e-02
2.200000000000000011e-01,3.994736767264345928e-02,1.122442684155421228e-01,-8.387255352778921758e-02
2.210000000000000020e-01,1.249130249207992677e-01,5.998750721870174663e-02,-7.897014185560159716e-02
2.220000000000000029e-01,1.641702205442837625e-01,-5.069374660406888305e-02,-2.794687572592003538e-02
2.230000000000000038e-01,1.345449511856579017e-01,-8.704503026095972151e-02,4.468647619448350150e-02
2.240000000000000047e-01,5.173498032620439668e-02,-1.311436282017858501e-01,6.515074134116084770e-02
2.250000000000000056e-01,-4.296936242512373882e-02,-1.055867265012176009e-01,8.648970630949413818e-02
2.260000000000000064e-01,-1.487746769640269084e-01,-4.580348656687301123e-02,6.087435929579692456e-02
2.270000000000000073e-01,-1.477272023415501789e-01,4.787199518373606161e-02,1.319075421412462326e-02
2.280000000000000082e-01,-1.189051903313320391e-01,1.004792745555388445e-01,-3.755161525343601175e-02
2.290000000000000091e-01,-2.754345806854523182e-02,1.192285551806269300e-01,-7.539255333479943921e-02
2.300000000000000100e-01,6.991496542848570084e-02,1.021697376487378517e-01,-9.771788000272102481e-02
2.310000000000000109e-01,1.284538921681982748e-01,3.185700666200166203e-02,-6.217112320821598787e-02
2.320000000000000118e-01,1.695296575836679198e-01,-4.370315596058950425e-02,-3.199817202522648590e-02
2.330000000000000127e-01,1.198460631724799635e-01,-1.128706125234930774e-01,5.252495945360218660e-02
2.340000000000000135e-01,2.743213211557361461e-02,-1.305814380328873814e-01,9.698788795045418243e-02
2.349999999999999867e-01,-8.494319002529017448e-02,-8.732058394369147936e-02,8.528884751468628067e-02
2.359999999999999876e-01,-1.369299201490663531e-01,-3.716855830427524821e-02,6.589740996557010011e-02
2.369999999999999885e-01,-1.712152001126376055e-01,6.323081255536147638e-02,3.226506942831283004e-02
2.379999999999999893e-01,-9.992088740575670591e-02,1.055546203895235263e-01,-3.327992872449621331e-02
2.389999999999999902e-01,-1.554944656191817841e-02,1.263130683238310736e-01,-7.998313167779358412e-02
2.399999999999999911e-01,9.168788127180614589e-02,8.210208333359830801e-02,-7.912350098662859765e-02
2.409999999999999920e-01,1.484477320753755381e-01,1.894759659404691640e-02,-5.450011431991211991e-02
2.419999999999999929e-01,1.566722510971696181e-01,-6.179229545037891180e-02,-1.539580906094542047e-02
2.429999999999999938e-01,1.007972110238739699e-01,-1.127675227473534519e-01,4.037896837019320367e-02
2.439999999999999947e-01,-3.100512316370675030e-03,-1.138451698584982408e-01,8.221101294841068330e-02
2.449999999999999956e-01,-8.387683325401371071e-02,-8.259989032386798324e-02,1.049896056391634164e-01
2.459999999999999964e-01,-1.448737914147077421e-01,1.199391519560879735e-02,4.433360479670434701e-02
2.469999999999999973e-01,-1.360429747342324913e-01,8.176104972447015284e-02,-8.736778364900363129e-04
2.479999999999999982e-01,-8.555034797272195735e-02,1.238191119509758353e-01,-6.867028727653548548e-02
2.489999999999999991e-01,1.313791414081115147e-02,1.070603909303702583e-01,-9.662287771811131631e-02
2.500000000000000000e-01,9.364495634306581329e-02,5.632135563618898000e-02,-8.151528713092620615e-02
2.510000000000000009e-01,1.616738852365174894e-01,-1.251795087048913034e-02,-5.452285184475846175e-02
2.520000000000000018e-01,1.468826366528637462e-01,-9.319820117695948314e-02,2.023893055059629298e-02
2.530000000000000027e-01,7.861755691321288542e-02,-1.319984045964293917e-01,6.513906882182059210e-02
2.540000000000000036e-01,-2.861013353663499278e-02,-1.032125084197207526e-01,9.285818663325010047e-02
2.550000000000000044e-01,-1.133726683267767543e-01,-4.210137377863129582e-02,8.355430929278780117e-02
2.560000000000000053e-01,-1.447819113965120308e-01,3.220991874532322385e-02,4.917819081451291902e-02
2.570000000000000062e-01,-1.228464651222048315e-01,1.059941737356351471e-01,-5.402326200464994260e-03
2.580000000000000071e-01,-5.310819819153941163e-02,1.028115863652829948e-01,-5.889918823853283747e-02
2.590000000000000080e-01,3.228365745844716944e-02,1.033229952692749642e-01,-9.133646294107924946e-02
2.600000000000000089e-01,1.003043533580723762e-01,3.759931690496753215e-02,-9.762065821878487815e-02
2.610000000000000098e-01,1.586080320497545437e-01,-4.935075887511135989e-02,-4.617973966199055702e-02
2.620000000000000107e-01,1.454928122303853766e-01,-9.777537865434715592e-02,1.952165911032639756e-02
2.630000000000000115e-01,5.935885100792615693e-02,-1.369819747384819764e-01,5.171854382747213125e-02
2.640000000000000124e-01,-4.365154494862090451e-02,-8.330140321125378833e-02,1.007259178998403254e-01
2.650000000000000133e-01,-1.143339534240889604e-01,-2.662811636896408873e-02,8.608792409410628843e-02
2.660000000000000142e-01,-1.504435790088393676e-01,6.523401840479928215e-02,3.418168377717777096e-02
2.670000000000000151e-01,-1.323798264417196946e-01,1.078614250981138056e-01,-2.288954887465591281e-02
2.680000000000000160e-01,-4.281348766601716233e-02,1.137682602853966329e-01,-7.532122802653790083e-02
2.690000000000000169e-01,4.678749111592026000e-02,8.330167177218257557e-02,-9.891541125404568202e-02
2.700000000000000178e-01,1.547987034230898784e-01,5.567113664306047940e-03,-7.506307551553717539e-02
2.710000000000000187e-01,1.598895127479457723e-01,-7.422635598791887945e-02,-3.745551065692928616e-02
2.720000000000000195e-01,1.243427854832828972e-01,-1.146418037283452596e-01,3.485610798975517788e-02
2.730000000000000204e-01,2.618357055091041080e-02,-1.147188471734584825e-01,7.721667930644095235e-02
2.740000000000000213e-01,-7.362083717023820695e-02,-5.959908647437349438e-02,9.098510867825336523e-02
2.750000000000000222e-01,-1.149409215179747895e-01,1.348661070571213066e-02,8.137237225416554809e-02
2.760000000000000231e-01,-1.522167720211475006e-01,7.775664279816159319e-02,4.741139113546832123e-02
2.770000000000000240e-01,-1.149483401072560196e-01,1.215693546750399867e-01,-1.992968073345291816e-02
2.780000000000000249e-01,-3.952565242464416151e-02,1.186824818286505295e-01,-7.391806053129228171e-02
2.790000000000000258e-01,9.452118782281757059e-02,6.516445360112119167e-02,-8.378582143352859835e-02
2.800000000000000266e-01,1.502994574791825799e-01,-1.311467137107169036e-02,-6.439538228855420932e-02
2.810000000000000275e-01,1.566151810687078094e-01,-8.144763516422798277e-02,-5.316443191350695568e-02
2.819999999999999729e-01,1.053349672198798520e-01,-1.090337753386488029e-01,2.949978273694953482e-02
2.829999999999999738e-01,2.242168050232141302e-02,-1.139076064385054210e-01,8.101265420634203018e-02
2.839999999999999747e-01,-7.550763533977256081e-02,-3.907038449503619226e-02,1.039418037351023255e-01
2.849999999999999756e-01,-1.469068477207114698e-01,3.864748479740757331e-02,8.805183067536093144e-02
2.859999999999999765e-01,-1.407055537147784696e-01,1.074307727826429582e-01,2.734199623091157494e-02
2.869999999999999774e-01,-8.476770590062965294e-02,1.166762903072801061e-01,-4.330692397692775808e-02
2.879999999999999782e-01,-1.059781712518523007e-03,9.440000953966494468e-02,-9.457235627377012788e-02
2.889999999999999791e-01,8.925854485883311096e-02,4.594806865994318507e-02,-9.742726376748775396e-02
2.899999999999999800e-01,1.512430226498897023e-01,-4.258848337302871545e-02,-6.464214897451367459e-02
2.909999999999999809e-01,1.441420342239665142e-01,-1.109012069127689321e-01,-3.870664231264214772e-02
2.919999999999999818e-01,9.359381691711388118e-02,-1.071813036328749108e-01,1.396142866348061215e-02
2.929999999999999827e-01,-2.794916618903827907e-02,-1.020046071840620266e-01,7.453008998012998487e-02
2.939999999999999836e-01,-1.134851177104005404e-01,-4.910939680047413797e-02,8.925496719951554747e-02
2.949999999999999845e-01,-1.868680880105475783e-01,5.869135745565725454e-02,8.243568963345851430e-02
2.959999999999999853e-01,-1.305923972945982614e-01,1.333067589120689456e-01,1.378448286909565376e-02
2.969999999999999862e-01,-7.939337655852676812e-02,1.340508323063765161e-01,-2.619639092878627354e-02
2.979999999999999871e-01,3.095930814463951006e-02,8.410351155999791495e-02,-6.730838314799347799e-02
2.989999999999999880e-01,1.202166984250803705e-01,-5.616825220821263171e-04,-8.887404519214801846e-02
2.999999999999999889e-01,1.442825597243070079e-01,-4.886292338881829261e-02,-5.679470704625586008e-02
3.009999999999999898e-01,1.432842192031972828e-01,-1.182879031892512950e-01,-1.898294899238108305e-02
3.019999999999999907e-01,7.401053017181960514e-02,-1.045583043818836821e-01,5.076438680482237703e-02
3.029999999999999916e-01,-4.493380774798828164e-02,-7.540507212198795106e-02,9.864928390449594076e-02
3.039999999999999925e-01,-1.223467326636146352e-01,6.855325160215738033e-03,1.019970532629444204e-01
3.049999999999999933e-01,-1.506491186557731565e-01,9.334079704535930277e-02,5.371569340093851341e-02
3.059999999999999942e-01,-1.396666041291552141e-01,1.119163946163674317e-01,6.934040795875579671e-03
3.069999999999999951e-01,-4.095564856463822234e-02,1.081823994800275301e-01,-4.991269687155163587e-02
3.079999999999999960e-01,4.713062819778011253e-02,6.765882269001115279e-02,-7.602495306979162315e-02
3.089999999999999969e-01,1.277947649518165196e-01,-2.692132147626735694e-02,-9.201425111585033456e-02
3.099999999999999978e-01,1.576285726121306185e-01,-7.990809938941544066e-02,-7.254727927352409844e-02
3.109999999999999987e-01,1.120395883603006876e-01,-1.147701125859759558e-01,3.380305636396247013e-03
3.119999999999999996e-01,3.828044730029567244e-02,-9.102682757953489689e-02,5.899755556149357399e-02
3.130000000000000004e-01,-5.530108971596244677e-02,-5.918876412983937324e-02,9.781247556525474174e-02
3.140000000000000013e-01,-1.262878211789053573e-01,2.691003305335114629e-02,1.049650215551375387e-01
3.150000000000000022e-01,-1.525415357259007898e-01,1.032877935783316492e-01,6.081949626984742979e-02
3.160000000000000031e-01,-1.316511272245433906e-01,1.359608222360076113e-01,-1.668564148560384465e-03
3.170000000000000040e-01,-3.041303228328027380e-02,1.023025800055965551e-01,-5.861628726851284693e-02
3.180000000000000049e-01,7.031600395613712973e-02,5.038915547576972020e-02,-9.571524890876668967e-02
3.190000000000000058e-01,1.367905811173953379e-01,-4.357230078254233779e-02,-8.617184017878319613e-02
3.200000000000000067e-01,1.361181148288681253e-01,-1.306673182415775958e-01,-4.990496561701594086e-02
3.210000000000000075e-01,9.824777423242107843e-02,-1.282712286192021212e-01,-2.257972750552772120e-02
3.220000000000000084e-01,2.103322254735782645e-02,-9.070413344455760529e-02,4.629490089162228289e-02
3.230000000000000093e-01,-7.392920664470856162e-02,-3.907073585043057545e-02,9.585970251548117660e-02
3.240000000000000102e-01,-1.539070324455170113e-01,4.761310602524519708e-02,8.462976998908552928e-02
3.250000000000000111e-01,-1.470571936228477761e-01,1.197923447868884106e-01,5.957177929443944336e-02
3.260000000000000120e-01,-1.052689719003443714e-01,1.310568264864098442e-01,6.440057114640497949e-04
3.270000000000000129e-01,1.375951459825990736e-02,9.417099555563031299e-02,-3.801167878903209674e-02
3.280000000000000138e-01,8.775865362867070474e-02,9.916835852608430618e-03,-1.006733857221388528e-01
3.290000000000000147e-01,1.433841286806142867e-01,-7.926596056463222628e-02,-7.828274606079491105e-02
3.300000000000000155e-01,1.745607231710981089e-01,-1.289706480206373185e-01,-3.108551137480866991e-02
3.310000000000000164e-01,8.649346531935978022e-02,-1.189788392168539127e-01,1.335439703619094483e-02
3.320000000000000173e-01,-1.628977810209686653e-03,-5.830303909938310686e-02,7.651708653898223189e-02
3.330000000000000182e-01,-1.184215041974120142e-01,5.567464716656298808e-03,8.169396120823750607e-02
3.340000000000000191e-01,-1.574775801495384986e-01,8.623758162590981768e-02,7.978458116496618679e-02
3.350000000000000200e-01,-1.611664367660693153e-01,1.190047662485001490e-01,5.385897105887067771e-02
3.360000000000000209e-01,-6.306469454880675451e-02,1.025351909696365776e-01,-9.629794876137371534e-03
3.370000000000000218e-01,1.731189554692771915e-02,7.214753631098216879e-02,-8.044652714909869551e-02
3.380000000000000226e-01,9.829900036865782398e-02,-1.723001856674463358e-02,-9.552868151203165736e-02
3.390000000000000235e-01,1.626438096243837395e-01,-8.616884310968940530e-02,-8.280974928536194435e-02
3.400000000000000244e-01,1.432903701572007527e-01,-1.318109995350033592e-01,-4.013852186947081124e-02
3.410000000000000253e-01,5.493182893983627330e-02,-1.061818041273222962e-01,2.580917355542214353e-02
3.420000000000000262e-01,-3.533755438046508324e-02,-4.348262552836585498e-02,8.051188884096352472e-02
3.430000000000000271e-01,-1.055916159514187075e-01,1.545449137373516510e-02,8.259244287829377307e-02
3.439999999999999725e-01,-1.415877209357862265e-01,9.124837329890105042e-02,8.202844532831982116e-02
3.449999999999999734e-01,-1.398881022840741117e-01,1.236000954617722108e-01,5.146279130216303843e-02
3.459999999999999742e-01,-7.031085133025488654e-02,9.614721420867736179e-02,-1.608735358415378652e-02
3.469999999999999751e-01,4.952330143542864327e-02,3.884331316899843067e-02,-6.912690669571688873e-02
3.479999999999999760e-01,1.158936749865600302e-01,-6.200275484918046920e-02,-1.009642494218133540e-01
3.489999999999999769e-01,1.547721061753785654e-01,-1.011763569286083936e-01,-8.673823438406687292e-02
3.499999999999999778e-01,1.296658769337150907e-01,-1.128637675807202534e-01,-4.069355662231390752e-02
3.509999999999999787e-01,4.758303380648203074e-02,-8.402928583455838984e-02,5.397782875135555877e-04
3.519999999999999796e-01,-5.169271422214793965e-02,-1.566675587384605203e-02,7.160887140938565487e-02
3.529999999999999805e-01,-1.365580847373993323e-01,6.844975204713037165e-02,9.798293887474006369e-02
3.539999999999999813e-01,-1.598143664918358908e-01,1.036593746710602199e-01,7.262507478550343787e-02
3.549999999999999822e-01,-1.291950841658736360e-01,1.220318180339058090e-01,2.185258181257749774e-02
3.559999999999999831e-01,-2.969871631021752181e-02,9.211328082863769195e-02,-1.154985417366181932e-02
3.569999999999999840e-01,6.306534368556847292e-02,2.430034946632998738e-02,-6.202240307076054004e-02
3.579999999999999849e-01,1.456503076281700504e-01,-5.876502513068142947e-02,-8.858323158237864370e-02
3.589999999999999858e-01,1.470363480076373464e-01,-1.209678934370407299e-01,-6.868101900955034256e-02
3.599999999999999867e-01,1.182485052499708533e-01,-1.280598758233750800e-01,-2.751776933796228411e-02
3.609999999999999876e-01,2.246325599414280075e-02,-6.510255435102373089e-02,1.003540478109540661e-02
3.619999999999999885e-01,-7.343771964826656395e-02,-1.336447219550156856e-02,7.418266262695774604e-02
3.629999999999999893e-01,-1.491256986454225497e-01,7.165382754318640190e-02,9.096983405395275835e-02
3.639999999999999902e-01,-1.579374261805911173e-01,1.237628405872113202e-01,7.984685400017309254e-02
3.649999999999999911e-01,-1.040141990732574434e-01,1.124812594825651269e-01,2.710151939552130074e-02
3.659999999999999920e-01,-6.670700590551674296e-03,6.034314072216964697e-02,-2.934143418844703532e-02
3.669999999999999929e-01,9.723080601729071348e-02,-2.210121791104645989e-02,-8.307604127141370032e-02
3.679999999999999938e-01,1.481263349667247819e-01,-1.067178799350196605e-01,-1.043422288450417262e-01
3.689999999999999947e-01,1.553810229849631186e-01,-1.425466896252914062e-01,-5.740405841066576614e-02
3.699999999999999956e-01,1.052144068703770446e-01,-1.128517129822537157e-01,-2.492915800703475807e-02
3.709999999999999964e-01,3.972122056674722880e-03,-4.985938611887931471e-02,5.523131421121001833e-02
3.719999999999999973e-01,-9.221555318449174699e-02,2.579510040793633191e-02,7.137669156843479135e-02
3.729999999999999982e-01,-1.588190198621825810e-01,1.108982391404402107e-01,9.288808300408550600e-02
3.739999999999999991e-01,-1.429174774319104391e-01,1.330274393695837776e-01,6.885833758214138234e-02
3.750000000000000000e-01,-8.115639537252068714e-02,8.803935581829452905e-02,1.522845184085360945e-02
3.760000000000000009e-01,8.316534374830727647e-03,4.363297364762056679e-02,-4.822192525343663855e-02
3.770000000000000018e-01,1.077731395579982487e-01,-2.830003414632847186e-02,-8.730774441356166371e-02
3.780000000000000027e-01,1.434681023225274077e-01,-9.145424755241204906e-02,-9.441397367019301046e-02
3.790000000000000036e-01,1.536506888142893656e-01,-1.388267565084591315e-01,-6.803202271839420279e-02
3.800000000000000044e-01,7.929036346533913093e-02,-1.035120718237038800e-01,-2.098336009584288869e-02
3.810000000000000053e-01,-3.373008291358025202e-03,-3.075191172387550104e-02,3.724179220712379307e-02
3.820000000000000062e-01,-1.132338713185273432e-01,5.161200174877198649e-02,8.972914200678729080e-02
3.830000000000000071e-01,-1.478990129418416843e-01,1.172350095882241233e-01,8.561553260317647518e-02
3.840000000000000080e-01,-1.300418537297976518e-01,1.294338799591866207e-01,7.536121653291812106e-02
3.850000000000000089e-01,-4.163849762607135102e-02,7.268872280251614804e-02,7.290768844319893069e-03
3.860000000000000098e-01,2.800797591380841528e-02,1.683224326307843424e-02,-5.186931601927657204e-02
3.870000000000000107e-01,1.328460842607711578e-01,-8.334928036846267485e-02,-9.082275141996844214e-02
3.880000000000000115e-01,1.682427534064736552e-01,-1.218764662755071893e-01,-7.558068844346564619e-02
3.890000000000000124e-01,1.322376136359644794e-01,-1.124914111653687598e-01,-7.521114267272570320e-02
3.900000000000000133e-01,4.976784291712609692e-02,-7.893955982318093256e-02,5.947698984014490294e-04
3.910000000000000142e-01,-5.375772049571222316e-02,-1.317388418982639968e-02,4.989692272856563471e-02
3.920000000000000151e-01,-1.384992136592867185e-01,7.808244716826338860e-02,8.620948084176588422e-02
3.930000000000000160e-01,-1.402976439085362459e-01,1.224691600171191053e-01,8.521228942199648992e-02
3.940000000000000169e-01,-1.292516306050842945e-01,1.107391898501995514e-01,6.239873589367970347e-02
3.950000000000000178e-01,-4.205506981565454439e-02,6.938136998426412683e-02,-2.394144263148504509e-02
3.960000000000000187e-01,6.071386472639913462e-02,-1.794838667975670599e-02,-6.386469860471556681e-02
3.970000000000000195e-01,1.431301734965134131e-01,-9.528111123214980105e-02,-9.947302433903398855e-02
3.980000000000000204e-01,1.597587875297625248e-01,-1.315118902209085339e-01,-9.578866448702884340e-02
3.990000000000000213e-01,1.115584181259785812e-01,-1.183970180037784287e-01,-3.717371740794033624e-02
4.000000000000000222e-01,1.631486119640852828e-02,-3.408827710106008407e-02,6.327289994338856308e-04
4.010000000000000231e-01,-6.710883632142572441e-02,2.181568800274681294e-02,6.125572635097436408e-02
4.020000000000000240e-01,-1.376368254202170183e-01,8.782760305755892005e-02,1.013173993228792674e-01
4.030000000000000249e-01,-1.323879170046238507e-01,1.306315290009238961e-01,7.534902820665138889e-02
4.040000000000000258e-01,-9.620094370861423383e-02,1.136866812644064112e-01,5.842320383186346694e-02
4.050000000000000266e-01,-5.830108099081085862e-03,4.831623028511257412e-02,-2.573349891998711822e-02
4.060000000000000275e-01,7.599206694506158155e-02,-3.227803844671126715e-02,-5.963280842573987633e-02
4.069999999999999729e-01,1.462885889859234789e-01,-1.010025720968357188e-01,-9.147219255496373547e-02
4.079999999999999738e-01,1.416991021295136155e-01,-1.235099496864563301e-01,-8.385401247444626560e-02
4.089999999999999747e-01,7.843209786535264294e-02,-1.078557254834727752e-01,-4.785829144113636080e-02
4.099999999999999756e-01,-2.052743367966322011e-03,-3.723730279327553544e-02,3.562284104453732753e-02
4.109999999999999765e-01,-9.142679876261902705e-02,5.552492584437311585e-02,5.827933328682714798e-02
4.119999999999999774e-01,-1.504814262032626027e-01,1.172682392257046180e-01,7.509528140125887319e-02
4.129999999999999782e-01,-1.585164410086941922e-01,1.163557237650821308e-01,7.884159386075237363e-02
4.139999999999999791e-01,-9.421724085921028002e-02,9.384134796286576485e-02,4.137825839372066827e-02
4.149999999999999800e-01,1.342467840351002813e-02,2.557440052324090607e-02,-2.410154555644134292e-02
4.159999999999999809e-01,1.033240333586384480e-01,-6.650386665020521781e-02,-5.500780137198465342e-02
4.169999999999999818e-01,1.544883541634277657e-01,-1.199057015625850237e-01,-1.002658191670725146e-01
4.179999999999999827e-01,1.422393559978862854e-01,-1.127849800352831028e-01,-8.644472557809150526e-02
4.189999999999999836e-01,6.891096659783850498e-02,-7.372843128372427723e-02,-2.917203020000333491e-02
4.199999999999999845e-01,-5.919476408740267231e-03,-4.790056456131083426e-03,2.976953820138008439e-02
4.209999999999999853e-01,-9.787983475189050708e-02,8.189061902812565241e-02,6.509206662049694947e-02
4.219999999999999862e-01,-1.565515383549670181e-01,1.095322659683967831e-01,9.019177420176759108e-02
4.229999999999999871e-01,-1.378504728210982744e-01,1.248927993806104447e-01,9.190627527253023010e-02
4.239999999999999880e-01,-5.810445537208079603e-02,5.790890580738849991e-02,3.126118953089013219e-02
4.249999999999999889e-01,3.502817080273305794e-02,-9.240548715188040205e-03,-1.723490643829364566e-02
4.259999999999999898e-01,1.313517545232324168e-01,-8.144042045910752925e-02,-7.262625177396828113e-02
4.269999999999999907e-01,1.438238165498267052e-01,-1.063412693783137575e-01,-9.544633281392550517e-02
4.279999999999999916e-01,1.438120599421436885e-01,-1.206795935018468435e-01,-8.599690711759196138e-02
4.289999999999999925e-01,7.085967475171606189e-02,-5.993827617014281517e-02,-2.119680290686916033e-02
4.299999999999999933e-01,-4.377269603960854544e-02,2.226968010456549171e-02,1.853739488761285692e-02
4.309999999999999942e-01,-1.299448401178727730e-01,8.518713619891403466e-02,8.569290843699892135e-02
4.319999999999999951e-01,-1.609387460198911657e-01,1.177801014924940853e-01,9.633974595035797728e-02
4.329999999999999960e-01,-1.304338790959302385e-01,9.715956719960872068e-02,6.721895655830875671e-02
4.339999999999999969e-01,-4.166051216949753083e-02,3.858220844281565892e-02,1.263166413793036062e-02
4.349999999999999978e-01,4.887921834016849265e-02,-3.271293842834178955e-02,-3.510384706962119822e-02
4.359999999999999987e-01,1.365878627794654687e-01,-1.294010838941392350e-01,-9.955246927101799037e-02
4.369999999999999996e-01,1.586100490769788152e-01,-1.332426799308919496e-01,-9.150930662224857071e-02
4.380000000000000004e-01,1.216886187669909830e-01,-1.149629499417982453e-01,-6.521267551543696861e-02
4.390000000000000013e-01,2.667499096231026878e-02,-3.115656546371336003e-02,-2.331497754724156171e-02
4.400000000000000022e-01,-6.068895131796034348e-02,5.550629331846433645e-02,4.440808944837240646e-02
4.410000000000000031e-01,-1.227530941293286382e-01,1.102913432949878675e-01,6.987555864206056178e-02
4.420000000000000040e-01,-1.693505347749862389e-01,1.345205548674069107e-01,8.614523082154262879e-02
4.430000000000000049e-01,-1.063579744417854495e-01,9.505265495101147821e-02,7.149315009756812556e-02
4.440000000000000058e-01,-3.782500177218527104e-02,2.361695647804793602e-02,1.772703029254429213e-02
4.450000000000000067e-01,5.490040923188427291e-02,-6.343262385719379559e-02,-4.336774792466906170e-02
4.460000000000000075e-01,1.498318559539345840e-01,-1.235253461684118481e-01,-8.963296885064533925e-02
4.470000000000000084e-01,1.300806267200808053e-01,-1.292410823151120547e-01,-1.010702710330598497e-01
4.480000000000000093e-01,9.067488717084942751e-02,-7.382214295408169591e-02,-7.699393368393463166e-02
4.490000000000000102e-01,1.646777079017785334e-02,-1.918316419116315426e-03,-1.911830711128062899e-03
4.500000000000000111e-01,-7.922082184010284522e-02,6.281480243614576131e-02,4.601654487456482978e-02
4.510000000000000120e-01,-1.674359444968886446e-01,1.304369129608596023e-01,9.823664444986444921e-02
4.520000000000000129e-01,-1.564324879022672976e-01,1.093256374461318570e-01,1.084069236258828478e-01
4.530000000000000138e-01,-8.881652620104707463e-02,7.242110164293355523e-02,7.021183102117101171e-02
4.540000000000000147e-01,-1.464497483920769796e-02,-1.907093734240447244e-02,1.935380969224312700e-02
4.550000000000000155e-01,8.896505916880977083e-02,-7.840843767182584245e-02,-3.836325041973807221e-02
4.560000000000000164e-01,1.579753485645191136e-01,-1.378532117969148707e-01,-1.009346247162059285e-01
4.570000000000000173e-01,1.644414932824860009e-01,-1.104960030455231362e-01,-9.153477078715467619e-02
4.580000000000000182e-01,1.099668012674868828e-01,-2.989869852153250948e-02,-4.616744102771001140e-02
4.590000000000000191e-01,-4.883329557074653389e-03,4.334056434509379191e-02,1.406870381660226162e-03
4.600000000000000200e-01,-1.098065364210354528e-01,1.059764534287052640e-01,5.644060244775526980e-02
4.610000000000000209e-01,-1.529765478023463743e-01,1.254970679043120874e-01,1.071285481529245659e-01
4.620000000000000218e-01,-1.453651041334859118e-01,1.133842468144178328e-01,8.851566865152567243e-02
4.630000000000000226e-01,-5.984062348849526064e-02,5.137213512118801034e-02,4.465484345376320025e-02
4.640000000000000235e-01,2.728385804376518356e-02,-3.980333753347550796e-02,1.277355219032453183e-03
4.650000000000000244e-01,1.149633389314564658e-01,-8.580716519167824741e-02,-5.880811458481591258e-02
4.660000000000000253e-01,1.461222369856880199e-01,-1.377346344215520657e-01,-8.738066514634541815e-02
4.670000000000000262e-01,1.198505154754873347e-01,-9.927492749630760505e-02,-9.614793802361186470e-02
4.680000000000000271e-01,4.166506476450710511e-02,-1.417882670526988617e-02,-5.034247942445668061e-02
4.689999999999999725e-01,-4.239614471572560050e-02,6.057532037560440369e-02,7.814255376208481887e-03
4.699999999999999734e-01,-1.006151171801952515e-01,9.779951286170816827e-02,6.901795469862427590e-02
4.709999999999999742e-01,-1.591682084848347334e-01,1.060555877349131371e-01,7.009649031631598470e-02
4.719999999999999751e-01,-1.375068755860182346e-01,9.022116845379060668e-02,7.714978082857498753e-02
4.729999999999999760e-01,-4.064536829081991098e-02,1.200637902352311159e-02,5.266256769616475125e-02
4.739999999999999769e-01,5.739348526386330723e-02,-6.705653432406849523e-02,-2.442209084710564304e-02
4.749999999999999778e-01,1.215111061333956077e-01,-1.157037434606246751e-01,-5.360327250915972869e-02
4.759999999999999787e-01,1.717437349408778013e-01,-1.274317339200606858e-01,-9.352265407281890042e-02
4.769999999999999796e-01,1.298466885877064270e-01,-8.183822577207061633e-02,-7.715055902332682014e-02
4.779999999999999805e-01,3.339935103999987914e-02,6.681272083685550929e-03,-4.444773431643145312e-02
4.789999999999999813e-01,-5.465281932398029924e-02,6.469599528569683344e-02,-4.824109025205497447e-03
4.799999999999999822e-01,-1.439715087167026952e-01,1.153738146200887077e-01,6.876592832222275242e-02
4.809999999999999831e-01,-1.617216303464538985e-01,1.221992003754429207e-01,1.039095363104793196e-01
4.819999999999999840e-01,-1.246215993275594097e-01,7.968853156425133311e-02,1.015430700707778133e-01
4.829999999999999849e-01,-2.601822356312574053e-02,-2.244599428790111650e-02,3.858367756249897473e-02
4.839999999999999858e-01,8.086360980850391955e-02,-8.408122946059326530e-02,-1.075202762022677526e-02
4.849999999999999867e-01,1.332009379321054121e-01,-1.233282319002795141e-01,-7.708747245162270167e-02
4.859999999999999876e-01,1.465094961039798138e-01,-9.735940583324742548e-02,-1.026921182634357443e-01
4.869999999999999885e-01,1.233597830097549197e-01,-6.247507118055939390e-02,-6.843235260396290931e-02
4.879999999999999893e-01,2.603922766728382701e-02,2.192278125551507667e-02,-3.631047118954084524e-02
4.889999999999999902e-01,-6.593404040283279421e-02,9.971620521682815486e-02,1.595743457507916782e-02
4.899999999999999911e-01,-1.336046627666196696e-01,1.329681087631373604e-01,5.558454147976467363e-02
4.909999999999999920e-01,-1.390087897413445073e-01,1.153959652680714987e-01,1.055687631703293716e-01
4.919999999999999929e-01,-1.008693661605100100e-01,2.252264443146658954e-02,8.656235870590614501e-02
4.929999999999999938e-01,-9.160603471037843948e-03,-3.750861884106908295e-02,1.429002330859289668e-02
4.939999999999999947e-01,7.486066603297221456e-02,-1.160288889415422298e-01,-3.118755609669057738e-02
4.949999999999999956e-01,1.571937288605496086e-01,-1.246430311585922934e-01,-6.341248795083205547e-02
4.959999999999999964e-01,1.490477914146951244e-01,-9.952941938717466130e-02,-9.676838027097120487e-02
4.969999999999999973e-01,9.624458334120494785e-02,-3.827513685221460571e-02,-7.335435934319450846e-02
4.979999999999999982e-01,-3.026457340375051513e-02,4.778666511336716188e-02,-4.171111608950785893e-02
4.989999999999999991e-01,-9.120918741843318800e-02,1.070659450833648524e-01,3.998508553422818607e-02
5.000000000000000000e-01,-1.418773595300701629e-01,1.140958763270978754e-01,6.999337301010845336e-02
5.010000000000000009e-01,-1.351459373510257023e-01,8.197993733730615795e-02,8.188495295266998153e-02
5.020000000000000018e-01,-8.682850535555343419e-02,7.752092851445156058e-03,7.750010481365895987e-02
5.030000000000000027e-01,1.648155026857722749e-02,-7.767753957895753847e-02,2.819638442807784195e-02
5.040000000000000036e-01,1.138827248134872128e-01,-1.254901229186813350e-01,-2.210967290438984809e-02
5.050000000000000044e-01,1.526023283792536100e-01,-1.240543122111457813e-01,-7.129613337477819224e-02
5.060000000000000053e-01,1.491467044638534190e-01,-7.087040456763493701e-02,-9.877178973702709086e-02
5.070000000000000062e-01,7.467630254703662429e-02,-6.821133916339043764e-03,-7.563842837531005447e-02
5.080000000000000071e-01,-2.505272465184658556e-02,5.734395149427187754e-02,-2.990183636072350076e-02
5.090000000000000080e-01,-1.285690829246089462e-01,1.332671867752361627e-01,3.078840050726310354e-02
5.100000000000000089e-01,-1.576921800450260258e-01,1.182542527304274310e-01,7.176918255045379447e-02
5.110000000000000098e-01,-1.272387670782709757e-01,6.212230005107691883e-02,7.705133625301073541e-02
5.120000000000000107e-01,-7.068568941059173716e-02,-4.157934887254619884e-03,7.341735826053642777e-02
5.130000000000000115e-01,4.691555379317000757e-02,-6.868844028854302619e-02,1.043787111553932424e-02
5.140000000000000124e-01,1.241810796144433432e-01,-1.305250025882805365e-01,-5.674958587368239549e-02
5.150000000000000133e-01,1.528936730647085795e-01,-1.101273338923363793e-01,-8.505420689702908321e-02
5.160000000000000142e-01,1.336396688346920825e-01,-3.702976403566676789e-02,-8.525252883604701737e-02
5.170000000000000151e-01,5.277135324709341518e-02,1.036827656327440027e-02,-6.569352824966848137e-02
5.180000000000000160e-01,-4.459725088316839753e-02,9.582788469251141139e-02,-2.080985253199903531e-02
5.190000000000000169e-01,-1.454726162569078274e-01,1.415638799928513047e-01,3.824011252504370961e-02
5.200000000000000178e-01,-1.473535405141485344e-01,1.015868609313543003e-01,9.352888750096655102e-02
5.210000000000000187e-01,-1.268427897807024585e-01,3.484059120714477764e-02,8.710897894460466195e-02
5.220000000000000195e-01,-3.396579179372840457e-02,-3.884638729461299678e-02,6.502415952237988739e-02
5.230000000000000204e-01,4.378122995144440727e-02,-1.015108541178560836e-01,1.212341806809878568e-02
5.240000000000000213e-01,1.544223806580426184e-01,-1.281798707632192946e-01,-5.422850926971292673e-02
5.250000000000000222e-01,1.672507216552584774e-01,-1.060656363547732572e-01,-8.567081950980116878e-02
5.260000000000000231e-01,1.037399478299079053e-01,-2.932718336823287100e-02,-1.051312286153489872e-01
5.270000000000000240e-01,1.776601025034913253e-02,5.470761689135771044e-02,-6.643672743818500315e-02
5.280000000000000249e-01,-6.678919928503468384e-02,9.797391041324815530e-02,-6.952852581881686748e-03
5.290000000000000258e-01,-1.440195864091970979e-01,1.164912269082333807e-01,2.560456798637623932e-02
5.300000000000000266e-01,-1.380321662671086524e-01,9.398274356669289453e-02,8.179013717543785755e-02
5.310000000000000275e-01,-8.519178262093485277e-02,1.099007535234886729e-02,9.749063383956339812e-02
5.320000000000000284e-01,-1.603803656951256415e-02,-7.034747904026487919e-02,4.802504654575660836e-02
5.330000000000000293e-01,8.670734870788407433e-02,-1.288976603265887810e-01,1.112531780982761471e-03
5.340000000000000302e-01,1.644024962633262588e-01,-1.180721612539090970e-01,-5.935881850658809161e-02
5.350000000000000311e-01,1.354004214702230480e-01,-8.526745178606578990e-02,-8.633620964857612046e-02
5.360000000000000320e-01,1.110257051207673012e-01,-5.925066243158533773e-04,-8.241207841407742485e-02
5.370000000000000329e-01,7.908795092908007390e-03,6.977772130583798083e-02,-5.708141570257840164e-02
5.380000000000000338e-01,-1.059895960030039358e-01,1.363263980737565439e-01,6.451501209339231824e-03
5.390000000000000346e-01,-1.599318125026637782e-01,1.195659036785737400e-01,4.747826155625999023e-02
5.400000000000000355e-01,-1.450264430483490241e-01,6.586759375244147230e-02,9.412820598171957320e-02
5.410000000000000364e-01,-9.077271253888802294e-02,-2.351539131535439545e-02,7.710277868890724751e-02
5.420000000000000373e-01,-4.933742080043502717e-03,-7.133997280159833088e-02,3.660091825145832256e-02
5.430000000000000382e-01,9.777690347185326314e-02,-1.291694861626839774e-01,-4.240189014348881569e-03
5.440000000000000391e-01,1.387811186956537379e-01,-1.262254336052076320e-01,-5.213148627043935612e-02
5.450000000000000400e-01,1.386312068592936431e-01,-5.838864350940432824e-02,-9.412751276810463197e-02
5.460000000000000409e-01,7.473176562614529395e-02,3.552871130930929100e-02,-9.037454910814106401e-02
5.470000000000000417e-01,-1.213888124579197425e-02,8.732675264041861452e-02,-5.731947248128538286e-02
5.480000000000000426e-01,-1.204521196571170100e-01,1.269975523484856983e-01,1.267013398045611222e-02
5.490000000000000435e-01,-1.463054915126818234e-01,9.751490825992993605e-02,5.997136710840445667e-02
5.500000000000000444e-01,-1.312294291853642880e-01,3.688316744022266530e-02,8.264966450555120969e-02
5.510000000000000453e-01,-5.296233196087363204e-02,-4.792638452735991511e-02,9.382025557328821375e-02
5.520000000000000462e-01,3.274999690737214614e-02,-1.073567300293656740e-01,4.318930416925893800e-02
5.530000000000000471e-01,1.139017094879542086e-01,-1.081673221973258464e-01,-1.406893295839448457e-02
5.540000000000000480e-01,1.535163840153263848e-01,-1.001811897452905137e-01,-8.008194782682494239e-02
5.550000000000000488e-01,1.385802376034322159e-01,-1.988802351903979151e-02,-9.768052286751761903e-02
5.560000000000000497e-01,5.333014576520462430e-02,4.908657524126053273e-02,-9.462156492869842894e-02
5.570000000000000506e-01,-4.616644287148069514e-02,1.058154155878078956e-01,-5.783931988954145453e-02
5.580000000000000515e-01,-1.283015012497108753e-01,1.280014885360458710e-01,3.046052099899158525e-02
5.590000000000000524e-01,-1.515210196409104149e-01,8.190117622767584260e-02,7.826958734368721915e-02
5.600000000000000533e-01,-1.248431850842161989e-01,8.030980227979236247e-03,9.264536663404113193e-02
5.610000000000000542e-01,-3.790948889894398682e-02,-6.769465775948900477e-02,9.313815279344042630e-02
5.620000000000000551e-01,3.754607053955075907e-02,-1.066284871231617110e-01,3.984736299925654979e-02
5.629999999999999449e-01,1.313901552540267248e-01,-9.956338020829877400e-02,-1.240370849966671019e-02
5.639999999999999458e-01,1.452842405151698046e-01,-8.480454832459947967e-02,-5.812495908799755057e-02
5.649999999999999467e-01,1.228608796152617505e-01,-4.676896757252417720e-03,-1.089619237556372494e-01
5.659999999999999476e-01,3.057757994858326112e-02,7.165123243555568400e-02,-8.271707743395620427e-02
5.669999999999999485e-01,-5.469314652058311632e-02,1.038837370394755377e-01,-3.727434491551784995e-02
5.679999999999999494e-01,-1.476023096793574740e-01,1.141192367501391858e-01,2.295590704090245265e-02
5.689999999999999503e-01,-1.574197058826173057e-01,7.804483161847693140e-02,7.160233556042482073e-02
5.699999999999999512e-01,-1.053630441619732155e-01,3.164768426575703675e-03,1.012290750013159352e-01
5.709999999999999520e-01,-2.052002206856002806e-02,-7.669003111418008778e-02,6.954462397621334613e-02
5.719999999999999529e-01,6.999424613900535885e-02,-1.227892599043733657e-01,2.858211065339830853e-02
5.729999999999999538e-01,1.472595464269645937e-01,-1.130010876315930002e-01,-7.038280291474717683e-03
5.739999999999999547e-01,1.456699191267585014e-01,-6.172210065056363965e-02,-6.755175902881781214e-02
5.749999999999999556e-01,8.719875793837518485e-02,1.619732984721508964e-02,-8.947051062912113328e-02
5.759999999999999565e-01,1.633535961412199700e-02,9.366389408972271291e-02,-8.783145137451021933e-02
5.769999999999999574e-01,-9.788687432696303869e-02,1.167821406934947542e-01,1.052019778131211593e-02
5.779999999999999583e-01,-1.518756777301382699e-01,1.059967532686144909e-01,4.050221720809966952e-02
5.789999999999999591e-01,-1.502042665653797182e-01,4.722801117011247302e-02,9.010563895116684152e-02
5.799999999999999600e-01,-8.908530677184049729e-02,-3.944673230176722750e-02,8.413610328454858289e-02
5.809999999999999609e-01,-9.571912061580024195e-03,-9.648891956889045496e-02,7.818390509216034678e-02
5.819999999999999618e-01,1.001396290705884179e-01,-1.332581238166582471e-01,3.365166222067184770e-02
5.829999999999999627e-01,1.463894059086944255e-01,-9.708762982817790987e-02,-3.064567500205044037e-02
5.839999999999999636e-01,1.584069784788750268e-01,-4.072893306878892089e-02,-7.858131347980014392e-02
5.849999999999999645e-01,7.332124077938637075e-02,4.513475401154992683e-02,-9.324962138180301063e-02
5.859999999999999654e-01,9.193835540997165930e-04,1.127751972329074509e-01,-7.374671651141780082e-02
5.869999999999999662e-01,-1.061262031989975985e-01,1.369979613153107789e-01,-3.753418998377829746e-02
5.879999999999999671e-01,-1.536747500611567174e-01,8.699261671906335924e-02,3.552558805920269513e-02
5.889999999999999680e-01,-1.682274695081020233e-01,1.392653828118452057e-02,7.170472179053490047e-02
5.899999999999999689e-01,-7.545203612645876023e-02,-8.133656884088831529e-02,8.828957251361989333e-02
5.909999999999999698e-01,1.330073910589681975e-02,-1.214929818527963890e-01,5.870474551610083830e-02
5.919999999999999707e-01,1.129127572404955704e-01,-1.159298856501264630e-01,3.034078386054833709e-02
5.929999999999999716e-01,1.707198232036456209e-01,-6.633411013569567860e-02,-3.165966692906301005e-02
5.939999999999999725e-01,1.467438666243301437e-01,-1.356790200516586747e-02,-8.643287642335378829e-02
5.949999999999999734e-01,5.372056882906695030e-02,6.848595740074932270e-02,-9.637092520133963558e-02
5.959999999999999742e-01,-2.835720051582767132e-02,1.300612610806854974e-01,-5.947774394199198400e-02
5.969999999999999751e-01,-1.037631941485728099e-01,1.313361073391128842e-01,-1.709195834786293028e-02
5.979999999999999760e-01,-1.515586002084660378e-01,6.070436635902529826e-02,3.655322135757066437e-02
5.989999999999999769e-01,-1.390999192079459545e-01,-3.897760442063053811e-03,8.461299282864861993e-02
5.999999999999999778e-01,-5.834034510925636963e-02,-1.005250399692004803e-01,9.740067018036065172e-02
6.009999999999999787e-01,3.271519637003499764e-02,-1.268693488318845541e-01,6.910131537505041777e-02
6.019999999999999796e-01,1.460704985176254078e-01,-9.812696637067123973e-02,1.783199109682048235e-03
6.029999999999999805e-01,1.578666613886835490e-01,-3.963534459846910357e-02,-4.006795812620705249e-02
6.039999999999999813e-01,1.250009505339725047e-01,3.929515330470506607e-02,-9.420060259325777063e-02
6.049999999999999822e-01,2.997251914204685994e-02,1.050075476621964571e-01,-9.895481548800706684e-02
6.059999999999999831e-01,-7.232114130331861179e-02,1.260032746794986780e-01,-7.496848654951304702e-02
6.069999999999999840e-01,-1.396960842842345230e-01,1.084559167748211511e-01,-1.452626144701914257e-02
6.079999999999999849e-01,-1.763876847510013057e-01,4.249183024040372597e-02,6.454939601896539370e-02
6.089999999999999858e-01,-1.154302741073135324e-01,-4.195605767873879233e-02,9.053509672259556218e-02
6.099999999999999867e-01,-3.813693341981555518e-02,-9.882129687250448824e-02,9.913295526545694292e-02
6.109999999999999876e-01,5.495082509116016450e-02,-1.150290561311568538e-01,6.270079292191771403e-02
6.119999999999999885e-01,1.471024250555937052e-01,-1.058236787138103069e-01,6.431733230894698568e-03
6.129999999999999893e-01,1.614762273880130106e-01,-2.610383191080282994e-02,-4.789797240363542763e-02
6.139999999999999902e-01,1.031892620931604693e-01,3.400916526064844125e-02,-9.372342788939946878e-02
6.149999999999999911e-01,1.294050857327626834e-02,1.099409892721089910e-01,-8.968792423287551274e-02
6.159999999999999920e-01,-8.819602413509426697e-02,1.245282084454691629e-01,-5.657466862200809243e-02
6.169999999999999929e-01,-1.476981202676488081e-01,9.272013794436606560e-02,1.771591706333012703e-02
6.179999999999999938e-01,-1.634688688238005450e-01,1.776493277132334611e-02,7.249300811650834231e-02
6.189999999999999947e-01,-1.007313759959957422e-01,-6.664804073695004827e-02,1.000946486525289003e-01
6.199999999999999956e-01,-5.581036717787994997e-03,-1.122119377399248830e-01,9.940184721534493784e-02
6.209999999999999964e-01,8.892198948660914870e-02,-1.354910580925003938e-01,4.302609938504064341e-02
6.219999999999999973e-01,1.497808782389886961e-01,-8.002811837991799515e-02,-1.410225456615864410e-02
6.229999999999999982e-01,1.483545782890745568e-01,5.157394163627265424e-03,-6.098236335608043374e-02
6.239999999999999991e-01,9.800133182995098002e-02,6.347340704896678454e-02,-9.528813550248475817e-02
6.250000000000000000e-01,-1.329274131941531739e-02,1.173433108683463594e-01,-7.522845826006267778e-02
6.260000000000000009e-01,-9.520945080814464945e-02,1.091528583805778524e-01,-4.927391953410270586e-02
6.270000000000000018e-01,-1.481019948551243748e-01,6.878403689782525143e-02,5.358203233946479127e-03
6.280000000000000027e-01,-1.528796609268235629e-01,-5.576709658651971512e-03,6.729105068588121796e-02
6.290000000000000036e-01,-6.841804034161412529e-02,-8.816011931774414556e-02,1.047205280835209890e-01
6.300000000000000044e-01,3.687470529011548960e-03,-1.081354003267994968e-01,1.109757865840115959e-01
6.310000000000000053e-01,1.193093084985814428e-01,-1.194517068663398796e-01,1.889860719479323492e-02
6.320000000000000062e-01,1.645219490478915247e-01,-6.391835496493200597e-02,-4.183418989451764824e-02
6.330000000000000071e-01,1.423483290950376123e-01,2.489652266581386317e-02,-7.303345626828429416e-02
6.340000000000000080e-01,6.589178460442794705e-02,9.740146475751233768e-02,-9.009155700050984483e-02
6.350000000000000089e-01,-4.952721882126847469e-02,1.409915808314695651e-01,-8.230086305384204381e-02
6.360000000000000098e-01,-1.258336145897196723e-01,1.153399302622015177e-01,-5.116823894968160896e-02
6.370000000000000107e-01,-1.762535513925429231e-01,4.208994094391372426e-02,2.730025883315400845e-02
6.380000000000000115e-01,-1.286905431954292189e-01,-3.179276822443657946e-02,6.318316867443236895e-02
6.390000000000000124e-01,-5.904686618579047669e-02,-9.584469018179647692e-02,8.470876765367085781e-02
6.400000000000000133e-01,3.297634664342432437e-02,-1.332549535917964267e-01,8.388390185999713977e-02
6.410000000000000142e-01,1.339910573282149242e-01,-7.908764465529061205e-02,3.437618989888815979e-02
6.420000000000000151e-01,1.574980907352357407e-01,-3.594775636728922766e-03,-1.182973225687762760e-02
6.430000000000000160e-01,1.221040027233280673e-01,4.218396478225858170e-02,-7.202008776961582592e-02
6.440000000000000169e-01,4.863499802776014014e-02,1.104401658378370982e-01,-9.002204762778803770e-02
6.450000000000000178e-01,-5.062845185786248037e-02,1.314741391800316461e-01,-7.680557836121125470e-02
6.460000000000000187e-01,-1.315246838799966345e-01,8.117909271784901071e-02,-2.260041441458527159e-02
6.470000000000000195e-01,-1.713849185365847461e-01,1.649148761610393088e-02,4.014604837011468558e-02
6.480000000000000204e-01,-1.157264272899747315e-01,-7.055152352464476306e-02,6.836474654306913534e-02
6.490000000000000213e-01,-3.564859022247659354e-02,-1.148530073838830295e-01,8.190132101483359184e-02
6.500000000000000222e-01,6.434042535674731889e-02,-1.121117201553269854e-01,6.217990308374023861e-02
6.510000000000000231e-01,1.597274283851798093e-01,-8.780973539590715415e-02,2.963750300303236856e-02
6.520000000000000240e-01,1.519411178800678386e-01,3.515843674354602807e-03,-3.954761438606150398e-02
6.530000000000000249e-01,1.136837013513061767e-01,6.161689114967481423e-02,-7.400612415075072392e-02
6.540000000000000258e-01,1.156951484607178157e-02,1.338197190051265972e-01,-8.511979106305707365e-02
6.550000000000000266e-01,-6.604159420830869875e-02,1.106955911371479834e-01,-6.871021552935449583e-02
6.560000000000000275e-01,-1.406866098647569507e-01,8.090429456404434061e-02,-2.319650423899876149e-02
6.570000000000000284e-01,-1.592159691032208058e-01,-7.623625388924411966e-03,4.416788323533878124e-02
6.580000000000000293e-01,-1.026093280266300589e-01,-7.045008237389857597e-02,9.420659756308066846e-02
6.590000000000000302e-01,-2.938796366222534533e-03,-1.226364299644506356e-01,9.741689224295770055e-02
6.600000000000000311e-01,9.604901416325851982e-02,-1.114458359693313583e-01,5.471263635475667048e-02
6.610000000000000320e-01,1.539343338193292221e-01,-4.822592611505605031e-02,3.938100029755212811e-02
6.620000000000000329e-01,1.500415167645761105e-01,1.725121093888714457e-02,-5.050251747978133643e-02
6.630000000000000338e-01,9.548472863656215504e-02,9.996218147349612837e-02,-8.268675536712409568e-02
6.640000000000000346e-01,3.239747181197734295e-04,1.384890606946006519e-01,-1.055036667829264557e-01
6.650000000000000355e-01,-9.458668697126562663e-02,1.094232461291954617e-01,-6.706552398037574081e-02
6.660000000000000364e-01,-1.622244405180180704e-01,5.954990686374193182e-02,-8.255652752698629596e-03
6.670000000000000373e-01,-1.415463727960012130e-01,-2.141471797812211433e-02,5.948731215833148039e-02
6.680000000000000382e-01,-8.110172699705665844e-02,-9.549780688554866670e-02,8.611091304738935359e-02
6.690000000000000391e-01,1.608260746786901313e-02,-1.267098271817050370e-01,9.850916810110138533e-02
6.700000000000000400e-01,9.858290433517126472e-02,-9.503360829401992504e-02,6.126782213952268463e-02
6.710000000000000409e-01,1.466817335892972585e-01,-4.183183343018796740e-02,9.044663042978243889e-04
6.720000000000000417e-01,1.361121035433814908e-01,4.791514656013296652e-02,-3.764028117670688983e-02
6.730000000000000426e-01,7.389926477043579078e-02,1.043335660343717164e-01,-9.220964436044287726e-02
6.740000000000000435e-01,-2.521220274223718097e-02,1.333475429320429839e-01,-7.622811172760814158e-02
6.750000000000000444e-01,-1.174117467970325623e-01,1.015598146362544918e-01,-5.985946767943212121e-02
6.760000000000000453e-01,-1.549724713177423052e-01,1.674571750575988213e-02,-1.255837184325650328e-02
6.770000000000000462e-01,-1.284355487309517818e-01,-6.234159272993126250e-02,4.210807019540564744e-02
6.780000000000000471e-01,-5.777603218506306704e-02,-1.060075002753214507e-01,8.227848174609170284e-02
6.790000000000000480e-01,4.978130558542358253e-02,-1.365370849462273495e-01,1.003926238397802179e-01
6.800000000000000488e-01,1.298127995140107849e-01,-8.335076790830053817e-02,4.410773471002951696e-02
6.810000000000000497e-01,1.529651261524523631e-01,-1.189326843261011984e-02,8.419215254262393117e-03
6.820000000000000506e-01,1.338656859971123492e-01,7.612167728237241582e-02,-5.143353062720515401e-02
6.830000000000000515e-01,3.792249631972356705e-02,1.184669656010540612e-01,-8.960374965252182466e-02
6.840000000000000524e-01,-5.521733649794882681e-02,9.746466140773908660e-02,-8.389533022228654047e-02
6.850000000000000533e-01,-1.375306131695873679e-01,5.998876068526350774e-02,-6.173624273437321869e-02
6.860000000000000542e-01,-1.700505669744867832e-01,2.427282327043369173e-03,1.449609393949566512e-02
6.870000000000000551e-01,-1.064468016497449876e-01,-9.190957606415089964e-02,6.508544934646523505e-02
6.879999999999999449e-01,-3.562803921722385719e-02,-1.369889014717928788e-01,8.508378707626275406e-02
6.889999999999999458e-01,6.271554053060779399e-02,-1.216621603344765767e-01,6.835387361444864029e-02
6.899999999999999467e-01,1.495563088553075459e-01,-3.937802555141251687e-02,6.373719576128450415e-02
6.909999999999999476e-01,1.632321726868296019e-01,7.994963832787619143e-03,-1.271653930267219136e-03
6.919999999999999485e-01,1.163315729220216199e-01,9.442466088142566216e-02,-5.870595041558519106e-02
6.929999999999999494e-01,2.180494253145123795e-02,1.267408362636886499e-01,-8.833817927115482360e-02
6.939999999999999503e-01,-7.043434681376210815e-02,1.243229794105538549e-01,-9.298074204391823527e-02
6.949999999999999512e-01,-1.450115078950397762e-01,3.391221032123128282e-02,-4.487244089436762118e-02
6.959999999999999520e-01,-1.468888011932713289e-01,-2.008240637075382404e-02,2.441461069367858484e-03
6.969999999999999529e-01,-1.142071501545269541e-01,-1.072549538057543800e-01,7.106603776179770682e-02
6.979999999999999538e-01,-2.480928249496890114e-02,-1.383120112983863836e-01,9.871693173590119497e-02
6.989999999999999547e-01,8.720562121926193899e-02,-9.255104185971860242e-02,9.373598784475076218e-02
6.999999999999999556e-01,1.407594874298386256e-01,-2.570034961730000359e-02,4.926274628957368756e-02
7.009999999999999565e-01,1.751460263300394782e-01,5.778238966231998008e-02,-8.606018909841450445e-03
7.019999999999999574e-01,1.028863553030976291e-01,1.300065334119347715e-01,-7.999048677091866177e-02
7.029999999999999583e-01,1.197792578424570174e-02,1.104394864318313241e-01,-7.823923354792577944e-02
7.039999999999999591e-01,-9.488183054998378108e-02,1.137720190613111110e-01,-9.695850202964549636e-02
7.049999999999999600e-01,-1.426849953804184556e-01,8.904292672044563511e-03,-6.230646495243626765e-02
7.059999999999999609e-01,-1.683662028121949150e-01,-5.372044626758345348e-02,1.062130304774058093e-02
7.069999999999999618e-01,-8.237150397862957885e-02,-1.181820169361404577e-01,6.289690698395111745e-02
7.079999999999999627e-01,8.193884875597523543e-03,-1.303817415828047166e-01,1.227455569885040620e-01
7.089999999999999636e-01,1.054664477906750580e-01,-6.598020878798255273e-02,7.365119759300123303e-02
7.099999999999999645e-01,1.742124595311117519e-01,-6.009371450567910569e-03,2.928897788417184414e-02
7.109999999999999654e-01,1.304772902629018350e-01,5.145457490211180485e-02,-1.774035799801641777e-02
7.119999999999999662e-01,7.985036571017266327e-02,1.371237446358290479e-01,-5.808299083784156103e-02
7.129999999999999671e-01,-1.268918979241063019e-02,1.162449006780973820e-01,-9.425092200673571008e-02
7.139999999999999680e-01,-1.083364778956429630e-01,6.707770170009723365e-02,-8.533719452524335392e-02
7.149999999999999689e-01,-1.838175479513017296e-01,6.320740701879127774e-03,-3.940323477411948605e-02
7.159999999999999698e-01,-1.357400283287396314e-01,-8.476672541986589315e-02,1.534999388890841664e-02
7.169999999999999707e-01,-5.009651255010597048e-02,-1.218856309820137568e-01,6.199288709884730880e-02
7.179999999999999716e-01,4.494498981757936995e-02,-1.240944277482129293e-01,9.155585321504874918e-02
7.189999999999999725e-01,1.052249511184765451e-01,-6.310015463913259959e-02,8.158205506146323782e-02
7.199999999999999734e-01,1.443976374474868485e-01,2.613886063248440500e-02,3.785783882752177809e-02
7.209999999999999742e-01,1.358432861082503884e-01,9.652812682041980730e-02,-1.424725429761966415e-02
7.219999999999999751e-01,4.972174579514686277e-02,1.355003143925404552e-01,-7.956641857430396536e-02
7.229999999999999760e-01,-5.274672100949365228e-02,9.940002817970997051e-02,-1.021442366362275145e-01
7.239999999999999769e-01,-1.273423598962942216e-01,4.023427659846934984e-02,-6.378643475695000564e-02
7.249999999999999778e-01,-1.599233818014043629e-01,-3.188844884603513063e-02,-2.109536952629180798e-02
7.259999999999999787e-01,-1.201268322602142835e-01,-1.105056054963755030e-01,4.122445788762488239e-02
7.269999999999999796e-01,-3.776598968003017087e-02,-1.307997120362390520e-01,6.598232735276193806e-02
7.279999999999999805e-01,5.308078312900402912e-02,-9.731408261472015986e-02,8.010174644748024875e-02
7.289999999999999813e-01,1.126021821411352097e-01,-3.187826981716747332e-02,5.903188896149839243e-02
7.299999999999999822e-01,1.815315509906040570e-01,5.871932174499561868e-02,1.021643153684141311e-02
7.309999999999999831e-01,1.179455913670032080e-01,1.208381000857192411e-01,-4.185994068525366457e-02
7.319999999999999840e-01,3.936884428738115366e-02,1.315098230780464283e-01,-9.347536063400475881e-02
7.329999999999999849e-01,-6.326761298760920360e-02,1.020998722246494322e-01,-1.100889207082485916e-01
7.339999999999999858e-01,-1.203258718695069396e-01,4.393910895604880018e-02,-7.270928578051780167e-02
7.349999999999999867e-01,-1.634722958566508788e-01,-4.847203096314470216e-02,-2.116069362029943113e-02
7.359999999999999876e-01,-1.117923758868302614e-01,-1.121587392321159171e-01,5.047385742869905240e-02
7.369999999999999885e-01,-1.073646736491383133e-02,-1.254555162043050620e-01,7.007850614782434873e-02
7.379999999999999893e-01,7.371488111641034957e-02,-9.660823613328714532e-02,8.340007545912264675e-02
7.389999999999999902e-01,1.333412622789367508e-01,-1.279435141311478091e-02,5.947145614498104693e-02
7.399999999999999911e-01,1.551616978740343045e-01,6.622469914067107000e-02,2.096664404939468495e-03
7.409999999999999920e-01,1.022573782288617589e-01,1.364174841452386044e-01,-4.231991240622807321e-02
7.419999999999999929e-01,5.334299853084881193e-03,1.129477542151005875e-01,-8.017043700175208176e-02
7.429999999999999938e-01,-8.953631680401140380e-02,5.490413647977791800e-02,-9.542704222654412038e-02
7.439999999999999947e-01,-1.556190012927499144e-01,-1.761046472430921259e-02,-6.910130924812746267e-02
7.449999999999999956e-01,-1.484892902131866033e-01,-7.186042709111795102e-02,-1.166590632024857958e-02
7.459999999999999964e-01,-1.027786975581982815e-01,-1.130399659634659659e-01,3.025185220030198949e-02
7.469999999999999973e-01,4.441907502041701761e-03,-1.099161576625180409e-01,9.673420033106965021e-02
7.479999999999999982e-01,8.867084432792352033e-02,-5.997577417256081539e-02,7.250492137959106687e-02
7.489999999999999991e-01,1.468416812509560077e-01,1.763963364694035724e-02,6.412848016726899192e-02
7.500000000000000000e-01,1.686389191684471434e-01,7.533554189693013325e-02,1.932109279282487671e-02
7.510000000000000009e-01,9.257864456398989805e-02,1.231678322478891030e-01,-5.123121828056293597e-02
7.520000000000000018e-01,-1.097581684745705700e-02,9.692909637511530618e-02,-9.693704862666684130e-02
7.530000000000000027e-01,-8.597673782462032788e-02,5.688366130451570635e-02,-1.084272889449883620e-01
7.540000000000000036e-01,-1.539178588351502452e-01,-2.434395549194526970e-02,-6.254813136868218881e-02
7.550000000000000044e-01,-1.311573441136464346e-01,-9.667907656340601896e-02,-7.733984053589640709e-03
7.560000000000000053e-01,-7.576792412537174115e-02,-1.216254797264924581e-01,5.768754719054468988e-02
7.570000000000000062e-01,2.627518756407477840e-02,-9.700782591032204583e-02,1.090531618204322040e-01
7.580000000000000071e-01,1.085133291692555735e-01,-3.247971175466887045e-02,8.383597244564061635e-02
7.590000000000000080e-01,1.578057710368958588e-01,3.961722171835543871e-02,3.912747082551246841e-02
7.600000000000000089e-01,1.414311986257322795e-01,1.265197860377069994e-01,-6.078522134304232931e-03
7.610000000000000098e-01,6.416515231687573706e-02,1.222821480763956886e-01,-3.387786246088868303e-02
7.620000000000000107e-01,-2.554360222164576630e-02,9.711355028575516246e-02,-1.028299256830032121e-01
7.630000000000000115e-01,-1.210942556796568703e-01,3.608567601468743585e-02,-8.319360025420716176e-02
7.640000000000000124e-01,-1.657589619904802913e-01,-4.691421121909736258e-02,-5.141743158707710176e-02
7.650000000000000133e-01,-1.361836950993319528e-01,-1.192563078129752624e-01,1.217280124349014864e-02
7.660000000000000142e-01,-4.948425668453725057e-02,-1.242739610073256978e-01,5.120023578184629970e-02
7.670000000000000151e-01,4.705976465243697643e-02,-1.101559591680714018e-01,8.853505733840616454e-02
7.680000000000000160e-01,1.292130077254525777e-01,4.413767845181549611e-03,9.420430217416395080e-02
7.690000000000000169e-01,1.639281336124251420e-01,5.393387778083986311e-02,5.217888026133477714e-02
7.700000000000000178e-01,1.486467404775156098e-01,1.223852929723351912e-01,-1.329583624099425071e-02
7.710000000000000187e-01,5.091295568500738694e-02,1.130897554103239555e-01,-5.396638043550483488e-02
7.720000000000000195e-01,-4.824732527195120524e-02,7.012699047721321355e-02,-8.167238523540297501e-02
7.730000000000000204e-01,-1.319433026358924899e-01,-3.359215817117462265e-03,-1.019577821148712760e-01
7.740000000000000213e-01,-1.587231505498553075e-01,-8.960230866823737372e-02,-4.720786373071619163e-02
7.750000000000000222e-01,-1.138959602246806535e-01,-1.163592788837113368e-01,4.388237174542340344e-03
7.760000000000000231e-01,-3.861951233435460817e-02,-1.011254773042315064e-01,5.394573382142516665e-02
7.770000000000000240e-01,7.102595409421953720e-02,-4.945222493837159866e-02,9.718607452552727177e-02
7.780000000000000249e-01,1.473804977632900415e-01,1.811125495385042597e-02,7.290943348609534025e-02
7.790000000000000258e-01,1.523996780211680779e-01,1.038527599988579991e-01,5.554662449194306545e-02
7.800000000000000266e-01,1.155242544565758395e-01,1.106206679678703036e-01,-2.443980005262358368e-02
7.810000000000000275e-01,1.762744078555851523e-02,1.201106534080278176e-01,-7.193067467557685835e-02
7.820000000000000284e-01,-8.296695140117105183e-02,3.794946676466296603e-02,-8.907451180103971577e-02
7.830000000000000293e-01,-1.571374969282488820e-01,-2.229222561362062885e-02,-8.689031051252828208e-02
7.840000000000000302e-01,-1.461609790418853250e-01,-9.803433606034392400e-02,-5.190704950961740061e-02
7.850000000000000311e-01,-1.032906306205997465e-01,-1.102455162328580818e-01,1.586166998842818490e-02
7.860000000000000320e-01,-1.614238832241758625e-02,-9.327180366953910506e-02,6.787031921660047207e-02
7.870000000000000329e-01,9.497338836647783999e-02,-3.178019639141818620e-02,9.232985438126721511e-02
7.880000000000000338e-01,1.660583796215853447e-01,3.199543054591431207e-02,6.344006986599393105e-02
7.890000000000000346e-01,1.591397989743975616e-01,9.360042480783264951e-02,2.840695415075898678e-02
7.900000000000000355e-01,8.850389606996969527e-02,1.468913425827487740e-01,-2.010437625653514054e-02
7.910000000000000364e-01,-2.948846704563317603e-04,1.012576092146671852e-01,-6.319757378931409320e-02
7.920000000000000373e-01,-1.023179580377271969e-01,1.641982354743564548e-02,-8.728712907763598594e-02
7.930000000000000382e-01,-1.660657486086096479e-01,-5.336932901004567270e-02,-7.142064833793640433e-02
7.940000000000000391e-01,-1.573353672898905597e-01,-1.095667062665942604e-01,-2.014834265290421644e-02
7.950000000000000400e-01,-9.283060569662754391e-02,-1.109982887820256531e-01,5.144495749236276810e-02
7.960000000000000409e-01,2.566440633885097924e-02,-8.916735455614994976e-02,6.160148197750406340e-02
7.970000000000000417e-01,1.199363876022034592e-01,1.319707412223612361e-02,1.103215809740755587e-01
7.980000000000000426e-01,1.523040718730516163e-01,8.029203211586419253e-02,7.107059780813955452e-02
7.990000000000000435e-01,1.310027849707297298e-01,1.175239481607522618e-01,3.225429418169376006e-02
8.000000000000000444e-01,9.219428381396045646e-02,1.147731928688495301e-01,-3.458039234929519840e-02
8.010000000000000453e-01,-4.143143306946377863e-02,7.949010153697627645e-02,-9.069082853395933619e-02
8.020000000000000462e-01,-1.146224645146705634e-01,9.677206943163103869e-03,-1.029471266301262705e-01
8.030000000000000471e-01,-1.527951339418556487e-01,-7.080587903226859270e-02,-7.927458437609821718e-02
8.040000000000000480e-01,-1.274145686201446082e-01,-1.243387037841994641e-01,-7.367673804196553031e-03
8.050000000000000488e-01,-6.854987280915349201e-02,-1.152312407274770356e-01,4.738339030668146240e-02
8.060000000000000497e-01,4.981304052082737716e-02,-6.056449452071129697e-02,6.232424761854812173e-02
8.070000000000000506e-01,1.197401237146922953e-01,2.617589235573608217e-02,9.106505341585183211e-02
8.080000000000000515e-01,1.613755562423125067e-01,9.347841969897231762e-02,6.758844893906054696e-02
8.090000000000000524e-01,1.245711350370176940e-01,1.145728102931007908e-01,1.193434843812254086e-02
8.100000000000000533e-01,4.979094976505937103e-02,1.073347428405976856e-01,-3.521674412275579286e-02
8.110000000000000542e-01,-4.851550162926569765e-02,6.978812944129461626e-02,-8.322029443252156045e-02
8.120000000000000551e-01,-1.217333872040372439e-01,-3.501920584979060364e-02,-8.218789835050296921e-02
8.129999999999999449e-01,-1.537623832344644503e-01,-1.079238304804446824e-01,-8.429077428229456159e-02
8.139999999999999458e-01,-1.370137326090669905e-01,-1.358047186385421545e-01,3.024224066619499900e-04
8.149999999999999467e-01,-2.964835639644870444e-02,-1.108771011218423475e-01,4.734768477107131890e-02
8.159999999999999476e-01,4.614478206206972660e-02,-4.010939051619177159e-02,7.199473295077064849e-02
8.169999999999999485e-01,1.336756251588143152e-01,2.694725246716275432e-02,8.101641560287825561e-02
8.179999999999999494e-01,1.725174162000512879e-01,9.268196406966970613e-02,4.665877257175130022e-02
8.189999999999999503e-01,1.088495562350107054e-01,1.234993420076912762e-01,6.035966248496433748e-03
8.199999999999999512e-01,2.563939109296584778e-02,9.948605426564181842e-02,-4.874417577358706316e-02
8.209999999999999520e-01,-5.750723546629708111e-02,2.527027120034939719e-02,-9.028418911619957854e-02
8.219999999999999529e-01,-1.397188357987897145e-01,-5.543529530275037587e-02,-8.446389284920702289e-02
8.229999999999999538e-01,-1.687209550706482986e-01,-1.053522447369719672e-01,-5.840579186903820802e-02
8.239999999999999547e-01,-9.092435217982333673e-02,-1.258271869316268110e-01,-6.338135122496044507e-03
8.249999999999999556e-01,-3.525048740715591104e-03,-9.755643157506009577e-02,3.705910808027767372e-02
8.259999999999999565e-01,9.059589032051100499e-02,-6.853453482338765952e-03,9.436902278529482602e-02
8.269999999999999574e-01,1.465422752241110627e-01,5.631322608174630512e-02,9.815602152000189873e-02
8.279999999999999583e-01,1.655341508114797633e-01,1.243425832514716139e-01,5.176107529702634463e-02
8.289999999999999591e-01,9.867674582015248386e-02,1.246013506280698041e-01,6.902472386546313829e-03
8.299999999999999600e-01,1.013717539689397082e-02,8.376270602501809104e-02,-6.442570095409110020e-02
8.309999999999999609e-01,-8.321095723506885533e-02,7.486945827223836364e-03,-1.004610322460904037e-01
8.319999999999999618e-01,-1.463225696360898054e-01,-9.205993381715733836e-02,-8.785637421159643579e-02
8.329999999999999627e-01,-1.383211689201322980e-01,-1.344445548125321743e-01,-5.613867143582506464e-02
8.339999999999999636e-01,-7.254503541254349319e-02,-1.062843846798516845e-01,1.031715950647362108e-02
8.349999999999999645e-01,1.378319727192011193e-02,-5.847500428879421480e-02,6.961431682508950614e-02
8.359999999999999654e-01,7.426072011453817290e-02,2.336375447766860999e-02,9.882569011024400218e-02
8.369999999999999662e-01,1.380792145847686281e-01,8.568193067756721404e-02,7.790938769119998275e-02
8.379999999999999671e-01,1.350784622273529245e-01,1.237289313766660181e-01,4.143481632775685569e-02
8.389999999999999680e-01,7.136731969314936974e-02,1.158781331630440586e-01,-4.945231129904931015e-03
8.399999999999999689e-01,-2.746771703202737294e-02,5.661279999681707170e-02,-6.296011740859257244e-02
8.409999999999999698e-01,-1.093006986409747333e-01,-2.551851257382189986e-02,-8.604277230646813213e-02
8.419999999999999707e-01,-1.546614435210419414e-01,-9.388093606046947481e-02,-1.027314049447256433e-01
8.429999999999999716e-01,-1.402108472530036176e-01,-1.395191277575407729e-01,-4.956160249707673021e-02
8.439999999999999725e-01,-6.841318777816754459e-02,-1.095870928997072086e-01,2.331045480705161085e-02
8.449999999999999734e-01,6.401098054681243765e-02,-3.142882479008502622e-02,7.160510018592561310e-02
8.459999999999999742e-01,1.131778584327119280e-01,3.461369574223500251e-02,8.437068691998585168e-02
8.469999999999999751e-01,1.589062378224055661e-01,1.094625734264222661e-01,8.740090181156380533e-02
8.479999999999999760e-01,1.357143587458807255e-01,1.313335042182502965e-01,4.333064050521102245e-02
8.489999999999999769e-01,4.264074199332339860e-02,1.035378411623303352e-01,-7.048605641675765796e-03
8.499999999999999778e-01,-4.213033728354064616e-02,8.632972245273614828e-03,-7.157093644438147773e-02
8.509999999999999787e-01,-1.118493220351722411e-01,-4.830313544893278382e-02,-8.745490553933277234e-02
8.519999999999999796e-01,-1.635758439601147085e-01,-1.265647617110599865e-01,-8.515224969598635119e-02
8.529999999999999805e-01,-1.289542398675024570e-01,-1.373730158504522236e-01,-4.034290447916071692e-02
8.539999999999999813e-01,-4.370178227497649448e-02,-8.265069196976605748e-02,1.175068153039247887e-02
8.549999999999999822e-01,4.164846678818304171e-02,-1.078044554826786648e-02,6.635380079345155890e-02
8.559999999999999831e-01,1.279492131497630414e-01,7.542475868140283146e-02,1.007085062841290707e-01
8.569999999999999840e-01,1.773630550356503910e-01,1.096573173111998339e-01,7.538147359672123238e-02
8.579999999999999849e-01,1.318573364719342056e-01,1.316015331830796276e-01,2.585537286490519060e-02
8.589999999999999858e-01,4.421637633361620578e-02,7.441354235313292487e-02,-2.109822319224414003e-02
8.599999999999999867e-01,-5.167366413396902447e-02,-1.584357320124130455e-02,-4.951524254499861666e-02
8.609999999999999876e-01,-1.238220742127676410e-01,-7.340627490779880193e-02,-8.117692444798380036e-02
8.619999999999999885e-01,-1.426171435023347589e-01,-1.210524718333828575e-01,-8.617945625505117613e-02
8.629999999999999893e-01,-1.085451061029631126e-01,-1.218884258261255654e-01,-3.383086098236470773e-02
8.639999999999999902e-01,-1.927384329704297239e-02,-4.878107343085152231e-02,4.295327995158403772e-02
8.649999999999999911e-01,9.023395697930002013e-02,9.662499577775743656e-03,8.969686556379309617e-02
8.659999999999999920e-01,1.474638839385721267e-01,9.995402084792388842e-02,9.469501313332287507e-02
8.669999999999999929e-01,1.699298685185955393e-01,1.155310657674852443e-01,8.461413134815629067e-02
8.679999999999999938e-01,9.131930662594810177e-02,1.149270575016380636e-01,1.858100345377905818e-02
8.689999999999999947e-01,8.027809136243561905e-03,4.153597768350382469e-02,-2.556474937660085933e-02
8.699999999999999956e-01,-8.876468898002540242e-02,-3.608531165219511921e-02,-1.017483575738128559e-01
8.709999999999999964e-01,-1.397511882426068774e-01,-8.418269220066249003e-02,-9.941930117527061905e-02
8.719999999999999973e-01,-1.513795905813408171e-01,-1.196560975229520873e-01,-7.541056580636208706e-02
8.729999999999999982e-01,-8.815632990275276692e-02,-1.155925060400820881e-01,-2.137996803279162972e-02
8.739999999999999991e-01,-6.236589151395913883e-03,-5.143851211355294356e-02,3.298936136970560123e-02
8.750000000000000000e-01,9.802906880122749800e-02,4.722579987849356148e-02,5.181105685463177624e-02
8.760000000000000009e-01,1.540073033852251139e-01,1.148111299706100763e-01,8.779650895271369493e-02
8.770000000000000018e-01,1.321000376854077618e-01,1.219504962226590078e-01,5.398146044973325952e-02
8.780000000000000027e-01,6.881080552595016109e-02,7.405249609219742568e-02,2.024117375941443531e-02
8.790000000000000036e-01,-2.028172773038887725e-02,2.607753099689219881e-02,-3.692073355491165554e-02
8.800000000000000044e-01,-9.848348900142331330e-02,-6.412359942053369455e-02,-8.556874704173079993e-02
8.810000000000000053e-01,-1.739644812479785030e-01,-1.034512328875918791e-01,-9.678378099516672661e-02
8.820000000000000062e-01,-1.291512574784993428e-01,-1.235042778620870363e-01,-6.511691219186671598e-02
8.830000000000000071e-01,-6.617671462803069449e-02,-9.047068342640564309e-02,-1.912889625155639664e-02
8.840000000000000080e-01,4.025761896028467318e-02,-7.690344637291897205e-03,3.852144757149895266e-02
8.850000000000000089e-01,1.100006837361447998e-01,7.899268858674750315e-02,7.644639509695733137e-02
8.860000000000000098e-01,1.591504101080867817e-01,1.257992956335113877e-01,9.035006379733112603e-02
8.870000000000000107e-01,1.369809223787573083e-01,1.208769579895176138e-01,5.945948441625083236e-02
8.880000000000000115e-01,5.795627212029560993e-02,6.474420720773436944e-02,9.528831398084013429e-03
8.890000000000000124e-01,-3.523371350562329307e-02,-6.519949176698316279e-03,-5.420202112533892974e-02
8.900000000000000133e-01,-1.198355576181976273e-01,-8.621455885163716026e-02,-8.804122132784139576e-02
8.910000000000000142e-01,-1.579366976005777690e-01,-1.084096923264028373e-01,-7.689542484903495734e-02
8.920000000000000151e-01,-1.137754559948129379e-01,-1.190738808900353579e-01,-8.866532405911708992e-02
8.930000000000000160e-01,-5.198280866614554685e-02,-6.584476252697989140e-02,9.258741980804502739e-03
8.940000000000000169e-01,4.857527517077817741e-02,2.467322869350296183e-02,4.387364397115810222e-02
8.950000000000000178e-01,1.402702440852071630e-01,8.389145175685204514e-02,6.794516349808291111e-02
8.960000000000000187e-01,1.601555193347496686e-01,1.200774528286041726e-01,8.611105544887130703e-02
8.970000000000000195e-01,1.115822488976287025e-01,1.239193831464597412e-01,4.971377045764321240e-02
8.980000000000000204e-01,4.131384591070021151e-02,2.959241817121627954e-02,1.140327765097966413e-02
8.990000000000000213e-01,-6.855782395099532800e-02,-3.187557165341761700e-02,-4.691618360803875842e-02
9.000000000000000222e-01,-1.495438704155234999e-01,-9.672147680244023993e-02,-1.033989017858858439e-01
9.010000000000000231e-01,-1.486783957145847435e-01,-1.168542985821641178e-01,-8.140398072175379640e-02
9.020000000000000240e-01,-1.128099410834679239e-01,-1.162265184528701728e-01,-6.744745174192522119e-02
9.030000000000000249e-01,-2.612991535428713444e-02,-4.135233493914314273e-02,-2.764969806128637735e-03
9.040000000000000258e-01,6.052160046303344670e-02,2.912327559320073908e-02,6.041092958116824757e-02
9.050000000000000266e-01,1.526741885637866447e-01,1.136202934995592523e-01,7.609317424099382166e-02
9.060000000000000275e-01,1.693759093698539719e-01,1.241805751714524092e-01,8.454165248393262500e-02
9.070000000000000284e-01,1.133628957233038942e-01,8.654538372893293141e-02,4.696005639539307941e-02
9.080000000000000293e-01,1.782247469221662217e-02,1.652379618171644429e-02,-7.721542110971045363e-03
9.090000000000000302e-01,-7.187156145674333807e-02,-5.028965562035533216e-02,-4.457920503610911245e-02
9.100000000000000311e-01,-1.497549089998095884e-01,-1.018492626296594872e-01,-9.195906792966958287e-02
9.110000000000000320e-01,-1.552155785306254532e-01,-1.291806174917609629e-01,-7.828994257219258623e-02
9.120000000000000329e-01,-1.120312777080697819e-01,-6.448967470091204746e-02,-5.550881605165659816e-02
9.130000000000000338e-01,-1.981904492618075109e-02,-9.519985179227038715e-04,3.519329496477252616e-04
9.140000000000000346e-01,1.052927667781608650e-01,6.637147141383274718e-02,5.157325239433874914e-02
9.150000000000000355e-01,1.546286782591568820e-01,1.265847053692262802e-01,9.971725640530666734e-02
9.160000000000000364e-01,1.605949295492495876e-01,1.197257462376865034e-01,8.514095792531323204e-02
9.170000000000000373e-01,6.524956289427967515e-02,8.716483919448059225e-02,3.113234875409270214e-02
9.180000000000000382e-01,-1.517516414931139104e-02,-2.922153275368502209e-02,-1.790576782160079733e-02
9.190000000000000391e-01,-1.126749936167816130e-01,-8.412016188432153152e-02,-6.866302136196023032e-02
9.200000000000000400e-01,-1.398877285737366027e-01,-1.344017685288277086e-01,-8.527397743130546437e-02
9.210000000000000409e-01,-1.645148372347862709e-01,-1.283740732766795456e-01,-9.238752794883188513e-02
9.220000000000000417e-01,-8.335127004496860337e-02,-4.354816717294240219e-02,-6.016232877109427279e-02
9.230000000000000426e-01,1.993088932462647872e-02,2.294783549734321151e-02,2.145587738113658577e-02
9.240000000000000435e-01,1.098818132734082492e-01,8.478728123236134451e-02,6.137770939120860969e-02
9.250000000000000444e-01,1.646122679419644852e-01,1.366619907135339096e-01,1.018354871502685777e-01
9.260000000000000453e-01,1.289592199610013479e-01,1.075862663349898551e-01,9.803425490280300025e-02
9.270000000000000462e-01,6.925713139414126085e-02,5.437657077857789567e-02,4.079549386842395292e-02
9.280000000000000471e-01,-3.162956374065308690e-02,-4.197941416751259369e-02,-2.787182948887785908e-02
9.290000000000000480e-01,-1.141104776390951397e-01,-1.041129142008309638e-01,-6.353391631839362674e-02
9.300000000000000488e-01,-1.663147900501422694e-01,-1.304831914309272367e-01,-1.006336608251542225e-01
9.310000000000000497e-01,-1.308875087408678528e-01,-1.177701378576028746e-01,-7.946727655032245763e-02
9.320000000000000506e-01,-5.765623426708838678e-02,-5.477710819714904505e-02,-5.153190478959698839e-02
9.330000000000000515e-01,5.340436829278432523e-02,4.930570268574935300e-02,1.893222811922979504e-02
9.340000000000000524e-01,1.209375119600183263e-01,1.033747365582615152e-01,6.303404583929894667e-02
9.350000000000000533e-01,1.495167593554763974e-01,1.319201054418285002e-01,9.800216800915205473e-02
9.360000000000000542e-01,1.358618318647408785e-01,9.984875394334111198e-02,7.420982191599445610e-02
9.370000000000000551e-01,5.483338760834809145e-02,4.109304668927741405e-02,3.653628665080810300e-02
9.379999999999999449e-01,-5.460846397064918895e-02,-5.653345389306763807e-02,-3.763316709698773938e-02
9.389999999999999458e-01,-1.272405305311370693e-01,-1.183655068931799281e-01,-6.589503824462927817e-02
9.399999999999999467e-01,-1.717653499508033921e-01,-1.062763632304555422e-01,-1.039828984639965537e-01
9.409999999999999476e-01,-1.275832668698318739e-01,-8.801715642583450572e-02,-7.129551458460754720e-02
9.419999999999999485e-01,-2.917264914147773419e-02,-2.524022744630835947e-04,-3.580283600027648477e-02
9.429999999999999494e-01,5.927038603921255117e-02,5.775694405125669784e-02,4.963132678280179899e-02
9.439999999999999503e-01,1.329969292514883439e-01,1.108635553903112719e-01,6.957239405294213253e-02
9.449999999999999512e-01,1.531878873814004338e-01,1.327611731081695390e-01,9.987747743442124126e-02
9.459999999999999520e-01,1.280298443072292736e-01,7.065545749095074324e-02,8.243885481573064167e-02
9.469999999999999529e-01,3.150899334582106526e-02,-5.876267881507100076e-03,1.368462178957253507e-02
9.479999999999999538e-01,-9.205066312395052130e-02,-8.143109709907993266e-02,-3.216656062123547655e-02
9.489999999999999547e-01,-1.422976643578144074e-01,-1.315332031520156930e-01,-7.570857789775445323e-02
9.499999999999999556e-01,-1.480028637344501796e-01,-1.129549994568862514e-01,-1.036712048866754304e-01
9.509999999999999565e-01,-8.207588040328291090e-02,-7.420563355476894607e-02,-6.573799607397820544e-02
9.519999999999999574e-01,6.182565682340179260e-03,2.013284236848777997e-02,-1.901283012019555976e-02
9.529999999999999583e-01,9.172580586170046846e-02,8.156857523115539077e-02,3.824483323125139195e-02
9.539999999999999591e-01,1.538393705959224811e-01,1.214931064764627339e-01,9.949504626348580627e-02
9.549999999999999600e-01,1.349993334746673601e-01,1.104238315437727908e-01,1.025072484480038099e-01
9.559999999999999609e-01,8.850337590190077153e-02,4.487993467455911323e-02,7.004964510492020513e-02
9.569999999999999618e-01,-5.596860924642524382e-03,-1.543499113750240043e-02,1.657607080039698788e-03
9.579999999999999627e-01,-9.785627787905896990e-02,-8.789874256136813446e-02,-3.759852314117607952e-02
9.589999999999999636e-01,-1.514410836126381943e-01,-1.347459970325830814e-01,-9.132936328371635271e-02
9.599999999999999645e-01,-1.504904586094660546e-01,-9.264350728122536238e-02,-9.723844222191097009e-02
9.609999999999999654e-01,-1.044158008424927175e-01,-4.443461465424562024e-02,-7.430462591395493865e-02
9.619999999999999662e-01,1.778622239560462975e-02,4.488880594262107532e-02,2.531040250130396456e-03
9.629999999999999671e-01,9.929771233952716658e-02,8.874536131264444683e-02,4.891662370609321103e-02
9.639999999999999680e-01,1.588333459405051051e-01,1.291518644067275179e-01,7.872556452084458756e-02
9.649999999999999689e-01,1.680044923660434231e-01,9.368411468022598554e-02,9.907199286926673953e-02
9.659999999999999698e-01,7.344341176989380160e-02,2.007444650509965581e-02,4.528246293006835815e-02
9.669999999999999707e-01,-2.406786958312576510e-02,-6.902883488935419865e-02,1.327702154422643645e-02
9.679999999999999716e-01,-1.164437994639789808e-01,-1.315035436425926463e-01,-4.916765401494269799e-02
9.689999999999999725e-01,-1.514075392350776872e-01,-1.429119560076332063e-01,-8.353785587227237353e-02
9.699999999999999734e-01,-1.467908791009873148e-01,-1.026050795477721073e-01,-1.054944985449249584e-01
9.709999999999999742e-01,-5.886554313308110103e-02,-3.069723010594348211e-02,-5.647144547548961502e-02
9.719999999999999751e-01,2.244448817421367676e-02,5.276923507394670060e-02,-2.483333774848495851e-02
9.729999999999999760e-01,1.163198572421450250e-01,1.166366136751954274e-01,5.535251244502759765e-02
9.739999999999999769e-01,1.596289284091408356e-01,1.180273772002599642e-01,8.368681062357553879e-02
9.749999999999999778e-01,1.494349311143900738e-01,8.922960096938242769e-02,6.392332166357689305e-02
9.759999999999999787e-01,5.699435105245654470e-02,-1.826487754324574494e-03,4.610849935180975911e-02
9.769999999999999796e-01,-2.989289272584924953e-02,-7.838724414126416185e-02,-5.411295638045951354e-04
9.779999999999999805e-01,-1.313387200713201364e-01,-1.322787490460342608e-01,-4.779648839139999383e-02
9.789999999999999813e-01,-1.367839281833725940e-01,-1.192491450321372520e-01,-8.775929159460275908e-02
9.799999999999999822e-01,-1.385048193537157524e-01,-5.903790365443954691e-02,-8.868384918461362509e-02
9.809999999999999831e-01,-2.960199651492695372e-02,-2.472540976328303428e-03,-5.939834327281508231e-02
9.819999999999999840e-01,5.966256854203218218e-02,6.626553455137351722e-02,9.480902529086072950e-03
9.829999999999999849e-01,1.488892504931594030e-01,1.223370234192636130e-01,4.301447011052777353e-02
9.839999999999999858e-01,1.526502168035062112e-01,1.247967657641451678e-01,9.891747743870218934e-02
9.849999999999999867e-01,1.260636910199358640e-01,5.251377027281812354e-02,8.179826412109336697e-02
9.859999999999999876e-01,2.409847956402782349e-02,-3.427001572009628905e-02,6.571218369160657102e-02
9.869999999999999885e-01,-7.579001531654590285e-02,-1.038078740229883140e-01,-1.004380180086894905e-02
9.879999999999999893e-01,-1.519855177710116578e-01,-1.302835849321597739e-01,-7.491340165159050823e-02
9.889999999999999902e-01,-1.514364052820288964e-01,-1.129138428338643113e-01,-1.066280906125157829e-01
9.899999999999999911e-01,-1.071803352893958977e-01,-4.346109191794226417e-02,-8.537972025297144163e-02
9.909999999999999920e-01,-1.061420751629789209e-02,3.601768596840889541e-02,-5.007647898334081221e-02
9.919999999999999929e-01,7.650725266171308492e-02,1.126903584729507662e-01,2.071345777560908499e-02
9.929999999999999938e-01,1.437853050365869023e-01,1.197183019006311938e-01,7.414970727509331838e-02
9.939999999999999947e-01,1.500002733774081498e-01,1.011059565099296231e-01,9.353002504027112252e-02
9.949999999999999956e-01,9.927362117591170820e-02,2.738898863254781227e-02,8.350759957428045832e-02
9.959999999999999964e-01,1.874639686606460048e-02,-5.351400061998590890e-02,4.545482459687597704e-02
9.969999999999999973e-01,-9.347802574374444728e-02,-1.210386399018429926e-01,-2.382335206534376068e-02
9.979999999999999982e-01,-1.403015217559669958e-01,-1.238499347047302135e-01,-6.989117239352157784e-02
9.989999999999999991e-01,-1.477824807044929578e-01,-8.517094609781579451e-02,-8.167498941522045863e-02
1.000000000000000000e+00,-8.684858398303001159e-02,-1.191709712796769176e-02,-8.875487777482402030e-02
1.000999999999999890e+00,8.130818615882412503e-03,6.191588341785853739e-02,-3.808132584104249180e-02
1.002000000000000002e+00,9.866359923301694368e-02,1.242101489704420525e-01,2.958233215135591329e-02
1.002999999999999892e+00,1.572554985588952570e-01,1.433844571309206006e-01,7.089721763743070393e-02
1.004000000000000004e+00,1.496794973324119260e-01,7.949175423903853677e-02,1.064906450693378637e-01
1.004999999999999893e+00,8.388597750537295228e-02,6.509525829682808514e-04,9.524983275400709937e-02
1.006000000000000005e+00,-2.440219461423677808e-02,-4.859478303867401094e-02,5.223105166185689624e-02
1.006999999999999895e+00,-1.127668988588681059e-01,-1.115108877777986063e-01,-2.036596796752031258e-02
1.008000000000000007e+00,-1.528252612524972076e-01,-1.041738288483717162e-01,-7.742611546644947995e-02
1.008999999999999897e+00,-1.352633116787014533e-01,-6.357331778041828974e-02,-8.316510748254052343e-02
1.010000000000000009e+00,-5.851411709508783088e-02,-9.264589831113079557e-03,-8.560072302186251536e-02
1.010999999999999899e+00,2.404613952260808291e-02,8.780925185891826079e-02,-3.059301410359409334e-02
1.012000000000000011e+00,1.084420893354493681e-01,1.295934525362060219e-01,2.231088873343658671e-02
1.012999999999999901e+00,1.479517247994010520e-01,1.133963239403031897e-01,7.789964276233965479e-02
1.014000000000000012e+00,1.166077196808015387e-01,4.528269603533632837e-02,8.911033413536502412e-02
1.014999999999999902e+00,5.382322227556320809e-02,-2.237352974206348669e-02,7.719531291557472918e-02
1.016000000000000014e+00,-5.206368730108431458e-02,-7.983480145133767247e-02,2.688751932138472300e-02
1.016999999999999904e+00,-1.104838776065833472e-01,-1.259550900798070416e-01,-2.802395479899076614e-02
1.018000000000000016e+00,-1.821919503236727744e-01,-8.698553939428210757e-02,-8.371961466926758355e-02
1.018999999999999906e+00,-1.234140773579101152e-01,-4.730983749825647122e-02,-8.742743260938024008e-02
1.020000000000000018e+00,-4.270750742629140367e-02,3.690626981449861288e-02,-7.111655275504336071e-02
1.020999999999999908e+00,5.738828283863316171e-02,9.978501813151581523e-02,3.194589562594277437e-03
1.022000000000000020e+00,1.342058227830247308e-01,1.286765092441373159e-01,5.496166317004338997e-02
1.022999999999999909e+00,1.481616734415530101e-01,7.248999044974115125e-02,6.817481631818567145e-02
1.024000000000000021e+00,1.282777464399719181e-01,3.166707700260767283e-02,1.117851986486509686e-01
1.024999999999999911e+00,3.483811730170169318e-02,-4.599191107599649719e-02,7.874420102349795336e-02
1.026000000000000023e+00,-5.654476985480924589e-02,-9.826919982970243328e-02,3.101907393875819215e-03
1.026999999999999913e+00,-1.256560751744386639e-01,-1.317614884488379767e-01,-4.364284640203708321e-02
1.028000000000000025e+00,-1.442710513870937294e-01,-6.719698997158586595e-02,-1.017132233794275781e-01
1.028999999999999915e+00,-1.078093548627083453e-01,-1.685210601681821560e-02,-9.322173540209585663e-02
1.030000000000000027e+00,-2.237483328207148445e-02,6.208200339725630790e-02,-8.224167689077506449e-02
1.030999999999999917e+00,8.850595769181293648e-02,1.102127407688356514e-01,-1.875122451244045502e-02
1.032000000000000028e+00,1.201859486309266312e-01,1.371991464945068462e-01,4.579812041142244244e-02
1.032999999999999918e+00,1.569674176372432284e-01,7.567520249762572926e-02,8.805004509960390191e-02
1.034000000000000030e+00,9.286744608747730945e-02,-1.463786854416088482e-02,1.050719280859322147e-01
1.034999999999999920e+00,2.384860650308351718e-02,-6.599930819742635957e-02,7.330763629710033980e-02
1.036000000000000032e+00,-8.089888896669798768e-02,-1.284332826127039806e-01,1.165928128401043720e-02
1.036999999999999922e+00,-1.664833685569022115e-01,-1.175616011913089981e-01,-4.746325017168758625e-02
1.038000000000000034e+00,-1.465889866248981099e-01,-8.147162640107744047e-02,-8.432877431371973986e-02
1.038999999999999924e+00,-8.174437774248347055e-02,1.663441031027634506e-02,-7.959970480896189082e-02
1.040000000000000036e+00,-4.167539844077015367e-03,8.546492381596446086e-02,-7.162710718202087989e-02
1.040999999999999925e+00,8.076576247206658510e-02,1.183284345086827727e-01,-1.918731040581244524e-02
1.042000000000000037e+00,1.655351069128903063e-01,1.216350526467298854e-01,4.725466656994231629e-02
1.042999999999999927e+00,1.585044425411269720e-01,7.136618159249365212e-02,9.263923779574477491e-02
1.044000000000000039e+00,9.084555741066016599e-02,-3.429819386390632607e-02,9.209866915735960557e-02
1.044999999999999929e+00,-1.286572722257108524e-02,-9.857349558601304074e-02,6.122652895873497564e-02
1.046000000000000041e+00,-1.138712648705935415e-01,-1.279687657971210202e-01,-5.597815298196863812e-03
1.046999999999999931e+00,-1.519041633510022360e-01,-1.154451379870034822e-01,-5.517138481413352835e-02
1.048000000000000043e+00,-1.441264276491603935e-01,-4.501474663113728264e-02,-7.745377405730755060e-02
1.048999999999999932e+00,-8.974371251972211583e-02,4.586028899623028482e-02,-8.112881825436582539e-02
1.050000000000000044e+00,3.147299869760396274e-02,1.075161062954467922e-01,-3.789833326723141688e-02
1.050999999999999934e+00,1.017449685771572299e-01,1.155595986771154743e-01,-6.387968760417707696e-04
1.052000000000000046e+00,1.611647165023015471e-01,9.944047753997466155e-02,5.788851186120488879e-02
1.052999999999999936e+00,1.271776350361369656e-01,2.737400312998700125e-02,9.380491099564340629e-02
1.054000000000000048e+00,7.414888544098365009e-02,-5.556844605526689573e-02,9.046873655678194792e-02
1.054999999999999938e+00,-3.732713002561797999e-02,-9.697595363016769943e-02,4.767718965112202612e-02
1.056000000000000050e+00,-1.306200748753872931e-01,-1.406428014131446691e-01,1.330297075942207688e-04
1.056999999999999940e+00,-1.679310558707908241e-01,-9.167285855054241317e-02,-4.366808946231971744e-02
1.058000000000000052e+00,-1.329398679857283216e-01,-1.595025766290875807e-02,-9.727582715646218570e-02
1.058999999999999941e+00,-4.272368348226405349e-02,5.390162478044041583e-02,-9.282849253860918359e-02
1.060000000000000053e+00,5.506889714742939368e-02,1.132548060520777444e-01,-4.735310215629608827e-02
1.060999999999999943e+00,1.293595133789856577e-01,1.163727786891460142e-01,2.349010284173909391e-02
1.062000000000000055e+00,1.542722936397832867e-01,8.390722473822863348e-02,5.894808997154106500e-02
1.062999999999999945e+00,1.179447985239245322e-01,1.101663922527933333e-02,8.978046130361022614e-02
1.064000000000000057e+00,2.970378296847982560e-02,-7.366502861924456580e-02,9.413866816017554817e-02
1.064999999999999947e+00,-7.225643895319958099e-02,-1.136946551402393951e-01,4.554583935682500473e-02
1.066000000000000059e+00,-1.409181511578958546e-01,-1.264652061703657182e-01,-1.197487739641338485e-02
1.066999999999999948e+00,-1.615814639893106697e-01,-5.065146760212557719e-02,-7.341687261844725976e-02
1.068000000000000060e+00,-1.136392324704383894e-01,6.418124736012696847e-03,-8.400147114698133799e-02
1.068999999999999950e+00,-3.985473623041107388e-02,1.057419690486263997e-01,-7.937938938226654639e-02
1.070000000000000062e+00,6.769273309669672500e-02,1.153141963179337565e-01,-3.493680007600488691e-02
1.070999999999999952e+00,1.435027783861339834e-01,1.005976207456096005e-01,1.093122514685379056e-02
1.072000000000000064e+00,1.637289069183479329e-01,5.622402482035340765e-02,6.835927572247844919e-02
1.072999999999999954e+00,9.515646797637457299e-02,-2.241487695590460572e-02,1.006762116729456036e-01
1.074000000000000066e+00,2.543596462621297571e-02,-8.762741539606522245e-02,8.813572250656831475e-02
1.074999999999999956e+00,-6.718935073253318180e-02,-1.304223725566580339e-01,2.571516978042269821e-02
1.076000000000000068e+00,-1.422224059593768242e-01,-8.218635613007246876e-02,-1.002741593089849503e-02
1.076999999999999957e+00,-1.454116625072561231e-01,-4.615749126985995571e-02,-7.182339043568489179e-02
1.078000000000000069e+00,-9.269385495789274343e-02,5.182294927851264360e-02,-1.127693488052210063e-01
1.078999999999999959e+00,-1.592020979436031825e-02,9.616857828340195924e-02,-8.506790752341630846e-02
1.080000000000000071e+00,8.273153869320090670e-02,1.374680672103843204e-01,-3.631037532591881861e-02
1.080999999999999961e+00,1.409590642157227958e-01,1.081024816847410280e-01,2.568710687152357328e-02
1.082000000000000073e+00,1.501066998646213291e-01,3.649733635765242679e-02,6.593698345859189125e-02
1.082999999999999963e+00,8.434202220627101676e-02,-6.129660200426395589e-02,8.310167438083004843e-02
1.084000000000000075e+00,5.989736440890538333e-04,-1.136432041982201324e-01,6.644389114923346384e-02
1.084999999999999964e+00,-1.226387478005980386e-01,-1.148736291294758655e-01,2.431408103665121806e-02
1.086000000000000076e+00,-1.682522860631882056e-01,-7.539494847869662730e-02,-1.613105537058077618e-02
1.086999999999999966e+00,-1.393624209398422464e-01,-8.902372938405922823e-03,-8.292762885009206941e-02
1.088000000000000078e+00,-7.841835413371291141e-02,8.564591921340419800e-02,-1.073563371118460286e-01
1.088999999999999968e+00,2.882873817306980113e-02,1.244327060970612381e-01,-7.238933252418136566e-02
1.090000000000000080e+00,1.061129642906143422e-01,1.078079353103966603e-01,-1.719128149124214688e-02
1.090999999999999970e+00,1.584898785873962712e-01,8.450230741572170579e-02,2.791621613657792322e-02
1.092000000000000082e+00,1.438659397326381151e-01,1.444179878118091558e-02,6.809270564960026584e-02
1.092999999999999972e+00,7.982583281142620335e-02,-9.119391583048037930e-02,8.950399146684710761e-02
1.094000000000000083e+00,-2.897350089150155933e-02,-1.275921992098865143e-01,7.053059463839399246e-02
1.094999999999999973e+00,-1.142295989148349594e-01,-1.166751651714128535e-01,8.601785574475308283e-03
1.096000000000000085e+00,-1.760859366094419953e-01,-5.622852554657894325e-02,-3.493800161570251306e-02
1.096999999999999975e+00,-1.338664637512644584e-01,4.057869880081701325e-02,-8.155691578732697511e-02
1.098000000000000087e+00,-7.445125583793452129e-02,9.492586666451688360e-02,-1.063117828558515082e-01
1.098999999999999977e+00,4.377667070179664527e-02,1.256148213603247021e-01,-8.031823507213727009e-02
1.100000000000000089e+00,1.205160974331596635e-01,1.028785039766618031e-01,-2.913864749033733687e-02
1.100999999999999979e+00,1.519229289612093747e-01,6.140272166199982340e-02,4.394565920785979685e-02
1.102000000000000091e+00,1.175385348770496274e-01,-1.409527704635698923e-02,7.307073279342511662e-02
1.102999999999999980e+00,3.354787056381937360e-02,-1.115667130307744920e-01,1.035196912564410460e-01
1.104000000000000092e+00,-6.040846634029858886e-02,-1.242376108290717401e-01,7.710174185737707353e-02
1.104999999999999982e+00,-1.422569285548156703e-01,-1.230171497528515928e-01,2.455229998697986207e-02
1.106000000000000094e+00,-1.668459074194139358e-01,-3.912164111034190789e-02,-4.364551615928315143e-02
1.106999999999999984e+00,-1.139293324757722908e-01,4.869738742941183418e-02,-8.411312701027258421e-02
1.108000000000000096e+00,-5.330236749486840647e-02,1.053661900036737126e-01,-9.677117335270730980e-02
1.108999999999999986e+00,5.578920660424428746e-02,1.084745536005600752e-01,-5.929307568810617685e-02
1.110000000000000098e+00,1.342493645584580952e-01,1.131878163715412944e-01,-9.230861659345992662e-03
1.110999999999999988e+00,1.531988962860053871e-01,2.982432487444900207e-02,3.884377837597553090e-02
1.112000000000000099e+00,1.175775779852433478e-01,-3.630431926938838122e-02,1.036733895044505971e-01
1.112999999999999989e+00,2.589698857216084227e-02,-1.253215062152224779e-01,6.851185492108903541e-02
1.114000000000000101e+00,-7.630349165044277016e-02,-1.333847278161029992e-01,6.586999959817420314e-02
1.114999999999999991e+00,-1.400566208508300658e-01,-9.257186995187981216e-02,1.368225754876500541e-02
1.116000000000000103e+00,-1.362729452710542133e-01,-3.276058631703402790e-03,-6.070886948465713251e-02
1.116999999999999993e+00,-9.068186175461799559e-02,5.169946757006729787e-02,-8.027341213142059895e-02
1.118000000000000105e+00,-8.534131473328000414e-03,1.278220820598319207e-01,-8.353950686999435382e-02
1.118999999999999995e+00,8.136585640666882391e-02,1.293858522175274639e-01,-5.132137217740443541e-02
1.120000000000000107e+00,1.449853982631710558e-01,6.537436981594525742e-02,-2.293596603980276386e-02
1.120999999999999996e+00,1.375648782675426562e-01,1.575825895236707824e-02,5.328709980561097126e-02
1.122000000000000108e+00,1.102894801188071955e-01,-7.694337716313995323e-02,8.622490629053670974e-02
1.122999999999999998e+00,-8.682170339150661886e-03,-1.012183355699926290e-01,1.088030256592051603e-01
1.124000000000000110e+00,-8.830469737002584474e-02,-1.342210630651672620e-01,3.488410972044612979e-02
1.125000000000000000e+00,-1.225840176679154347e-01,-5.725393952597478131e-02,1.947598206010744265e-02
1.125999999999999890e+00,-1.425556581904972031e-01,7.416934990234545430e-03,-6.937729684540923369e-02
1.127000000000000002e+00,-8.182989543675012190e-02,7.748073424578805213e-02,-7.616434195308964539e-02
1.127999999999999892e+00,1.591710799603417159e-02,1.210703240875569686e-01,-9.857464343209541846e-02
1.129000000000000004e+00,1.123684095892648338e-01,1.167612770998778249e-01,-4.600334927415945796e-02
1.129999999999999893e+00,1.517424699765849982e-01,4.832747116712218793e-02,2.012316190679682912e-02
1.131000000000000005e+00,1.336785328377589899e-01,-1.970411920664430494e-02,5.835819931074796851e-02
1.131999999999999895e+00,9.684055786721446069e-02,-1.048887267431919540e-01,1.005272365119263683e-01
1.133000000000000007e+00,-1.791601134148114449e-02,-1.350142490461681000e-01,7.663505977398731017e-02
1.133999999999999897e+00,-1.013024467765560599e-01,-1.084862830238340070e-01,3.281830115454921482e-02
1.135000000000000009e+00,-1.636138233618212867e-01,-5.481582629766622999e-02,-3.256513012220408655e-03
1.135999999999999899e+00,-1.220976783915506125e-01,4.455529171217850054e-02,-5.284923020731824989e-02
1.137000000000000011e+00,-6.350196722599490973e-02,9.633683312722378378e-02,-9.594835377950540478e-02
1.137999999999999901e+00,2.228420655978375492e-02,1.220803909044064633e-01,-7.676432681770262167e-02
1.139000000000000012e+00,1.299700281086864639e-01,1.046573253116501179e-01,-3.825317770699954850e-02
1.139999999999999902e+00,1.475211503437759142e-01,4.415277064613912228e-02,2.126883169702642115e-02
1.141000000000000014e+00,1.209962879683792875e-01,-5.167544225242368811e-02,6.266742433390375122e-02
1.141999999999999904e+00,4.749861739123136667e-02,-1.064213989301120711e-01,8.383847334002089702e-02
1.143000000000000016e+00,-4.911043695130570125e-02,-1.215659023631826541e-01,8.232022272012753938e-02
1.143999999999999906e+00,-1.242915226321536643e-01,-6.948800653159904750e-02,4.441734758311422643e-02
1.145000000000000018e+00,-1.608464724709806615e-01,-1.671655853873812297e-02,-1.805191284588267622e-02
1.145999999999999908e+00,-1.107001457816663009e-01,6.011254525017172001e-02,-6.356912168600056812e-02
1.147000000000000020e+00,-3.388140345197770270e-02,1.072391173018899524e-01,-9.358205942413395928e-02
1.147999999999999909e+00,6.171014539626214213e-02,1.246655754394815907e-01,-8.736187972496842202e-02
1.149000000000000021e+00,1.335575249039003543e-01,6.800218827855220027e-02,-5.078630537387333888e-02
1.149999999999999911e+00,1.642354289910951948e-01,2.575353712842741449e-02,1.074327283875044226e-02
1.151000000000000023e+00,1.047514338488021862e-01,-6.442407062619029401e-02,6.638587081430050163e-02
1.151999999999999913e+00,4.353430412408218486e-02,-1.169497951179019751e-01,1.127679144745270950e-01
1.153000000000000025e+00,-6.807296275302565647e-02,-1.069454094805013522e-01,7.389371587834474286e-02
1.153999999999999915e+00,-1.476160442826233155e-01,-8.977900362341284524e-02,2.187004869980456456e-02
1.155000000000000027e+00,-1.610185413866478121e-01,3.982832236924557616e-03,-3.390475055620365691e-02
1.155999999999999917e+00,-1.182257423688914261e-01,8.897981934128594561e-02,-7.502659330774981428e-02
1.157000000000000028e+00,-1.451931499753834030e-02,1.226722714871522901e-01,-1.091138720094958076e-01
1.157999999999999918e+00,7.856964053553083804e-02,1.341302480794596963e-01,-7.763650675711085414e-02
1.159000000000000030e+00,1.605634277544166211e-01,4.951117221570828369e-02,-2.454182267968734940e-02
1.159999999999999920e+00,1.656449400281782003e-01,-2.965031503467203261e-02,2.832172740190052468e-02
1.161000000000000032e+00,1.044339361987526998e-01,-1.066347379642284265e-01,7.326778058086765022e-02
1.161999999999999922e+00,9.183363343440335141e-03,-1.264540548846511681e-01,9.203916019041996632e-02
1.163000000000000034e+00,-9.337252270247058117e-02,-8.738352313109863656e-02,6.762531638867462502e-02
1.163999999999999924e+00,-1.622523225777634248e-01,-5.370201876042147299e-02,2.311901206224384678e-02
1.165000000000000036e+00,-1.556049755945211610e-01,3.377936930663222315e-02,-3.160768997305099526e-02
1.165999999999999925e+00,-9.476579997703886427e-02,1.156423871562713146e-01,-7.489274445715017603e-02
1.167000000000000037e+00,8.916774565309975838e-04,1.300601519561059016e-01,-9.794235409034926509e-02
1.167999999999999927e+00,9.825273847153682960e-02,9.673599600790409869e-02,-8.216925425835244767e-02
1.169000000000000039e+00,1.548091474490276565e-01,3.981981065171162626e-02,-2.334916785706566550e-02
1.169999999999999929e+00,1.712448793045795725e-01,-1.252377716804786885e-02,3.401881860172271260e-02
1.171000000000000041e+00,7.272817250067908912e-02,-1.136223272802868584e-01,8.551397385383574523e-02
1.171999999999999931e+00,-1.778112890140340699e-02,-1.361422425625407606e-01,9.851639281527972691e-02
1.173000000000000043e+00,-9.708399932801163590e-02,-8.844541165878305744e-02,4.506627190704167590e-02
1.173999999999999932e+00,-1.475612889625892155e-01,-1.817698862049135430e-02,4.173434609398356254e-02
1.175000000000000044e+00,-1.587904838312507727e-01,5.689431966461342555e-02,-5.054440106276235356e-02
1.175999999999999934e+00,-7.125410555431506421e-02,1.031009851070055772e-01,-9.473387013128865830e-02
1.177000000000000046e+00,2.240547734546282851e-02,1.254086219761183230e-01,-8.915839562029326260e-02
1.177999999999999936e+00,1.101076785583029183e-01,7.218107041939092472e-02,-7.279823110875875691e-02
1.179000000000000048e+00,1.642316167877596322e-01,1.558718062278753721e-03,-9.282366625504568508e-03
1.179999999999999938e+00,1.418143010267916837e-01,-7.116641538397266986e-02,4.596553102117940243e-02
1.181000000000000050e+00,4.833837208400644514e-02,-1.262444087585613550e-01,8.575303724622219959e-02
