time,acc_x,acc_y,acc_z
0.000000000000000000e+00,-2.864903399962537289e-01,-1.868171785161315546e-01,-1.491971136071565951e-01
1.000000000000000021e-03,-2.039699241538578400e-01,-8.090827747788907620e-02,-1.819126452126028359e-01
2.000000000000000042e-03,2.575910117686212603e-03,9.025977932841000584e-02,-8.578029432603109794e-02
3.000000000000000062e-03,1.705295474278440138e-01,1.965864741627814383e-01,3.761515267074522911e-02
4.000000000000000083e-03,2.686239943217479387e-01,2.019570191465339948e-01,1.291050550288468934e-01
5.000000000000000104e-03,1.962330296927145279e-01,6.736232321919059796e-02,1.581606620929581764e-01
6.000000000000000125e-03,9.350021730260567321e-03,-8.330203830533421117e-02,9.980713715023614707e-02
7.000000000000000146e-03,-1.778374397283671582e-01,-1.997960877840422866e-01,-2.738542877725363284e-02
8.000000000000000167e-03,-2.511417913830758519e-01,-2.136559117343165282e-01,-1.356332995970364330e-01
8.999999999999999320e-03,-2.071056967192562714e-01,-5.221192017976904187e-02,-1.444857735047005154e-01
1.000000000000000021e-02,-3.513416038960105736e-02,6.688229544107920921e-02,-9.261913423274202584e-02
1.099999999999999936e-02,1.797795577057604288e-01,1.898395760390583775e-01,3.384694387522313441e-02
1.200000000000000025e-02,2.670126178704656517e-01,1.911519952546991974e-01,1.354141206325530089e-01
1.299999999999999940e-02,1.930365215086574104e-01,7.305509661203954397e-02,1.621197856132380044e-01
1.400000000000000029e-02,2.152051248875049699e-02,-8.536110779451505648e-02,8.985575933542325200e-02
1.499999999999999944e-02,-1.902294243177170829e-01,-1.919309657022143234e-01,-2.019034242434226967e-02
1.600000000000000033e-02,-2.666986204030163954e-01,-1.770146511848516013e-01,-1.295959082425770514e-01
1.700000000000000122e-02,-1.931283162018101462e-01,-7.397809647301824276e-02,-1.536096581261124083e-01
1.799999999999999864e-02,-5.582598819643229404e-03,9.256687650372465159e-02,-1.019412513275763654e-01
1.899999999999999953e-02,1.554431470557524342e-01,2.197907074804349992e-01,8.050137659582134314e-03
2.000000000000000042e-02,2.767524450188587615e-01,2.078930039132348695e-01,1.170321570639236419e-01
2.100000000000000130e-02,2.174107957317941708e-01,5.621984117787435370e-02,1.605707924133798759e-01
2.199999999999999872e-02,4.016505272232312462e-02,-9.429315457175213577e-02,1.264979692173213710e-01
2.299999999999999961e-02,-1.548422043768340195e-01,-2.018619515424423250e-01,-5.321041404796406776e-03
2.400000000000000050e-02,-2.500549883336274926e-01,-1.901094954400675829e-01,-1.212796655177769689e-01
2.500000000000000139e-02,-2.062701690037427038e-01,-7.181962004590763948e-02,-1.449109595233930847e-01
2.599999999999999881e-02,-4.277037283246250959e-02,1.239545656814311780e-01,-1.038176137168114882e-01
2.699999999999999969e-02,1.700507352089455360e-01,2.234308729244490754e-01,-1.300209349732177160e-02
2.800000000000000058e-02,2.726026017047236683e-01,1.654475237358285222e-01,1.151652432250725167e-01
2.900000000000000147e-02,1.966145443940379156e-01,4.156111618797431878e-02,1.529418221325299365e-01
2.999999999999999889e-02,5.499493178359859263e-02,-1.195686802988242953e-01,1.067594485817910804e-01
3.099999999999999978e-02,-1.432651659641936692e-01,-2.076743596687386506e-01,1.270722273540359631e-02
3.200000000000000067e-02,-2.793588524286553798e-01,-1.938777718305129405e-01,-1.022542827153169187e-01
3.300000000000000155e-02,-2.233306043665067853e-01,-4.403974693601950957e-02,-1.300615142156833492e-01
3.400000000000000244e-02,-5.008105650579251777e-02,1.046140226840000936e-01,-1.317640438516617107e-01
3.500000000000000333e-02,1.536829055887750650e-01,1.983603195399433472e-01,-1.277689651051122817e-02
3.599999999999999728e-02,2.757752983942864389e-01,1.831318085309803778e-01,1.151742601634939828e-01
3.699999999999999817e-02,2.038700315260374152e-01,3.582567202664926898e-02,1.531899879236753026e-01
3.799999999999999906e-02,5.508207239396577248e-02,-1.183680587349505292e-01,1.282007655813183211e-01
3.899999999999999994e-02,-1.578550179724468594e-01,-2.060640754065720115e-01,7.132703909087357262e-03
4.000000000000000083e-02,-2.631509351180136291e-01,-1.670612263584869139e-01,-7.344600189549860270e-02
4.100000000000000172e-02,-2.102165739308070047e-01,-3.853484963835013266e-02,-1.393329002363612734e-01
4.200000000000000261e-02,-3.833858019184825661e-02,1.191495159197854120e-01,-1.207110943876242293e-01
4.299999999999999656e-02,1.230579694919483880e-01,2.108980284592441856e-01,-2.367895721008296539e-02
4.399999999999999745e-02,2.469277231766886238e-01,1.885841001818326645e-01,8.855420860755708334e-02
4.499999999999999833e-02,2.175312435070179962e-01,3.184479804140629561e-02,1.657086076305285260e-01
4.599999999999999922e-02,5.584290559959561445e-02,-1.139438715441454947e-01,1.285412576544923413e-01
4.700000000000000011e-02,-1.574324870642831442e-01,-2.015116176562646022e-01,2.770359540653798483e-02
4.800000000000000100e-02,-2.576995673397322606e-01,-1.637929403853258248e-01,-8.714651815504248500e-02
4.900000000000000189e-02,-2.043662001041181286e-01,-4.252909984759785378e-02,-1.463550909425079261e-01
5.000000000000000278e-02,-6.312992429032468489e-02,1.372578391948960364e-01,-1.409011841892897632e-01
5.099999999999999672e-02,1.712400711987005220e-01,2.157512082335555081e-01,-5.318517195789816687e-02
5.199999999999999761e-02,2.619782784175677115e-01,1.618901800559650050e-01,6.033707519291815063e-02
5.299999999999999850e-02,2.307278953026909163e-01,3.599925712447976656e-02,1.472176435317759102e-01
5.399999999999999939e-02,5.266228855474727744e-02,-1.444324092804484261e-01,1.564102456083532044e-01
5.500000000000000028e-02,-1.374777060213754898e-01,-2.030239245827013816e-01,4.558933734346998223e-02
5.600000000000000117e-02,-2.575755125003343360e-01,-1.733347202420469912e-01,-6.294261523831265470e-02
5.700000000000000205e-02,-2.093793451782453574e-01,-2.148869474745119038e-02,-1.622214149882172940e-01
5.800000000000000294e-02,-4.434926689230728192e-02,1.403976128862742812e-01,-1.642491007145710502e-01
5.899999999999999689e-02,1.535130918891401131e-01,2.200441691563734536e-01,-5.798680060397971153e-02
5.999999999999999778e-02,2.516454520365802305e-01,1.657244399659495160e-01,9.102870794416267897e-02
6.099999999999999867e-02,2.046090235500482857e-01,5.102096316271881489e-03,1.466510647557892344e-01
6.199999999999999956e-02,7.198940351992039188e-02,-1.303550381965030702e-01,1.494911215923506731e-01
6.300000000000000044e-02,-1.243841365842201646e-01,-1.926827399808008490e-01,7.521003510426044203e-02
6.400000000000000133e-02,-2.526817725124405611e-01,-1.497680350890550627e-01,-7.911159561559996667e-02
6.500000000000000222e-02,-2.299227391906497053e-01,1.153026284522131427e-02,-1.246591097453262492e-01
6.600000000000000311e-02,-6.249332604216561310e-02,1.163778226111234215e-01,-1.272736042238239995e-01
6.700000000000000400e-02,1.061361222481425337e-01,2.069288631473444051e-01,-7.953746256055800601e-02
6.800000000000000488e-02,2.464733959722443524e-01,1.567329386038183170e-01,6.737674760663792117e-02
6.900000000000000577e-02,2.462156599979053451e-01,-1.315623521203255694e-02,1.221490500508017329e-01
7.000000000000000666e-02,7.414632212835071956e-02,-1.442773187962005654e-01,1.552303614688591571e-01
7.099999999999999367e-02,-1.517713997984688479e-01,-2.164267195280727973e-01,8.003010042336745899e-02
7.199999999999999456e-02,-2.451940462983746849e-01,-1.448129110486870985e-01,-5.673538992915891366e-02
7.299999999999999545e-02,-2.203457040260174971e-01,2.307641400166000412e-04,-1.435932755588913423e-01
7.399999999999999634e-02,-8.044839726881776454e-02,1.492737416355622015e-01,-1.590089444255570472e-01
7.499999999999999722e-02,1.113839196955282995e-01,2.229313393636345730e-01,-6.931135148774800192e-02
7.599999999999999811e-02,2.482192136760754952e-01,1.381560703024103109e-01,5.015780268703604744e-02
7.699999999999999900e-02,2.396537644019023361e-01,-8.724414340626760953e-03,1.345221197882403574e-01
7.799999999999999989e-02,8.566428842543515054e-02,-1.498136076236529779e-01,1.405548238333655664e-01
7.900000000000000078e-02,-1.223656656035353313e-01,-2.302258957568585618e-01,1.060126514756265098e-01
8.000000000000000167e-02,-2.630225862792865410e-01,-1.303356390023555356e-01,-2.110696238524291043e-02
8.100000000000000255e-02,-2.456198846134665936e-01,1.423283500034295754e-02,-1.239528551691407715e-01
8.200000000000000344e-02,-9.572750116588212010e-02,1.470413774011380403e-01,-1.631157530966633185e-01
8.300000000000000433e-02,1.359029979728989534e-01,2.234689908083256904e-01,-9.836223023026095802e-02
8.400000000000000522e-02,2.676895516959327814e-01,1.308989428741323402e-01,1.131675662511147894e-02
8.500000000000000611e-02,2.158591770734261950e-01,-1.161188625853326042e-03,1.249064597950929334e-01
8.599999999999999312e-02,7.618152420980095485e-02,-1.593054562646469829e-01,1.485454661123206677e-01
8.699999999999999400e-02,-1.157157917127499408e-01,-1.994831750194945019e-01,9.813051353527761644e-02
8.799999999999999489e-02,-2.552823565858317600e-01,-1.460459092399907510e-01,-1.147236043287633636e-02
8.899999999999999578e-02,-2.267356062706400444e-01,3.704857949616743081e-03,-1.202236319121323671e-01
8.999999999999999667e-02,-9.727779600383551495e-02,1.686988817404896090e-01,-1.381055966952722536e-01
9.099999999999999756e-02,1.087688783829975220e-01,2.260966385031730475e-01,-8.750112492653421004e-02
9.199999999999999845e-02,2.492451201953383988e-01,1.336834502823592563e-01,2.111920081756578707e-02
9.299999999999999933e-02,2.338354057784700624e-01,6.500727812764529705e-03,1.162859875697573320e-01
9.400000000000000022e-02,7.068688486378217617e-02,-1.705037060143298477e-01,1.705508441831267707e-01
9.500000000000000111e-02,-1.248734296295279794e-01,-2.236954502724433358e-01,1.157035607803654081e-01
9.600000000000000200e-02,-2.520246528399824326e-01,-1.203284778420139062e-01,-2.030204237192504649e-03
9.700000000000000289e-02,-2.446309677750479195e-01,1.431304145522764928e-02,-1.198779421137578516e-01
9.800000000000000377e-02,-9.501319937779136027e-02,1.597029256377594519e-01,-1.610131279820731787e-01
9.900000000000000466e-02,1.057558954503020759e-01,1.997149718927429263e-01,-1.185945232821296602e-01
1.000000000000000056e-01,2.588716464343495116e-01,1.375954585646778916e-01,1.252566711564831632e-02
1.010000000000000064e-01,2.326004148566559182e-01,-3.273024360369820862e-02,1.198457867174126806e-01
1.019999999999999934e-01,9.563146811776218614e-02,-1.504075771356336577e-01,1.542799249894124536e-01
1.029999999999999943e-01,-1.287409806799436340e-01,-1.890632428428752065e-01,1.253838766283439377e-01
1.039999999999999952e-01,-2.350275979117200931e-01,-1.378995585811129687e-01,1.673286574724261802e-02
1.049999999999999961e-01,-2.505643683552792322e-01,2.802697364260547941e-02,-1.045864257412251058e-01
1.059999999999999970e-01,-1.120605099971872659e-01,1.682024262232519607e-01,-1.592058217020676236e-01
1.069999999999999979e-01,1.323121115456977193e-01,2.338032657146802695e-01,-1.117973569005154821e-01
1.079999999999999988e-01,2.654092233024729630e-01,1.172107581655787018e-01,-5.341033863085547714e-04
1.089999999999999997e-01,2.565309175592392910e-01,-3.513899358158678599e-02,9.144904267862911940e-02
1.100000000000000006e-01,7.302168056863100887e-02,-1.792290409825080810e-01,1.436036110836814705e-01
1.110000000000000014e-01,-8.634568534960997133e-02,-2.139222675490582981e-01,1.350206274563987285e-01
1.120000000000000023e-01,-2.482328167642431915e-01,-1.174189080705909383e-01,2.517240328198762020e-02
1.130000000000000032e-01,-2.358539508177484034e-01,4.416283708833839555e-02,-1.037698804022414711e-01
1.140000000000000041e-01,-1.033133380277810182e-01,1.718299101532294038e-01,-1.566131214689714668e-01
1.150000000000000050e-01,1.017801399588692673e-01,2.198019354956470550e-01,-1.372246151475425835e-01
1.160000000000000059e-01,2.472111424372102073e-01,1.185336305971621679e-01,-2.571942560084742799e-02
1.170000000000000068e-01,2.435474394868786807e-01,-1.681769512430399127e-02,1.011051483557016267e-01
1.179999999999999938e-01,9.490252350334531239e-02,-1.805903335290559852e-01,1.600374391845563737e-01
1.189999999999999947e-01,-8.476854907266832828e-02,-2.048668529920071868e-01,1.381167258503210871e-01
1.199999999999999956e-01,-2.298335959824673591e-01,-1.251703313244222071e-01,4.138184059221306638e-02
1.209999999999999964e-01,-2.306279717206818070e-01,4.651863071364238655e-02,-6.914640209203402887e-02
1.219999999999999973e-01,-1.166220184287284356e-01,1.809657524447870758e-01,-1.637738408048893257e-01
1.229999999999999982e-01,1.012903737943530724e-01,2.045592379674037731e-01,-1.333175271055830613e-01
1.239999999999999991e-01,2.359882586674927896e-01,1.193818326718621148e-01,-4.221369613958113332e-02
1.250000000000000000e-01,2.499087194224219877e-01,-4.606015074181411123e-02,9.545549835732423938e-02
1.260000000000000009e-01,9.037192283463044151e-02,-1.932943668381193469e-01,1.382046927566402683e-01
1.270000000000000018e-01,-1.029916356327756494e-01,-2.030462814277124162e-01,1.565172531187958294e-01
1.280000000000000027e-01,-2.560198456480130003e-01,-1.343250752014078508e-01,5.464955861925164388e-02
1.290000000000000036e-01,-2.370731371527082521e-01,6.319469881473466222e-02,-7.063885959707720541e-02
1.300000000000000044e-01,-1.074271547759439588e-01,1.684532237890033757e-01,-1.748096666838144242e-01
1.310000000000000053e-01,1.050033208385092592e-01,2.110438064122794610e-01,-1.440650779706079410e-01
1.320000000000000062e-01,2.413719220942401877e-01,9.852918765445478622e-02,-4.211106328710432362e-02
1.330000000000000071e-01,2.656777820337687945e-01,-5.770479196112521941e-02,6.772726897046205119e-02
1.340000000000000080e-01,1.092515374038438014e-01,-1.863050540110046671e-01,1.435628010981193914e-01
1.350000000000000089e-01,-8.912602421619128523e-02,-2.245437414831114031e-01,1.480732814553384347e-01
1.360000000000000098e-01,-2.479648486141493580e-01,-9.171610141247961423e-02,7.001264864815108513e-02
1.370000000000000107e-01,-2.480940291709259060e-01,6.133129482708719882e-02,-5.461256810063436218e-02
1.380000000000000115e-01,-1.078661916887578426e-01,1.938202167339984905e-01,-1.406897397036365738e-01
1.390000000000000124e-01,8.584105359485635911e-02,1.875774761590244255e-01,-1.572143929368466919e-01
1.400000000000000133e-01,2.141520347278531855e-01,1.150650493119845241e-01,-5.168259559059894259e-02
1.409999999999999865e-01,2.581015285791614100e-01,-5.489345747031378758e-02,5.982177569712172210e-02
1.419999999999999873e-01,1.238904261345815799e-01,-1.802049193356120849e-01,1.453692530255066007e-01
1.429999999999999882e-01,-9.921115240103556276e-02,-2.029007991262692934e-01,1.461222116668962345e-01
1.439999999999999891e-01,-2.474729787429595929e-01,-6.740163750783528807e-02,5.777275822980386388e-02
1.449999999999999900e-01,-2.420816397136764386e-01,8.960395807304095961e-02,-3.186146393841820385e-02
1.459999999999999909e-01,-1.239462333746389477e-01,1.984948900118132520e-01,-1.885761979763612428e-01
1.469999999999999918e-01,9.185744757168105845e-02,2.253134392337002578e-01,-1.624638107451160662e-01
1.479999999999999927e-01,2.607225860976082887e-01,7.793920160660815222e-02,-5.653194181894950765e-02
1.489999999999999936e-01,2.482082163750165271e-01,-8.081433800380476151e-02,4.485691032568311226e-02
1.499999999999999944e-01,1.293673442630263182e-01,-2.045657121427406078e-01,1.330296637645381475e-01
1.509999999999999953e-01,-6.068992244096139965e-02,-2.031994128695178981e-01,1.571583108240022231e-01
1.519999999999999962e-01,-2.308657756029098007e-01,-8.220515064241877556e-02,9.840444021119074125e-02
1.529999999999999971e-01,-2.498536659081116440e-01,7.157028133847466445e-02,-1.417795739687404202e-02
1.539999999999999980e-01,-1.291769150569088143e-01,1.928924454159131607e-01,-1.284625631914722288e-01
1.549999999999999989e-01,9.185801796655709839e-02,2.073233738511332802e-01,-1.481587654520500619e-01
1.559999999999999998e-01,2.430712766246726220e-01,9.267102827927573006e-02,-8.134036849214390519e-02
1.570000000000000007e-01,2.277387201963156083e-01,-3.753989901659997297e-02,2.239109628580797373e-02
1.580000000000000016e-01,1.444611670219280164e-01,-1.926817912421053824e-01,1.381396372985397858e-01
1.590000000000000024e-01,-7.163505900705884055e-02,-2.180392512326740917e-01,1.582305841956848369e-01
1.600000000000000033e-01,-2.614618220207922672e-01,-7.257862116913241235e-02,9.758401890677526058e-02
1.610000000000000042e-01,-2.695117651671022352e-01,8.191154828626208417e-02,-1.760157681468615953e-02
1.620000000000000051e-01,-1.279089414862928376e-01,1.961708799740636278e-01,-1.164846438442668358e-01
1.630000000000000060e-01,5.678470024708372893e-02,2.056471415272173031e-01,-1.281796394747078405e-01
1.640000000000000069e-01,2.201017793006939671e-01,8.368679380322571748e-02,-8.881892255366996558e-02
1.650000000000000078e-01,2.703277821741019715e-01,-1.042316610711825492e-01,1.437952184269499119e-02
1.660000000000000087e-01,1.490296270772251963e-01,-2.020143270353665366e-01,9.104603839735546378e-02
1.670000000000000095e-01,-7.247036881564132560e-02,-1.936767243234479019e-01,1.488863555897651514e-01
1.680000000000000104e-01,-2.523286444343679213e-01,-7.357339234039471376e-02,1.146355407461352172e-01
1.690000000000000113e-01,-2.611460554884721952e-01,1.134337732333395576e-01,7.063520499720834372e-03
1.700000000000000122e-01,-1.456479425758589186e-01,1.856791064852580941e-01,-1.137208413426851472e-01
1.710000000000000131e-01,6.264290706336732295e-02,2.061634465808976635e-01,-1.546458316450454729e-01
1.719999999999999862e-01,2.403563975720800494e-01,6.996855205614953277e-02,-1.064885278091997900e-01
1.729999999999999871e-01,2.605336406729710230e-01,-1.004614125113574841e-01,1.556975013585627614e-02
1.739999999999999880e-01,1.313641068268660006e-01,-2.103620210210859487e-01,1.134039589650594065e-01
1.749999999999999889e-01,-8.028598776889213362e-02,-1.723052498214119876e-01,1.532572625337609851e-01
1.759999999999999898e-01,-2.479494595529852241e-01,-5.874939303910769323e-02,1.227661460263750337e-01
1.769999999999999907e-01,-2.795485084748128846e-01,1.062719977098972313e-01,6.898856772443815594e-03
1.779999999999999916e-01,-1.449832698617822269e-01,2.061779346864082429e-01,-1.177533722117555526e-01
1.789999999999999925e-01,4.464887928976539466e-02,1.979433925151263263e-01,-1.569499407698070337e-01
1.799999999999999933e-01,2.442202778446635747e-01,3.322130672465082452e-02,-1.188884484544041747e-01
1.809999999999999942e-01,2.908059281003673169e-01,-1.013484504672384906e-01,-3.323322378310560737e-02
1.819999999999999951e-01,1.602694341010981460e-01,-2.061961875642214503e-01,1.038157294818714410e-01
1.829999999999999960e-01,-5.074296949018418379e-02,-1.780883059768040289e-01,1.660125591635618070e-01
1.839999999999999969e-01,-2.181373964662195464e-01,-6.414957650393246502e-02,1.160305797985502207e-01
1.849999999999999978e-01,-2.584000373369894632e-01,1.270362799376264507e-01,1.194087595376771768e-02
1.859999999999999987e-01,-1.368034253646263354e-01,2.048674729987714493e-01,-9.047408324457117956e-02
1.869999999999999996e-01,5.813798185068177332e-02,1.814393074812332141e-01,-1.684189955141106032e-01
1.880000000000000004e-01,1.965080073745244793e-01,4.743395629221219129e-02,-1.317706446813125265e-01
1.890000000000000013e-01,2.750720715917772674e-01,-1.187045729507779784e-01,-2.325919105359829792e-02
1.900000000000000022e-01,1.499141269706278090e-01,-2.061059576153906892e-01,9.153989472689393059e-02
1.910000000000000031e-01,-3.613799400208898144e-02,-1.762209531197593548e-01,1.489143080195496349e-01
1.920000000000000040e-01,-2.093358302736501586e-01,-4.605831676625167515e-02,1.250136161430171478e-01
1.930000000000000049e-01,-2.642470926171673340e-01,1.187094511086615456e-01,3.134015307044309140e-02
1.940000000000000058e-01,-1.278454020745979913e-01,2.197051602126335879e-01,-5.915659775259197312e-02
1.950000000000000067e-01,3.212525949901774008e-02,1.609149408543180948e-01,-1.639474032212665799e-01
1.960000000000000075e-01,2.161644491294370529e-01,4.029603538001378521e-02,-1.411179083880799989e-01
1.970000000000000084e-01,2.796697703964385329e-01,-1.026601028630853285e-01,-5.568829470347269606e-02
1.980000000000000093e-01,1.462138519719380914e-01,-2.167008999229016186e-01,8.014405891078031641e-02
1.990000000000000102e-01,-4.908679812874304493e-02,-1.894577338985625747e-01,1.728938509332717810e-01
2.000000000000000111e-01,-2.000465929353847649e-01,-2.773293758842714993e-02,1.499418438580203683e-01
2.010000000000000120e-01,-2.632430511153739938e-01,1.373223708838640644e-01,2.133718881231784145e-02
2.020000000000000129e-01,-1.781088267172331319e-01,2.002633318395140305e-01,-7.118663777124334402e-02
2.030000000000000138e-01,5.343689939185577303e-02,1.933301764296036229e-01,-1.548672910543003045e-01
2.039999999999999869e-01,2.043655182021174577e-01,8.038521192329714515e-03,-1.450965422174203823e-01
2.049999999999999878e-01,2.493808171957085096e-01,-1.568324407556943578e-01,-6.327846178676252431e-02
2.059999999999999887e-01,1.659918017346577179e-01,-2.059643242545640962e-01,5.937616010505871594e-02
2.069999999999999896e-01,-3.801418562706154053e-02,-1.638948910617901711e-01,1.511931775232828734e-01
2.079999999999999905e-01,-1.962215775109658611e-01,-4.110380912629694322e-02,1.600578672332637065e-01
2.089999999999999913e-01,-2.600426644417330735e-01,1.276022533596364861e-01,7.370041895741956395e-02
2.099999999999999922e-01,-1.919978841878167419e-01,2.204636209046912099e-01,-3.237698423236375078e-02
2.109999999999999931e-01,3.518202539421493719e-02,1.732361832696335813e-01,-1.295952113141062845e-01
2.119999999999999940e-01,2.068097614730278477e-01,1.708085462463283799e-02,-1.502706953471614759e-01
2.129999999999999949e-01,2.719250868673173671e-01,-1.656172394512021584e-01,-6.372914758859302142e-02
2.139999999999999958e-01,1.764501247512838544e-01,-2.269947241261051074e-01,6.907913178358748851e-02
2.149999999999999967e-01,-4.036207986173689921e-02,-1.627832055187138638e-01,1.387360481325048689e-01
2.159999999999999976e-01,-2.007896484972759299e-01,-1.784018065196521508e-02,1.505029538157321434e-01
2.169999999999999984e-01,-2.709728438055040711e-01,1.276065585782809320e-01,6.641828542056611717e-02
2.179999999999999993e-01,-1.946437124611788139e-01,1.925069637005611956e-01,-3.442495224283224908e-02
2.190000000000000002e-01,1.170419960153069178e-02,1.576266477174839975e-01,-1.295406752145528695e-01
2.200000000000000011e-01,1.967001472523006167e-01,3.882713282429413326e-02,-1.477636483346958796e-01
2.210000000000000020e-01,2.467868706053515104e-01,-1.237453564488343594e-01,-9.492785423338734319e-02
2.220000000000000029e-01,1.713419217363679747e-01,-2.173019367841499405e-01,3.439256695729928787e-02
2.230000000000000038e-01,-4.725182244527982578e-02,-1.615856498780538775e-01,1.414904486068306322e-01
2.240000000000000047e-01,-1.804984985852628454e-01,-7.391275067732588954e-04,1.494365237431544147e-01
2.250000000000000056e-01,-2.556700429727476465e-01,1.361696143793247882e-01,1.031016396664207468e-01
2.260000000000000064e-01,-1.753791800263201917e-01,2.137023952486800660e-01,-2.924764989959793143e-02
2.270000000000000073e-01,2.289678045263246996e-03,1.603162006830619046e-01,-1.344909938935400784e-01
2.280000000000000082e-01,1.986117029864303829e-01,9.471912418557453320e-03,-1.925251153768146872e-01
2.290000000000000091e-01,2.714174012802875180e-01,-1.395546081518564407e-01,-1.033168035437960486e-01
2.300000000000000100e-01,1.717452463537538498e-01,-2.157157332626071511e-01,2.623455528752841742e-02
2.310000000000000109e-01,-2.416053780889895752e-02,-1.612850020415383390e-01,1.243390431989332967e-01
2.320000000000000118e-01,-2.036100761300670692e-01,-8.965074868172925870e-03,1.373826479596996220e-01
2.330000000000000127e-01,-2.730710016945623320e-01,1.602381059680695607e-01,1.059244254628044640e-01
2.340000000000000135e-01,-1.878965147807855895e-01,2.239681508261381626e-01,-1.329653588322874357e-02
2.349999999999999867e-01,1.461776256847950074e-02,1.675132607735058399e-01,-1.286682819498291830e-01
2.359999999999999876e-01,1.857535559374394185e-01,-1.276171315454567232e-02,-1.718971781920822783e-01
2.369999999999999885e-01,2.806473655359867925e-01,-1.665709971858479188e-01,-7.304472096594157027e-02
2.379999999999999893e-01,1.780402791413024932e-01,-2.141372122100341224e-01,1.904493390125923044e-02
2.389999999999999902e-01,-4.809933450603862994e-03,-1.332113798648869307e-01,1.275767750929800715e-01
2.399999999999999911e-01,-1.842296748981881727e-01,6.510169166780331411e-03,1.748116349074897713e-01
2.409999999999999920e-01,-2.779213644769152336e-01,1.542589169528093551e-01,1.058023592539881902e-01
2.419999999999999929e-01,-1.694088436218947613e-01,2.053461917894922606e-01,3.460902295732065214e-03
2.429999999999999938e-01,1.331994205693538998e-02,1.644507621634217487e-01,-9.056434300206546439e-02
2.439999999999999947e-01,1.805081741451454724e-01,-9.064431114639276768e-03,-1.615736966477490932e-01
2.449999999999999956e-01,2.624463242213180836e-01,-1.746611450824118728e-01,-1.154159496791946488e-01
2.459999999999999964e-01,1.840417390731377556e-01,-2.070110379361305986e-01,-1.526261904265478753e-02
2.469999999999999973e-01,-5.172582661085520749e-03,-1.461358646675780248e-01,1.113170107739115677e-01
2.479999999999999982e-01,-1.923293615826857650e-01,1.227290197494018860e-02,1.611574532563686268e-01
2.489999999999999991e-01,-2.730800568253163862e-01,1.412343071046858189e-01,1.338994823191996530e-01
2.500000000000000000e-01,-1.760808144117680107e-01,2.147341701475189990e-01,2.752218768317424638e-02
2.510000000000000009e-01,1.638304875345709477e-03,1.450786263456187442e-01,-1.094121692791357597e-01
2.520000000000000018e-01,1.565929362105467348e-01,-2.615509101205456058e-02,-1.637940975153820977e-01
2.530000000000000027e-01,2.793603147031957779e-01,-1.642891969083465076e-01,-1.037481360173741624e-01
2.540000000000000036e-01,1.760631421814729813e-01,-2.191190925887541441e-01,3.279801581378961189e-03
2.550000000000000044e-01,-9.125891941212974871e-04,-1.550621613440913704e-01,1.145019977588606908e-01
2.560000000000000053e-01,-1.663759523301265308e-01,1.481911341281818076e-02,1.652226531740823567e-01
2.570000000000000062e-01,-2.759562323756663549e-01,1.727681943383116425e-01,1.156014384545437229e-01
2.580000000000000071e-01,-1.880729372270507072e-01,2.055404609903943858e-01,-7.087206213067276904e-03
2.590000000000000080e-01,3.232382101519950222e-03,1.326453444393885239e-01,-1.046813414786300078e-01
2.600000000000000089e-01,1.828904835067056978e-01,-3.570342114198923889e-02,-1.586539781402866722e-01
2.610000000000000098e-01,2.702119795730084095e-01,-1.768680501065205690e-01,-1.377119527885370676e-01
2.620000000000000107e-01,1.951785340368313859e-01,-2.127962482190867144e-01,-2.498510692670728381e-02
2.630000000000000115e-01,6.994392852149330583e-03,-1.535616028318616266e-01,1.071551853163681678e-01
2.640000000000000124e-01,-1.686480593441652964e-01,2.755317771169781341e-02,1.571052666748278259e-01
2.650000000000000133e-01,-2.730726147192981124e-01,1.923589154483884844e-01,1.402738764532744931e-01
2.660000000000000142e-01,-1.924556732994630037e-01,2.153480734533409491e-01,3.987480362412659796e-02
2.670000000000000151e-01,-8.198126993607187871e-03,1.336215685280051357e-01,-8.862956606172660290e-02
2.680000000000000160e-01,1.666839385403885987e-01,-3.290758068818854659e-02,-1.539325605286465670e-01
2.690000000000000169e-01,2.678975596718321528e-01,-1.734853233629099489e-01,-1.451058217319550758e-01
2.700000000000000178e-01,2.154593967472898663e-01,-1.983066824527331962e-01,-3.891106265303182626e-02
2.710000000000000187e-01,2.855776468806243626e-02,-1.313684695809235470e-01,7.025638920093912887e-02
2.720000000000000195e-01,-2.011904525359565488e-01,4.513974591939087094e-02,1.431887571984318264e-01
2.730000000000000204e-01,-2.641350459798418315e-01,1.880334778914863059e-01,1.544081127234099293e-01
2.740000000000000213e-01,-2.060659747713574907e-01,2.186293364564141362e-01,6.992613258948401911e-02
2.750000000000000222e-01,-2.290784038812333431e-02,1.212748009005636118e-01,-7.491375876953848545e-02
2.760000000000000231e-01,1.841809064864616818e-01,-5.992300855966235795e-02,-1.404953526979081657e-01
2.770000000000000240e-01,2.571628763318052346e-01,-2.022922319584132544e-01,-1.761690510058868397e-01
2.780000000000000249e-01,1.990146680467664020e-01,-2.162982537645463388e-01,-7.870480002066143621e-02
2.790000000000000258e-01,1.819525043686780544e-02,-1.125433764462953345e-01,5.320065889730726805e-02
2.800000000000000266e-01,-1.579518353254459884e-01,2.907994534748935614e-02,1.396775078224844757e-01
2.810000000000000275e-01,-2.792684167055337618e-01,1.520864186901015880e-01,1.705308656640405762e-01
2.819999999999999729e-01,-2.130130601324939366e-01,2.107755607738234227e-01,7.191341961909379632e-02
2.829999999999999738e-01,-1.404707317605555054e-02,1.146074632188874842e-01,-1.369406386463259233e-02
2.839999999999999747e-01,1.926548632494754776e-01,-4.335212921016386861e-02,-1.500858495836181195e-01
2.849999999999999756e-01,2.858539437490271728e-01,-1.628951317623152650e-01,-1.511384810318555372e-01
2.859999999999999765e-01,2.033148871573557948e-01,-2.015630629463902868e-01,-7.101851876979894951e-02
2.869999999999999774e-01,1.572889691280727337e-02,-1.181696106725910050e-01,4.941886463960135090e-02
2.879999999999999782e-01,-1.684875845736506506e-01,3.761646511851716307e-02,1.287114201770677424e-01
2.889999999999999791e-01,-2.672702993005255934e-01,1.864371560321197996e-01,1.508510093410992681e-01
2.899999999999999800e-01,-1.997322489798584733e-01,2.062202102222940314e-01,8.536037682038780106e-02
2.909999999999999809e-01,-5.303925948316107891e-02,1.190696902410085245e-01,-3.920518378894585765e-02
2.919999999999999818e-01,1.677858281967998799e-01,-5.943367270540866193e-02,-1.620945957384999636e-01
2.929999999999999827e-01,2.575144233509999436e-01,-1.811318344965385518e-01,-1.401017224524065408e-01
2.939999999999999836e-01,2.164396964868255668e-01,-2.015875040531955320e-01,-1.001321638325027436e-01
2.949999999999999845e-01,2.756125583407559657e-02,-1.129501269294786170e-01,2.157741832663763806e-02
2.959999999999999853e-01,-1.674042595293913083e-01,5.256441014785857846e-02,1.321393214908489211e-01
2.969999999999999862e-01,-2.597559980137708613e-01,1.683061224179470683e-01,1.515689700514935845e-01
2.979999999999999871e-01,-2.014808221565513868e-01,2.100619053117928348e-01,1.054649280853720006e-01
2.989999999999999880e-01,-4.172465657653454812e-02,1.030534532159118749e-01,-7.639642184627408288e-03
2.999999999999999889e-01,1.400672269624217703e-01,-4.738033281612206299e-02,-1.299033158925513576e-01
3.009999999999999898e-01,2.703404940227033815e-01,-1.958944745968641821e-01,-1.702584823117976875e-01
3.019999999999999907e-01,2.112142535789554854e-01,-2.114830697807292825e-01,-1.116400357775669677e-01
3.029999999999999916e-01,5.344928511316407449e-02,-1.093400250862267414e-01,2.839589828905669799e-02
3.039999999999999925e-01,-1.795325383481077841e-01,9.386989643178003662e-02,1.175145737815157659e-01
3.049999999999999933e-01,-2.629139583616375009e-01,1.877566024228309316e-01,1.533053992513939701e-01
3.059999999999999942e-01,-2.332695235669453859e-01,2.007206345497074551e-01,9.711626774419181152e-02
3.069999999999999951e-01,-6.711225917921907758e-02,9.692613514076263426e-02,-2.277937950295387190e-02
3.079999999999999960e-01,1.957506725589071295e-01,-7.857408537380843050e-02,-1.501877421921363753e-01
3.089999999999999969e-01,2.546802028238130955e-01,-2.079145439357008018e-01,-1.274347573099995079e-01
3.099999999999999978e-01,2.171710919383101068e-01,-2.039008070176896170e-01,-9.076502306791016383e-02
3.109999999999999987e-01,6.327916921656193128e-02,-6.914960219111138118e-02,5.541769639277400105e-04
3.119999999999999996e-01,-1.663234089303425312e-01,7.808412450786840486e-02,1.343716011262741372e-01
3.130000000000000004e-01,-2.521307293635915436e-01,2.008145099452879612e-01,1.624826948881361310e-01
3.140000000000000013e-01,-2.150173356957312265e-01,2.068031786756973633e-01,1.009713473018732516e-01
3.150000000000000022e-01,-5.917899223104009648e-02,8.239161307228802522e-02,-1.379782720807217616e-02
3.160000000000000031e-01,1.563971073227371500e-01,-8.550541728167994349e-02,-1.149400453920442489e-01
3.170000000000000040e-01,2.600702309331786588e-01,-1.967589666375928747e-01,-1.389028938310382377e-01
3.180000000000000049e-01,2.197730164787838614e-01,-1.942943768534423354e-01,-1.128294781229888522e-01
3.190000000000000058e-01,3.261632233775944162e-02,-8.503935168018886270e-02,2.140127506753875322e-03
3.200000000000000067e-01,-1.319489315071582514e-01,6.856942718813720250e-02,1.020774352422700870e-01
3.210000000000000075e-01,-2.604783574002810798e-01,1.901620178239880055e-01,1.447239673151520800e-01
3.220000000000000084e-01,-2.306837468411038206e-01,1.875982640301863125e-01,1.250583798020051818e-01
3.230000000000000093e-01,-6.385951341149198601e-02,7.938174309575746213e-02,1.285880363668945314e-02
3.240000000000000102e-01,1.319023064045855009e-01,-1.063490466036338955e-01,-8.339683915231568823e-02
3.250000000000000111e-01,2.668667836677691696e-01,-1.895561613480575003e-01,-1.605968769125063200e-01
3.260000000000000120e-01,2.378649003010953333e-01,-2.104334724071136031e-01,-1.056108433710841177e-01
3.270000000000000129e-01,7.064759043970715580e-02,-6.942947187442714829e-02,-5.411388233657390967e-02
3.280000000000000138e-01,-1.633343152608892623e-01,9.347382028152555200e-02,9.317876766238124275e-02
3.290000000000000147e-01,-2.483962521791761302e-01,2.004968603500978663e-01,1.585225296081027302e-01
3.300000000000000155e-01,-2.261707430444957201e-01,1.963502908502368083e-01,1.025031587244273484e-01
3.310000000000000164e-01,-5.641134058969845405e-02,7.679452236338149551e-02,5.257819852028579148e-03
3.320000000000000173e-01,1.131668100270906557e-01,-8.454766264663078623e-02,-8.917241132880597554e-02
3.330000000000000182e-01,2.598497188505979327e-01,-2.038396795633900804e-01,-1.570762218238985763e-01
3.340000000000000191e-01,2.433239223074439572e-01,-2.275529921798611632e-01,-1.234501505031958962e-01
3.350000000000000200e-01,4.159894084015702820e-02,-5.153868258685666975e-02,-4.976444411106113047e-02
3.360000000000000209e-01,-1.337931089537174878e-01,8.973784606554842391e-02,8.037348924065183808e-02
3.370000000000000218e-01,-2.776436081943888246e-01,1.935541038232990729e-01,1.794421775768812177e-01
3.380000000000000226e-01,-2.422720815487479640e-01,1.804796373481694916e-01,1.477533366498629819e-01
3.390000000000000235e-01,-9.205745023719645592e-02,7.267955166981149295e-02,3.762289663288544833e-02
3.400000000000000244e-01,1.250616365942569530e-01,-1.208670234117025788e-01,-8.098499974596368167e-02
3.410000000000000253e-01,2.592481343670275384e-01,-1.875196613140340807e-01,-1.463015710597960761e-01
3.420000000000000262e-01,2.410313530958295702e-01,-1.898263525617998049e-01,-1.434881094855944561e-01
3.430000000000000271e-01,7.090658846219487221e-02,-7.360190913915790056e-02,-6.216420356966954192e-02
3.439999999999999725e-01,-1.208185171645431433e-01,9.891299082567980849e-02,8.331685051859620550e-02
3.449999999999999734e-01,-2.773213702567058347e-01,2.084563011571736180e-01,1.455783522824021514e-01
3.459999999999999742e-01,-2.230367072299626885e-01,1.742608799510612927e-01,1.446237688772991914e-01
3.469999999999999751e-01,-5.075129932245458358e-02,3.086230132532177470e-02,5.925031475351399957e-02
3.479999999999999760e-01,1.226969892187503436e-01,-1.019762490169936475e-01,-5.227265574504762202e-02
3.489999999999999769e-01,2.570766798834153710e-01,-1.962882627069846286e-01,-1.384783998154597018e-01
3.499999999999999778e-01,2.449791950315428068e-01,-1.814225413441939161e-01,-1.447179484553968443e-01
3.509999999999999787e-01,9.822124578978733145e-02,-7.538764550881714432e-02,-5.371572104635004286e-02
3.519999999999999796e-01,-1.049373662065787721e-01,1.030118232300246683e-01,8.022852367712889066e-02
3.529999999999999805e-01,-2.556410474173521075e-01,2.097773405321063378e-01,1.498844520455944740e-01
3.539999999999999813e-01,-2.340958669022987770e-01,1.818665367337179983e-01,1.396579112053178695e-01
3.549999999999999822e-01,-8.828913459609759318e-02,8.109220109571654150e-03,4.954080359507971598e-02
3.559999999999999831e-01,1.011021922496415509e-01,-1.259389271233155028e-01,-3.169308717065420777e-02
3.569999999999999840e-01,2.463607445763541515e-01,-2.103994097449291001e-01,-1.533682284431963638e-01
3.579999999999999849e-01,2.433042739649992070e-01,-1.975466050243586125e-01,-1.575305183909004314e-01
3.589999999999999858e-01,7.850648127357374995e-02,-3.445873034146746533e-02,-4.241836687437879061e-02
3.599999999999999867e-01,-1.254394534537712214e-01,1.349308052123362744e-01,4.537675683095151319e-02
3.609999999999999876e-01,-2.360801919897675127e-01,2.132085628751941020e-01,1.238062077170502262e-01
3.619999999999999885e-01,-2.351218392239908528e-01,1.824299541512853229e-01,1.415458530143815785e-01
3.629999999999999893e-01,-8.760994159240700907e-02,3.963070080620681446e-02,7.800145074908973464e-02
3.639999999999999902e-01,1.267921174551167318e-01,-1.142623698585108483e-01,-5.649428505975567089e-02
3.649999999999999911e-01,2.638608936249285386e-01,-2.000191148566668187e-01,-1.227633408864882564e-01
3.659999999999999920e-01,2.336847317419606107e-01,-1.619792046672404173e-01,-1.820962313745166095e-01
3.669999999999999929e-01,8.334111496267594676e-02,-4.374882445530746400e-02,-8.244160100355107934e-02
3.679999999999999938e-01,-9.589901746573277486e-02,1.330256076728363324e-01,5.091649056524515105e-02
3.689999999999999947e-01,-2.415102736444123821e-01,1.989407333360785901e-01,1.278637833178440375e-01
3.699999999999999956e-01,-2.470036538245479474e-01,1.893178506542405604e-01,1.430877988124272526e-01
3.709999999999999964e-01,-7.720980691907949889e-02,4.026462299391255634e-02,9.760366594606040280e-02
3.719999999999999973e-01,1.148691046497902907e-01,-1.328745369612490124e-01,-7.772144867997609480e-03
3.729999999999999982e-01,2.650591586625585805e-01,-1.873555041396635645e-01,-1.359096881609818674e-01
3.739999999999999991e-01,2.333405240295636507e-01,-1.738342347350811112e-01,-1.695218245391613976e-01
3.750000000000000000e-01,8.683723238619577012e-02,-2.028247101480923700e-02,-1.028524286387294817e-01
3.760000000000000009e-01,-1.253062022406673526e-01,1.494020146665029081e-01,3.613788258317669061e-02
3.770000000000000018e-01,-2.444966999246566408e-01,2.528977970368070372e-01,1.271590426165453980e-01
3.780000000000000027e-01,-2.769146713065407939e-01,1.725586740492910942e-01,1.414277625575401098e-01
3.790000000000000036e-01,-1.022632825677686486e-01,7.867413474896261388e-03,1.057171192820978850e-01
3.800000000000000044e-01,1.033800703525413478e-01,-1.546484486610124331e-01,-2.462090825013683176e-02
3.810000000000000053e-01,2.436223989414165458e-01,-2.095011846936317979e-01,-1.420923922386655158e-01
3.820000000000000062e-01,2.698788673792279491e-01,-1.781475990791034358e-01,-1.613218730386613564e-01
3.830000000000000071e-01,9.651945006511440661e-02,-1.203056365284748026e-02,-1.112594161936652087e-01
3.840000000000000080e-01,-1.047350011660857921e-01,1.561558776474431809e-01,2.503160751729585284e-02
3.850000000000000089e-01,-2.534339019451076758e-01,2.212943262188997451e-01,1.259373006547551688e-01
3.860000000000000098e-01,-2.539713671897661507e-01,1.480898792511099182e-01,1.711465485644780571e-01
3.870000000000000107e-01,-1.070133152989007075e-01,-2.978324167612539028e-02,1.069234896255480682e-01
3.880000000000000115e-01,1.089765121829762706e-01,-1.369428717746210833e-01,4.642556410411559711e-03
3.890000000000000124e-01,2.431837417945911795e-01,-2.212717138755415647e-01,-1.070314454516872044e-01
3.900000000000000133e-01,2.356230367909387391e-01,-1.332704363810054138e-01,-1.692609841032007567e-01
3.910000000000000142e-01,1.300890025226539570e-01,1.157330168084588946e-02,-1.330291713868352599e-01
3.920000000000000151e-01,-1.174984427650062890e-01,1.497867148091966416e-01,-2.528138602624976482e-03
3.930000000000000160e-01,-2.627834247006888280e-01,2.084264467675506771e-01,9.818633913523773515e-02
3.940000000000000169e-01,-2.520754422479373758e-01,1.550203480634593234e-01,1.548949531135103697e-01
3.950000000000000178e-01,-1.135782078878213031e-01,5.831695119547569348e-03,1.115251827027355647e-01
3.960000000000000187e-01,8.577859154826736332e-02,-1.456173336080005543e-01,1.707960175767127275e-02
3.970000000000000195e-01,2.481587037888903224e-01,-1.994218134735198378e-01,-1.158789254317395268e-01
3.980000000000000204e-01,2.583135309881188224e-01,-1.559525690548747567e-01,-1.667754874018661515e-01
3.990000000000000213e-01,1.187447057552268315e-01,-1.904013596148642143e-02,-1.120382947817207681e-01
4.000000000000000222e-01,-8.916355609331559628e-02,1.495652823309206458e-01,-1.806394441025989742e-02
4.010000000000000231e-01,-2.339807734302922493e-01,2.079030186763366761e-01,9.455763118310357707e-02
4.020000000000000240e-01,-2.412890012933892880e-01,1.232378366320126123e-01,1.319274721836475872e-01
4.030000000000000249e-01,-1.175937009540229949e-01,8.873269757653709771e-04,1.500147375145998718e-01
4.040000000000000258e-01,9.329612694148929630e-02,-1.491784116893906387e-01,1.353247273114146360e-02
4.050000000000000266e-01,2.631486201362354116e-01,-1.941009707793840966e-01,-9.841859310087852641e-02
4.060000000000000275e-01,2.589146437644029852e-01,-1.344136591129652392e-01,-1.760804236358789188e-01
4.069999999999999729e-01,1.154485024214516320e-01,2.516750298097055263e-02,-1.533020091835338994e-01
4.079999999999999738e-01,-1.041772132069371665e-01,1.477303831497092934e-01,-2.112343805391339591e-02
4.089999999999999747e-01,-2.186508135278992793e-01,2.220830111663026074e-01,7.603267134981260555e-02
4.099999999999999756e-01,-2.519742875671667215e-01,1.437810653372202097e-01,1.585955168191554299e-01
4.109999999999999765e-01,-1.308585558891749989e-01,-2.186857389989218386e-02,1.395553977536617418e-01
4.119999999999999774e-01,8.282426804475530313e-02,-1.582159921710687422e-01,5.503591272008227786e-02
4.129999999999999782e-01,2.494537337204796590e-01,-2.139601595717765814e-01,-7.879912204142523746e-02
4.139999999999999791e-01,2.439623296194280422e-01,-1.431180909935179935e-01,-1.590841411589115351e-01
4.149999999999999800e-01,1.317960372226779919e-01,1.482822956186932890e-02,-1.322676843824544535e-01
4.159999999999999809e-01,-8.493647459386294285e-02,1.663405703473821717e-01,-3.558126052348754148e-02
4.169999999999999818e-01,-2.390036550427385442e-01,1.973886012863499684e-01,8.372891251191912076e-02
4.179999999999999827e-01,-2.582342569669640597e-01,1.186395460245116829e-01,1.548583706596313725e-01
4.189999999999999836e-01,-1.609429900706727534e-01,-2.452245823072259079e-02,1.494103305952412530e-01
4.199999999999999845e-01,8.350650516716481842e-02,-1.648213429727273249e-01,5.530276646494090842e-02
4.209999999999999853e-01,2.451697821159609658e-01,-2.028907602893251783e-01,-5.245401150620435105e-02
4.219999999999999862e-01,2.370430251694285173e-01,-1.456226853113823660e-01,-1.624016064987792718e-01
4.229999999999999871e-01,1.385589923053925643e-01,3.225423407529871139e-02,-1.587552239448245528e-01
4.239999999999999880e-01,-9.296661600688192750e-02,1.587504370260651443e-01,-3.051600363357626772e-02
4.249999999999999889e-01,-2.318831665387607044e-01,2.022334419474693945e-01,5.891695084464970700e-02
4.259999999999999898e-01,-2.511762587524594692e-01,1.233674652920399017e-01,1.530892441905487844e-01
4.269999999999999907e-01,-1.139792860570797012e-01,-1.942907943584220101e-02,1.726036003472539437e-01
4.279999999999999916e-01,7.086636869078277723e-02,-1.858215020581752974e-01,6.288814374283568931e-02
4.289999999999999925e-01,2.227979619679593959e-01,-2.082928126728288143e-01,-7.269475097101439631e-02
4.299999999999999933e-01,2.706908635394367768e-01,-1.272781462052218204e-01,-1.516056666906273331e-01
4.309999999999999942e-01,1.315795443967432143e-01,3.431733725090830439e-02,-1.680083014143195774e-01
4.319999999999999951e-01,-7.593680501585675646e-02,1.655758263556416920e-01,-5.996392248152870169e-02
4.329999999999999960e-01,-2.240828672200620153e-01,2.123797074613667790e-01,5.044422222601189360e-02
4.339999999999999969e-01,-2.487111479482862764e-01,1.090315569854204969e-01,1.248153452882640180e-01
4.349999999999999978e-01,-1.519366443597298943e-01,-1.539015889348751068e-02,1.604695169043521552e-01
4.359999999999999987e-01,7.722918292442651489e-02,-1.688838928265632422e-01,8.510706905359712027e-02
4.369999999999999996e-01,2.070030195804830886e-01,-2.226140798353538897e-01,-1.169790807433112971e-02
4.380000000000000004e-01,2.331361176021964077e-01,-1.215689413952634468e-01,-1.148769049186298269e-01
4.390000000000000013e-01,1.475207451145238435e-01,4.953536986825402000e-02,-1.601218961476404690e-01
4.400000000000000022e-01,-6.246913560120881392e-02,1.541492410843048888e-01,-8.452920328433444208e-02
4.410000000000000031e-01,-2.222526968360500343e-01,2.230459624706586375e-01,4.787904956424895997e-02
4.420000000000000040e-01,-2.861774859539537585e-01,1.093902137023786691e-01,1.298450082847245335e-01
4.430000000000000049e-01,-1.417755164419720049e-01,-4.457171628585061135e-02,1.522052057786437429e-01
4.440000000000000058e-01,3.785808998575623113e-02,-1.671713832659428300e-01,9.993843841772880043e-02
4.450000000000000067e-01,2.182406021914676808e-01,-2.062755692674960450e-01,-3.897417059915030124e-02
4.460000000000000075e-01,2.609001400195457565e-01,-1.140013675277245925e-01,-1.138102622311924911e-01
4.470000000000000084e-01,1.496629982292173866e-01,5.212254143762420910e-02,-1.495973847793208300e-01
4.480000000000000093e-01,-6.316970235791366517e-02,1.906949528502755176e-01,-9.925537522946686897e-02
4.490000000000000102e-01,-2.346129672202156569e-01,2.162338563954999404e-01,8.630515102560876520e-03
4.500000000000000111e-01,-2.724033753383645617e-01,1.051002233086332921e-01,1.368381680901125663e-01
4.510000000000000120e-01,-1.434572581439363392e-01,-4.521838308108967752e-02,1.656556786078228483e-01
4.520000000000000129e-01,5.039095133388312581e-02,-1.890889008454139930e-01,1.239397021069717220e-01
4.530000000000000138e-01,2.083940251504116103e-01,-2.019865011873597516e-01,3.046116590032830942e-03
4.540000000000000147e-01,2.502447122169855764e-01,-9.516429878718758728e-02,-1.037323147104990267e-01
4.550000000000000155e-01,1.350990697388876616e-01,7.473869857522455473e-02,-1.240692023518623899e-01
4.560000000000000164e-01,-6.614083224478574385e-02,1.785573953438989725e-01,-1.026790254864416302e-01
4.570000000000000173e-01,-2.007535637654953298e-01,2.139773349029151783e-01,1.894335017629724532e-02
4.580000000000000182e-01,-2.594414382431416977e-01,9.635819602192664812e-02,1.293680598498506140e-01
4.590000000000000191e-01,-1.715485840393706218e-01,-4.104638804374384498e-02,1.318193904539584072e-01
4.600000000000000200e-01,1.815758376129698523e-02,-1.696526584765782331e-01,1.214036486763442890e-01
4.610000000000000209e-01,2.023820124706459389e-01,-1.881126226795886425e-01,-2.283237126905869087e-03
4.620000000000000218e-01,2.462147453005749664e-01,-8.055260942975901728e-02,-1.154321398604492566e-01
4.630000000000000226e-01,1.640633167537956794e-01,6.711562897885964274e-02,-1.352562247374693161e-01
4.640000000000000235e-01,-2.661736753630361205e-02,1.836529350509210901e-01,-1.049345791704549974e-01
4.650000000000000244e-01,-1.991849750580302891e-01,2.164321135721462563e-01,-4.445688735651475224e-03
4.660000000000000253e-01,-2.566480320260924319e-01,8.436555793830920191e-02,1.219001969992588724e-01
4.670000000000000262e-01,-1.516402545389706757e-01,-5.915259936263900231e-02,1.726459360977627144e-01
4.680000000000000271e-01,4.553000188499548712e-02,-1.736892858790856919e-01,1.211320469526590837e-01
4.689999999999999725e-01,2.042143084823837274e-01,-2.148749543689959518e-01,-7.727271875391243834e-03
4.699999999999999734e-01,2.626723463495606037e-01,-7.596725942615202565e-02,-9.616410258978852488e-02
4.709999999999999742e-01,1.633047459814886970e-01,7.915711805135570989e-02,-1.605538471244002396e-01
4.719999999999999751e-01,-5.971492173337876463e-02,1.934778177402766974e-01,-1.277730536719454413e-01
4.729999999999999760e-01,-1.898609054105193650e-01,2.036934620854954914e-01,9.956165387242924686e-03
4.739999999999999769e-01,-2.598444113832441560e-01,7.686555464160166329e-02,8.941688658962877734e-02
4.749999999999999778e-01,-1.607599717545596940e-01,-6.891793988901692702e-02,1.498706792846110636e-01
4.759999999999999787e-01,4.804814364851222458e-02,-2.077911097325954859e-01,1.265716309917556959e-01
4.769999999999999796e-01,2.187022639782893463e-01,-1.957633751849513493e-01,2.544457637557031096e-02
4.779999999999999805e-01,2.622669939086799129e-01,-7.363437030882309664e-02,-1.019325026553697805e-01
4.789999999999999813e-01,1.799892932710057958e-01,1.015455733692798984e-01,-1.758963654670021026e-01
4.799999999999999822e-01,-7.245722512197753408e-03,2.074946295087182757e-01,-1.410677646585710987e-01
4.809999999999999831e-01,-2.155600058995610080e-01,1.967569630770988898e-01,-4.732275743445122501e-02
4.819999999999999840e-01,-2.652438029807042130e-01,7.946883048293275353e-02,1.098288194108321819e-01
4.829999999999999849e-01,-1.698968329252449894e-01,-1.004744446223043847e-01,1.375669225957691366e-01
4.839999999999999858e-01,2.248880428895217234e-02,-2.253745653678118632e-01,1.309661985504578241e-01
4.849999999999999867e-01,1.987526086427578720e-01,-1.983070681691383730e-01,5.562076386947405193e-02
4.859999999999999876e-01,2.589439100143732797e-01,-8.121486755471611640e-02,-7.125804252969235308e-02
4.869999999999999885e-01,1.573017903630756775e-01,9.517678181359306988e-02,-1.774106778521354899e-01
4.879999999999999893e-01,-2.268804302527781952e-02,1.918505635354121053e-01,-1.593504712156179892e-01
4.889999999999999902e-01,-2.107105329939578109e-01,1.770052841782092656e-01,-3.649537272638632424e-02
4.899999999999999911e-01,-2.525739151919672576e-01,7.533551685187803160e-02,6.964413470969306463e-02
4.909999999999999920e-01,-1.657334917401073748e-01,-8.821001688763824289e-02,1.652357065289147831e-01
4.919999999999999929e-01,1.219433896409492964e-02,-1.862040665114368110e-01,1.466391825883783528e-01
4.929999999999999938e-01,2.184983019833211804e-01,-1.830123277450824149e-01,5.709938768478748511e-02
4.939999999999999947e-01,2.580193533253703486e-01,-5.568700250745382135e-02,-7.059296358058046728e-02
4.949999999999999956e-01,1.658932015493914114e-01,1.059381051685178710e-01,-1.668295427919379570e-01
4.959999999999999964e-01,-3.273160018562179530e-02,2.080162998945861152e-01,-1.482913935935921412e-01
4.969999999999999973e-01,-1.867722948830054519e-01,1.860295223797605313e-01,-5.567804652563886070e-02
4.979999999999999982e-01,-2.874706006103742162e-01,5.547466997939715094e-02,6.752205536869285152e-02
4.989999999999999991e-01,-1.551663421980451207e-01,-9.422262961229915801e-02,1.279509081015207661e-01
5.000000000000000000e-01,-9.265061359056733781e-03,-2.130087248132093436e-01,1.764875000928476934e-01
5.010000000000000009e-01,1.829076104979830697e-01,-1.975550992645079829e-01,6.559313027807701924e-02
5.020000000000000018e-01,2.752755908156950260e-01,-6.565958909428037948e-02,-4.671301688564186844e-02
5.030000000000000027e-01,1.886984075184461318e-01,1.075178973522601805e-01,-1.624984670665663988e-01
5.040000000000000036e-01,1.938311444593878927e-02,2.010430567631530663e-01,-1.667356623624396128e-01
5.050000000000000044e-01,-1.800828281404312781e-01,1.892431041898533506e-01,-9.194005572523174241e-02
5.060000000000000053e-01,-2.900202454713831646e-01,4.596159711656423730e-02,4.032014168177824875e-02
5.070000000000000062e-01,-2.100027174188804635e-01,-1.000351282510730383e-01,1.311370495260710811e-01
5.080000000000000071e-01,-1.241074351213822605e-02,-2.084626305719750883e-01,1.381374317471787128e-01
5.090000000000000080e-01,2.005941696003714081e-01,-1.850038683245601445e-01,6.923218763432864575e-02
5.100000000000000089e-01,2.669460947748896751e-01,-5.641267133894851959e-02,-2.954898437231557110e-02
5.110000000000000098e-01,1.815046142626776104e-01,1.059806627615947211e-01,-1.320452803624613536e-01
5.120000000000000107e-01,-1.552898008113394457e-02,1.933444038638146012e-01,-1.615055752607024164e-01
5.130000000000000115e-01,-2.012120241937451481e-01,1.719880933212009633e-01,-1.140546002349975968e-01
5.140000000000000124e-01,-2.595654272083793290e-01,5.400723503249635349e-02,3.708319048196995898e-02
5.150000000000000133e-01,-1.931266110106252820e-01,-1.130054824612533593e-01,1.617092948123668439e-01
5.160000000000000142e-01,-7.066789756959244821e-03,-2.084009405305629614e-01,1.561691337387987044e-01
5.170000000000000151e-01,1.780009997230652952e-01,-1.755050279877001795e-01,9.410487295833963595e-02
5.180000000000000160e-01,2.445465668346364918e-01,-2.616517953255173556e-02,-4.509798460293008848e-02
5.190000000000000169e-01,1.569610918941708733e-01,1.044588546228632786e-01,-1.324037517466946368e-01
5.200000000000000178e-01,2.374690169601004208e-02,2.339531585657812496e-01,-1.685191032656594978e-01
5.210000000000000187e-01,-1.971404532902602813e-01,1.818692004803629525e-01,-7.167277961042543832e-02
5.220000000000000195e-01,-2.789016467152837797e-01,5.733786944816499087e-02,8.420575380164800269e-03
5.230000000000000204e-01,-1.819318781869514179e-01,-1.232977287897576851e-01,1.376498767740996498e-01
5.240000000000000213e-01,-2.244080593066018897e-02,-1.849548551986034961e-01,1.336109591713492140e-01
5.250000000000000222e-01,2.003734681512993054e-01,-1.919457179152454229e-01,1.003758389889645719e-01
5.260000000000000231e-01,2.632409395648523387e-01,-4.963555727666865702e-02,-1.433362009425171585e-02
5.270000000000000240e-01,1.871243595816069749e-01,1.252928490962687269e-01,-1.419275730002887981e-01
5.280000000000000249e-01,1.639187293005723786e-02,2.014135727191726788e-01,-1.495299504665046353e-01
5.290000000000000258e-01,-1.791333623031850508e-01,1.870178930942918982e-01,-1.012824034962014758e-01
5.300000000000000266e-01,-2.805656601453399013e-01,1.424716290846353775e-02,6.373387151631998947e-03
5.310000000000000275e-01,-2.062702179967105809e-01,-1.335502190800285094e-01,1.186280991730800372e-01
5.320000000000000284e-01,-2.158708390396230168e-03,-2.180267415833088140e-01,1.406596896343421388e-01
5.330000000000000293e-01,1.603142583508511687e-01,-1.523608666730429939e-01,9.379857397708828148e-02
5.340000000000000302e-01,2.704148029942524123e-01,-1.341344318368514407e-02,-3.149834678692500431e-03
5.350000000000000311e-01,1.848107445843439889e-01,1.544571622792222099e-01,-1.049922227533059416e-01
5.360000000000000320e-01,1.926727454965536032e-02,1.993663688172261361e-01,-1.530278584230105599e-01
5.370000000000000329e-01,-1.757263138471784336e-01,1.710696067150729027e-01,-1.104237167889017268e-01
5.380000000000000338e-01,-2.665737571390432992e-01,5.751902239258494670e-03,-9.099039449060504232e-04
5.390000000000000346e-01,-1.991965249720205888e-01,-1.024623595841791107e-01,1.261684887366519847e-01
5.400000000000000355e-01,-1.184247539010425086e-02,-2.246310862890300297e-01,1.606536606977655990e-01
5.410000000000000364e-01,1.510316006198108296e-01,-1.621248860598954455e-01,1.123237907135469088e-01
5.420000000000000373e-01,2.706302350344323426e-01,-9.639809420983003554e-05,5.843735336412854246e-03
5.430000000000000382e-01,2.056200703232395344e-01,1.356496512568751700e-01,-9.831074260520342167e-02
5.440000000000000391e-01,2.192507708254885779e-02,2.211897162292673635e-01,-1.515944942393207540e-01
5.450000000000000400e-01,-1.659155804235455389e-01,1.511267837625968891e-01,-1.359418512682380176e-01
5.460000000000000409e-01,-2.523381536920809021e-01,1.034076012672450855e-02,-6.091756414374955610e-03
5.470000000000000417e-01,-2.028149448233544094e-01,-1.405567501399354324e-01,9.549351953415365080e-02
5.480000000000000426e-01,-2.690361596231700264e-02,-2.030000121718692208e-01,1.494370464372667684e-01
5.490000000000000435e-01,1.692000942774226913e-01,-1.678404683242790685e-01,1.301902045284029641e-01
5.500000000000000444e-01,2.661007068904394646e-01,-3.514404125653938088e-02,8.733286850576182231e-03
5.510000000000000453e-01,2.314309453691753005e-01,1.339828872591024844e-01,-8.798274816201163973e-02
5.520000000000000462e-01,5.024710754768251658e-02,2.174116573953820131e-01,-1.544696966354258127e-01
5.530000000000000471e-01,-1.759989722441598625e-01,1.588900520801395377e-01,-1.308162599643334367e-01
5.540000000000000480e-01,-2.516891331120389985e-01,2.857426226107548026e-02,-3.013930420625846041e-02
5.550000000000000488e-01,-2.035592232134108281e-01,-1.528569930906899799e-01,9.194096330965878527e-02
5.560000000000000497e-01,-3.368874248494452273e-02,-2.049398899638615323e-01,1.478077003234345710e-01
5.570000000000000506e-01,1.599298575777811648e-01,-1.659514534840030586e-01,1.484312025960673187e-01
5.580000000000000515e-01,2.704943212408361664e-01,2.960589710541345395e-03,6.284769527097726349e-02
5.590000000000000524e-01,2.157345171218846835e-01,1.592765009994261127e-01,-6.276374598416527284e-02
5.600000000000000533e-01,3.218679227798069281e-02,2.135808505758295117e-01,-1.617738297929482427e-01
5.610000000000000542e-01,-1.713334707235641130e-01,1.483466706925929690e-01,-1.532771352508342511e-01
5.620000000000000551e-01,-2.689478727872383068e-01,2.306261629838038049e-02,-2.926964642070467928e-02
5.629999999999999449e-01,-2.158819874409784456e-01,-1.568857632619821973e-01,7.381659129916899598e-02
5.639999999999999458e-01,-3.618884866744655204e-02,-2.270487217630456356e-01,1.744364746705608371e-01
5.649999999999999467e-01,1.619131768560877760e-01,-1.412806162415268518e-01,1.458746981915778340e-01
5.659999999999999476e-01,2.592842838169606146e-01,1.553428345101300935e-02,5.179331905751082682e-02
5.669999999999999485e-01,2.071115201008301987e-01,1.487925957569551094e-01,-6.538328999622609883e-02
5.679999999999999494e-01,4.888515240903950482e-02,2.189876078179765484e-01,-1.631739778057496870e-01
5.689999999999999503e-01,-1.691898565211576722e-01,1.349639102697392790e-01,-1.272223964469658963e-01
5.699999999999999512e-01,-2.513876871209808628e-01,-1.467682354697758505e-02,-5.795052304175810076e-02
5.709999999999999520e-01,-2.115552469242691636e-01,-1.438250747962733778e-01,6.587481026947442087e-02
5.719999999999999529e-01,-3.687658348861330010e-02,-2.152900734475734212e-01,1.464378608671350890e-01
5.729999999999999538e-01,1.515005386603710535e-01,-1.358521743244389401e-01,1.510140625813651827e-01
5.739999999999999547e-01,2.449579111538891796e-01,5.124430942713489867e-03,7.371200008089792699e-02
5.749999999999999556e-01,2.162625961338171254e-01,1.739345267730142142e-01,-7.174106131009275189e-02
5.759999999999999565e-01,5.733733810026043348e-02,2.316623774154626947e-01,-1.387441646906756032e-01
5.769999999999999574e-01,-1.790293353562382173e-01,1.518249649816424685e-01,-1.343254166082373524e-01
5.779999999999999583e-01,-2.806387638898940051e-01,-2.869283727857832242e-02,-7.182008088945306123e-02
5.789999999999999591e-01,-2.347187248775407242e-01,-1.688346178375734752e-01,5.089994926111095913e-02
5.799999999999999600e-01,-6.194882974649260771e-02,-2.250440140436565650e-01,1.223434279067731612e-01
5.809999999999999609e-01,1.476350498214263618e-01,-1.354932289526424305e-01,1.485190773367478512e-01
5.819999999999999618e-01,2.723603971074703423e-01,2.200303479893552655e-02,9.587764019846836683e-02
5.829999999999999627e-01,2.103431232218555824e-01,1.683274688364213012e-01,-3.491490610207840378e-02
5.839999999999999636e-01,6.462315569103252444e-02,2.019920431457143395e-01,-1.295230008119577503e-01
5.849999999999999645e-01,-1.563048903978541682e-01,1.303108940299617935e-01,-1.638580138427596922e-01
5.859999999999999654e-01,-2.528112201244596124e-01,-3.587712660811367277e-02,-9.850088440402568479e-02
5.869999999999999662e-01,-2.296156673682057947e-01,-1.944703228256065286e-01,4.239172557560558219e-02
5.879999999999999671e-01,-7.559187057811758703e-02,-1.984129635166747840e-01,1.212614868578759247e-01
5.889999999999999680e-01,1.378569840999680773e-01,-1.377417702021382362e-01,1.728152110820432574e-01
5.899999999999999689e-01,2.681738464618370621e-01,1.991728456026869640e-02,9.026706244869318885e-02
5.909999999999999698e-01,2.358205143812648341e-01,1.636142365802021326e-01,-4.250892448430906856e-02
5.919999999999999707e-01,6.780611110254562701e-02,2.041394711957010000e-01,-1.217952762946177547e-01
5.929999999999999716e-01,-1.328763427906479722e-01,1.022138941647307009e-01,-1.766418608725067452e-01
5.939999999999999725e-01,-2.765050244210028874e-01,-2.516236566275375716e-02,-1.238534664325473961e-01
5.949999999999999734e-01,-2.257438068817345656e-01,-1.878150629482938927e-01,2.701874679512106942e-02
5.959999999999999742e-01,-5.620361439199841186e-02,-1.930934697150346047e-01,1.128770925398093067e-01
5.969999999999999751e-01,1.427122864603133923e-01,-1.128331135367796334e-01,1.602294490480260791e-01
5.979999999999999760e-01,2.747861280290944674e-01,3.925002024813628587e-02,1.075483431868975021e-01
5.989999999999999769e-01,2.136695514911372273e-01,1.887085151563543395e-01,-2.030392923836505867e-02
5.999999999999999778e-01,9.439589134919582070e-02,2.124068678775644647e-01,-1.048501532242300943e-01
6.009999999999999787e-01,-1.485929282387342953e-01,1.040807343239090882e-01,-1.774206139424185646e-01
6.019999999999999796e-01,-2.527335327903997286e-01,-5.364896607298708098e-02,-1.096774701898847321e-01
6.029999999999999805e-01,-2.193825887243701367e-01,-1.929593495044552853e-01,5.502412461795919141e-03
6.039999999999999813e-01,-5.453370202803107386e-02,-1.909915604785431542e-01,9.502277194949729222e-02
6.049999999999999822e-01,1.581374789961237370e-01,-1.368904291531004014e-01,1.613941102969686792e-01
6.059999999999999831e-01,2.336425360772261262e-01,2.359933037240762727e-02,1.199063603572707581e-01
6.069999999999999840e-01,2.489578503185492786e-01,1.842295070052865913e-01,-1.311584358508263368e-02
6.079999999999999849e-01,6.948537944034424707e-02,1.833727120286892942e-01,-1.129026811226159777e-01
6.089999999999999858e-01,-1.174546425458722620e-01,1.156931394687033127e-01,-1.610383638686331553e-01
6.099999999999999867e-01,-2.672129011153336897e-01,-5.845472240828509386e-02,-1.297146860660947643e-01
6.109999999999999876e-01,-2.214779910308998234e-01,-1.851917642548515097e-01,-1.712903383459708426e-03
6.119999999999999885e-01,-7.955645197956803805e-02,-1.836602257792499249e-01,8.867783139128047887e-02
6.129999999999999893e-01,1.409618848409414649e-01,-1.134621313127362335e-01,1.615305095151889081e-01
6.139999999999999902e-01,2.783241247375377037e-01,7.616242566245760848e-02,1.145698164622576259e-01
6.149999999999999911e-01,2.250523530726818433e-01,1.636809704873655180e-01,2.346962672202346570e-02
6.159999999999999920e-01,6.736440326769820020e-02,2.117855932611873992e-01,-1.090116844574896687e-01
6.169999999999999929e-01,-1.112457842305082656e-01,9.483442771388135573e-02,-1.589543657727090498e-01
6.179999999999999938e-01,-2.628134456668729246e-01,-5.776533096730442768e-02,-1.271079569981893032e-01
6.189999999999999947e-01,-2.271338547262510277e-01,-1.909565833908704047e-01,-1.756803634270931794e-02
6.199999999999999956e-01,-8.788657679722679250e-02,-2.047949579752914862e-01,1.116433243696989958e-01
6.209999999999999964e-01,1.132010982291921930e-01,-1.200662926573022038e-01,1.539240105118635515e-01
6.219999999999999973e-01,2.461079568848394128e-01,8.550071781516491165e-02,1.427071383305785479e-01
6.229999999999999982e-01,2.271251284925977776e-01,1.775919365179822185e-01,1.819907410991884744e-02
6.239999999999999991e-01,7.873218317533905997e-02,1.848947178341875108e-01,-1.016701440432035419e-01
6.250000000000000000e-01,-1.278460987521984060e-01,9.794753463007020711e-02,-1.354030164366465117e-01
6.260000000000000009e-01,-2.794121288225296929e-01,-8.037402143398700294e-02,-1.330443939368012585e-01
6.270000000000000018e-01,-2.393136790562923610e-01,-2.110957911968375511e-01,-4.197243322890082534e-02
6.280000000000000027e-01,-9.192384846034706847e-02,-1.995831565985291545e-01,8.391482843126626956e-02
6.290000000000000036e-01,1.015783579013854881e-01,-6.603610021108545503e-02,1.673392648456316079e-01
6.300000000000000044e-01,2.497480118491115508e-01,7.072422748733656062e-02,1.415621034248701338e-01
6.310000000000000053e-01,2.313676431444293413e-01,1.731561335872544571e-01,3.812483589864427980e-02
6.320000000000000062e-01,1.054393803677453750e-01,1.975784049339969206e-01,-7.440553521951255578e-02
6.330000000000000071e-01,-1.112051057838606000e-01,8.543947972301478566e-02,-1.383030874049084591e-01
6.340000000000000080e-01,-2.389950040635440420e-01,-6.689022351338079486e-02,-1.355122129886265070e-01
6.350000000000000089e-01,-2.341839092849408721e-01,-2.063094710190140624e-01,-3.271377495897071636e-02
6.360000000000000098e-01,-7.798556943311119038e-02,-2.151758732904957838e-01,9.557052141183164373e-02
6.370000000000000107e-01,1.241884259730490631e-01,-7.992722907517077480e-02,1.480037675055710100e-01
6.380000000000000115e-01,2.513083022727850557e-01,7.885189827965372045e-02,1.382489433371562604e-01
6.390000000000000124e-01,2.451714143669273538e-01,2.087568440028227945e-01,4.269332882171936877e-02
6.400000000000000133e-01,9.229917607463497542e-02,1.936116238478026719e-01,-8.513983402877040030e-02
6.410000000000000142e-01,-1.097175586317957890e-01,8.339779357928109316e-02,-1.501637735631932979e-01
6.420000000000000151e-01,-2.505367059182064815e-01,-7.478328324145856743e-02,-1.631195860881009263e-01
6.430000000000000160e-01,-2.345405118299940805e-01,-1.934650907704980327e-01,-3.973823119463463366e-02
6.440000000000000169e-01,-1.052630778077388168e-01,-1.931081456151272913e-01,5.539252989280092632e-02
6.450000000000000178e-01,8.235023112356019970e-02,-7.500319265271175595e-02,1.356587830260602145e-01
6.460000000000000187e-01,2.635250099159744952e-01,6.835967442246877745e-02,1.460934364542235964e-01
6.470000000000000195e-01,2.535054128052660616e-01,1.769747624180717793e-01,5.745711961118120381e-02
6.480000000000000204e-01,1.087556959801070922e-01,2.026054488492625705e-01,-6.781984663187171081e-02
6.490000000000000213e-01,-9.289195993329542322e-02,8.072760326791686425e-02,-1.652513351220314952e-01
6.500000000000000222e-01,-2.614902188721244802e-01,-8.837172371706518426e-02,-1.529660462047089942e-01
6.510000000000000231e-01,-2.462309405502285109e-01,-2.127681985911654416e-01,-5.408603570039514224e-02
6.520000000000000240e-01,-1.049108670055626802e-01,-1.895796180298415234e-01,2.201429297804679067e-02
6.530000000000000249e-01,1.187413364728774484e-01,-7.284365689201836858e-02,1.159910771478225855e-01
6.540000000000000258e-01,2.543513285072470653e-01,9.840452022660726994e-02,1.477829450427755875e-01
6.550000000000000266e-01,2.479269779966942200e-01,1.898687125411907539e-01,7.666762279024348647e-02
6.560000000000000275e-01,1.199529050995120222e-01,1.812206109635441098e-01,-5.239857190169355805e-02
6.570000000000000284e-01,-9.579223724369857751e-02,4.712521165744850554e-02,-1.375832651327598133e-01
6.580000000000000293e-01,-2.594932994896305689e-01,-9.867139421516452069e-02,-1.579008721496183987e-01
6.590000000000000302e-01,-2.447348925349815130e-01,-2.047018768361615615e-01,-6.443258723441917801e-02
6.600000000000000311e-01,-1.095932855945292161e-01,-1.949172596520939993e-01,4.714763473998503929e-02
6.610000000000000320e-01,8.979904553653354771e-02,-4.952842809104224947e-02,1.317722278890041121e-01
6.620000000000000329e-01,2.599139097693648481e-01,1.033564211207396999e-01,1.725311785642793805e-01
6.630000000000000338e-01,2.624226082587822195e-01,2.217771219943236727e-01,1.098021998951154571e-01
6.640000000000000346e-01,1.292789523427911313e-01,1.853362898788861735e-01,-4.682501738573138089e-02
6.650000000000000355e-01,-9.080499969675770444e-02,4.917451556398349383e-02,-1.204819809120440954e-01
6.660000000000000364e-01,-2.657557901609912676e-01,-1.162816497412161726e-01,-1.475782491791134410e-01
6.670000000000000373e-01,-2.607649779429533354e-01,-1.942314762108842685e-01,-5.904476766098704782e-02
6.680000000000000382e-01,-9.788510682447847111e-02,-1.731020619667994476e-01,2.791458589419277408e-02
6.690000000000000391e-01,9.309218771390692648e-02,-5.897522491659414057e-02,1.644319493698342127e-01
6.700000000000000400e-01,2.355461914857221450e-01,1.087526264285715444e-01,1.698670029300977657e-01
6.710000000000000409e-01,2.685196919888581113e-01,2.032139280938578818e-01,1.179942101042255193e-01
6.720000000000000417e-01,9.942583152030144700e-02,1.728255255223508369e-01,-1.509047168359419454e-02
6.730000000000000426e-01,-7.276717906142045333e-02,2.732830021065324119e-02,-1.093020163051918597e-01
6.740000000000000435e-01,-2.412074249022686523e-01,-1.117206114234508552e-01,-1.514500421971514410e-01
6.750000000000000444e-01,-2.472596985229039146e-01,-1.926187028947108637e-01,-1.055610454704848655e-01
6.760000000000000453e-01,-1.364700290875715538e-01,-1.873546623924475241e-01,7.651620443594709178e-03
6.770000000000000462e-01,8.589995510830193692e-02,-4.292125790526586659e-02,1.018933987052218632e-01
6.780000000000000471e-01,2.330200842163003550e-01,1.302631206584725920e-01,1.532359637677039310e-01
6.790000000000000480e-01,2.612583259872633401e-01,2.169090552486087897e-01,1.183021790124147432e-01
6.800000000000000488e-01,1.223155883863955434e-01,1.589992879304632234e-01,-6.694725266429479502e-03
6.810000000000000497e-01,-8.852000405072778244e-02,4.368350146178634485e-02,-1.153766964117950850e-01
6.820000000000000506e-01,-2.303229640356254659e-01,-1.268694388935302231e-01,-1.815913101011468467e-01
6.830000000000000515e-01,-2.723621281615658529e-01,-2.004588092243543285e-01,-1.172139374543906265e-01
6.840000000000000524e-01,-1.344554354677436336e-01,-1.907405171320507298e-01,6.053385423139849217e-03
6.850000000000000533e-01,8.560088070377094849e-02,-4.418162544934012281e-02,8.864760292161971700e-02
6.860000000000000542e-01,2.251967578580704732e-01,1.168319266332112361e-01,1.480728532705432032e-01
6.870000000000000551e-01,2.471693056023492319e-01,2.081459599145210893e-01,1.181115819106928200e-01
6.879999999999999449e-01,1.370545365698376539e-01,1.767791126165217663e-01,3.355065976139610245e-02
6.889999999999999458e-01,-8.342540024572120405e-02,5.459460920582773213e-02,-1.226153362386447065e-01
6.899999999999999467e-01,-2.372669299907358142e-01,-1.094188812575653397e-01,-1.360165759215217485e-01
6.909999999999999476e-01,-2.503212420947629191e-01,-2.407712291960373840e-01,-1.193591717059264284e-01
6.919999999999999485e-01,-1.257379057229012775e-01,-1.386083277296357996e-01,-4.514327706150492170e-02
6.929999999999999494e-01,6.774061004107796713e-02,-1.484158222510763986e-02,9.393750758666895295e-02
6.939999999999999503e-01,2.478007329900336064e-01,1.047255181158386617e-01,1.554365816124569644e-01
6.949999999999999512e-01,2.736785072643880823e-01,2.003500615704513488e-01,1.212513143807590343e-01
6.959999999999999520e-01,1.457521438479998932e-01,1.697639561619427029e-01,4.170571306390782190e-02
6.969999999999999529e-01,-6.633988081689951022e-02,1.993693712860285586e-02,-8.620438217501787126e-02
6.979999999999999538e-01,-2.361152584041902314e-01,-1.286225277826675839e-01,-1.423377151936645879e-01
6.989999999999999547e-01,-2.714566455789209631e-01,-2.117041267890188982e-01,-1.268393624687852994e-01
6.999999999999999556e-01,-1.371797419267815621e-01,-1.493021476127175950e-01,-1.381307038743695773e-02
7.009999999999999565e-01,5.871730803660278608e-02,-1.517225334457460682e-02,7.289710516371919469e-02
7.019999999999999574e-01,2.267343116240455869e-01,1.341817416962961529e-01,1.581804408314094190e-01
7.029999999999999583e-01,2.285722783569303640e-01,2.185332457015826957e-01,1.276785976715439919e-01
7.039999999999999591e-01,1.449755172159230276e-01,1.828894631225807810e-01,5.360080285360071389e-02
7.049999999999999600e-01,-3.981421006241276511e-02,-6.724963593468314890e-03,-7.159860015494255714e-02
7.059999999999999609e-01,-2.333240510347968921e-01,-1.569760597382476308e-01,-1.803118421890002876e-01
7.069999999999999618e-01,-2.418587481662582694e-01,-2.250682333377119759e-01,-1.618627800691144203e-01
7.079999999999999627e-01,-1.394915416207598013e-01,-1.546279230045578823e-01,-5.613726714416011898e-02
7.089999999999999636e-01,6.087386710135719164e-02,-2.741599831381215727e-02,4.902791704271177581e-02
7.099999999999999645e-01,2.167428927320003973e-01,1.698387049702456131e-01,1.316820509595679756e-01
7.109999999999999654e-01,2.467210365070031941e-01,2.053482229865822295e-01,1.509992471542352110e-01
7.119999999999999662e-01,1.421772055200557772e-01,1.468427251915185860e-01,4.122335493835543874e-02
7.129999999999999671e-01,-5.837743175470710283e-02,-1.426394360938586930e-02,-7.837718247790685655e-02
7.139999999999999680e-01,-2.451234485899556059e-01,-1.633748404899923734e-01,-1.423583560264270464e-01
7.149999999999999689e-01,-2.613564355775541137e-01,-1.979489405184265138e-01,-1.546551039729233135e-01
7.159999999999999698e-01,-1.469014905534063720e-01,-1.593525539052899342e-01,-7.283784449756959545e-02
7.169999999999999707e-01,4.171382772274947331e-02,-7.814706498809593062e-04,6.182534918914962124e-02
7.179999999999999716e-01,1.904370877574932952e-01,1.338000493382094924e-01,1.485527337173845608e-01
7.189999999999999725e-01,2.438725110497723669e-01,2.228664698470556593e-01,1.395445683454981378e-01
7.199999999999999734e-01,1.404728805113753531e-01,1.550666850631695903e-01,8.205041012839973946e-02
7.209999999999999742e-01,-5.576937224070588339e-02,1.147086269718199884e-03,-6.320987726535845508e-02
7.219999999999999751e-01,-2.227920268282437000e-01,-1.502372762404975415e-01,-1.440217196074132788e-01
7.229999999999999760e-01,-2.740341554851891126e-01,-2.296141855038279223e-01,-1.620520466510865787e-01
7.239999999999999769e-01,-1.351511599250734830e-01,-1.517247487902156911e-01,-6.419856379047943207e-02
7.249999999999999778e-01,3.361880012782137578e-02,1.447325057003834119e-03,6.609134375600225764e-02
7.259999999999999787e-01,2.190762963627699844e-01,1.372242157011067387e-01,1.292537106399279379e-01
7.269999999999999796e-01,2.734830374290747046e-01,2.104639486775106150e-01,1.519849485135770506e-01
7.279999999999999805e-01,1.581898828579259009e-01,1.373610983740783664e-01,8.673190818216081066e-02
7.289999999999999813e-01,-4.634498684186112716e-02,-1.070342860776731658e-02,-4.702742988943843516e-02
7.299999999999999822e-01,-2.009212006022906560e-01,-1.529432609610250071e-01,-1.495204553815259185e-01
7.309999999999999831e-01,-2.357350446780023534e-01,-2.021447675546770295e-01,-1.519539127491423280e-01
7.319999999999999840e-01,-1.479211235329662699e-01,-1.580340312527359070e-01,-7.803464607529848884e-02
7.329999999999999849e-01,5.699459543994561672e-02,4.161818649911838176e-03,5.656359190159268580e-02
7.339999999999999858e-01,2.145690810693380024e-01,1.593608681765733837e-01,1.163680442764329637e-01
7.349999999999999867e-01,2.635310742782822624e-01,2.309101272996227638e-01,1.649759103786174186e-01
7.359999999999999876e-01,1.409547811629441039e-01,1.221118695425110062e-01,1.202977654918489375e-01
7.369999999999999885e-01,-3.532840111038611230e-02,-8.002016137899787759e-03,-2.283371118287389270e-02
7.379999999999999893e-01,-2.128916499521107397e-01,-1.569700122160244127e-01,-1.376336112701476433e-01
7.389999999999999902e-01,-2.649876230932320387e-01,-1.824924063280148057e-01,-1.514356279845107123e-01
7.399999999999999911e-01,-1.708004775672389564e-01,-1.337690481174762802e-01,-7.676923624964741844e-02
7.409999999999999920e-01,2.985424619038789043e-02,1.135336942114680524e-02,1.834036698381343033e-02
7.419999999999999929e-01,2.122728709793904323e-01,1.602452446873923186e-01,1.234544221552235227e-01
7.429999999999999938e-01,2.650197031454184504e-01,2.073057053806557914e-01,1.729773445865770698e-01
7.439999999999999947e-01,1.678086123336819946e-01,1.366196942214447096e-01,1.037187971331184622e-01
7.449999999999999956e-01,-1.934405653777792472e-02,-1.955459437742966197e-02,-2.941139575888449681e-02
7.459999999999999964e-01,-2.042088532614105834e-01,-1.687876320655704032e-01,-1.184337655312668464e-01
7.469999999999999973e-01,-2.674314465893974924e-01,-2.168616886177300307e-01,-1.465210128795947919e-01
7.479999999999999982e-01,-1.788870419563107494e-01,-1.544540309413675316e-01,-1.129159743329194859e-01
7.489999999999999991e-01,2.234372544650801984e-02,2.932941198622000811e-02,-1.216732520295055880e-02
7.500000000000000000e-01,2.021836485879651701e-01,1.769176308148774079e-01,1.237464074542947157e-01
7.510000000000000009e-01,2.583335505042191893e-01,2.143828620555041919e-01,1.733483599935880803e-01
7.520000000000000018e-01,1.723268731357798789e-01,1.294874569998397673e-01,1.108321753796402687e-01
7.530000000000000027e-01,-2.522263152520029875e-02,-4.909539721126015416e-02,1.610358287447410941e-02
7.540000000000000036e-01,-2.041593493765053446e-01,-1.570852069605996881e-01,-1.203025880599745967e-01
7.550000000000000044e-01,-2.746366173558623114e-01,-2.072208134526694334e-01,-1.353862941138923859e-01
7.560000000000000053e-01,-1.951592528539398408e-01,-1.181883972349883072e-01,-7.423308914182900897e-02
7.570000000000000062e-01,1.804720389827172561e-02,4.479438489206750279e-02,-3.077693432166200491e-02
7.580000000000000071e-01,2.025164449083839691e-01,1.796014993806138715e-01,1.128407640953087709e-01
7.590000000000000080e-01,2.554653327486456904e-01,1.733425393653287294e-01,1.428843064524006334e-01
7.600000000000000089e-01,1.716261414306118060e-01,1.159182699698579899e-01,1.121109807341905684e-01
7.610000000000000098e-01,-6.368354356604251885e-03,-3.549010533492518576e-02,1.639007016943755043e-02
7.620000000000000107e-01,-2.135967642266056732e-01,-1.844050997765867839e-01,-1.059860659800059002e-01
7.630000000000000115e-01,-2.508800453869836633e-01,-2.061298432455256346e-01,-1.507465598471771917e-01
7.640000000000000124e-01,-1.686798236256413230e-01,-1.299976226969848936e-01,-1.248387485810619063e-01
7.650000000000000133e-01,2.349015620088610104e-02,2.679344428209006271e-02,7.768035963239391418e-03
7.660000000000000142e-01,2.006006841336893387e-01,1.806336021782646017e-01,8.738121881496954679e-02
7.670000000000000151e-01,2.544723502648225666e-01,1.966265125587964846e-01,1.661181973756624963e-01
7.680000000000000160e-01,1.777974383253458357e-01,1.069293146394461602e-01,1.243649111136310437e-01
7.690000000000000169e-01,-1.604326393974035356e-02,-6.943486470475995764e-02,1.560092669317831270e-02
7.700000000000000178e-01,-2.249104207581960335e-01,-1.974023086703021179e-01,-8.324443843948686750e-02
7.710000000000000187e-01,-2.671180863371521164e-01,-2.128605056865437717e-01,-1.378301371711825873e-01
7.720000000000000195e-01,-1.577318912673261464e-01,-1.260124512201463709e-01,-1.486821441318346981e-01
7.730000000000000204e-01,-6.882264182529548684e-03,6.747009082350662046e-02,-3.739302178788341674e-02
7.740000000000000213e-01,1.943961844499350611e-01,1.898913729454846655e-01,9.819001156444522038e-02
7.750000000000000222e-01,2.533200398973398104e-01,2.150880701985550536e-01,1.583375471112382638e-01
7.760000000000000231e-01,1.973444356281232048e-01,1.122367659044825050e-01,1.185227965208427992e-01
7.770000000000000240e-01,-8.167176595423488242e-03,-7.397990690043325379e-02,3.833300308577522464e-02
7.780000000000000249e-01,-1.892681738256920820e-01,-1.948309508209100926e-01,-8.527352006562477493e-02
7.790000000000000258e-01,-2.690642219528558421e-01,-2.055211359198796661e-01,-1.590936076272062294e-01
7.800000000000000266e-01,-1.752967125603419607e-01,-7.367394898748669263e-02,-1.342041370204141715e-01
7.810000000000000275e-01,1.918766236453545854e-02,7.942286026691196266e-02,-6.306739541904772539e-02
7.820000000000000284e-01,1.995913424986008322e-01,1.888497637792586614e-01,6.485967057615214804e-02
7.830000000000000293e-01,2.574033507529286946e-01,2.033001695245942320e-01,1.542970154707785646e-01
7.840000000000000302e-01,2.115276800629780352e-01,1.238288082351109570e-01,1.228785363082783577e-01
7.850000000000000311e-01,-1.652386992742335345e-02,-9.812101811185404421e-02,6.796461785480539808e-02
7.860000000000000320e-01,-2.114511901705675434e-01,-1.918390366209001552e-01,-6.236776709374191457e-02
7.870000000000000329e-01,-2.543079631228546411e-01,-2.275961841560510124e-01,-1.766770222864842976e-01
7.880000000000000338e-01,-1.895213173331420087e-01,-8.004645515686249768e-02,-1.438296934606309307e-01
7.890000000000000346e-01,-5.568432983279815104e-03,6.949534762123824039e-02,-4.990029499202359997e-02
7.900000000000000355e-01,1.648637230308251933e-01,1.872835470191313301e-01,5.545602438654237409e-02
7.910000000000000364e-01,2.800402284303284417e-01,2.105977862595314332e-01,1.600496431835712330e-01
7.920000000000000373e-01,1.828507514205815476e-01,9.079988864172006124e-02,1.460290610405257372e-01
7.930000000000000382e-01,1.500164378817500470e-02,-6.214949491250688907e-02,8.212734348749510527e-02
7.940000000000000391e-01,-1.865749068826801360e-01,-1.622864080072738135e-01,-5.014553493354052122e-02
7.950000000000000400e-01,-2.643613674510255640e-01,-1.727899350695175085e-01,-1.696700061623247768e-01
7.960000000000000409e-01,-1.976676401651570603e-01,-9.399603279321715188e-02,-1.529309600253798695e-01
7.970000000000000417e-01,-2.086547807760236184e-02,7.968000940677745503e-02,-6.911265485015041787e-02
7.980000000000000426e-01,1.839483372943928885e-01,1.786339438082393816e-01,5.122833066777159744e-02
7.990000000000000435e-01,2.476341180534051278e-01,2.124470874460752112e-01,1.412251791516178634e-01
8.000000000000000444e-01,1.915669207734959634e-01,9.196067853198174047e-02,1.513919255317700274e-01
8.010000000000000453e-01,2.161312588507765045e-02,-8.145458375793433736e-02,3.788057345234556450e-02
8.020000000000000462e-01,-1.737188003891839971e-01,-1.808916151940943295e-01,-5.176373730129280037e-02
8.030000000000000471e-01,-2.535281124697466582e-01,-1.881993276744199362e-01,-1.433356297399073498e-01
8.040000000000000480e-01,-2.137847824001778418e-01,-7.107931291283571540e-02,-1.541633189332771159e-01
8.050000000000000488e-01,-1.081982335323595709e-02,6.237781133859342242e-02,-8.276889896759531684e-02
8.060000000000000497e-01,1.887722249396371066e-01,2.140967482752726414e-01,3.352060774329841675e-02
8.070000000000000506e-01,2.618743528238106077e-01,1.826426788613000896e-01,1.329735138246860016e-01
8.080000000000000515e-01,1.916415140875276091e-01,6.933306141382412913e-02,1.510788589866119969e-01
8.090000000000000524e-01,2.668280636960722318e-02,-6.057168912551839923e-02,1.049481689176889471e-01
8.100000000000000533e-01,-1.814194275443568594e-01,-2.050308579864729419e-01,-2.471183121916600139e-02
8.110000000000000542e-01,-2.799756452200697354e-01,-1.840590001694167033e-01,-1.328710965786112363e-01
8.120000000000000551e-01,-2.022972633972938694e-01,-5.833608990698149060e-02,-1.436685409410256575e-01
8.129999999999999449e-01,-5.860366571399272181e-03,9.434306661622406109e-02,-8.812174576319223296e-02
8.139999999999999458e-01,1.487122789645524135e-01,2.028512737180022951e-01,3.496567391323508051e-02
8.149999999999999467e-01,2.706954585173194650e-01,1.817227538676049192e-01,1.113125947814931627e-01
8.159999999999999476e-01,2.018414243410292519e-01,8.091860181692465959e-02,1.430069817535687682e-01
8.169999999999999485e-01,3.351970381396335991e-02,-9.478525775657674346e-02,1.090440458614741759e-01
8.179999999999999494e-01,-1.572502321629752897e-01,-1.890621001801520151e-01,1.096263043325174710e-03
8.189999999999999503e-01,-2.625731737175086011e-01,-2.225139551335771626e-01,-1.379539769321848075e-01
8.199999999999999512e-01,-2.026059163675318908e-01,-7.520397576130552486e-02,-1.643164222687026055e-01
8.209999999999999520e-01,-2.236261336615044323e-02,1.085308895401921186e-01,-1.001828021226712495e-01
8.219999999999999529e-01,1.898465985107673781e-01,1.947724345629867904e-01,2.937717305765912348e-02
8.229999999999999538e-01,2.710098931959578628e-01,1.950448958615739470e-01,9.527602900767023764e-02
8.239999999999999547e-01,2.126870928093844149e-01,4.074175801353294157e-02,1.275571188022543712e-01
8.249999999999999556e-01,2.206836077891631553e-02,-1.084149928602770735e-01,1.363193050873548751e-01
8.259999999999999565e-01,-1.529144839687148205e-01,-2.158407895260552600e-01,-2.003913036487851157e-02
8.269999999999999574e-01,-2.671221256476156714e-01,-1.872211065581777800e-01,-1.042341239207920933e-01
8.279999999999999583e-01,-2.092554945790452703e-01,-4.552663632887453404e-02,-1.747314431365639131e-01
8.289999999999999591e-01,-3.937266963979874079e-02,1.095379061380785807e-01,-9.965543352062752880e-02
8.299999999999999600e-01,1.573886191107432830e-01,2.250953120217158709e-01,-1.295278870341944315e-03
8.309999999999999609e-01,2.795798055937277482e-01,1.735741548816676083e-01,1.120398155435422399e-01
8.319999999999999618e-01,2.135821453921302460e-01,4.979978513555128466e-02,1.457991360562853334e-01
8.329999999999999627e-01,3.973286418162921829e-02,-1.166428017551287694e-01,1.240534150083815457e-01
8.339999999999999636e-01,-1.625808226194403738e-01,-2.129807525682602953e-01,1.376183949571756389e-02
8.349999999999999645e-01,-2.582942974604843789e-01,-1.678663439526564549e-01,-1.136407376137499314e-01
8.359999999999999654e-01,-2.270699373966199863e-01,-4.600459472218266371e-02,-1.475985802852824158e-01
8.369999999999999662e-01,-3.922056622958398214e-02,1.162168424874904238e-01,-1.370998261093790138e-01
8.379999999999999671e-01,1.509041658376424622e-01,2.131514932837418053e-01,-2.062102899126618677e-02
8.389999999999999680e-01,2.768575386750031786e-01,1.628786994836269042e-01,1.126900492642268492e-01
8.399999999999999689e-01,2.194781512381347721e-01,4.767552240307351002e-02,1.470053618908115367e-01
8.409999999999999698e-01,5.569926094469156153e-02,-1.103940408586547156e-01,1.141323611006602595e-01
8.419999999999999707e-01,-1.502842189666256378e-01,-2.149667937979335142e-01,1.091717584308359544e-02
8.429999999999999716e-01,-2.716174011048659298e-01,-1.737283090722317458e-01,-1.103733017740189670e-01
8.439999999999999725e-01,-1.898282637832645892e-01,-3.589986989429007347e-02,-1.665914286299128855e-01
8.449999999999999734e-01,-2.759375632662690661e-02,1.236462321371480100e-01,-1.314842522379590373e-01
8.459999999999999742e-01,1.564215528968926905e-01,2.111271943061155676e-01,-2.147951281772557744e-02
8.469999999999999751e-01,2.493894639236014787e-01,1.628772056736558504e-01,9.397512479626474180e-02
8.479999999999999760e-01,2.156205936858104633e-01,4.115578191241954509e-02,1.588803081767806991e-01
8.489999999999999769e-01,5.897109301665429126e-02,-1.244268691178551656e-01,1.448707869949712457e-01
8.499999999999999778e-01,-1.487537624926288105e-01,-2.424244544478682817e-01,4.470604252359303837e-02
8.509999999999999787e-01,-2.630281915498300926e-01,-1.696929648185597495e-01,-8.152539666099824223e-02
8.519999999999999796e-01,-2.048820446814229590e-01,-4.297099539902764220e-02,-1.458859892514682288e-01
8.529999999999999805e-01,-6.482922198061982777e-02,1.421512079534163198e-01,-1.437109191548336662e-01
8.539999999999999813e-01,1.480476711591024730e-01,2.106109849895846098e-01,-6.296281201492433255e-02
8.549999999999999822e-01,2.650668951323359446e-01,1.584886284919885535e-01,5.008934541968504406e-02
8.559999999999999831e-01,2.501284734786385355e-01,3.387412904490119669e-02,1.537433740616994393e-01
8.569999999999999840e-01,5.260453187636218025e-02,-1.379272426702291554e-01,1.572104818589134256e-01
8.579999999999999849e-01,-1.458057631325421488e-01,-2.338374665297679456e-01,7.602997579560855090e-02
8.589999999999999858e-01,-2.460972685694091389e-01,-1.873529632003395340e-01,-6.803988804751352759e-02
8.599999999999999867e-01,-2.198373920727005881e-01,-5.104943961777236999e-02,-1.448514365991976638e-01
8.609999999999999876e-01,-5.288842364311498873e-02,1.291655812335949505e-01,-1.613456775591462500e-01
8.619999999999999885e-01,1.308500844698615717e-01,2.099451899103787766e-01,-5.220940721620884184e-02
8.629999999999999893e-01,2.587076780456604164e-01,1.790692379960602543e-01,5.971394209513302548e-02
8.639999999999999902e-01,2.564681568563767500e-01,9.487552749829845575e-03,1.712447034319593830e-01
8.649999999999999911e-01,6.687425273386103652e-02,-1.234686331691691175e-01,1.377237727869715378e-01
8.659999999999999920e-01,-1.324062814351079365e-01,-2.335236214924997500e-01,6.383304919803878263e-02
8.669999999999999929e-01,-2.495227356366115645e-01,-1.627742834659766102e-01,-5.362523934115314556e-02
8.679999999999999938e-01,-2.329599036304555448e-01,-1.753110121785872097e-02,-1.208126797446101297e-01
8.689999999999999947e-01,-7.485905258778915994e-02,1.074393045678353614e-01,-1.358159025745358794e-01
8.699999999999999956e-01,1.213697475233624923e-01,2.217290040354334690e-01,-8.824284785221951644e-02
8.709999999999999964e-01,2.395979981576837892e-01,1.762971828892967996e-01,5.207004501800482910e-02
8.719999999999999973e-01,2.309108154517341971e-01,3.429045541600818370e-02,1.311485692885689114e-01
8.729999999999999982e-01,9.658068789682064392e-02,-1.390645537334356252e-01,1.595152050998417670e-01
8.739999999999999991e-01,-1.502929629588535543e-01,-2.051979830989226761e-01,7.781210431678728390e-02
8.750000000000000000e-01,-2.701483843097388093e-01,-1.494303977832226182e-01,-5.784683147465961850e-02
8.760000000000000009e-01,-2.574585669493988371e-01,8.184658129962326528e-03,-1.389767823135806268e-01
8.770000000000000018e-01,-6.834762269091827769e-02,1.295977535761655697e-01,-1.542766581107778423e-01
8.780000000000000027e-01,1.423283409986533798e-01,2.040500097426327930e-01,-8.487427133826667969e-02
8.790000000000000036e-01,2.518655509612919285e-01,1.549521724548910129e-01,3.985146234380115837e-02
8.800000000000000044e-01,2.389891877789136754e-01,-4.449961705328484528e-03,1.556642130420103354e-01
8.810000000000000053e-01,7.970879265955321813e-02,-1.414040935998156223e-01,1.646814824584996173e-01
8.820000000000000062e-01,-1.477377055048441634e-01,-2.134652791096804669e-01,6.373002724398649232e-02
8.830000000000000071e-01,-2.657124073955160481e-01,-1.312640374648327835e-01,-1.217844943801846269e-02
8.840000000000000080e-01,-2.247688875883973592e-01,1.727590474250316130e-02,-1.284896071682150032e-01
8.850000000000000089e-01,-7.084581909341508554e-02,1.632918830518253206e-01,-1.478969234761194906e-01
8.860000000000000098e-01,1.452267894109045832e-01,2.234709336360982124e-01,-9.292870658973537146e-02
8.870000000000000107e-01,2.817410613656328722e-01,1.620301419878844851e-01,1.743203132306578654e-02
8.880000000000000115e-01,2.289313558283687933e-01,1.016555229312626069e-02,1.377729578507375097e-01
8.890000000000000124e-01,9.361864741702816128e-02,-1.667162817332566993e-01,1.381756322635247225e-01
8.900000000000000133e-01,-1.296658198694796149e-01,-2.104844780892959621e-01,9.625148439334908768e-02
8.910000000000000142e-01,-2.567206681540851743e-01,-1.440847140666968451e-01,-2.486767803843888819e-02
8.920000000000000151e-01,-2.340064148386402088e-01,7.744443686790781524e-03,-1.232526930746019739e-01
8.930000000000000160e-01,-7.924190437943481879e-02,1.517243518501611155e-01,-1.953540806497813531e-01
8.940000000000000169e-01,1.196884847588522288e-01,2.229371886523795199e-01,-1.125424017047715330e-01
8.950000000000000178e-01,2.593151050934658919e-01,1.362815503321813393e-01,3.063518584509335174e-02
8.960000000000000187e-01,2.443311376556641934e-01,-1.461494896432780077e-02,1.003156484381306779e-01
8.970000000000000195e-01,8.234465138573172915e-02,-1.712710565333332158e-01,1.614530435620150639e-01
8.980000000000000204e-01,-1.442473720547501892e-01,-2.093013306295909981e-01,1.078939470463747691e-01
8.990000000000000213e-01,-2.604998347498279077e-01,-1.420579763633032233e-01,6.007173037758350466e-03
9.000000000000000222e-01,-2.576887712979443190e-01,1.479274853698167320e-03,-1.173602612799694717e-01
9.010000000000000231e-01,-7.736947673609552434e-02,1.875958647228836151e-01,-1.733920421917559407e-01
9.020000000000000240e-01,1.074638862496088282e-01,2.051796199126721676e-01,-1.396774515047494170e-01
9.030000000000000249e-01,2.439562028390167281e-01,1.321018169048061297e-01,8.134679470576777760e-03
9.040000000000000258e-01,2.315666530351081775e-01,-2.504007698572097845e-02,1.055105115786743042e-01
9.050000000000000266e-01,1.008390716171607970e-01,-1.607927051674556684e-01,1.407789297999186839e-01
9.060000000000000275e-01,-1.261972104132578210e-01,-2.280124955357485939e-01,1.413514598859093030e-01
9.070000000000000284e-01,-2.490445012487316201e-01,-1.449961244439617603e-01,-1.187688166459427257e-02
9.080000000000000293e-01,-2.574810602519427283e-01,4.731877768525569877e-02,-8.286649589068358079e-02
9.090000000000000302e-01,-1.020019878257927698e-01,1.782656794425727664e-01,-1.265696137332448235e-01
9.100000000000000311e-01,1.170838157226943982e-01,2.152307605328529772e-01,-1.150681443729987263e-01
9.110000000000000320e-01,2.466943134409916583e-01,1.229771772280103675e-01,-1.838549081498384516e-02
9.120000000000000329e-01,2.531582384259891683e-01,-3.467062921854386498e-02,1.135360653777972156e-01
9.130000000000000338e-01,1.080039308743477033e-01,-1.829225384609670935e-01,1.388239225470425942e-01
9.140000000000000346e-01,-1.067311034104232587e-01,-2.206647366799835974e-01,1.305936359375958478e-01
9.150000000000000355e-01,-2.345626428959494414e-01,-1.183242963436300643e-01,8.482966835936614838e-03
9.160000000000000364e-01,-2.460002209605836876e-01,3.916967022644961272e-02,-9.514114207971309523e-02
9.170000000000000373e-01,-9.372894753529900647e-02,1.916350541797922080e-01,-1.424719535452798058e-01
9.180000000000000382e-01,1.078459833872096457e-01,2.073115091260385734e-01,-1.218162010989350813e-01
9.190000000000000391e-01,2.738258626582705246e-01,1.164075088895128729e-01,-4.105654182158065268e-02
9.200000000000000400e-01,2.556009255860502427e-01,-1.837426439897995797e-02,9.326287003188210578e-02
9.210000000000000409e-01,1.107014396502226800e-01,-1.852630569066913147e-01,1.595654948053123745e-01
9.220000000000000417e-01,-1.001089964109408426e-01,-2.271285727135382293e-01,1.319968189189635044e-01
9.230000000000000426e-01,-2.488727318358917029e-01,-1.097267287268243879e-01,5.228662542393080342e-02
9.240000000000000435e-01,-2.692407379098313291e-01,4.434295987317441595e-02,-6.899691696493452653e-02
9.250000000000000444e-01,-9.992785686519746469e-02,1.686795352078619137e-01,-1.723155556771872321e-01
9.260000000000000453e-01,9.752614040902458925e-02,1.950712577935693470e-01,-1.324562171339305483e-01
9.270000000000000462e-01,2.319058923028341768e-01,1.191833509665916613e-01,-4.506078531064777043e-02
9.280000000000000471e-01,2.574493593647788625e-01,-3.738963737789201963e-02,7.991391931638465451e-02
9.290000000000000480e-01,1.237966210439642167e-01,-1.646869177527614247e-01,1.596877667655070554e-01
9.300000000000000488e-01,-7.746086177843658493e-02,-2.027500180856840195e-01,1.601643362438859575e-01
9.310000000000000497e-01,-2.279180710175818525e-01,-9.146588835264053696e-02,4.424303813729568019e-02
9.320000000000000506e-01,-2.435882860511510983e-01,8.023076126987190027e-02,-9.051572851988939905e-02
9.330000000000000515e-01,-1.006801588086889687e-01,1.765917531414179786e-01,-1.538475942521899398e-01
9.340000000000000524e-01,7.326118709407998530e-02,1.994913989609167215e-01,-1.356513287414962965e-01
9.350000000000000533e-01,2.456424065125219769e-01,1.074685188301900268e-01,-6.643591273863123925e-02
9.360000000000000542e-01,2.354811937487348017e-01,-7.114923815571956578e-02,6.910802443802531447e-02
9.370000000000000551e-01,1.248111425127875623e-01,-1.903510667521555177e-01,1.457410507004651690e-01
9.379999999999999449e-01,-8.124974410950221160e-02,-2.181303077460619300e-01,1.420281505193718430e-01
9.389999999999999458e-01,-2.251503874315370357e-01,-1.067916102849928717e-01,7.018396968832478489e-02
9.399999999999999467e-01,-2.721444290377637576e-01,6.357629383818076685e-02,-6.194391401586498563e-02
9.409999999999999476e-01,-1.284402923641020100e-01,1.963659755497929871e-01,-1.239137698128025128e-01
9.419999999999999485e-01,8.954546835896111390e-02,1.771597223887242112e-01,-1.355229060238512528e-01
9.429999999999999494e-01,2.462969405042375048e-01,9.513358310474410995e-02,-8.087725829716277404e-02
9.439999999999999503e-01,2.759649878339381912e-01,-6.082071127744545502e-02,3.180693137094906670e-02
9.449999999999999512e-01,9.735262438456467049e-02,-1.968964932095298159e-01,1.494900628141103138e-01
9.459999999999999520e-01,-8.142041306516657750e-02,-2.034752238904897204e-01,1.542547430952151133e-01
9.469999999999999529e-01,-2.115801122711080950e-01,-8.404944682232524944e-02,7.167319902628670192e-02
9.479999999999999538e-01,-2.543681504716042152e-01,8.908957947840438762e-02,-5.033359838506786671e-02
9.489999999999999547e-01,-1.322732653530318825e-01,2.013922377091368066e-01,-1.259153758098033038e-01
9.499999999999999556e-01,6.948870196422754497e-02,1.897025885452526817e-01,-1.397366763098704390e-01
9.509999999999999565e-01,2.328527568495652178e-01,8.072497685922547239e-02,-1.015917161616474579e-01
9.519999999999999574e-01,2.672977110382948052e-01,-6.875921567204615337e-02,3.279703904219662125e-02
9.529999999999999583e-01,1.473301140030796041e-01,-1.698197847975055907e-01,1.499929282243198658e-01
9.539999999999999591e-01,-5.795354748378967608e-02,-1.912008836233137221e-01,1.447507854151582340e-01
9.549999999999999600e-01,-2.257033502906326261e-01,-8.271145944796123861e-02,8.910658466073644035e-02
9.559999999999999609e-01,-2.492362752617970911e-01,8.484454888356490754e-02,-8.917007116065821248e-03
9.569999999999999618e-01,-1.623743254029515748e-01,1.805604774354126474e-01,-1.183207113366639557e-01
9.579999999999999627e-01,6.125508091030563290e-02,1.943338924019606950e-01,-1.572054884020068211e-01
9.589999999999999636e-01,2.331752225668375644e-01,8.510334639713128257e-02,-9.623750235012498710e-02
9.599999999999999645e-01,2.659527759212123588e-01,-8.389447499135258002e-02,2.691927899879396468e-03
9.609999999999999654e-01,1.163397232748856619e-01,-1.901634189169761624e-01,1.291118339460089470e-01
9.619999999999999662e-01,-7.260139682651736703e-02,-1.944497138779315293e-01,1.682073042871040369e-01
9.629999999999999671e-01,-2.290095016823550100e-01,-8.996493980669106882e-02,1.030752560992155287e-01
9.639999999999999680e-01,-2.571942414586761427e-01,7.636479855363818847e-02,-2.748569650446608392e-02
9.649999999999999689e-01,-1.191461368994407161e-01,2.135051891758987519e-01,-1.435052993460156079e-01
9.659999999999999698e-01,7.603551238995730210e-02,1.936257143854623608e-01,-1.665140313991360366e-01
9.669999999999999707e-01,2.179336474951423797e-01,9.945930991825850664e-02,-1.038073414382101461e-01
9.679999999999999716e-01,2.700686390167764128e-01,-1.020018870938950856e-01,-1.036786573098006595e-03
9.689999999999999725e-01,1.404980211957526648e-01,-2.143622468328967023e-01,9.556600033778708814e-02
9.699999999999999734e-01,-3.894146554321410020e-02,-1.839248213287351386e-01,1.467034301785877515e-01
9.709999999999999742e-01,-2.366095487092398919e-01,-7.373837976935987415e-02,1.119573551155715052e-01
9.719999999999999751e-01,-2.596262181060697283e-01,9.363091468705969644e-02,1.915436927672609438e-02
9.729999999999999760e-01,-1.557390673540195725e-01,1.954576045596817524e-01,-8.932551813571022736e-02
9.739999999999999769e-01,4.972937679859056048e-02,1.995071885754498842e-01,-1.592885816775903018e-01
9.749999999999999778e-01,2.320773205885139356e-01,8.231521543636569072e-02,-1.189129565885021361e-01
9.759999999999999787e-01,2.428503043776199244e-01,-9.462510953653166523e-02,-1.737486836722074504e-02
9.769999999999999796e-01,1.392185120270747756e-01,-1.971369044807691207e-01,1.189273911034404996e-01
9.779999999999999805e-01,-4.988522092240215561e-02,-1.656112761219067087e-01,1.448676338012931109e-01
9.789999999999999813e-01,-2.294218102547299076e-01,-7.249511763644493623e-02,1.002099993533089733e-01
9.799999999999999822e-01,-2.566276521417473755e-01,1.032478879800187710e-01,-5.501907157667387284e-03
9.809999999999999831e-01,-1.645056487723464411e-01,2.008712620676843252e-01,-9.578468565443142013e-02
9.819999999999999840e-01,3.641161043620073923e-02,1.881915538157004075e-01,-1.633948811327896877e-01
9.829999999999999849e-01,2.381662279811579686e-01,6.634438817745116901e-02,-1.151594896910716204e-01
9.839999999999999858e-01,2.566397797017423987e-01,-9.535920905652964241e-02,-1.235154448579971025e-02
9.849999999999999867e-01,1.446240161361888876e-01,-2.045747596758561992e-01,7.988566045767392376e-02
9.859999999999999876e-01,-5.253191265214716271e-02,-1.706614891469684647e-01,1.665791107155367157e-01
9.869999999999999885e-01,-2.203212479334468732e-01,-5.225580212508174061e-02,1.195747181576872070e-01
9.879999999999999893e-01,-2.597588412773804700e-01,1.140320516135718831e-01,3.349124162872134380e-02
9.889999999999999902e-01,-1.374074689957783535e-01,2.249099799149968382e-01,-1.021455292471056264e-01
9.899999999999999911e-01,5.736892428103834013e-02,1.777716853299320110e-01,-1.459689742496139420e-01
9.909999999999999920e-01,2.270103087270876618e-01,5.487451089376742253e-02,-1.177325201622493323e-01
9.919999999999999929e-01,2.613387124513465443e-01,-1.096213159228874023e-01,-1.960413425882203201e-02
9.929999999999999938e-01,1.660667224649824414e-01,-2.119718258646343667e-01,6.854364009970190241e-02
9.939999999999999947e-01,-5.095700230738133690e-02,-1.860014224329127053e-01,1.462193380972816592e-01
9.949999999999999956e-01,-2.466087078803561872e-01,-3.702052978503787839e-02,1.194443015455444596e-01
9.959999999999999964e-01,-2.790084051804976317e-01,1.013350738169710302e-01,5.097938511655349114e-02
9.969999999999999973e-01,-1.709154582683619916e-01,1.896485479389044548e-01,-8.146082247144659227e-02
9.979999999999999982e-01,1.701677799513313591e-02,1.732644525184365569e-01,-1.407066656511660740e-01
9.989999999999999991e-01,2.243780041987338270e-01,4.878888590209002479e-02,-1.305753978634459078e-01
1.000000000000000000e+00,2.590142843915042015e-01,-1.046958357562000480e-01,-3.878435571189705472e-02
1.000999999999999890e+00,1.528240325453234238e-01,-1.982105471236994265e-01,1.009248024236176627e-01
1.002000000000000002e+00,-4.725240479653172732e-02,-1.808402917416203626e-01,1.559197995657928271e-01
1.002999999999999892e+00,-2.038320394046175266e-01,-5.964642526478965839e-02,1.383292340053486891e-01
1.004000000000000004e+00,-2.790618773601235558e-01,1.192875410582940332e-01,5.380893257752362990e-02
1.004999999999999893e+00,-1.791228138036271289e-01,2.123288457129058615e-01,-5.115486963395627501e-02
1.006000000000000005e+00,3.256435955815958905e-02,1.858873020708554646e-01,-1.492616344171230347e-01
1.006999999999999895e+00,2.266991111833029648e-01,4.076903840620376557e-02,-1.402531544503893279e-01
1.008000000000000007e+00,2.757199220194470057e-01,-1.376040055794376660e-01,-6.121816355906219143e-02
1.008999999999999897e+00,1.596108178940252587e-01,-1.968598972989309970e-01,5.348260290748414747e-02
1.010000000000000009e+00,-2.578242249760748228e-02,-1.765543490637283552e-01,1.382504665211364558e-01
1.010999999999999899e+00,-2.270984794052554323e-01,-3.136792424954114311e-02,1.239070521210016707e-01
1.012000000000000011e+00,-2.792415773100088150e-01,1.269159921804329239e-01,5.148643320675788670e-02
1.012999999999999901e+00,-1.670896342625309283e-01,2.116179621241453257e-01,-4.547740381491484352e-02
1.014000000000000012e+00,2.951807509140917662e-02,1.718083525022290614e-01,-1.369524709947486374e-01
1.014999999999999902e+00,2.056541339095361298e-01,4.191080301246340872e-02,-1.449616834751114580e-01
1.016000000000000014e+00,2.708964057304152906e-01,-1.244262780518022860e-01,-8.694718861409506117e-02
1.016999999999999904e+00,1.800472122879411829e-01,-2.180213782960344071e-01,4.932430568180378588e-02
1.018000000000000016e+00,-3.396100934292913681e-02,-1.611688269194049006e-01,1.407281738661092796e-01
1.018999999999999906e+00,-2.076775042769105351e-01,-1.163939692975418660e-02,1.762936365496554081e-01
1.020000000000000018e+00,-2.888386227615415969e-01,1.334412809929748644e-01,7.912086587644165392e-02
1.020999999999999908e+00,-1.745235829593401178e-01,2.083416578824114629e-01,-3.728464831185764050e-02
1.022000000000000020e+00,-2.668591139452460752e-06,1.585475896493874215e-01,-1.336415540221269072e-01
1.022999999999999909e+00,1.966945581521407638e-01,4.019851673597342467e-03,-1.575686419529154225e-01
1.024000000000000021e+00,2.517986328692361497e-01,-1.517832728302608014e-01,-5.983661844327423790e-02
1.024999999999999911e+00,1.640306581174837408e-01,-2.138799302248030609e-01,3.637481995736137341e-02
1.026000000000000023e+00,-3.606871855655101322e-02,-1.400360767786822391e-01,1.463467859307840957e-01
1.026999999999999913e+00,-1.792034175226970560e-01,-1.638218977345367797e-02,1.686336833602202767e-01
1.028000000000000025e+00,-2.554838823998024644e-01,1.254813794517609382e-01,9.666013986356834786e-02
1.028999999999999915e+00,-1.570245931030806175e-01,1.761227372234490662e-01,-1.646788213691497901e-02
1.030000000000000027e+00,-1.543314119692314884e-02,1.765271676952703261e-01,-1.208128716868880209e-01
1.030999999999999917e+00,1.924330979256792251e-01,-2.654917174775857109e-03,-1.398349282414933503e-01
1.032000000000000028e+00,2.648907077621626693e-01,-1.470817569205728204e-01,-9.891708513612244846e-02
1.032999999999999918e+00,1.711502843923608796e-01,-2.113645624339585416e-01,2.871136892868107748e-02
1.034000000000000030e+00,-1.069728535128692051e-02,-1.497820316478338520e-01,1.400398551017112414e-01
1.034999999999999920e+00,-2.069343214404156250e-01,-4.216314734957236215e-03,1.632773904328573555e-01
1.036000000000000032e+00,-2.658161923905763557e-01,1.527402701265070661e-01,1.157074984797968886e-01
1.036999999999999922e+00,-1.950601870974757734e-01,2.345238792743600253e-01,-5.812170952334476219e-03
1.038000000000000034e+00,1.223565621613995763e-02,1.594441524811640309e-01,-1.152010335590875068e-01
1.038999999999999924e+00,2.034065587119996965e-01,-9.970931633986376136e-03,-1.792929177202877977e-01
1.040000000000000036e+00,2.643079157022717451e-01,-1.552327106463979034e-01,-1.040103616444216367e-01
1.040999999999999925e+00,1.890463281227136583e-01,-2.179218608450730899e-01,2.266496227210677492e-02
1.042000000000000037e+00,2.060213747361042385e-03,-1.644352619690784834e-01,9.238952822319212999e-02
1.042999999999999927e+00,-1.885096257798139496e-01,2.908658276183650679e-02,1.621587628543155468e-01
1.044000000000000039e+00,-2.585250633794242137e-01,1.387624075449018224e-01,1.090720828218779831e-01
1.044999999999999929e+00,-1.862670323994397581e-01,2.191271523906193064e-01,1.919286171812059887e-03
1.046000000000000041e+00,2.351793689987807454e-02,1.579243640813271510e-01,-1.131858578913762375e-01
1.046999999999999931e+00,2.112585652046028439e-01,1.173199116218891225e-02,-1.558663553715014805e-01
1.048000000000000043e+00,2.549342579912220463e-01,-1.587835916495183020e-01,-1.237047253203318598e-01
1.048999999999999932e+00,1.994890403791500511e-01,-2.277056530437193138e-01,-1.763502742675687393e-02
1.050000000000000044e+00,2.176068534723893388e-02,-1.538057079425674267e-01,1.194426888979072121e-01
1.050999999999999934e+00,-1.715363092701393255e-01,5.697325722783017944e-03,1.408768875134495946e-01
1.052000000000000046e+00,-2.634297730404091542e-01,1.561675254773063626e-01,1.347515495778048300e-01
1.052999999999999936e+00,-1.937243401572075197e-01,2.190576172406546451e-01,1.428636561433820930e-02
1.054000000000000048e+00,-6.811969409705181423e-03,1.310469665992675392e-01,-1.063001304680534775e-01
1.054999999999999938e+00,1.735257607317124140e-01,-2.500345096271912315e-02,-1.572024876215918909e-01
1.056000000000000050e+00,2.901072336289665654e-01,-1.850413573131374223e-01,-1.124263477939798916e-01
1.056999999999999940e+00,1.958380377153648155e-01,-2.201608411269961318e-01,-2.319440415209867226e-02
1.058000000000000052e+00,1.667260048285986590e-02,-1.442671389979629792e-01,1.157220137598679310e-01
1.058999999999999941e+00,-1.690184699945725399e-01,1.149278411896750667e-02,1.779460497056548351e-01
1.060000000000000053e+00,-2.772769405473169968e-01,1.546424032566944551e-01,1.341742459773604679e-01
1.060999999999999943e+00,-2.074576653330147957e-01,2.157241041841698737e-01,4.856939956457235336e-02
1.062000000000000055e+00,-1.892207234358269860e-02,1.195977054129435946e-01,-9.011952329649125515e-02
1.062999999999999945e+00,1.653344582229357429e-01,-1.167805807684010704e-02,-1.606676302961432823e-01
1.064000000000000057e+00,2.869716993615368805e-01,-1.472889119615062303e-01,-1.255697419203965493e-01
1.064999999999999947e+00,1.919864398929732874e-01,-1.925890598048978775e-01,-5.843627751989466379e-02
1.066000000000000059e+00,1.909864859641252285e-02,-1.257915929562338775e-01,8.623467846347641907e-02
1.066999999999999948e+00,-1.544455322193528657e-01,4.163868091080678152e-02,1.586148081553124256e-01
1.068000000000000060e+00,-2.607231303931180633e-01,1.621806254433324213e-01,1.207714943872725266e-01
1.068999999999999950e+00,-1.852194053220055925e-01,1.996067646440523591e-01,6.218388893812996920e-02
1.070000000000000062e+00,-1.767744810555302304e-02,1.189612189574638657e-01,-9.069961926309179356e-02
1.070999999999999952e+00,1.577931915301997723e-01,-3.735615105453438112e-02,-1.538788658260940023e-01
1.072000000000000064e+00,2.786517513778570820e-01,-1.667386556006023590e-01,-1.278524660871323548e-01
1.072999999999999954e+00,2.088938584106766472e-01,-2.295966708878094675e-01,-7.488847295027149797e-02
1.074000000000000066e+00,4.226942373853543461e-02,-1.254622032017674860e-01,7.508481693538100743e-02
1.074999999999999956e+00,-1.672724417194619284e-01,1.649973471827736668e-02,1.626870570301977015e-01
1.076000000000000068e+00,-2.573504281589162890e-01,1.626145094368891819e-01,1.225569566159955825e-01
1.076999999999999957e+00,-2.209063043132135640e-01,2.251351930482045072e-01,6.876974457517832928e-02
1.078000000000000069e+00,-2.140589298601926205e-02,1.358705023840959814e-01,-5.715107892424253072e-02
1.078999999999999959e+00,1.779890580375857456e-01,-3.335361150853011908e-02,-1.360231844652962929e-01
1.080000000000000071e+00,2.692670233217376863e-01,-1.739826520115882180e-01,-1.443746763532049726e-01
1.080999999999999961e+00,2.032650978058803681e-01,-1.992795818947087905e-01,-3.614228701143400863e-02
1.082000000000000073e+00,5.520595459216706864e-03,-1.015328418382785702e-01,5.838397492428846342e-02
1.082999999999999963e+00,-1.787648749709769280e-01,3.373314861329786835e-02,1.561873272598849338e-01
1.084000000000000075e+00,-2.528543897920494943e-01,1.749605274803756882e-01,1.691976834195078883e-01
1.084999999999999964e+00,-2.212673970952081515e-01,1.986715886157262856e-01,7.212145751624535195e-02
1.086000000000000076e+00,-5.661630541404763517e-02,1.170727265408725293e-01,-5.241591516650645488e-02
1.086999999999999966e+00,1.605428949801563920e-01,-4.439831872198768403e-02,-1.501997369586434705e-01
1.088000000000000078e+00,2.761532995759631848e-01,-1.745910333284901861e-01,-1.425706091223059024e-01
1.088999999999999968e+00,2.045296612153111593e-01,-2.245768099446493471e-01,-6.890377048689833028e-02
1.090000000000000080e+00,5.216550281762982050e-02,-1.378124976953697123e-01,5.184878982552703491e-02
1.090999999999999970e+00,-1.825142786207286649e-01,2.951477047383344390e-02,1.235977351126302248e-01
1.092000000000000082e+00,-2.581045951467079713e-01,1.735144288603705787e-01,1.305925833175754502e-01
1.092999999999999972e+00,-2.149442413489811854e-01,2.118400805432658351e-01,8.057564822100793389e-02
1.094000000000000083e+00,-2.687198188374588514e-02,1.248193994328094941e-01,-4.238679732990564136e-02
1.094999999999999973e+00,1.520987650527504120e-01,-5.095398804111942598e-02,-1.449556853996364636e-01
1.096000000000000085e+00,2.460174115565828545e-01,-1.816380327165123543e-01,-1.481442380323436114e-01
1.096999999999999975e+00,2.152958531463614600e-01,-2.045342091563962794e-01,-6.340572565902527491e-02
1.098000000000000087e+00,3.901966433144933577e-02,-1.007097236969138332e-01,5.556257056464650179e-02
1.098999999999999977e+00,-1.678814010999104267e-01,5.230014827162123014e-02,1.434845105934123011e-01
1.100000000000000089e+00,-2.679947567162631605e-01,1.849803593558986547e-01,1.692684073130969469e-01
1.100999999999999979e+00,-1.984943632517832124e-01,1.823284621309442521e-01,7.684435754507075444e-02
1.102000000000000091e+00,-4.785927268253974826e-02,8.893319339839431126e-02,-1.197415646712462339e-02
1.102999999999999980e+00,1.526413480690197444e-01,-7.545019033088622151e-02,-1.207206854830804865e-01
1.104000000000000092e+00,2.782808305861700915e-01,-1.890304883889483700e-01,-1.510683715041098996e-01
1.104999999999999982e+00,2.177735355633086678e-01,-2.132987147181668319e-01,-9.626884247825176488e-02
1.106000000000000094e+00,3.856981579050189346e-02,-1.093962269274551397e-01,2.523457560005726644e-02
1.106999999999999984e+00,-1.502729202195236535e-01,8.211072371919837798e-02,1.162953210709468110e-01
1.108000000000000096e+00,-2.577142658127730135e-01,2.024102705438677874e-01,1.603596127941216976e-01
1.108999999999999986e+00,-2.216617952824317672e-01,1.975301064056020905e-01,1.187169007853132868e-01
1.110000000000000098e+00,-6.321440092366147068e-02,9.897253753246654240e-02,-9.252616208863464684e-03
1.110999999999999988e+00,1.571058905164978703e-01,-8.476189348072138419e-02,-9.792730735443352930e-02
1.112000000000000099e+00,2.614401213328214624e-01,-2.087928860369201167e-01,-1.633802107405836757e-01
1.112999999999999989e+00,2.164612554299513159e-01,-2.213616910059578724e-01,-8.969988983149361494e-02
1.114000000000000101e+00,5.236316860174108911e-02,-9.800310875244186426e-02,1.044831821541051912e-02
1.114999999999999991e+00,-1.510790417241413830e-01,7.745994603582871674e-02,1.206549880484952680e-01
1.116000000000000103e+00,-2.613760771373443981e-01,2.017227279458428946e-01,1.293072227254468409e-01
1.116999999999999993e+00,-2.216126871557299316e-01,2.294235580010801634e-01,1.047601771646592961e-01
1.118000000000000105e+00,-7.540292240908129384e-02,9.573721597641129955e-02,-5.545325418618385870e-03
1.118999999999999995e+00,1.214409472521471162e-01,-8.806751591566670812e-02,-1.013111113429579213e-01
1.120000000000000107e+00,2.910641877564509317e-01,-1.802741194570241234e-01,-1.757964416192984713e-01
1.120999999999999996e+00,2.145498274479635814e-01,-1.894967769565032156e-01,-1.317722886594767939e-01
1.122000000000000108e+00,3.870192450563966075e-02,-8.293000850129701729e-02,4.921402798195751750e-03
1.122999999999999998e+00,-1.166976366230450812e-01,6.623850502907062399e-02,9.198658473886235643e-02
1.124000000000000110e+00,-2.819761727771116222e-01,2.185682822574447903e-01,1.696688497402959184e-01
1.125000000000000000e+00,-2.344961726410232650e-01,1.809831556904266670e-01,1.295527108189042376e-01
1.125999999999999890e+00,-5.685274721786295199e-02,6.167962702644391726e-02,-4.172115751990084463e-03
1.127000000000000002e+00,1.417797999965689781e-01,-8.682723269870452898e-02,-1.207408255479393150e-01
1.127999999999999892e+00,2.426386815419906418e-01,-2.021579735443798653e-01,-1.587386428452460807e-01
1.129000000000000004e+00,2.307116070499720673e-01,-1.894289992435458092e-01,-1.141540254258616438e-01
1.129999999999999893e+00,5.403052970352717477e-02,-8.236027089731880191e-02,-1.282549940290450205e-02
1.131000000000000005e+00,-1.479952160322743626e-01,1.007351485686382025e-01,1.108481522364360844e-01
1.131999999999999895e+00,-2.516435393754888339e-01,2.069138813364449769e-01,1.835930920557624357e-01
1.133000000000000007e+00,-2.281689222464062250e-01,1.953524900194160141e-01,1.237838130187664393e-01
1.133999999999999897e+00,-6.264153981518968961e-02,6.458752298452058449e-02,4.273688706401778531e-02
1.135000000000000009e+00,1.357318655917006678e-01,-8.312037994155946352e-02,-9.922511732836718223e-02
1.135999999999999899e+00,2.508611786754471051e-01,-2.165311570268009245e-01,-1.469023929690835284e-01
1.137000000000000011e+00,2.575430704390543890e-01,-1.881582015329298641e-01,-1.350757632277622688e-01
1.137999999999999901e+00,6.370894610070011732e-02,-6.779062084525899756e-02,-2.217306397226737752e-02
1.139000000000000012e+00,-1.444301461553317290e-01,1.144348255966008976e-01,9.311309203300986714e-02
1.139999999999999902e+00,-2.510126333203141491e-01,1.892611792298389550e-01,1.550358175321172038e-01
1.141000000000000014e+00,-2.499514377709347868e-01,1.923907206382433621e-01,1.417938078480949771e-01
1.141999999999999904e+00,-9.103091376234251353e-02,4.806989554926951319e-02,4.998955275765287753e-02
1.143000000000000016e+00,1.104173330508707584e-01,-8.891798783578896970e-02,-6.471916446116145194e-02
1.143999999999999906e+00,2.503458034670621446e-01,-2.196079734595549615e-01,-1.585391667834434581e-01
1.145000000000000018e+00,2.319164109753390490e-01,-1.731011524062134044e-01,-1.418068899953454087e-01
1.145999999999999908e+00,8.545426731623845251e-02,-4.452144700713255715e-02,-4.911960395062879570e-02
1.147000000000000020e+00,-1.217866851888653040e-01,1.184743778737146896e-01,7.744733350004504024e-02
1.147999999999999909e+00,-2.378400068281407431e-01,2.074898880089936504e-01,1.583718222109551377e-01
1.149000000000000021e+00,-2.202600310193683353e-01,1.801606230234113759e-01,1.511243734858149779e-01
1.149999999999999911e+00,-6.388227264999551958e-02,6.333118892158613733e-02,7.544312498430028047e-02
1.151000000000000023e+00,1.057841829012700213e-01,-1.043320598626274742e-01,-5.973482089665300282e-02
1.151999999999999913e+00,2.584372876882268244e-01,-1.918868974579651665e-01,-1.527175105028580893e-01
1.153000000000000025e+00,2.197122693697809159e-01,-1.792376332935373684e-01,-1.664366625327401705e-01
1.153999999999999915e+00,9.617437961973099303e-02,-6.674898874252419012e-02,-4.860443138017900983e-02
1.155000000000000027e+00,-1.092957966464816050e-01,1.121473130653791173e-01,6.378359390016637154e-02
1.155999999999999917e+00,-2.456384851167375816e-01,1.945101360174635585e-01,1.412390694322989693e-01
1.157000000000000028e+00,-2.315161418095640078e-01,2.056083581452040621e-01,1.508810566432025879e-01
1.157999999999999918e+00,-6.668703007970799845e-02,3.730733398334341172e-02,9.121458840776792976e-02
1.159000000000000030e+00,1.006905492445555467e-01,-1.133090672179282721e-01,-5.100700686388981442e-02
1.159999999999999920e+00,2.638033301927637519e-01,-2.278999757601739007e-01,-1.428706294993911385e-01
1.161000000000000032e+00,2.255150732187481410e-01,-1.857340928387983536e-01,-1.447330966149134868e-01
1.161999999999999922e+00,8.961042729228942127e-02,-5.230911768352596719e-02,-4.515608512420851706e-02
1.163000000000000034e+00,-1.234903316803035306e-01,1.343244796476417424e-01,5.740450308333576446e-02
1.163999999999999924e+00,-2.545281206937527463e-01,1.961853679187898769e-01,1.352478493735041198e-01
1.165000000000000036e+00,-2.561086089638061059e-01,2.006778479140591820e-01,1.306576398671955019e-01
1.165999999999999925e+00,-9.777298984185334163e-02,3.472248707497475190e-02,4.855694520149768378e-02
1.167000000000000037e+00,9.185749121571037956e-02,-1.217319464711201921e-01,-5.990680907714409503e-02
1.167999999999999927e+00,2.573362525886981889e-01,-2.281847916744130511e-01,-1.226109364160625076e-01
1.169000000000000039e+00,2.349718905767942956e-01,-1.757181238403469348e-01,-1.674864156042335517e-01
1.169999999999999929e+00,9.870861493177437995e-02,-1.315696432024440581e-02,-8.436290459662169894e-02
1.171000000000000041e+00,-8.736715021771770950e-02,1.156868476388418499e-01,2.505593037874289872e-02
1.171999999999999931e+00,-2.459317919128122532e-01,2.272131676626107377e-01,1.345556265828933562e-01
1.173000000000000043e+00,-2.302541822013540462e-01,1.667997636398977634e-01,1.604218267461498260e-01
1.173999999999999932e+00,-9.407457870505282760e-02,3.157293579324812333e-02,9.906386633996391855e-02
1.175000000000000044e+00,1.064478682303515999e-01,-1.344473996211731359e-01,-3.200656851255476859e-02
1.175999999999999934e+00,2.560324494001429696e-01,-2.230996846050735116e-01,-1.297226204280887418e-01
1.177000000000000046e+00,2.534476878280759737e-01,-1.659770259338622378e-01,-1.487574447825604218e-01
1.177999999999999936e+00,8.913483929110489756e-02,-2.615273829733902322e-02,-1.141974221807554035e-01
1.179000000000000048e+00,-1.072875962754211293e-01,1.031975372014716785e-01,1.578057978050029925e-02
1.179999999999999938e+00,-2.575872987339568043e-01,2.133077341521574521e-01,1.258171920766770480e-01
1.181000000000000050e+00,-2.710480165846493317e-01,1.742674737082258729e-01,1.602189254643280047e-01
