time,acc_x,acc_y,acc_z
0.000000000000000000e+00,1.640931618432674988e-01,2.006168966530437192e-01,9.136304264959650701e-02
1.000000000000000021e-03,3.642053373737954014e-01,3.986313538728917250e-01,1.375678648825010564e-01
2.000000000000000042e-03,5.755974413396985900e-01,4.575355627732569652e-01,3.161451239574649685e-01
3.000000000000000062e-03,5.037058654084830556e-01,2.431726847245571366e-01,3.769356835367103642e-01
4.000000000000000083e-03,1.135531884941900910e-01,-1.486502608349867804e-01,2.033794050080852678e-01
5.000000000000000104e-03,-3.555208097672271084e-01,-4.460705764773953974e-01,-7.809938802439353456e-02
6.000000000000000125e-03,-6.237160126735131760e-01,-4.808388821321863960e-01,-2.971893378895664739e-01
7.000000000000000146e-03,-5.189352031058748205e-01,-2.773068388113234528e-01,-3.673629504908468291e-01
8.000000000000000167e-03,-2.194108035726195227e-01,-5.879785091051167173e-02,-2.752417392983979583e-01
8.999999999999999320e-03,-7.775214513184662557e-02,-8.847752465379681019e-02,-7.360292316872479867e-02
1.000000000000000021e-02,-1.808634050577086760e-01,-2.796097217240425259e-01,-9.840993414904182501e-02
1.099999999999999936e-02,-4.296274805639246908e-01,-4.275543036720795831e-01,-1.645239837156845242e-01
1.200000000000000025e-02,-5.177763983930392389e-01,-3.306317682192678187e-01,-2.970572835270600676e-01
1.299999999999999940e-02,-2.829622248612437829e-01,2.692294265178111698e-02,-2.656768375322632880e-01
1.400000000000000029e-02,2.202328367163549350e-01,3.350467933834871959e-01,-3.882019589086684042e-02
1.499999999999999944e-02,5.463514676088653266e-01,5.065933975120703314e-01,1.900866217938942393e-01
1.600000000000000033e-02,6.039509610255386907e-01,4.004949375501271613e-01,3.781903042518662827e-01
1.700000000000000122e-02,4.030157744124730490e-01,1.608944981537990815e-01,3.595566632397645956e-01
1.799999999999999864e-02,1.500507020983521678e-01,1.571877258156352541e-02,2.110570061536134745e-01
1.899999999999999953e-02,1.149018920374859920e-01,1.748301051602780543e-01,1.015682573722892917e-01
2.000000000000000042e-02,3.197038027697235996e-01,3.422684318295421413e-01,6.169163903860245407e-02
2.100000000000000130e-02,4.747230745337587265e-01,3.651467452460634422e-01,2.248934607144098541e-01
2.199999999999999872e-02,3.972929359328399301e-01,1.194635375587043968e-01,2.676898019577989563e-01
2.299999999999999961e-02,4.759780573562688577e-03,-2.501473773761087593e-01,2.124871260779641613e-01
2.400000000000000050e-02,-4.503856932378892397e-01,-4.948011724569031933e-01,-6.386263197410170511e-02
2.500000000000000139e-02,-6.648587764395524902e-01,-4.537411556298497350e-01,-3.178338841482435395e-01
2.599999999999999881e-02,-4.983253539131815568e-01,-2.422462121991144079e-01,-4.069534481639980328e-01
2.699999999999999969e-02,-2.500774669548002649e-01,-5.613023794262617799e-02,-3.212070715122956610e-01
2.800000000000000058e-02,-7.478961553658262928e-02,-5.908496768366225393e-02,-1.384026936745746394e-01
2.900000000000000147e-02,-1.121797757749027624e-01,-2.389829785661527206e-01,-6.621094983136653622e-02
2.999999999999999889e-02,-3.367901795295925038e-01,-3.657524555423903312e-01,-1.002604153237015711e-01
3.099999999999999978e-02,-4.271630812753821060e-01,-1.719160628760093290e-01,-2.266009003437353397e-01
3.200000000000000067e-02,-1.939548400520780813e-01,1.334803811788165262e-01,-2.571163419426968910e-01
3.300000000000000155e-02,2.955399239426051428e-01,4.350946028042726454e-01,-8.613641825046425282e-02
3.400000000000000244e-02,6.926496059205240474e-01,5.505181612615582809e-01,1.823842773372935377e-01
3.500000000000000333e-02,6.962264717727639773e-01,3.817817249633695398e-01,3.719926204785443669e-01
3.599999999999999728e-02,4.204831480115399089e-01,8.390558942709581969e-02,4.107915522949708298e-01
3.699999999999999817e-02,1.193828754133420406e-01,1.103810162511512268e-02,2.243391325347187659e-01
3.799999999999999906e-02,1.506495735171717656e-02,1.448073218936618001e-01,5.641647090445560397e-02
3.899999999999999994e-02,1.886831031716706131e-01,2.582666957072731195e-01,-5.257798397630551908e-03
4.000000000000000083e-02,3.408706115159692573e-01,2.351058484744439625e-01,1.415399370135720647e-01
4.100000000000000172e-02,3.039296722653225813e-01,-5.171990584634117427e-02,2.566987385645860820e-01
4.200000000000000261e-02,-6.880394610098959640e-02,-3.844241571286443615e-01,2.017196649559123978e-01
4.299999999999999656e-02,-5.282181299849303402e-01,-5.968640173431989382e-01,-5.878936312559647492e-02
4.399999999999999745e-02,-6.980678480920071705e-01,-4.620251854770127675e-01,-3.018592624979826722e-01
4.499999999999999833e-02,-5.948955577987198318e-01,-2.156644831892601533e-01,-4.690211816715350035e-01
4.599999999999999922e-02,-2.269925758908578339e-01,1.390969103168326199e-02,-3.345040804492281361e-01
4.700000000000000011e-02,1.528727468671587167e-02,-4.080592692312429159e-02,-1.191086947812678154e-01
4.800000000000000100e-02,-4.889149694220659703e-02,-1.771455346768298356e-01,1.889935008047039953e-03
4.900000000000000189e-02,-2.094619596403796136e-01,-2.703589936636848212e-01,-1.965229749957802738e-02
5.000000000000000278e-02,-3.348432231530092396e-01,-9.881510781199648319e-02,-1.737453108369261812e-01
5.099999999999999672e-02,-1.083298385206321462e-01,2.658505000789468942e-01,-2.222055873294609962e-01
5.199999999999999761e-02,3.424000581198753945e-01,5.253074721609051201e-01,-8.206797745393276666e-02
5.299999999999999850e-02,6.442452208131493885e-01,5.438976016995836771e-01,2.069234715253775170e-01
5.399999999999999939e-02,7.208090994506317628e-01,2.808256553408283174e-01,4.737609407831066544e-01
5.500000000000000028e-02,4.102715321388042402e-01,7.045362697954365983e-02,4.301310268810432103e-01
5.600000000000000117e-02,6.225224748419455612e-02,-5.800144290492174198e-02,2.988399645925495229e-01
5.700000000000000205e-02,-5.991377625689535413e-02,1.094902201092130128e-01,4.629371685458029406e-02
5.800000000000000294e-02,6.325970860991658729e-02,1.936469385364850415e-01,-1.484168571002598622e-02
5.899999999999999689e-02,2.255796188735643693e-01,1.759844690166965653e-01,1.180154803101388615e-02
5.999999999999999778e-02,2.063650478021224199e-01,-1.764930331015067411e-01,1.309861524915666708e-01
6.099999999999999867e-02,-1.656407323606014226e-01,-4.564877586108880836e-01,1.526657173324796335e-01
6.199999999999999956e-02,-5.533781442127255756e-01,-5.999688265730040992e-01,-5.422174501089717380e-02
6.300000000000000044e-02,-7.689237775553275922e-01,-4.272860274355303467e-01,-2.999752836085594621e-01
6.400000000000000133e-02,-5.994398452873352934e-01,-1.052899576325645598e-01,-4.191868877499733692e-01
6.500000000000000222e-02,-2.247113384088577359e-01,1.284613615139661436e-01,-4.072200118939415248e-01
6.600000000000000311e-02,9.855946369292824250e-02,4.186905912015636416e-02,-2.085190504009916124e-01
6.700000000000000400e-02,8.973516169905806916e-02,-1.217802031483187636e-01,4.651043598958958664e-02
6.800000000000000488e-02,-1.377064496098807100e-01,-1.605609094568324902e-01,1.451207031418357170e-02
6.900000000000000577e-02,-1.654439736025151153e-01,4.587866258099324718e-02,-3.737359154128915700e-02
7.000000000000000666e-02,-3.366200366534076709e-03,3.649287118203287661e-01,-1.401924904466247124e-01
7.099999999999999367e-02,3.621664674369375336e-01,5.924763728628665849e-01,-7.157622952543626904e-02
7.199999999999999456e-02,7.292393591389422225e-01,5.577122206472883148e-01,2.054078464561332473e-01
7.299999999999999545e-02,6.828176934306475765e-01,2.135422113506313668e-01,4.341375388685786429e-01
7.399999999999999634e-02,3.758725031635557490e-01,-5.996197888373301643e-02,4.553476667795333110e-01
7.499999999999999722e-02,7.343097824869093855e-03,-1.282882959413528257e-01,3.225603938207707855e-01
7.599999999999999811e-02,-1.466350370668949854e-01,2.065290879984824773e-02,5.477352594680593573e-02
7.699999999999999900e-02,-3.247657684339774753e-02,1.445361469417054678e-01,-8.209033449880188960e-02
7.799999999999999989e-02,1.393315594796272205e-01,3.817672325589548110e-02,-8.745134027262702059e-02
7.900000000000000078e-02,8.381225131404371198e-02,-2.487574748119948664e-01,7.762604407747211721e-02
8.000000000000000167e-02,-1.852482604914610920e-01,-5.012642243939123832e-01,1.067408283106751898e-01
8.100000000000000255e-02,-5.890146638220228326e-01,-5.831771598210121477e-01,-2.209865209845259318e-02
8.200000000000000344e-02,-7.448731546470270803e-01,-3.524399100164765652e-01,-2.632745328764055093e-01
8.300000000000000433e-02,-6.023564419654696689e-01,-2.572624156340590565e-03,-3.948165843188822244e-01
8.400000000000000522e-02,-1.894484867214112356e-01,1.292402113937014541e-01,-3.703537232739118057e-01
8.500000000000000611e-02,1.563305987054350588e-01,8.947179002689754912e-02,-1.703786474349938684e-01
8.599999999999999312e-02,1.886031170875251683e-01,-6.193755711736945863e-02,2.102824426299633107e-02
8.699999999999999400e-02,-3.477199016013352018e-02,-1.204337094328874619e-01,9.223842046234066727e-02
8.799999999999999489e-02,-1.423635438923527841e-01,1.281514637340941953e-01,9.235703967813431448e-02
8.899999999999999578e-02,2.505103828878583322e-02,3.954331863339091147e-01,-8.859382336638688127e-02
8.999999999999999667e-02,4.104440594721187607e-01,5.986818842830060605e-01,-3.656810591146914674e-02
9.099999999999999756e-02,7.172738858985456822e-01,4.367813999529112645e-01,1.427801036529668666e-01
9.199999999999999845e-02,6.685735933073830850e-01,1.057373515668671715e-01,3.222734299748825082e-01
9.299999999999999933e-02,3.641046238405516999e-01,-1.369469148026654093e-01,4.175096701172524849e-01
9.400000000000000022e-02,-5.173714007543121773e-02,-1.683650160010922159e-01,3.471268537538260701e-01
9.500000000000000111e-02,-2.597687278660063548e-01,-3.086156040072890461e-02,6.372888788311693864e-02
9.600000000000000200e-02,-1.519417138796694822e-01,9.665062339796792745e-02,-1.154543702323643645e-01
9.700000000000000289e-02,2.212854542858468804e-02,-1.605337409906668067e-02,-1.541975012727080652e-01
9.800000000000000377e-02,5.250610164026410509e-02,-3.033688974125023363e-01,7.169147301930661742e-03
9.900000000000000466e-02,-2.063793501600103553e-01,-5.601460846057173537e-01,4.235717980401274702e-02
1.000000000000000056e-01,-5.843389795203600690e-01,-5.305002250549576415e-01,-3.205643125857254860e-02
1.010000000000000064e-01,-6.958071613256757715e-01,-2.589630798795829469e-01,-2.490700508214494513e-01
1.019999999999999934e-01,-4.937419407522751214e-01,1.185525322640958862e-01,-4.162250806887098364e-01
1.029999999999999943e-01,-1.134611272044990654e-01,2.788538644420847645e-01,-4.191246726291970037e-01
1.039999999999999952e-01,2.671032558269568757e-01,1.409549959893882098e-01,-2.359339270400157285e-01
1.049999999999999961e-01,2.928468458639889027e-01,-2.175243544106402610e-02,3.489054676136571498e-02
1.059999999999999970e-01,6.450659976346616309e-02,-2.520403339095136919e-02,1.954644270843047538e-01
1.069999999999999979e-01,-5.058999844990434008e-02,1.955389809587810834e-01,1.344170537911890950e-01
1.079999999999999988e-01,7.412431312707598585e-02,4.819924156847418262e-01,1.742582265680601115e-03
1.089999999999999997e-01,3.657189744664514075e-01,5.516499374247227916e-01,-3.182892229752534718e-02
1.100000000000000006e-01,6.401763942227369775e-01,3.227949281307008755e-01,9.224385347445070160e-02
1.110000000000000014e-01,6.277343095829079900e-01,1.494948109876660138e-02,3.112303263283978105e-01
1.120000000000000023e-01,2.841563209487720787e-01,-2.580265080242262754e-01,4.102653126612961221e-01
1.130000000000000032e-01,-1.500186590789490126e-01,-2.871897260444625788e-01,3.171472204991037103e-01
1.140000000000000041e-01,-3.480158896697538307e-01,-8.271178987181114495e-02,1.166011176758502271e-01
1.150000000000000050e-01,-2.879267847858129059e-01,7.076781976532028895e-02,-1.380379332107780077e-01
1.160000000000000059e-01,-4.593289385240438560e-02,-9.042236111780853347e-02,-2.046221335975125510e-01
1.170000000000000068e-01,2.986311285317137451e-02,-3.417751816722626179e-01,-1.362132579166148993e-01
1.179999999999999938e-01,-2.125312929461136424e-01,-5.345294425182797182e-01,-2.020745167701530620e-02
1.189999999999999947e-01,-5.242794868114117879e-01,-3.948589157953944495e-01,-4.260284921224517102e-02
1.199999999999999956e-01,-6.855255476362747125e-01,-9.524530319249624455e-02,-2.060074858817510512e-01
1.209999999999999964e-01,-4.708632653620867803e-01,2.313108660457143251e-01,-3.884269995711011614e-01
1.219999999999999973e-01,-4.880381160415585284e-02,3.214394369649432037e-01,-4.313693397431071497e-01
1.229999999999999982e-01,3.366362616097474114e-01,1.946545591458629099e-01,-2.264924578791060183e-01
1.239999999999999991e-01,3.825474636707361098e-01,5.230916191252877635e-03,2.382180334517049886e-02
1.250000000000000000e-01,1.919539900538202448e-01,-2.213380590493027253e-02,2.497023206308074672e-01
1.260000000000000009e-01,-4.495550435249427712e-03,2.474625226281144674e-01,2.131411715622028580e-01
1.270000000000000018e-01,9.377500523578220781e-02,4.511185103590941159e-01,7.126640595526841093e-02
1.280000000000000027e-01,3.589887842170370602e-01,4.499678721780243640e-01,1.091209930141314247e-02
1.290000000000000036e-01,6.077568660995110728e-01,2.444979894868652692e-01,1.180067301404389007e-01
1.300000000000000044e-01,5.470961461928514069e-01,-1.563517183850729186e-01,2.739675775393538570e-01
1.310000000000000053e-01,2.151197012330841596e-01,-3.338817443546366337e-01,3.819958688970194194e-01
1.320000000000000062e-01,-2.343907430227809841e-01,-3.266984742628647465e-01,3.458800087057038453e-01
1.330000000000000071e-01,-4.466780767949203312e-01,-9.745198411164639196e-02,1.084903926610363417e-01
1.340000000000000080e-01,-3.339346403512883366e-01,-1.473801255172612311e-02,-1.455511177319449845e-01
1.350000000000000089e-01,-8.956704333370872628e-02,-1.360927217600408357e-01,-2.643506471702731786e-01
1.360000000000000098e-01,-4.166106331475691316e-02,-3.471904393144880085e-01,-2.007070669529186224e-01
1.370000000000000107e-01,-2.068953816537939805e-01,-4.494278734116501361e-01,-5.978364860260833302e-02
1.380000000000000115e-01,-4.919226691542665231e-01,-3.320038522993458141e-01,-2.748471267777157293e-02
1.390000000000000124e-01,-6.281149149577235358e-01,2.894304129131271622e-02,-1.439463030998584803e-01
1.400000000000000133e-01,-3.846066272966616739e-01,3.139132100388860591e-01,-3.165561102084314959e-01
1.409999999999999865e-01,6.458848179956946933e-02,3.759402432655529758e-01,-3.269585589408502968e-01
1.419999999999999873e-01,3.937002070079936855e-01,2.019203701333411594e-01,-2.081755471701565441e-01
1.429999999999999882e-01,4.719159121848245375e-01,3.744442499561446980e-02,3.204845383003751547e-02
1.439999999999999891e-01,2.711228547981522352e-01,5.548122631929398169e-02,2.874870111819500806e-01
1.449999999999999900e-01,2.916139062239843024e-02,2.526326796648548645e-01,2.930386905503066242e-01
1.459999999999999909e-01,8.678206663602294757e-02,4.136452492026289063e-01,1.871327789909021933e-01
1.469999999999999918e-01,3.462304389226704693e-01,3.662080319343267165e-01,3.700011689196553571e-02
1.479999999999999927e-01,5.405094849661563616e-01,9.129162747004539169e-02,6.085003197074251302e-02
1.489999999999999936e-01,4.923273490054415613e-01,-2.683818416200290380e-01,2.137375896313173096e-01
1.499999999999999944e-01,1.407110306288934520e-01,-3.963271297902886681e-01,3.053849561172546911e-01
1.509999999999999953e-01,-3.284518765671420315e-01,-2.758370760771766683e-01,2.600220821010882366e-01
1.519999999999999962e-01,-5.194212004590872400e-01,-9.058526411304033965e-02,8.539087731917588409e-02
1.529999999999999971e-01,-4.355688882923156036e-01,5.183430409243724134e-03,-1.487475578398422260e-01
1.539999999999999980e-01,-1.439956205555822655e-01,-1.195654548609512563e-01,-2.927579287747511527e-01
1.549999999999999989e-01,9.527349012267281869e-03,-3.486292855845514738e-01,-2.505029589263040313e-01
1.559999999999999998e-01,-1.295495068867980326e-01,-4.041113736286703340e-01,-1.215011993482104091e-01
1.570000000000000007e-01,-4.222916527745543824e-01,-1.968748078033137339e-01,-5.592918152040282816e-03
1.580000000000000016e-01,-5.315337604203409505e-01,1.360621484386900504e-01,-6.934791181769019153e-02
1.590000000000000024e-01,-2.710776528493640258e-01,4.026169610601926796e-01,-2.554483148774130963e-01
1.600000000000000033e-01,1.418443651301337094e-01,4.333764422235216185e-01,-3.212381112366797242e-01
1.610000000000000042e-01,4.852341674638340208e-01,2.020006990714899031e-01,-2.257282431964190150e-01
1.620000000000000051e-01,5.106387244554400073e-01,1.036594044184654603e-02,2.904658218312493323e-02
1.630000000000000060e-01,2.926524032418700849e-01,7.784961575631218871e-03,2.892628862628307540e-01
1.640000000000000069e-01,5.942240200493784097e-02,2.169508610536786120e-01,3.304904638087431401e-01
1.650000000000000078e-01,2.831745116510227256e-02,3.996246013700017752e-01,2.246012704207930866e-01
1.660000000000000087e-01,2.604626896885210985e-01,2.670922251095904087e-01,4.277958767910929744e-02
1.670000000000000095e-01,4.328164172468482174e-01,-3.773664483424783028e-02,3.895140019059778469e-02
1.680000000000000104e-01,4.388207325244998236e-01,-3.440036956216231956e-01,1.700106127985810400e-01
1.690000000000000113e-01,7.204547541040089154e-02,-4.722018195433320686e-01,2.319273180695369807e-01
1.700000000000000122e-01,-3.653601315102524283e-01,-3.005698447448794663e-01,2.988734511831013241e-01
1.710000000000000131e-01,-5.946943903861070524e-01,-4.829294084756802219e-02,8.448211766200641737e-02
1.719999999999999862e-01,-4.705763201841290377e-01,5.526295724408979843e-02,-1.901259008008006623e-01
1.729999999999999871e-01,-1.818749275752565564e-01,-9.064778349131424884e-02,-3.541269214643921193e-01
1.739999999999999880e-01,-1.340904703923606264e-02,-2.827599718938232920e-01,-3.155475674427589139e-01
1.749999999999999889e-01,-9.384488757994270680e-02,-3.368510493427862018e-01,-1.768315461950077105e-01
1.759999999999999898e-01,-3.069652252205242737e-01,-9.384401005220903424e-02,-2.225213643226342866e-02
1.769999999999999907e-01,-4.313530944895372921e-01,2.519793802637054214e-01,-4.585859868730739197e-02
1.779999999999999916e-01,-2.047729229960741637e-01,4.598811999990670141e-01,-1.511324049580772821e-01
1.789999999999999925e-01,2.117547233671463469e-01,3.945921488880959060e-01,-2.306060761802450898e-01
1.799999999999999933e-01,5.191005765685622331e-01,1.729546349641542247e-01,-1.853262784650374084e-01
1.809999999999999942e-01,6.067163024198350962e-01,-2.265435377198521047e-02,4.046843968288095506e-02
1.819999999999999951e-01,3.054569188878154540e-01,-1.155192229142092304e-02,2.802861677597481838e-01
1.829999999999999960e-01,2.495287501993051146e-02,2.018842804382284528e-01,3.745351176979719310e-01
1.839999999999999969e-01,-4.968359058064730771e-02,3.075855048125515356e-01,2.897955391534099978e-01
1.849999999999999978e-01,1.574945997608606096e-01,1.672684881854817063e-01,1.191875045142920392e-01
1.859999999999999987e-01,3.866604789903844708e-01,-1.360783022933599318e-01,-1.248160562103402607e-02
1.869999999999999996e-01,3.368057732197100029e-01,-4.685044055987104827e-01,5.737093594886131381e-02
1.880000000000000004e-01,4.924591485492218557e-04,-4.732400547789963330e-01,1.830396602264497130e-01
1.890000000000000013e-01,-4.343939267303028040e-01,-2.954313221488775731e-01,2.158713630765045077e-01
1.900000000000000022e-01,-6.630876023473887271e-01,1.171438364074748120e-02,9.593342374000800310e-02
1.910000000000000031e-01,-5.071368974594625545e-01,6.607496465484638537e-02,-1.370031445273744986e-01
1.920000000000000040e-01,-1.535704157513067269e-01,-5.541088178645240531e-02,-3.750328205706370266e-01
1.930000000000000049e-01,4.576287246123940389e-02,-2.092802138793078692e-01,-3.634464483120394274e-01
1.940000000000000058e-01,-1.758534601940842448e-02,-2.149835674687661791e-01,-2.094150545521389351e-01
1.950000000000000067e-01,-2.180186841525426356e-01,4.203216847870507727e-02,-1.828764511825739514e-02
1.960000000000000075e-01,-3.014044214398804988e-01,3.492638271267225480e-01,1.771081583553076738e-02
1.970000000000000084e-01,-1.457635580279900145e-01,4.824892962359774162e-01,-6.726652235165665739e-02
1.980000000000000093e-01,2.691644100831845354e-01,3.528494658998498346e-01,-2.022261083875369903e-01
1.990000000000000102e-01,6.062122065970718676e-01,8.892255310592565853e-02,-2.045393094015183766e-01
2.000000000000000111e-01,6.481195131726709135e-01,-1.266600491018683994e-01,3.360097157907099980e-03
2.010000000000000120e-01,3.394731152792491158e-01,-5.601799911955088890e-02,3.046010065100720476e-01
2.020000000000000129e-01,-1.820434037017793980e-02,1.912628917821417862e-01,3.946530362734864683e-01
2.030000000000000138e-01,-9.486074554824004690e-02,2.176458241485141609e-01,3.166743162458247607e-01
2.039999999999999869e-01,3.576070589087532864e-02,8.114465644075870288e-02,6.854777729204142300e-02
2.049999999999999878e-01,2.861808743558523771e-01,-2.560812328924866321e-01,-4.714987166794756823e-02
2.059999999999999887e-01,2.506148043626059696e-01,-4.737570436186109846e-01,-2.509732260911305343e-02
2.069999999999999896e-01,-3.858298650851782474e-02,-4.657380646711067884e-01,1.273139601920992570e-01
2.079999999999999905e-01,-4.757438002327259996e-01,-2.415470790428973780e-01,1.870622063129947499e-01
2.089999999999999913e-01,-6.360080661332339069e-01,1.873958879257959023e-02,7.354520667918662546e-02
2.099999999999999922e-01,-5.146710569223964526e-01,1.337418620194320007e-01,-1.695575458136174274e-01
2.109999999999999931e-01,-1.607961987699564332e-01,-3.345357291169991087e-02,-3.356175520347794428e-01
2.119999999999999940e-01,1.069710082688014041e-01,-1.780147339385176886e-01,-4.010571832310844131e-01
2.129999999999999949e-01,9.047095574862895617e-02,-1.289946690149397501e-01,-2.449874417042158525e-01
2.139999999999999958e-01,-1.196486817430274380e-01,1.100592610966119322e-01,-5.349098134456985176e-02
2.149999999999999967e-01,-2.509148600685952579e-01,4.001907673034553747e-01,4.949652530045544480e-02
2.159999999999999976e-01,-8.587406744902698064e-02,4.950932394108127355e-01,-3.342916766053363894e-04
2.169999999999999984e-01,2.794037362017380288e-01,3.252782984583987846e-01,-1.187212961473278067e-01
2.179999999999999993e-01,5.849821526608549593e-01,7.902605808004989352e-03,-1.428670406235503232e-01
2.190000000000000002e-01,6.276147861080663137e-01,-1.562140529995978411e-01,-2.551068733100654053e-03
2.200000000000000011e-01,2.936364798405550758e-01,-7.871632072079215448e-02,2.518582450305855147e-01
2.210000000000000020e-01,-4.692957800261086249e-02,1.035419182087510964e-01,4.158412944942679323e-01
2.220000000000000029e-01,-1.884641780237600595e-01,1.090066538395310786e-01,3.744114025900981968e-01
2.230000000000000038e-01,-1.753094707644018910e-02,3.798168715674604852e-03,1.448623165547757996e-01
2.240000000000000047e-01,1.995020014424701005e-01,-2.838741294447065244e-01,-4.764270099817462939e-02
2.250000000000000056e-01,1.435645248663603712e-01,-5.325200708060965349e-01,-1.041340111785842848e-01
2.260000000000000064e-01,-1.288482641071471979e-01,-4.398340820614097257e-01,3.612997567023235740e-02
2.270000000000000073e-01,-5.117175403517516541e-01,-1.100566397184587764e-01,1.257361801556324821e-01
2.280000000000000082e-01,-6.460298914365084633e-01,1.562144934099821969e-01,9.926159396831429893e-02
2.290000000000000091e-01,-5.100937378030335756e-01,1.931998504913247372e-01,-9.427296346900029822e-02
2.300000000000000100e-01,-1.053454709192030159e-01,3.479512004967300759e-02,-3.318474788837457168e-01
2.310000000000000109e-01,2.058972482513053426e-01,-1.293193068135261858e-01,-3.669775491528671219e-01
2.320000000000000118e-01,1.908037689183365027e-01,-6.610979714060506718e-02,-2.894596700265067990e-01
2.330000000000000127e-01,-1.599097450074329560e-02,1.900697279771788595e-01,-2.354694006295928593e-02
2.340000000000000135e-01,-1.765177738900890192e-01,4.322441681862241314e-01,1.254318497241715125e-01
2.349999999999999867e-01,-3.630298001758869991e-02,4.636833572010810589e-01,8.513656208166459072e-02
2.359999999999999876e-01,2.941009644378876908e-01,2.367288687780358114e-01,-6.270050782635580577e-03
2.369999999999999885e-01,5.946239304332220366e-01,-5.687734800600472568e-02,-1.122501630548854018e-01
2.379999999999999893e-01,5.892229015550525251e-01,-2.185740602480258643e-01,-9.441128691694784802e-03
2.389999999999999902e-01,3.156601226309824204e-01,-1.259894302349349737e-01,2.196776493446663536e-01
2.399999999999999911e-01,-1.318729047200546678e-01,4.152334946822180267e-02,3.779074908133128186e-01
2.409999999999999920e-01,-2.770029565806627070e-01,1.175481701982619281e-01,3.442246707388182947e-01
2.419999999999999929e-01,-1.192486269651482772e-01,-7.317794401054025788e-02,1.666297673552887271e-01
2.429999999999999938e-01,9.771545528438575767e-02,-3.643902508436760446e-01,-6.109563481361039716e-02
2.439999999999999947e-01,1.158494902276317601e-01,-5.040706246623302134e-01,-1.372129278724784629e-01
2.449999999999999956e-01,-1.217460708841774653e-01,-3.478560528331674506e-01,-7.984790314211680229e-02
2.459999999999999964e-01,-4.756353696816846832e-01,-1.386513510412830559e-02,9.131886107317802037e-02
2.469999999999999973e-01,-6.714339083352418580e-01,2.260832716623060734e-01,7.832318181375814981e-02
2.479999999999999982e-01,-4.716707079887965670e-01,2.333037530429689643e-01,-7.590496873637876674e-02
2.489999999999999991e-01,-6.763458498384221362e-02,-6.449717447375265733e-04,-2.844354830535093526e-01
2.500000000000000000e-01,2.392096049671424973e-01,-1.166963980944301232e-01,-3.768915067343390768e-01
2.510000000000000009e-01,2.781554131497486759e-01,-8.165920417874705448e-03,-2.694700628925769670e-01
2.520000000000000018e-01,6.950773806836794966e-02,2.549867126011645113e-01,-5.082550915021469273e-02
2.530000000000000027e-01,-1.037110150238131911e-01,4.531149784626360422e-01,1.514267295597818974e-01
2.540000000000000036e-01,9.874335305231909336e-04,4.065823841687254414e-01,1.638755108696321183e-01
2.550000000000000044e-01,3.112154143814794272e-01,1.437310422579609337e-01,3.780613316507287075e-02
2.560000000000000053e-01,5.770190218715587349e-01,-2.213468761061472834e-01,-6.351324651694686962e-02
2.570000000000000062e-01,5.187558158424721011e-01,-3.001212965994090043e-01,5.151140325095427373e-03
2.580000000000000071e-01,2.373323963007137882e-01,-1.680315590025163730e-01,1.743546926297085964e-01
2.590000000000000080e-01,-1.788644472916786077e-01,2.124342314917730332e-02,3.581607723435096813e-01
2.600000000000000089e-01,-3.346723165463658667e-01,7.078357779313181053e-02,3.667594529662474012e-01
2.610000000000000098e-01,-2.111738260699282665e-01,-1.305335507357602287e-01,1.838407238161726409e-01
2.620000000000000107e-01,1.304766209028662867e-02,-3.867529179677854922e-01,-6.477323055205633229e-02
2.630000000000000115e-01,8.683602112215350888e-02,-4.513831751119872226e-01,-2.043811440327961970e-01
2.640000000000000124e-01,-1.657559457929729529e-01,-2.503344669989722160e-01,-1.596707099185629974e-01
2.650000000000000133e-01,-4.815262993057711771e-01,1.242134318205266319e-01,-1.005171142725975499e-02
2.660000000000000142e-01,-5.641606181811654741e-01,3.085231264741807311e-01,3.886272027483463759e-02
2.670000000000000151e-01,-4.023059384760985790e-01,2.858956222174240946e-01,-2.450741667968739379e-02
2.680000000000000160e-01,2.695259873365922487e-02,9.512161552309217338e-02,-2.507007752428104808e-01
2.690000000000000169e-01,3.467560452639412705e-01,-8.006814614722200518e-02,-3.752405122856724562e-01
2.700000000000000178e-01,3.791930846695420465e-01,2.170396536440187540e-02,-2.748566143967283715e-01
2.710000000000000187e-01,1.307845638557018353e-01,2.723235563902246525e-01,-7.761890969289816922e-02
2.720000000000000195e-01,-1.020086600273720639e-01,4.518217022769387969e-01,1.506579247308195701e-01
2.730000000000000204e-01,-3.268310540732285996e-02,3.346275802512501674e-01,2.399013217819727095e-01
2.740000000000000213e-01,2.042482913812334600e-01,3.927635302016486279e-02,1.355539979940539874e-01
2.750000000000000222e-01,5.336856807769806421e-01,-2.601137291740598934e-01,1.630392390578146861e-02
2.760000000000000231e-01,4.941462813370890994e-01,-3.561060801592944580e-01,-1.881922576284789095e-02
2.770000000000000240e-01,1.623840808408716641e-01,-1.981089123498205595e-01,8.700052218213598365e-02
2.780000000000000249e-01,-2.264462696346897785e-01,5.625029019593219548e-02,3.099264561893365078e-01
2.790000000000000258e-01,-4.448267636726006558e-01,4.704914943103979952e-02,3.387659302487360802e-01
2.800000000000000266e-01,-2.931035298596934568e-01,-1.309943467745744994e-01,1.775995260461804559e-01
2.810000000000000275e-01,-2.516853641114200762e-02,-3.339885117801705272e-01,-7.301446837701748571e-02
2.819999999999999729e-01,7.527103322956509024e-02,-3.840673991255952324e-01,-2.494998467808242637e-01
2.829999999999999738e-01,-1.337288299572299832e-01,-1.282813799888072870e-01,-2.569225339854405710e-01
2.839999999999999747e-01,-4.205848001748226928e-01,2.120473610164610723e-01,-5.527048720608895155e-02
2.849999999999999756e-01,-5.167833664162737595e-01,3.590918579426045643e-01,4.536088383796881701e-02
2.859999999999999765e-01,-3.512426122038356247e-01,3.059286249925529666e-01,-4.378450378939668930e-02
2.869999999999999774e-01,7.981529314705829159e-02,1.005013269424054195e-01,-1.598948295659037011e-01
2.879999999999999782e-01,4.310385541580284974e-01,-8.755744992186133280e-02,-3.296331287486193862e-01
2.889999999999999791e-01,4.026929256323468209e-01,2.989096412805721317e-02,-2.631088914753186292e-01
2.899999999999999800e-01,2.091859055318951444e-01,2.650506606501099593e-01,-5.679367180364467554e-02
2.909999999999999809e-01,-6.964397511014087938e-02,3.467558656691710484e-01,1.965144440180879581e-01
2.919999999999999818e-01,-5.130351781187156290e-02,2.381667971253718930e-01,2.888248293162232749e-01
2.929999999999999827e-01,2.239569084867689686e-01,-5.419193891010283537e-02,1.730972601843226155e-01
2.939999999999999836e-01,4.501486443441169993e-01,-3.751563521335720131e-01,4.331406614136208699e-02
2.949999999999999845e-01,4.509413542381668361e-01,-4.065280721849866552e-01,-2.308431697255412807e-02
2.959999999999999853e-01,7.459380346166158415e-02,-1.920298731690299743e-01,3.665632224715022203e-02
2.969999999999999862e-01,-3.411944630007762713e-01,4.111973592292816199e-02,2.653511234087421178e-01
2.979999999999999871e-01,-4.896517562990191919e-01,6.304309106287282749e-02,3.111098969165229100e-01
2.989999999999999880e-01,-3.655522957064754053e-01,-1.436450665365003043e-01,1.975274411106438255e-01
2.999999999999999889e-01,-8.496898378137776597e-02,-3.493557298251857568e-01,-2.215911807149895454e-02
3.009999999999999898e-01,9.995345623671386681e-02,-2.851657771007891085e-01,-2.664552021930180481e-01
3.019999999999999907e-01,-5.426805516808339697e-02,-1.131318025182017663e-02,-2.850366470656541806e-01
3.029999999999999916e-01,-3.513461490859082770e-01,2.754685580190867622e-01,-1.484166020567661559e-01
3.039999999999999925e-01,-4.428708117990047266e-01,4.067071446631306819e-01,-2.601919735444018292e-02
3.049999999999999933e-01,-2.603039771145763681e-01,2.937247057663636141e-01,1.749878027489547294e-02
3.059999999999999942e-01,1.606444315392705768e-01,4.932641643650169383e-02,-1.159410949052337575e-01
3.069999999999999951e-01,5.171066748570012361e-01,-6.846926091208695164e-02,-2.234816628024031693e-01
3.079999999999999960e-01,4.462221562136695074e-01,5.654294531008735494e-04,-2.506160682241231896e-01
3.089999999999999969e-01,2.168010806465782980e-01,2.685097533836205419e-01,-3.764790875058399849e-02
3.099999999999999978e-01,-4.820554529493194934e-02,3.002112337776083884e-01,1.703927838776891912e-01
3.109999999999999987e-01,-8.284839669971570675e-02,1.290393561477894691e-01,2.977007094673912446e-01
3.119999999999999996e-01,1.459359348120304045e-01,-1.794164441451568948e-01,2.438062537102004268e-01
3.130000000000000004e-01,3.920561019295485949e-01,-4.282077003847900021e-01,1.220665948111022830e-01
3.140000000000000013e-01,3.445868488178329136e-01,-3.749127303599315009e-01,-2.316730188847387212e-02
3.150000000000000022e-01,9.861879278988331179e-03,-1.338374698152118292e-01,3.257814824467455614e-04
3.160000000000000031e-01,-3.678454988742681508e-01,6.013451405244564507e-02,1.329420414821960716e-01
3.170000000000000040e-01,-5.188628839589550790e-01,6.444889848585678982e-02,2.634542735864036089e-01
3.180000000000000049e-01,-3.778361413952193715e-01,-1.307173537116715356e-01,1.980541969682659831e-01
3.190000000000000058e-01,-1.039441052905052676e-01,-2.773114037361786299e-01,-2.844042946101943761e-02
3.200000000000000067e-01,1.041973018879157192e-01,-1.779497148476740787e-01,-2.633184340434850390e-01
3.210000000000000075e-01,3.543475181198349217e-03,1.214486232867646870e-01,-3.232475910699664223e-01
3.220000000000000084e-01,-2.539297823748491445e-01,3.524489445400326715e-01,-1.758241000149091682e-01
3.230000000000000093e-01,-3.806695306394544120e-01,4.502805606708564223e-01,-5.316411236450002686e-02
3.240000000000000102e-01,-2.217636034109197185e-01,2.113549370350009393e-01,4.988221995111745410e-02
3.250000000000000111e-01,1.894094677626693424e-01,-2.159291401027250631e-02,-5.562730604512104021e-02
3.260000000000000120e-01,5.328831190691571962e-01,-1.155968082940043162e-01,-2.026399846541022121e-01
3.270000000000000129e-01,5.153069170974790003e-01,-1.403698767766461616e-02,-2.413893992880510875e-01
3.280000000000000138e-01,2.555257984878812616e-01,1.913287239147295204e-01,-7.656716791321906135e-02
3.290000000000000147e-01,-1.310902138348049584e-02,2.349285829983551455e-01,1.589037179201272243e-01
3.300000000000000155e-01,-1.306635146542835801e-01,5.604567073804885696e-02,3.316650026429261433e-01
3.310000000000000164e-01,7.305260309061686885e-02,-3.205330135127295588e-01,3.131961300573825047e-01
3.320000000000000173e-01,3.068434781768084041e-01,-4.616624012519479625e-01,1.328835511227654254e-01
3.330000000000000182e-01,2.633758856936784243e-01,-3.436686180496557608e-01,-7.956218483604238223e-02
3.340000000000000191e-01,-1.185122391239522288e-02,-8.102125822548170153e-02,-2.031189667601869531e-02
3.350000000000000200e-01,-4.238738178609296470e-01,1.166997232987952299e-01,6.316230344734793944e-02
3.360000000000000209e-01,-5.949652737058525043e-01,1.386005542232728871e-01,1.891624803379995112e-01
3.370000000000000218e-01,-4.117261646910208572e-01,-1.315675700720284336e-01,1.856517945815065185e-01
3.380000000000000226e-01,-1.017742855487185349e-01,-2.421980768854461730e-01,-2.384391663034426609e-02
3.390000000000000235e-01,1.663271819316574085e-01,-1.189618356112809860e-01,-2.680523887345471201e-01
3.400000000000000244e-01,9.293819690845783743e-02,1.713563561889809850e-01,-3.594242268296812259e-01
3.410000000000000253e-01,-1.564797184538301578e-01,4.393875450442955577e-01,-2.278240506943486898e-01
3.420000000000000262e-01,-2.825520421475419264e-01,4.081501710083852430e-01,-4.383554672872853192e-02
3.430000000000000271e-01,-1.346270047275895110e-01,1.928257088918554907e-01,5.752301054782141959e-02
3.439999999999999725e-01,2.954135514979391308e-01,-1.035095463650847480e-01,1.689572494629394683e-02
3.449999999999999734e-01,5.355317204173636325e-01,-1.400312781311413568e-01,-1.168322314569992110e-01
3.459999999999999742e-01,5.172899175897162083e-01,-3.656737504462868882e-02,-1.944087342133050678e-01
3.469999999999999751e-01,2.260928148299936047e-01,1.453482378751649595e-01,-9.684093446978046804e-02
3.479999999999999760e-01,-1.095512780098628208e-01,1.359369466755501743e-01,1.592813444090903918e-01
3.489999999999999769e-01,-1.740106137773400063e-01,-3.933251644388553736e-02,3.282001549756436432e-01
3.499999999999999778e-01,-3.592068823031167868e-02,-3.312236649267275568e-01,3.434327524546601507e-01
3.509999999999999787e-01,1.807345649766474993e-01,-4.722470464538091051e-01,1.724233441189514937e-01
3.519999999999999796e-01,2.334171307230394343e-01,-2.844627561920715086e-01,-3.619477703504050958e-02
3.529999999999999805e-01,-4.962882215345965076e-02,-2.313065080056252859e-02,-7.996040205837451342e-02
3.539999999999999813e-01,-4.055870933087838415e-01,1.909348048340633874e-01,-1.382512802749254373e-02
3.549999999999999822e-01,-6.082207970881972070e-01,1.505850821148803087e-01,1.568091606397899185e-01
3.559999999999999831e-01,-3.944424384765959357e-01,-5.853224917517003273e-02,1.536547116361150489e-01
3.569999999999999840e-01,-5.546680933173572803e-02,-1.633293393124936876e-01,-4.841495270144621083e-02
3.579999999999999849e-01,1.766390418393541106e-01,-4.473157501231039834e-02,-2.303130033475054572e-01
3.589999999999999858e-01,1.573032808916917102e-01,2.703297822095770964e-01,-3.721863707278282862e-01
3.599999999999999867e-01,-6.640538913384758102e-02,4.355651303956382669e-01,-2.860775422966149173e-01
3.609999999999999876e-01,-1.815472871072006389e-01,3.658885443145597494e-01,-6.183515103738596724e-02
3.619999999999999885e-01,-6.615219948725575838e-02,1.084586441151652453e-01,1.017843376173430681e-01
3.629999999999999893e-01,2.797031601626898678e-01,-1.462079385059995851e-01,7.458165787035346550e-02
3.639999999999999902e-01,5.998870361330450596e-01,-2.068043825852966811e-01,-9.612940712421273390e-03
3.649999999999999911e-01,5.458341055272342146e-01,-3.896805563411065432e-02,-1.465193207522151875e-01
3.659999999999999920e-01,2.043981883509135011e-01,1.163117003388346032e-01,-7.147709499989300663e-02
3.669999999999999929e-01,-1.799973467233747793e-01,1.316667732290301984e-01,7.811764392413672597e-02
3.679999999999999938e-01,-3.089364645895347206e-01,-1.216425453235593368e-01,2.891676733585845649e-01
3.689999999999999947e-01,-7.106678116191977868e-02,-3.883881550031572649e-01,3.343201443441447540e-01
3.699999999999999956e-01,1.270797335015251828e-01,-4.687922854471381351e-01,1.953520284875790713e-01
3.709999999999999964e-01,1.754082890689499241e-01,-2.338203156400967264e-01,-3.059119011919120279e-02
3.719999999999999973e-01,-8.797048844165651638e-02,4.089119311239820115e-02,-1.222224665727545678e-01
3.729999999999999982e-01,-4.064849071733094843e-01,2.676974729690968502e-01,-7.413313027378176656e-02
3.739999999999999991e-01,-5.710800956315642551e-01,1.918193393154863091e-01,7.862268360069511741e-02
3.750000000000000000e-01,-3.910055127751107529e-01,-4.080968159561973452e-02,1.258792280367153904e-01
3.760000000000000009e-01,-6.787926933500513550e-03,-1.366738911705694948e-01,1.239265162503213474e-02
3.770000000000000018e-01,2.760822144214965523e-01,2.247089704461867690e-02,-2.284553708418069207e-01
3.780000000000000027e-01,2.218790215008051847e-01,2.490364853050978100e-01,-3.565809010651666555e-01
3.790000000000000036e-01,3.295185673717228986e-04,4.268846368295118876e-01,-3.087951611584733302e-01
3.800000000000000044e-01,-1.938160595259628693e-01,3.241279081021436470e-01,-8.296698372980937375e-02
3.810000000000000053e-01,-5.779273026653332368e-02,-1.196668580790423951e-02,8.513203001924730950e-02
3.820000000000000062e-01,2.544878785551267786e-01,-2.237191134805344706e-01,1.509870940795782213e-01
3.830000000000000071e-01,5.431624698291970255e-01,-2.361718862701530086e-01,1.985827697373929168e-02
3.840000000000000080e-01,5.280516431924278109e-01,-7.462367883701778726e-02,-9.865561954963532332e-02
3.850000000000000089e-01,2.017371245736770125e-01,1.003842991573247190e-01,-1.008168196303811937e-01
3.860000000000000098e-01,-1.950574420801473308e-01,6.447725457256925363e-02,8.774637656692781118e-02
3.870000000000000107e-01,-3.188702967573367464e-01,-1.810916779700208479e-01,2.538529827065464373e-01
3.880000000000000115e-01,-1.694257318512225607e-01,-4.020359125394835642e-01,3.684771234686077812e-01
3.890000000000000124e-01,8.546651696985417546e-02,-3.975815864305546898e-01,2.168955640568521748e-01
3.900000000000000133e-01,1.291378196484817276e-01,-1.491849493686208949e-01,-1.531887748943363582e-02
3.910000000000000142e-01,-8.444793521575756634e-02,1.665557743165722859e-01,-1.793778502616061588e-01
3.920000000000000151e-01,-3.979109119550913176e-01,2.981911283380221378e-01,-1.483378624190859196e-01
3.930000000000000160e-01,-5.592852190441395255e-01,2.017163371698172392e-01,-4.823215204722822516e-03
3.940000000000000169e-01,-3.223195073657820764e-01,-3.335613400535573925e-02,1.090965046745102501e-01
3.950000000000000178e-01,3.201007411842974465e-02,-1.211012335679076679e-01,2.170335964054933772e-02
3.960000000000000187e-01,3.439128624559775194e-01,1.259266832618799112e-02,-1.393034557162026732e-01
3.970000000000000195e-01,2.855231686923819234e-01,2.929084008975098574e-01,-3.335344942761501730e-01
3.980000000000000204e-01,9.385559302382626146e-02,4.324364822155682964e-01,-3.464991121232889326e-01
3.990000000000000213e-01,-1.035617720932474894e-01,2.082018712120198567e-01,-1.071661703404722249e-01
4.000000000000000222e-01,-4.288176447080601500e-02,-7.694318700345066653e-02,7.298361866288609334e-02
4.010000000000000231e-01,2.476892862828977970e-01,-3.361431170687362857e-01,1.833836222235400437e-01
4.020000000000000240e-01,5.339149708956784091e-01,-2.979514984816091228e-01,1.346502140553907934e-01
4.030000000000000249e-01,4.758180453006755073e-01,-7.673822480715947192e-02,-5.387205406152011794e-02
4.040000000000000258e-01,1.309084973918756001e-01,9.685369399251218814e-02,-6.886751743793319280e-02
4.050000000000000266e-01,-2.625757649648532976e-01,6.280110340732479590e-02,4.582880550348433085e-02
4.060000000000000275e-01,-4.111649969568373364e-01,-2.066334084841567886e-01,1.982525475969146023e-01
4.069999999999999729e-01,-2.339615290786568602e-01,-4.048706628070637970e-01,3.179427463202839088e-01
4.079999999999999738e-01,4.415342455468571070e-02,-3.057380612898631389e-01,2.398910908487421889e-01
4.089999999999999747e-01,1.269244782006068439e-01,-5.046354410991007317e-02,-1.344752925365330642e-02
4.099999999999999756e-01,-6.041568753065657688e-02,2.737422387138838120e-01,-2.051555367427927989e-01
4.109999999999999765e-01,-3.870240876472949565e-01,3.632347140076992442e-01,-1.927698977989120432e-01
4.119999999999999774e-01,-4.867624607373217671e-01,2.452274765177718807e-01,-1.055539838447668022e-01
4.129999999999999782e-01,-2.864807788599327831e-01,1.686113042011146233e-03,4.567746728314478477e-02
4.139999999999999791e-01,1.145674200078441729e-01,-7.529158960541840195e-02,7.676943835927642346e-02
4.149999999999999800e-01,4.274048289321177307e-01,7.363884130952227935e-02,-1.073220454591586742e-01
4.159999999999999809e-01,3.703612635743702697e-01,2.909640665761362155e-01,-2.689505627189998638e-01
4.169999999999999818e-01,1.354731065174452076e-01,3.760360944217093770e-01,-3.221283272051778668e-01
4.179999999999999827e-01,-8.304924775419099403e-02,1.035299021851586315e-01,-1.364046080794764637e-01
4.189999999999999836e-01,-6.130399405469592194e-02,-2.043894512091434801e-01,1.135828344682552893e-01
4.199999999999999845e-01,2.226753506883393796e-01,-4.105480624724834326e-01,2.585154014311924486e-01
4.209999999999999853e-01,4.545174633647459661e-01,-3.029996196228900707e-01,1.768942221053978470e-01
4.219999999999999862e-01,4.012095634731350779e-01,-7.913211276382639547e-02,2.161170200987690485e-03
4.229999999999999871e-01,6.544735234331303109e-02,1.166733755397298955e-01,-5.322033636539467288e-02
4.239999999999999880e-01,-2.960753431039198080e-01,2.669181609966719479e-02,2.820231903883803348e-02
4.249999999999999889e-01,-5.018087647261662010e-01,-1.979955632511940788e-01,1.925340094844278926e-01
4.259999999999999898e-01,-2.926155731546644656e-01,-3.609187242394011341e-01,2.969978441980712924e-01
4.269999999999999907e-01,-1.177410169053694743e-02,-2.240468268461539569e-01,2.846588708072145257e-01
4.279999999999999916e-01,1.185108709194210713e-01,9.134585741258555158e-02,-2.726087702094372872e-02
4.289999999999999925e-01,-1.804663899704641444e-02,3.821551487216537923e-01,-2.170620748000215428e-01
4.299999999999999933e-01,-3.187947672248462316e-01,3.789864279771327227e-01,-2.750529593012635554e-01
4.309999999999999942e-01,-4.012875443362432515e-01,2.129178094798903076e-01,-1.578139993378872286e-01
4.319999999999999951e-01,-2.096469190152730477e-01,-1.010815705144198912e-01,1.540475398490352005e-02
4.329999999999999960e-01,1.538636331097921750e-01,-1.028830025041729684e-01,8.093902835939864593e-02
4.339999999999999969e-01,4.741230364238583905e-01,6.759245207911113162e-02,-3.469433991810415285e-02
4.349999999999999978e-01,4.265118204618504882e-01,2.871758298278856425e-01,-2.474255655697332745e-01
4.359999999999999987e-01,1.770354929078188089e-01,2.734407853938035649e-01,-2.836772335604685336e-01
4.369999999999999996e-01,-1.175512174180304154e-01,3.137519806102569749e-04,-1.527321954894076961e-01
4.380000000000000004e-01,-9.921437475238875647e-02,-2.956680269394698635e-01,1.497986986614419369e-01
4.390000000000000013e-01,1.424425777078445754e-01,-4.305104117843279732e-01,2.341078107825155519e-01
4.400000000000000022e-01,4.327914731736642318e-01,-3.277160544739117776e-01,2.652621608147046062e-01
4.410000000000000031e-01,3.608290826857669109e-01,-3.873590773692277972e-02,1.053491215829358979e-01
4.420000000000000040e-01,4.633838496377698513e-02,1.160958857291885526e-01,-2.765929922256882972e-02
4.430000000000000049e-01,-3.658400591414890379e-01,4.218722397726235723e-02,-2.694326145795764363e-02
4.440000000000000058e-01,-5.027100767368087864e-01,-1.730404639933536270e-01,1.130455559932468795e-01
4.450000000000000067e-01,-3.418439106754060930e-01,-2.773612696246330334e-01,2.065505159914516886e-01
4.460000000000000075e-01,-2.214288896818309565e-02,-1.424310898399171466e-01,2.139721043934693923e-01
4.470000000000000084e-01,1.528355053002349306e-01,1.514957093637709917e-01,2.865163947993547983e-02
4.480000000000000093e-01,3.101164034544317757e-02,4.023287494571431422e-01,-2.364407050975713409e-01
4.490000000000000102e-01,-2.537052403377249021e-01,3.870534357599182407e-01,-2.863119677730379120e-01
4.500000000000000111e-01,-3.684494251568992684e-01,1.590900744789810195e-01,-1.753495666405732178e-01
4.510000000000000120e-01,-1.916217626272030405e-01,-9.198513990488019210e-02,-5.206354174411802205e-02
4.520000000000000129e-01,1.971091693610689255e-01,-1.148104282077352101e-01,7.175143497108101009e-02
4.530000000000000138e-01,5.298867009655847671e-01,8.666739446714893935e-02,1.297852613121757911e-02
4.540000000000000147e-01,5.025489053524705430e-01,2.322491157345950019e-01,-1.449557839232118173e-01
4.550000000000000155e-01,1.788042853636330198e-01,1.787289882655002937e-01,-2.488634242060829560e-01
4.560000000000000164e-01,-1.050218948282030662e-01,-3.879609461057469122e-02,-1.471982033109210941e-01
4.570000000000000173e-01,-1.000716863439556764e-01,-3.350659136702865970e-01,7.495420494780742626e-02
4.580000000000000182e-01,7.283342047300417343e-02,-4.692506495406134071e-01,2.768254123808709388e-01
4.590000000000000191e-01,3.048699725493342338e-01,-2.518642657449486899e-01,2.831062007203776765e-01
4.600000000000000200e-01,2.927227130085744422e-01,2.582393421970532663e-02,1.430913252078875320e-01
4.610000000000000209e-01,-2.757204484389666130e-02,1.672441144850423111e-01,-2.712688579100518832e-02
4.620000000000000218e-01,-4.178659229621670690e-01,6.452879804203330572e-02,-8.773687338694358129e-02
4.630000000000000226e-01,-5.771282421648150640e-01,-1.600935807602376082e-01,1.727254927372954066e-02
4.640000000000000235e-01,-3.863895938018309661e-01,-2.434427774103505304e-01,1.651781817150059783e-01
4.650000000000000244e-01,-3.458147397342200419e-02,-4.545266087844356678e-02,2.075702429419417072e-01
4.660000000000000253e-01,1.861042352227921526e-01,2.831353492486775036e-01,4.140107375010628615e-02
4.670000000000000262e-01,6.091724484882788532e-02,4.673026106991867712e-01,-2.147372349080987897e-01
4.680000000000000271e-01,-1.515892720129688453e-01,3.395776298187491715e-01,-3.215535500627878518e-01
4.689999999999999725e-01,-3.200082027299790965e-01,8.690316702559469642e-02,-2.692140325429558945e-01
4.699999999999999734e-01,-1.198470320525189398e-01,-1.052260155214733289e-01,-5.410998234873353602e-02
4.709999999999999742e-01,2.281587854460977172e-01,-1.294205802088089496e-01,9.577357764628233183e-02
4.719999999999999751e-01,5.158498698499749402e-01,2.245891057927159457e-02,8.092816817039361066e-02
4.729999999999999760e-01,5.419339890462226972e-01,1.961951294275986746e-01,-5.871895855712962187e-02
4.739999999999999769e-01,1.778442139610295625e-01,1.341985054861055404e-01,-1.806728373685088929e-01
4.749999999999999778e-01,-1.269447288264284324e-01,-1.538703942952992232e-01,-1.265571097898175179e-01
4.759999999999999787e-01,-1.517192554804841498e-01,-3.725941258820465452e-01,6.550976127383664749e-02
4.769999999999999796e-01,-7.991723720795915198e-03,-4.337585595977699882e-01,2.620655307380607701e-01
4.779999999999999805e-01,2.247208823705193759e-01,-2.056343798091879171e-01,2.718178256920870672e-01
4.789999999999999813e-01,2.102424230749524170e-01,9.656080835930118400e-02,1.854315247589429783e-01
4.799999999999999822e-01,-7.995950075369552545e-02,2.207379847415930629e-01,2.329737489811808601e-02
4.809999999999999831e-01,-4.323124643910749021e-01,9.633676162732671133e-02,-1.260981283962943900e-01
4.819999999999999840e-01,-5.597904016001669092e-01,-1.261214793094748987e-01,-3.587410879245647027e-02
4.829999999999999849e-01,-3.428425023469843236e-01,-1.684947326980774929e-01,1.359431011101564502e-01
4.839999999999999858e-01,-1.626219284027364403e-02,1.626637327184324647e-02,1.790883519110743338e-01
4.849999999999999867e-01,2.476154807641480216e-01,3.139752647395738783e-01,5.630801462729558698e-02
4.859999999999999876e-01,1.751582399717544480e-01,4.522301586163584020e-01,-1.683307397711744924e-01
4.869999999999999885e-01,-7.833648487755835721e-02,3.637417946852163908e-01,-3.278012928145324079e-01
4.879999999999999893e-01,-2.706310868766990119e-01,4.214564128219687976e-03,-3.027047909708261431e-01
4.889999999999999902e-01,-8.375332087037398732e-02,-2.240366361786975125e-01,-7.961131798816860339e-02
4.899999999999999911e-01,2.515509571684529377e-01,-1.900586187649440373e-01,7.437744371456776749e-02
4.909999999999999920e-01,5.089875262119064603e-01,-8.214141810454964748e-03,1.377737090931953068e-01
4.919999999999999929e-01,5.199815345488452145e-01,1.292887152719118526e-01,9.210690785949967110e-03
4.929999999999999938e-01,1.767025715630400895e-01,2.650344284529064856e-02,-1.248702889878974542e-01
4.939999999999999947e-01,-2.110588880685224378e-01,-2.086301638102135425e-01,-1.469377755257178231e-01
4.949999999999999956e-01,-2.844844339581576453e-01,-4.487695880885209099e-01,3.021424158238814051e-02
4.959999999999999964e-01,-1.158276822522417565e-01,-3.882492437751566272e-01,2.100708041305588691e-01
4.969999999999999973e-01,1.234645990317589509e-01,-1.088141108629951115e-01,3.619656757407305747e-01
4.979999999999999982e-01,2.001924796478699309e-01,1.604339524972744346e-01,2.530508260604831250e-01
4.989999999999999991e-01,-6.429795507234291330e-02,2.450039320512425733e-01,1.273193575493793139e-02
5.000000000000000000e-01,-4.471482683166014827e-01,1.112692198440737301e-01,-1.298211612100464152e-01
5.010000000000000009e-01,-5.443677200938119576e-01,-4.939800311857289045e-02,-9.077101698297199150e-02
5.020000000000000018e-01,-3.725273678590920179e-01,-1.024447753154861807e-01,1.977649826308765582e-02
5.030000000000000027e-01,5.348216134582989278e-02,9.878259420598957397e-02,1.199321004761564335e-01
5.040000000000000036e-01,2.923892183560525826e-01,3.578150383854156735e-01,5.888217631187205037e-02
5.050000000000000044e-01,2.188908749089891193e-01,4.312061991813689876e-01,-1.435491198116954081e-01
5.060000000000000053e-01,2.446197033771225614e-03,2.517324196508067824e-01,-3.066296208270934409e-01
5.070000000000000062e-01,-1.445903745365219872e-01,-8.818828732205527543e-02,-3.282289051516850131e-01
5.080000000000000071e-01,-4.371661759339940528e-02,-2.857970176896658665e-01,-1.156383612391244514e-01
5.090000000000000080e-01,2.657599820560870851e-01,-2.229088652478029564e-01,8.709785290215975306e-02
5.100000000000000089e-01,5.102901923708276222e-01,-4.528360748120391355e-02,1.618899305356446550e-01
5.110000000000000098e-01,5.082471433317057308e-01,7.809144933771906827e-02,7.722798245349102308e-02
5.120000000000000107e-01,1.313073214960568114e-01,7.033298705269698005e-03,-7.159756861092343716e-02
5.130000000000000115e-01,-2.042493340377496414e-01,-2.190634724160677171e-01,-1.147151079320898742e-01
5.140000000000000124e-01,-3.482469424177198070e-01,-4.443687688451773976e-01,-8.925765913526482326e-04
5.150000000000000133e-01,-1.731653610947229138e-01,-3.561173098063699083e-01,2.675549249810689201e-01
5.160000000000000142e-01,9.234337690639486673e-02,1.727976315115744470e-03,3.332393543976316930e-01
5.170000000000000151e-01,1.510751595798670854e-01,2.476906024768742720e-01,2.790647333632436666e-01
5.180000000000000160e-01,-1.139432253527455918e-01,3.300026802282716165e-01,4.944634695950184122e-02
5.190000000000000169e-01,-4.149304051223946521e-01,1.495959796229545669e-01,-1.512445481328941466e-01
5.200000000000000178e-01,-5.742529188535903106e-01,-5.274647327367851246e-02,-1.728176706269837493e-01
5.210000000000000187e-01,-3.608322397320534725e-01,-6.319891052340227688e-02,-5.416261233592650076e-02
5.220000000000000195e-01,9.498776575153501656e-02,1.450416746439332216e-01,6.244300214370080565e-02
5.230000000000000204e-01,3.643717719180529224e-01,3.655686832123579144e-01,8.592573717364374031e-02
5.240000000000000213e-01,3.297683887249651669e-01,3.623685416105227874e-01,-1.463874804567062704e-01
5.250000000000000222e-01,5.334529362508884376e-02,1.436191396396150344e-01,-2.755353075586083889e-01
5.260000000000000231e-01,-1.540657941106925721e-01,-1.838636698720897134e-01,-3.041196124595783035e-01
5.270000000000000240e-01,-6.340228421216266563e-03,-3.612199911200602021e-01,-1.609471324223024080e-01
5.280000000000000249e-01,2.644711426121147402e-01,-2.309215479400544002e-01,7.123646837253333475e-02
5.290000000000000258e-01,5.312336981952582304e-01,-2.314022818096993922e-02,1.628871696345092213e-01
5.300000000000000266e-01,4.594208071462637100e-01,3.877178469112668724e-02,1.429222672469210864e-01
5.310000000000000275e-01,1.041572191068170783e-01,-5.195952372343345255e-02,1.469739225276090085e-02
5.320000000000000284e-01,-2.579822438338675861e-01,-2.563302857152163217e-01,-1.164275143593224565e-01
5.330000000000000293e-01,-4.052507298466193064e-01,-3.716663906882483603e-01,6.921936558017586193e-03
5.340000000000000302e-01,-2.169967141697647373e-01,-2.542954893030477392e-01,1.970746459175985454e-01
5.350000000000000311e-01,8.520526798577192709e-03,1.081154842530567262e-01,3.406123588315126405e-01
5.360000000000000320e-01,1.147528295691743333e-01,3.244156381308737624e-01,2.566992330127045308e-01
5.370000000000000329e-01,-8.965792726611179764e-02,3.714581516052086196e-01,4.385209115518481915e-02
5.380000000000000338e-01,-3.514297342354076314e-01,1.157247017399282152e-01,-1.795494005993779896e-01
5.390000000000000346e-01,-4.863861789442464056e-01,-5.704541314290015319e-02,-2.488952308523923185e-01
5.400000000000000355e-01,-2.890349031336571506e-01,-4.561441720350004059e-02,-9.659811029286335948e-02
5.410000000000000364e-01,1.570694402153408331e-01,1.564116089440724111e-01,2.759888714024417641e-02
5.420000000000000373e-01,4.174624692171378104e-01,3.391428608505030473e-01,2.302778600766611922e-02
5.430000000000000382e-01,3.916218035576151113e-01,3.360978512656404016e-01,-6.474693486094673656e-02
5.440000000000000391e-01,1.575390356035153150e-01,3.601825518809872312e-02,-2.434237246856099657e-01
5.450000000000000400e-01,-8.047177404472644069e-02,-2.681906412064972156e-01,-2.784243901729106518e-01
5.460000000000000409e-01,-6.489490238126781330e-02,-4.029376397884729677e-01,-1.525430245895836312e-01
5.470000000000000417e-01,2.146363681975522464e-01,-2.820825746695619918e-01,7.482042368348787442e-02
5.480000000000000426e-01,4.413973340722668337e-01,-6.207001974567296840e-03,2.475390997278950622e-01
5.490000000000000435e-01,3.742988686482801031e-01,4.573905065554446925e-02,2.031234370225730168e-01
5.500000000000000444e-01,5.448604835860846457e-02,-6.282250395342757476e-02,6.127370650649049261e-02
5.510000000000000453e-01,-3.520307996360792502e-01,-2.941139927616270300e-01,-7.812790382000335543e-02
5.520000000000000462e-01,-5.026792027984102740e-01,-3.403337574290021261e-01,-1.682161307794540622e-02
5.530000000000000471e-01,-3.301347806179556477e-01,-1.508222067472447525e-01,9.567402118209762663e-02
5.540000000000000480e-01,-2.878084547879282765e-02,1.856346033686404329e-01,2.415350475426216170e-01
5.550000000000000488e-01,1.235177692607389438e-01,4.107051986140341504e-01,2.094775261458967919e-01
5.560000000000000497e-01,-4.917339174752687059e-02,3.836101984654634589e-01,5.136642052899058342e-02
5.570000000000000506e-01,-3.448356659412491476e-01,1.321867082659442805e-01,-1.545845186110807457e-01
5.580000000000000515e-01,-4.562627065310668750e-01,-4.397213900448838225e-02,-2.675219514088498229e-01
5.590000000000000524e-01,-2.138022212863359139e-01,-4.033067669834177610e-02,-1.888167692425293531e-01
5.600000000000000533e-01,1.870840943226705910e-01,1.879356369056154608e-01,-8.946547242823992691e-03
5.610000000000000542e-01,4.943024452843171046e-01,3.328644115787179891e-01,5.970399414545450589e-02
5.620000000000000551e-01,4.610973678670060583e-01,2.323227638027981490e-01,-2.007929876011153858e-02
5.629999999999999449e-01,1.609070707687203505e-01,-7.142225897791121270e-02,-1.966401503511178983e-01
5.639999999999999458e-01,-5.345943139811046296e-02,-3.764723941078233493e-01,-2.579667034892400568e-01
5.649999999999999467e-01,-8.768278913189518631e-02,-4.585252550573292174e-01,-1.699502590598177265e-01
5.659999999999999476e-01,1.709911890836491311e-01,-2.631742631689223400e-01,3.062679005591900649e-02
5.669999999999999485e-01,4.062872373504169965e-01,1.432463446756582909e-02,2.787086526420106125e-01
5.679999999999999494e-01,3.380410914159431290e-01,1.021896985292818916e-01,2.729254158021850452e-01
5.689999999999999503e-01,-1.217949753078066168e-02,-5.329351980678870282e-02,1.114899503996887586e-01
5.699999999999999512e-01,-4.332416835615280348e-01,-2.338543408567731741e-01,-1.601679044237765484e-02
5.709999999999999520e-01,-5.487363656077127727e-01,-2.626168858464927314e-01,-6.569688054011192657e-02
5.719999999999999529e-01,-3.400573588704276506e-01,-1.139452485648610736e-02,6.794507105818690940e-02
5.729999999999999538e-01,-5.305233520629521610e-02,3.140442549617940005e-01,2.432468819958455986e-01
5.739999999999999547e-01,1.187452761490109948e-01,4.334925127983322857e-01,2.267537656404959578e-01
5.749999999999999556e-01,-1.967043715316052835e-03,3.662696084121906948e-01,5.779526839082538975e-02
5.759999999999999565e-01,-3.052726130330147836e-01,1.068070826415320335e-01,-1.690676791067798335e-01
5.769999999999999574e-01,-3.757789846061962979e-01,-1.501552529605367503e-01,-3.121316113217666444e-01
5.779999999999999583e-01,-1.441252079439962197e-01,-6.623097016481102606e-02,-2.428330430991393063e-01
5.789999999999999591e-01,2.442945415895210470e-01,1.456532918988251435e-01,-6.519927150555986095e-02
5.799999999999999600e-01,5.635765626210449408e-01,2.520146091453682180e-01,6.460840645719648223e-02
5.809999999999999609e-01,5.313705244860891241e-01,9.464932370158793407e-02,-2.312056482868757128e-04
5.819999999999999618e-01,2.288569003387339873e-01,-1.789042457188783353e-01,-8.315786508792386011e-02
5.829999999999999627e-01,-8.341909059671605287e-02,-4.212527023879143462e-01,-2.404167636230569449e-01
5.839999999999999636e-01,-1.486467002004897842e-01,-4.321746950843398105e-01,-1.596012115215318938e-01
5.849999999999999645e-01,9.391171653580591971e-02,-2.617791944209286181e-01,3.789754577613060199e-02
5.859999999999999654e-01,2.714957891436020621e-01,7.230578911771855244e-02,2.584088182926622679e-01
5.869999999999999662e-01,2.842554950428468064e-01,1.192697945347482719e-01,2.811255472760753604e-01
5.879999999999999671e-01,-5.170401567582742774e-02,-1.969092121708601248e-02,1.878590604728057056e-01
5.889999999999999680e-01,-4.592776639077338352e-01,-1.885756420642763498e-01,1.391548144407372956e-02
5.899999999999999689e-01,-5.785308752002674693e-01,-2.015416762851281185e-01,-6.770588834740874640e-02
5.909999999999999698e-01,-3.811766161484179127e-01,8.955782137921387831e-02,2.090132083840417695e-02
5.919999999999999707e-01,-1.516640466440702557e-02,3.739592091860586276e-01,1.285022346959742712e-01
5.929999999999999716e-01,1.259162794432903132e-01,4.828755508206736269e-01,2.279420129490034308e-01
5.939999999999999725e-01,7.276796341088280495e-02,3.071205949213268727e-01,5.142917050868171802e-02
5.949999999999999734e-01,-1.875283535893005893e-01,1.969060456098142842e-02,-1.448547283917043793e-01
5.959999999999999742e-01,-3.071224360259203756e-01,-1.488343662566871950e-01,-2.998166967479355405e-01
5.969999999999999751e-01,-7.806746129261997458e-02,-7.895772020726671281e-02,-3.218112493802777752e-01
5.979999999999999760e-01,2.928838577289861189e-01,1.225965650442850802e-01,-1.220062752474562057e-01
5.989999999999999769e-01,5.805566575836663690e-01,1.759681381058944283e-01,2.809822190250070573e-02
5.999999999999999778e-01,5.155802070009480875e-01,1.066130594112928674e-02,6.764838071602093106e-02
6.009999999999999787e-01,2.037120612025638267e-01,-2.710845819802341627e-01,-5.343141102309412194e-02
6.019999999999999796e-01,-9.315624566769203918e-02,-4.598343812510020112e-01,-1.545580889826877191e-01
6.029999999999999805e-01,-1.651140257672120970e-01,-4.342622127238145446e-01,-1.393687575039272430e-01
6.039999999999999813e-01,1.879196886766736074e-02,-1.708397363550006876e-01,4.528318100072762503e-02
6.049999999999999822e-01,2.272868356225885011e-01,9.575978789952591108e-02,2.646972775902435293e-01
6.059999999999999831e-01,2.055176626777032445e-01,1.872821430791605235e-01,3.468543132224176651e-01
6.069999999999999840e-01,-6.888453158613394578e-02,1.687215518227640904e-02,2.215657727214711825e-01
6.079999999999999849e-01,-4.696388272317933432e-01,-1.134574151104890682e-01,1.604355487995855895e-02
6.089999999999999858e-01,-6.054677876689671390e-01,-6.945726910187034753e-02,-9.937495884982318339e-02
6.099999999999999867e-01,-4.231586259140584505e-01,1.688592870667286749e-01,-4.930723884748586250e-02
6.109999999999999876e-01,-3.138242162827190734e-02,4.506486667964473836e-01,9.118753396760753693e-02
6.119999999999999885e-01,2.207430864804169335e-01,5.391166627773055220e-01,1.722064896771334230e-01
6.129999999999999893e-01,1.502722838358591939e-01,2.630569826724150628e-01,9.350591926387068209e-02
6.139999999999999902e-01,-1.159201026089239639e-01,-4.468881688644401468e-02,-1.417933361918995994e-01
6.149999999999999911e-01,-1.907057241599894593e-01,-2.289159850431917442e-01,-2.945783384169093355e-01
6.159999999999999920e-01,-3.375187227750079538e-02,-1.430379091036173833e-01,-3.276606629957440342e-01
6.169999999999999929e-01,3.327058500519798345e-01,9.352855141367277803e-02,-1.588924261357796131e-01
6.179999999999999938e-01,5.655757069997749964e-01,1.550647257829961267e-01,5.621221348395088330e-02
6.189999999999999947e-01,5.482154942040172729e-01,-2.550214788443533852e-03,1.340636530807113869e-01
6.199999999999999956e-01,2.078186507984870757e-01,-3.354026914073354737e-01,1.092559034006997803e-02
6.209999999999999964e-01,-1.445453267645652462e-01,-4.614591800897909768e-01,-1.075640662191178903e-01
6.219999999999999973e-01,-2.606320792659569396e-01,-3.792616805531263124e-01,-1.410436142868961851e-01
6.229999999999999982e-01,-1.026010034255913916e-01,-6.967089961905521822e-02,-7.498427614823113645e-03
6.239999999999999991e-01,1.492131711759053236e-01,2.011172284454369741e-01,2.574756579707211390e-01
6.250000000000000000e-01,1.182972868189678534e-01,2.155403481645734587e-01,3.428683276456025442e-01
6.260000000000000009e-01,-1.215252067824560273e-01,4.771834858735405499e-02,2.550642859660738337e-01
6.270000000000000018e-01,-4.999800667233758045e-01,-1.046368100835402687e-01,1.183195722373634323e-01
6.280000000000000027e-01,-6.215512364391571065e-01,-5.066826325036784956e-02,-1.062870381439034728e-01
6.290000000000000036e-01,-3.694609795291289300e-01,2.295373374600899741e-01,-1.133111991553302778e-01
6.300000000000000044e-01,9.680044061007772246e-03,4.835619845399198313e-01,-3.809027296092989956e-02
6.310000000000000053e-01,2.834950452237148810e-01,5.070548070673248642e-01,1.110800799686983836e-01
6.320000000000000062e-01,1.930828142299317041e-01,1.828886787211390641e-01,4.168732254238689816e-02
6.330000000000000071e-01,1.779824757812927807e-03,-1.258017003948392332e-01,-1.162574695373363581e-01
6.340000000000000080e-01,-1.235763888736277905e-01,-2.986214735533971321e-01,-3.085619729229322483e-01
6.350000000000000089e-01,-1.589001872315464609e-02,-1.590952512190490498e-01,-3.440076584355507006e-01
6.360000000000000098e-01,3.232523461891426697e-01,-1.372258438175308001e-02,-2.298597374921975411e-01
6.370000000000000107e-01,5.732636532390368300e-01,5.334700258804910000e-02,2.945541191041970222e-02
6.380000000000000115e-01,5.396708159442511477e-01,-1.222282298509939497e-01,1.797999441657528730e-01
6.390000000000000124e-01,1.850666949419062235e-01,-3.968914606997502315e-01,1.219144552630328227e-01
6.400000000000000133e-01,-2.158509697058510757e-01,-4.889809029055800504e-01,-5.402356136344932391e-02
6.410000000000000142e-01,-3.051994438286577682e-01,-2.741648311956946249e-01,-8.415746352411269948e-02
6.420000000000000151e-01,-1.942887555297713731e-01,4.228703742151078415e-02,-2.137442372439671973e-02
6.430000000000000160e-01,3.929052987786666590e-02,2.607816014414952588e-01,1.964750582125663059e-01
6.440000000000000169e-01,8.940330415116269636e-02,2.872194664878354176e-01,3.458439552056291610e-01
6.450000000000000178e-01,-1.584317804149604214e-01,8.271750033225747090e-02,2.830629698158274032e-01
6.460000000000000187e-01,-4.942807294601724299e-01,-7.066594222033958927e-02,1.068700111293826860e-01
6.470000000000000195e-01,-5.544531235084103615e-01,3.938015230208291584e-02,-1.113852449251187537e-01
6.480000000000000204e-01,-2.907115571956186417e-01,2.858049500024925638e-01,-1.999216486147060434e-01
6.490000000000000213e-01,6.386820201023690746e-02,4.920650401686242903e-01,-7.487521656556378469e-02
6.500000000000000222e-01,3.789228603692783026e-01,3.997726769993196205e-01,6.079210557938826559e-02
6.510000000000000231e-01,3.089750265997083245e-01,8.401532538645109516e-02,5.410980510661588666e-02
6.520000000000000240e-01,6.127755949871318414e-02,-2.545422132518199709e-01,-2.793520405711861360e-02
6.530000000000000249e-01,-8.599013811491945658e-02,-3.631870467451895346e-01,-3.003323977050572080e-01
6.540000000000000258e-01,2.635737893985408073e-02,-2.261694129192357294e-01,-3.477878863993591474e-01
6.550000000000000266e-01,3.503152732849800777e-01,3.145822341408082302e-03,-2.192769846131410461e-01
6.560000000000000275e-01,5.453260520143873302e-01,4.606895562202931171e-02,2.960728057329483839e-02
6.570000000000000284e-01,4.797041368031638164e-01,-1.964100677650375271e-01,1.565933008726047293e-01
6.580000000000000293e-01,1.345418782032314076e-01,-3.591706748744891153e-01,1.969673927336230701e-01
6.590000000000000302e-01,-2.775642103664362481e-01,-4.275020335956991047e-01,5.954993329962268017e-02
6.600000000000000311e-01,-4.187017724818941633e-01,-1.926585619588375153e-01,-7.068865484644379360e-02
6.610000000000000320e-01,-2.371012841479053224e-01,1.334593992649122374e-01,-2.142950124553510537e-03
6.620000000000000329e-01,-3.404390930925225989e-02,3.567086157936467106e-01,1.820304622294519059e-01
6.630000000000000338e-01,6.682930811080495248e-02,3.491766659905369830e-01,3.099426629231671337e-01
6.640000000000000346e-01,-1.385881097257096461e-01,1.035685090253843227e-01,3.060122670646251430e-01
6.650000000000000355e-01,-4.774528934013130277e-01,-3.103546734685393507e-02,1.013467672008553644e-01
6.660000000000000364e-01,-5.619320614324746499e-01,9.747180771636379526e-02,-1.054939056924846935e-01
6.670000000000000373e-01,-2.726642475505263730e-01,2.818820127370925688e-01,-2.760926049894384393e-01
6.680000000000000382e-01,1.487507206239448432e-01,4.443004241956000078e-01,-1.374528431525933458e-01
6.690000000000000391e-01,4.318632020541500749e-01,3.034312853443609792e-01,-1.987646803941298460e-02
6.700000000000000400e-01,4.081663056850461380e-01,-2.436483890734040397e-02,4.586680671487435718e-02
6.710000000000000409e-01,1.199706984946680710e-01,-3.372707166659432154e-01,-3.121707548547641639e-02
6.720000000000000417e-01,-4.145865863829599485e-02,-4.176330415250311123e-01,-2.405785476106766518e-01
6.730000000000000426e-01,2.801685434075280173e-02,-2.086928399528236167e-01,-3.284467181619453724e-01
6.740000000000000435e-01,3.047565575472941934e-01,-1.572120072982343894e-02,-2.294902606578863857e-01
6.750000000000000444e-01,5.131322330137484400e-01,-1.517696451084954348e-03,-2.637951687750157703e-02
6.760000000000000453e-01,4.303760839809448457e-01,-1.652235092366248770e-01,2.056086527726698199e-01
6.770000000000000462e-01,5.651537654994997356e-02,-3.408619361765171663e-01,2.618022210825401985e-01
6.780000000000000471e-01,-3.321059367850296984e-01,-3.500462947905090272e-01,1.371919523710060373e-01
6.790000000000000480e-01,-5.105964421724772384e-01,-8.582918225169473836e-02,-1.245124543322318270e-02
6.800000000000000488e-01,-3.230183142785741923e-01,2.575346623835084170e-01,-5.254402796120768993e-02
6.810000000000000497e-01,-1.963665594645014334e-02,4.247561259411408163e-01,7.300067453802072670e-02
6.820000000000000506e-01,3.843119184492251039e-02,3.188759504037527170e-01,2.987099965543132951e-01
6.830000000000000515e-01,-1.387583288894653766e-01,8.859474428066817231e-02,2.686065982446017575e-01
6.840000000000000524e-01,-4.074298805026572157e-01,-2.507069394064304416e-02,1.497629364149625497e-01
6.850000000000000533e-01,-5.032314807069265816e-01,6.382542247658221091e-02,-1.127765527721635713e-01
6.860000000000000542e-01,-2.048243085128356178e-01,2.715211289397866934e-01,-2.727480782344983146e-01
6.870000000000000551e-01,1.987439894312354183e-01,3.758082303729515794e-01,-2.551953949170071012e-01
6.879999999999999449e-01,5.265995689109557176e-01,1.701005868136131749e-01,-6.695171227363204414e-02
6.889999999999999458e-01,4.534301745298647823e-01,-1.330583222780916675e-01,8.847545502793492667e-03
6.899999999999999467e-01,2.148622542906905020e-01,-4.089998593043238651e-01,5.322173136661608600e-03
6.909999999999999476e-01,-3.278118118701755374e-02,-4.016017851615057421e-01,-1.728033051236305684e-01
6.919999999999999485e-01,1.638377343264874053e-02,-2.150066840661269962e-01,-2.843668438589662673e-01
6.929999999999999494e-01,2.770704601672735468e-01,-2.861444453899430335e-02,-2.415705392523428419e-01
6.939999999999999503e-01,4.607831721225090216e-01,1.985545135747146528e-02,3.234697247602900949e-02
6.949999999999999512e-01,3.255631201449364354e-01,-1.555340410411298890e-01,2.013051236424837354e-01
6.959999999999999520e-01,-3.883820814270627642e-02,-3.218783902461889168e-01,2.746449819750136356e-01
6.969999999999999529e-01,-3.676482682672860269e-01,-2.483432683273762431e-01,2.055075326915236367e-01
6.979999999999999538e-01,-5.565320919862160043e-01,4.590255705214336263e-02,3.296030208631581249e-02
6.989999999999999547e-01,-3.791034386470814588e-01,3.958302732788609446e-01,-1.739705706218420272e-02
6.999999999999999556e-01,-7.363465793667491044e-02,5.078733611534984593e-01,5.956187696601888959e-02
7.009999999999999565e-01,4.935214058801135756e-02,3.640517320035722149e-01,2.291790631864638328e-01
7.019999999999999574e-01,-1.159103972780768793e-01,9.864490198838797574e-02,2.474439881354365267e-01
7.029999999999999583e-01,-3.564233493394878272e-01,-5.377810469110216873e-02,8.864864463588477406e-02
7.039999999999999591e-01,-4.209229607343524249e-01,6.637625238855054954e-02,-8.805854767595047705e-02
7.049999999999999600e-01,-1.695353385450175387e-01,2.479598474985774959e-01,-3.037718681256374453e-01
7.059999999999999609e-01,2.551068897503847577e-01,2.706238270422650083e-01,-2.791247063488709879e-01
7.069999999999999618e-01,5.405369092049246982e-01,2.784058610760843655e-02,-1.710541570117964094e-01
7.079999999999999627e-01,5.320191466349519782e-01,-3.020648199470589712e-01,1.640524619069994722e-02
7.089999999999999636e-01,2.471744183935168093e-01,-5.014513587336831835e-01,8.948579082439603663e-03
7.099999999999999645e-01,1.528758981298029319e-02,-4.489653474233618602e-01,-1.302236175296404841e-01
7.109999999999999654e-01,-2.735014374079082489e-02,-2.299452779592722762e-01,-2.403619330434582646e-01
7.119999999999999662e-01,1.606857881636496177e-01,6.181731346633446977e-02,-2.047864434145502677e-01
7.129999999999999671e-01,3.793054867679142572e-01,3.815398909153310675e-02,-3.061671612150802455e-02
7.139999999999999680e-01,3.289855353279501626e-01,-1.563159624522283131e-01,2.300755220706526272e-01
7.149999999999999689e-01,-9.182243864280856260e-02,-2.617403116812674901e-01,3.092882439829386376e-01
7.159999999999999698e-01,-4.635007437638421490e-01,-1.309120835876856626e-01,2.536468901793362818e-01
7.169999999999999707e-01,-6.357242935299772801e-01,1.925137733933633133e-01,5.513123014209496409e-02
7.179999999999999716e-01,-4.327592797325308660e-01,4.684747581128441696e-01,-1.567069496728513978e-02
7.189999999999999725e-01,-1.205481451847459362e-01,5.269209321046067762e-01,-3.810495497238388599e-03
7.199999999999999734e-01,6.199505777421557978e-02,3.439446282681059008e-01,1.278596399051915300e-01
7.209999999999999742e-01,-7.255669486486248168e-03,4.684909265460902861e-02,2.221476053447846433e-01
7.219999999999999751e-01,-2.600009099635628984e-01,-1.203945802620417505e-01,1.353383764023693980e-01
7.229999999999999760e-01,-3.066470243819447994e-01,7.865856496089477720e-03,-8.708400308851457772e-02
7.239999999999999769e-01,-1.208385390892234429e-01,1.935632104347854154e-01,-2.858732691844751428e-01
7.249999999999999778e-01,3.490561855752583043e-01,2.060646545036046162e-01,-3.848869933919552011e-01
7.259999999999999787e-01,6.315991448870518221e-01,-6.207035050401398663e-02,-2.086637069789256949e-01
7.269999999999999796e-01,5.760505638202045864e-01,-4.282922355498302580e-01,-2.281737165573454601e-02
7.279999999999999805e-01,2.546473012164949257e-01,-5.235423896791792098e-01,3.425853410304848662e-02
7.289999999999999813e-01,-3.287218330248949799e-02,-4.510923162428652211e-01,-3.985193186208346727e-02
7.299999999999999822e-01,-1.059434529727453778e-01,-1.427553677477043370e-01,-1.446547275222110351e-01
7.309999999999999831e-01,9.192521857310918809e-02,1.079544052824541051e-01,-1.677119979842712771e-01
7.319999999999999840e-01,2.671739337834250216e-01,6.016786769475472585e-02,-3.558417214985942767e-02
7.329999999999999849e-01,2.157859886218473910e-01,-7.365318821517906345e-02,2.081924225119155258e-01
7.339999999999999858e-01,-1.417709203567157905e-01,-1.801797705546752393e-01,3.794821634002762401e-01
7.349999999999999867e-01,-5.428950480644859633e-01,-3.990444678149444174e-02,2.960373214593875479e-01
7.359999999999999876e-01,-6.311385717202033785e-01,2.611056963142677767e-01,1.368884105187223588e-01
7.369999999999999885e-01,-4.715467367725968972e-01,5.522888875751097437e-01,-4.873825777676614457e-02
7.379999999999999893e-01,-1.010081288636732050e-01,5.003320698883103601e-01,-7.580688247763545107e-02
7.389999999999999902e-01,1.263490297500617088e-01,2.773151334254093658e-01,7.985453733983868818e-02
7.399999999999999911e-01,2.544377847165387244e-02,-4.230970020656665831e-02,2.218829000042722432e-01
7.409999999999999920e-01,-1.387721169135820165e-01,-1.592606316225066154e-01,1.101749044764618463e-01
7.419999999999999929e-01,-2.324836001907980565e-01,3.900094294062182373e-03,-6.005844917578490039e-02
7.429999999999999938e-01,-2.373115789998510999e-02,1.284082740374390963e-01,-3.125256042609556029e-01
7.439999999999999947e-01,3.954641167979467964e-01,7.748152736443103539e-02,-3.670447244065247472e-01
7.449999999999999956e-01,6.688207460209810717e-01,-2.007341092602826782e-01,-2.661824847124634186e-01
7.459999999999999964e-01,6.115861882664028748e-01,-4.528705132810589840e-01,-5.183327777604718190e-02
7.469999999999999973e-01,2.798319321111146230e-01,-5.606140203850663584e-01,5.200537431209292794e-02
7.479999999999999982e-01,-6.285908449761420935e-02,-4.257732255736034199e-01,2.957625677791905078e-02
7.489999999999999991e-01,-1.878322713504962105e-01,-4.342893252346739785e-02,-8.711142053241317795e-02
7.500000000000000000e-01,-4.552387250881987507e-02,1.803871117483976660e-01,-1.511673351777985674e-01
7.510000000000000009e-01,1.664179511807340472e-01,1.409981889923392351e-01,-4.584019488550793858e-02
7.520000000000000018e-01,1.473271690458127503e-01,-5.810796232172342479e-02,1.828723902489275133e-01
7.530000000000000027e-01,-1.868778434052610349e-01,-9.512589820824719766e-02,3.876608048849639609e-01
7.540000000000000036e-01,-5.497978880414634562e-01,8.842515324754715578e-02,3.674177902481919888e-01
7.550000000000000044e-01,-6.811944566324089623e-01,3.476533608100778050e-01,1.548789952042078921e-01
7.560000000000000053e-01,-4.673555254063648245e-01,5.721554521361192913e-01,-2.331191932071569051e-02
7.570000000000000062e-01,-1.078508398240082128e-01,4.837545740817142392e-01,-1.266518125474341283e-01
7.580000000000000071e-01,1.960362017164037352e-01,1.626841334631269065e-01,2.506181096610038059e-02
7.590000000000000080e-01,1.848076957387276564e-01,-1.369397126012781851e-01,1.199852760867574780e-01
7.600000000000000089e-01,-4.557224248362305025e-02,-2.092025220560513876e-01,9.342619860013917643e-02
7.610000000000000098e-01,-1.963590396388223969e-01,-6.515636137168236142e-02,-5.547720118067297340e-02
7.620000000000000107e-01,-8.630109307577408378e-03,7.717113398233979571e-02,-3.101189216599637422e-01
7.630000000000000115e-01,4.162499796001641328e-01,-3.346726117135218753e-02,-3.888328662032233263e-01
7.640000000000000124e-01,6.915300394059568090e-01,-2.599815708524761404e-01,-2.877462220476810217e-01
7.650000000000000133e-01,6.087906814052415072e-01,-5.327539784503436682e-01,-3.633816227632570561e-02
7.660000000000000142e-01,2.339171302330660673e-01,-5.286145122107822614e-01,1.089979565581762067e-01
7.670000000000000151e-01,-1.402361625872017015e-01,-3.144860501886719284e-01,1.364643950289450014e-01
7.680000000000000160e-01,-2.474899122773539240e-01,3.420346743754480029e-02,-8.187494951442489052e-03
7.690000000000000169e-01,-1.106434812231507220e-01,2.172922133845918979e-01,-9.132496848808752121e-02
7.700000000000000178e-01,9.541934984006232578e-02,1.578895081601343342e-01,-4.489254834876791472e-02
7.710000000000000187e-01,8.858661587994026698e-02,3.132556847520500537e-02,1.610241250254429990e-01
7.720000000000000195e-01,-2.363364279775135024e-01,-2.691668642194924854e-02,3.663503335580213793e-01
7.730000000000000204e-01,-5.609546348815824812e-01,1.475913938095649303e-01,3.700371846394515107e-01
7.740000000000000213e-01,-6.915382021476711438e-01,4.593449081481896235e-01,2.258012176725924802e-01
7.750000000000000222e-01,-4.161316777550963519e-01,5.395906913520637227e-01,-2.421562182108084882e-02
7.760000000000000231e-01,-3.919537119572790579e-02,3.919709005623518427e-01,-1.631414506796353692e-01
7.770000000000000240e-01,2.829889459374811400e-01,9.995420526918920301e-02,-1.193198895271948556e-01
7.780000000000000249e-01,2.705858528047624945e-01,-2.303371831888838261e-01,2.402655431407217310e-02
7.790000000000000258e-01,5.290631313105201294e-02,-2.611810399047905240e-01,8.164559859968265054e-02
7.800000000000000266e-01,-5.161695690511914486e-02,-1.127910643282311887e-01,-3.173558443370212007e-02
7.810000000000000275e-01,1.133190492157849089e-01,2.731996706754902596e-02,-2.954899273137833182e-01
7.820000000000000284e-01,4.317270894398646530e-01,-5.526767542008381717e-02,-3.685560132882628737e-01
7.830000000000000293e-01,6.979277439849324027e-01,-3.178756443263563991e-01,-3.091146658934710301e-01
7.840000000000000302e-01,6.123126069074262823e-01,-5.279991372500061342e-01,-9.466381532420480027e-02
7.850000000000000311e-01,2.151324366066623417e-01,-4.771499415373339770e-01,1.221269600044973952e-01
7.860000000000000320e-01,-1.667479191181324982e-01,-1.875816486659089288e-01,1.515360316692734577e-01
7.870000000000000329e-01,-3.291402842428469699e-01,1.808280789091305518e-01,4.800571673043856763e-02
7.880000000000000338e-01,-2.003230700998536729e-01,3.441502686202960737e-01,-4.575837045812033987e-02
7.890000000000000346e-01,3.478915959475679942e-02,2.063904197339365421e-01,-4.865765748356341153e-02
7.900000000000000355e-01,-9.918519376298229329e-03,7.425063611319578094e-02,1.870195428458373277e-01
7.910000000000000364e-01,-2.454534460956713515e-01,7.060516793266272302e-03,3.392895629840003702e-01
7.920000000000000373e-01,-5.824972802361019220e-01,1.814643731323636600e-01,3.998581129616878282e-01
7.930000000000000382e-01,-6.687211848761013266e-01,4.633145721555170238e-01,2.331312625054730581e-01
7.940000000000000391e-01,-3.714051586265550986e-01,5.437796077925416416e-01,-4.253375901333428244e-02
7.950000000000000400e-01,3.855040317319663457e-02,2.643973960322539285e-01,-1.534881058621103134e-01
7.960000000000000409e-01,3.865798955189081454e-01,-6.449786682191507858e-02,-1.797113478643453111e-01
7.970000000000000417e-01,3.292059092431303124e-01,-3.323157789033644449e-01,-8.413690362204294393e-02
7.980000000000000426e-01,1.702525863995985600e-01,-3.399341795773728192e-01,5.777168907151717520e-02
7.990000000000000435e-01,-1.685785779529797371e-02,-1.636653279062219857e-01,-4.206421695878140299e-02
8.000000000000000444e-01,1.109273734712039328e-01,-1.473352576668676174e-02,-2.397752485154684698e-01
8.010000000000000453e-01,4.015226867898380458e-01,-1.131285660676663030e-01,-4.080397784989744925e-01
8.020000000000000462e-01,6.421117961720035350e-01,-3.190544456943799068e-01,-3.647739401393211844e-01
8.030000000000000471e-01,5.395266278401210647e-01,-5.171006526065579090e-01,-1.019987192841213808e-01
8.040000000000000480e-01,1.578654123091072226e-01,-3.905752102822186989e-01,1.743924787945116406e-01
8.050000000000000488e-01,-2.878070104054604172e-01,-3.178873784585952572e-02,2.113872058111690988e-01
8.060000000000000497e-01,-4.619269677572148125e-01,2.751600825095220637e-01,1.444157814043668941e-01
8.070000000000000506e-01,-3.153375516114246269e-01,3.826022129560474605e-01,1.312269907460612665e-02
8.080000000000000515e-01,-7.087251672882496911e-02,2.989357793868079316e-01,3.600087459265555873e-02
8.090000000000000524e-01,-3.548829890759309241e-02,7.026325372123695678e-02,1.249994031736613997e-01
8.100000000000000533e-01,-2.634744063241496459e-01,9.050061488853036740e-02,3.315889760135966036e-01
8.110000000000000542e-01,-5.161905348317231690e-01,2.837565687629961531e-01,3.618542315999545012e-01
8.120000000000000551e-01,-5.846547497296518126e-01,4.510523358468518929e-01,2.751529815072419893e-01
8.129999999999999449e-01,-3.139270608121195738e-01,4.788990768473270210e-01,3.259282020588151474e-02
8.139999999999999458e-01,1.508005035701110996e-01,1.913444417285889154e-01,-2.223216726938770371e-01
8.149999999999999467e-01,4.728950877248678797e-01,-1.656125826018845226e-01,-2.398901426013189397e-01
8.159999999999999476e-01,4.738400067715006214e-01,-4.106797439300882702e-01,-1.368339532083121257e-01
8.169999999999999485e-01,2.195764633635134411e-01,-3.903387639342356108e-01,7.388344283130073020e-03
8.179999999999999494e-01,4.723400248546327784e-02,-1.903908118673511285e-01,-3.052328973863405528e-02
8.189999999999999503e-01,1.134797064953388807e-01,-2.008088038662575459e-02,-2.186027701644108756e-01
8.199999999999999512e-01,4.302685950813530114e-01,-9.748205241597948656e-02,-3.468080997407822497e-01
8.209999999999999520e-01,5.894667794724082199e-01,-3.650833875769137205e-01,-3.366102082678144591e-01
8.219999999999999529e-01,4.571258653835980068e-01,-4.271249306622239006e-01,-1.045550719330719108e-01
8.229999999999999538e-01,7.484350414169976817e-02,-3.047816018994438658e-01,1.249154528352840882e-01
8.239999999999999547e-01,-3.796974118432850931e-01,6.201977951277470869e-02,2.674256011664750687e-01
8.249999999999999556e-01,-5.309367806897791198e-01,4.119083879485049837e-01,2.325780735353067952e-01
8.259999999999999565e-01,-3.827010234128314647e-01,4.342556866527080284e-01,7.119198575185788080e-02
8.269999999999999574e-01,-1.495624053672871268e-01,3.015625488060565407e-01,3.235891167102852677e-03
8.279999999999999583e-01,-2.167363551207518099e-02,9.067237478053520594e-02,7.873758320049750736e-02
8.289999999999999591e-01,-2.087824175064123822e-01,7.027899423488406794e-02,2.815177628856029290e-01
8.299999999999999600e-01,-4.938816972988834819e-01,2.464684707716448264e-01,3.608318763217349678e-01
8.309999999999999609e-01,-5.267854451255652437e-01,4.280061181643023405e-01,2.427128376696582879e-01
8.319999999999999618e-01,-2.621473661312763159e-01,3.777969148381523645e-01,-5.890279993232016599e-03
8.329999999999999627e-01,2.465745927574355401e-01,1.420281433476074801e-02,-2.510549115569915002e-01
8.339999999999999636e-01,5.619876274034867336e-01,-3.246698300903704260e-01,-3.177890311189693340e-01
8.349999999999999645e-01,5.287042714650312947e-01,-4.993778274446230014e-01,-2.087133326461038385e-01
8.359999999999999654e-01,3.262057042309125521e-01,-4.192436696644926131e-01,-6.985541283951381131e-02
8.369999999999999662e-01,5.015303930376507208e-02,-1.718292406318165655e-01,-2.903278433860003588e-02
8.379999999999999671e-01,6.829074690256990710e-02,-4.476413901843474125e-02,-1.654065733899435509e-01
8.389999999999999680e-01,3.509780681884480114e-01,-1.291508327824139879e-01,-2.990089274427945032e-01
8.399999999999999689e-01,4.918895162314281255e-01,-3.363736905128341670e-01,-3.228475669553832472e-01
8.409999999999999698e-01,3.784754230137999387e-01,-3.256013244022803454e-01,-1.456262266331427857e-01
8.419999999999999707e-01,-4.907117819812534948e-02,-1.300106083278979030e-01,1.195703653886602408e-01
8.429999999999999716e-01,-4.060645231203022787e-01,2.489308445649509316e-01,3.182273421481452425e-01
8.439999999999999725e-01,-6.235979190139090411e-01,5.109632790139773117e-01,2.817406856064346710e-01
8.449999999999999734e-01,-4.337500386910558281e-01,4.987995551399289074e-01,1.728453801101987042e-01
8.459999999999999742e-01,-1.552902857593516373e-01,3.460948653572957778e-01,4.150876497624868960e-02
8.469999999999999751e-01,-7.846626153484631550e-02,6.411993398574050707e-02,6.842153633712591554e-02
8.479999999999999760e-01,-1.770759757300063020e-01,3.769958317640875051e-02,2.318050953856513052e-01
8.489999999999999769e-01,-4.110091787562769605e-01,2.133970295176107757e-01,2.994030266060224710e-01
8.499999999999999778e-01,-4.358899512100126161e-01,2.996139162233968367e-01,2.324021672934613314e-01
8.509999999999999787e-01,-1.485983115633668639e-01,2.705917365912975381e-01,1.441068320049351641e-02
8.519999999999999796e-01,3.272736859930086561e-01,-1.200857985972219322e-01,-2.771117195362190477e-01
8.529999999999999805e-01,6.310985813150544743e-01,-4.191204610056621371e-01,-4.057278556221837751e-01
8.539999999999999813e-01,6.062701498786885468e-01,-5.649962563288146722e-01,-3.047629669995663426e-01
8.549999999999999822e-01,3.242537925499735518e-01,-4.098013833143769324e-01,-1.062009983910967986e-01
8.559999999999999831e-01,4.923008381396137140e-02,-1.524721100393265083e-01,-1.390774229012288997e-02
8.569999999999999840e-01,4.658307156342117450e-02,3.232148452394098537e-03,-1.051409549267788013e-01
8.579999999999999849e-01,2.535561508209377979e-01,-8.587910704774182058e-02,-2.535310828862592514e-01
8.589999999999999858e-01,3.809575836841988528e-01,-2.596297258764118654e-01,-2.386343399735630366e-01
8.599999999999999867e-01,2.894366768974318549e-01,-2.558515495458170697e-01,-7.933930812317252501e-02
8.609999999999999876e-01,-1.181650402074257422e-01,-7.056759153675245177e-04,1.759883428485186918e-01
8.619999999999999885e-01,-5.283994038151399453e-01,3.415302999587925825e-01,3.331309489912398503e-01
8.629999999999999893e-01,-6.840273567178886127e-01,5.821524844486359873e-01,3.493621720143594289e-01
8.639999999999999902e-01,-5.201102075610046782e-01,5.116532476627895232e-01,2.310831510966350755e-01
8.649999999999999911e-01,-2.220416424257408983e-01,2.660379548956202100e-01,6.594420195992521661e-02
8.659999999999999920e-01,-2.654652457491677234e-02,2.229214672632983535e-02,3.506082354143214008e-02
8.669999999999999929e-01,-9.734085198131225969e-02,4.096735635711581947e-02,7.268913133203776245e-02
8.679999999999999938e-01,-3.215616994134377626e-01,1.613610417518568096e-01,2.475466637964562067e-01
8.689999999999999947e-01,-3.529265097658681460e-01,2.275959067909360256e-01,1.872057587997246475e-01
8.699999999999999956e-01,-5.500374522431067392e-02,1.112471011307034352e-01,-2.706759535097312368e-03
8.709999999999999964e-01,3.666846323872237079e-01,-2.593160636810967201e-01,-2.436099868429885407e-01
8.719999999999999973e-01,7.238211133360359373e-01,-5.865330959422826451e-01,-4.009758060043813743e-01
8.729999999999999982e-01,6.668577871029579551e-01,-6.000835886705988553e-01,-3.491789285242137275e-01
8.739999999999999991e-01,3.663931791942857119e-01,-3.933804219397347146e-01,-1.295444966255154262e-01
8.750000000000000000e-01,5.642702160355601154e-02,-5.171690117425632727e-02,-4.017539700171928775e-03
8.760000000000000009e-01,-1.120237527188289867e-02,9.334255085622361614e-02,-3.391100327880847837e-02
8.770000000000000018e-01,1.529536736215396375e-01,-5.359301325633432367e-02,-1.764105935570025596e-01
8.780000000000000027e-01,2.949607268634393265e-01,-2.118456716834246911e-01,-2.093327347560156593e-01
8.790000000000000036e-01,2.160451562796009972e-01,-1.533901229067737570e-01,-1.345059819325972739e-01
8.800000000000000044e-01,-1.524677708115034225e-01,1.522068138767505574e-01,1.336555815538172376e-01
8.810000000000000053e-01,-5.694307934330953280e-01,4.528059783324873133e-01,3.613884208595868897e-01
8.820000000000000062e-01,-7.481568107655655053e-01,6.315738348832167226e-01,4.027876990551649827e-01
8.830000000000000071e-01,-5.660067251053265691e-01,4.808308268532294205e-01,3.051688322160728273e-01
8.840000000000000080e-01,-1.590038179031780796e-01,1.705672907755206857e-01,1.015988822869807601e-01
8.850000000000000089e-01,-2.354909420229818473e-03,-3.067458071245929979e-02,-3.157509020769923985e-02
8.860000000000000098e-01,1.367072595676992533e-02,-6.630772299088225075e-02,4.472530574157886074e-02
8.870000000000000107e-01,-2.025295518640614634e-01,9.737372749414464901e-02,1.793444519829681116e-01
8.880000000000000115e-01,-2.587747261339494176e-01,1.582924079167810083e-01,1.345466908664673111e-01
8.890000000000000124e-01,1.155783015205807170e-03,-1.506341087372946828e-02,-3.274295749662248928e-02
8.900000000000000133e-01,4.365491377765639558e-01,-3.675986831735540417e-01,-2.579342760234104581e-01
8.910000000000000142e-01,7.156939173334213589e-01,-6.016883370511747486e-01,-3.990754786054057091e-01
8.920000000000000151e-01,7.043321488768097272e-01,-5.928383697151282661e-01,-4.107177950732151528e-01
8.930000000000000160e-01,3.446615704035774774e-01,-2.859876090484952393e-01,-1.928036221965541974e-01
8.940000000000000169e-01,1.339252366167130231e-03,-1.197283996729416912e-02,-3.008582042969734638e-02
8.950000000000000178e-01,-9.496829209435100894e-02,1.202878165367331914e-01,2.646496925834552344e-02
8.960000000000000187e-01,4.158542039586200778e-02,-1.506922393881859543e-02,-7.305442456005330210e-02
8.970000000000000195e-01,1.854691598316832168e-01,-1.119024023470583662e-01,-1.176224543619592833e-01
8.980000000000000204e-01,6.301138122921150220e-02,-9.938811088314450023e-03,-9.146699532047043724e-02
8.990000000000000213e-01,-2.898074293101216559e-01,2.332784299943966855e-01,1.303177533431362500e-01
9.000000000000000222e-01,-6.446961937281558974e-01,5.582740379610990900e-01,3.430048562019866742e-01
9.010000000000000231e-01,-7.664653412803034138e-01,6.271454883877787267e-01,4.524324766593372793e-01
9.020000000000000240e-01,-5.965099814626561026e-01,4.394385108594495715e-01,3.337166651277243545e-01
9.030000000000000249e-01,-1.354390306316748949e-01,3.415250555981440977e-02,9.470717339182001260e-02
9.040000000000000258e-01,7.334905625840107413e-02,-1.326302663245159941e-01,-4.685708142915123026e-02
9.050000000000000266e-01,9.673896419356885212e-02,-1.385508832224872644e-01,-2.496048398246721468e-03
9.060000000000000275e-01,-5.086923553046797386e-02,2.209500479781411307e-03,8.846353737074075241e-02
9.070000000000000284e-01,-1.495422392317881655e-01,5.915772223537067720e-02,1.196955169990511075e-01
9.080000000000000293e-01,7.080364628841954999e-02,-1.332575135057940119e-01,2.304270476544397275e-02
9.090000000000000302e-01,5.003493349411696212e-01,-4.410456571044861218e-01,-2.404214113791261764e-01
9.100000000000000311e-01,7.689450060838816103e-01,-6.714771679012224714e-01,-4.401288217845637507e-01
9.110000000000000320e-01,6.791857081430752174e-01,-5.333578314821095789e-01,-4.194387173251426515e-01
9.120000000000000329e-01,3.292442125540510633e-01,-2.136342924857774217e-01,-2.175624457738481454e-01
9.130000000000000338e-01,-1.432427157849921334e-02,1.141600063331641990e-01,-3.233199185481339111e-02
9.140000000000000346e-01,-1.957288358306470133e-01,1.947162632820080286e-01,5.935098711852924980e-02
9.150000000000000355e-01,-8.864436231439927483e-02,1.081751849258246745e-01,2.626477756896707441e-02
9.160000000000000364e-01,8.292243336022485367e-02,-3.683903617982475093e-02,-6.462762792306786519e-02
9.170000000000000373e-01,4.448122646067994429e-02,6.366783794942006136e-02,-6.344501441142155751e-02
9.180000000000000382e-01,-3.237980367697374517e-01,3.062556786765874839e-01,1.285099377187473024e-01
9.190000000000000391e-01,-6.577654928950008584e-01,6.207400842273365082e-01,3.521430128048199104e-01
9.200000000000000400e-01,-7.472011761876639069e-01,6.240845020504713903e-01,4.562407479899133200e-01
9.210000000000000409e-01,-5.020933151555369012e-01,3.034023843215550853e-01,3.416006292110062015e-01
9.220000000000000417e-01,-9.121432008766934552e-02,-5.951110988692676768e-02,1.372437146658557205e-01
9.230000000000000426e-01,1.751012103074028881e-01,-2.220076482804239637e-01,-7.282731576774140181e-02
9.240000000000000435e-01,2.373353467649551851e-01,-1.677756529818184295e-01,-9.463685884433863105e-02
9.250000000000000444e-01,3.683805430600615299e-02,-4.160588142314973481e-02,-1.269095932030235747e-02
9.260000000000000453e-01,-4.891659458233556246e-02,-8.605994569508192832e-03,6.553184921011888375e-02
9.270000000000000462e-01,1.481163172697546049e-01,-2.118683446101731760e-01,2.620322454774452053e-02
9.280000000000000471e-01,5.234409968541441360e-01,-4.570404057332993486e-01,-1.886552775920050662e-01
9.290000000000000480e-01,7.454042536092069238e-01,-6.493541648029869107e-01,-4.101133140995677495e-01
9.300000000000000488e-01,6.736481789410416754e-01,-4.255928323164083760e-01,-4.855289139942573495e-01
9.310000000000000497e-01,2.480063835726865340e-01,-3.446404812963375225e-02,-2.709391905822111646e-01
9.320000000000000506e-01,-1.384758358169745907e-01,2.161445543862094421e-01,-2.610954670338098971e-02
9.330000000000000515e-01,-3.258730567168820480e-01,2.720360756255803536e-01,1.079980145660175139e-01
9.340000000000000524e-01,-1.847038206905597113e-01,1.573240102936708795e-01,1.244510384246530488e-01
9.350000000000000533e-01,-4.380928869147204113e-02,2.995497535335668246e-02,1.833246444385491780e-02
9.360000000000000542e-01,-5.745265708120391585e-02,1.295490411038365819e-01,3.401569855925120397e-03
9.370000000000000551e-01,-3.603733725795180143e-01,4.140244304931104957e-01,1.346234760016519760e-01
9.379999999999999449e-01,-6.536431225221553953e-01,5.780545843036177800e-01,2.990185876470027870e-01
9.389999999999999458e-01,-7.545615114523132050e-01,5.258019274668274123e-01,4.736498636375280347e-01
9.399999999999999467e-01,-4.729627122054801958e-01,1.883136386858180467e-01,4.154369665154711289e-01
9.409999999999999476e-01,-2.468379310607311805e-02,-1.592039451394490768e-01,1.382412590453394874e-01
9.419999999999999485e-01,3.176219671193378780e-01,-3.460837642584147500e-01,-6.318614043876404074e-02
9.429999999999999494e-01,3.733990784364604187e-01,-2.306192122067087513e-01,-1.787596809575122403e-01
9.439999999999999503e-01,1.535534240118362481e-01,-6.952710405893171297e-02,-1.039570794293277339e-01
9.449999999999999512e-01,5.980966158012601674e-02,-7.785300369420833366e-02,-2.693744727379524754e-04
9.459999999999999520e-01,2.073667712009015784e-01,-2.955812077629585422e-01,-1.276297616738086664e-02
9.469999999999999529e-01,5.054931648510007092e-01,-5.111437275286503379e-01,-1.940795965187772365e-01
9.479999999999999538e-01,7.296590671296833142e-01,-5.417053911259038790e-01,-3.917852729693963587e-01
9.489999999999999547e-01,6.088095251056113710e-01,-3.187508764498981906e-01,-4.484864467548462796e-01
9.499999999999999556e-01,2.129826451593073988e-01,4.980327854442864743e-02,-2.947022339648654454e-01
9.509999999999999565e-01,-2.171997270736943375e-01,3.178680625531276616e-01,-4.547803318559768410e-02
9.519999999999999574e-01,-4.280919561119971295e-01,3.628367675219201782e-01,2.043767222761763702e-01
9.529999999999999583e-01,-3.080540637612321775e-01,1.683314595617401155e-01,2.081312775068657472e-01
9.539999999999999591e-01,-1.055542504845014967e-01,1.043401450892580684e-01,1.010164303631540250e-01
9.549999999999999600e-01,-7.115853998612121922e-02,1.862779681401314502e-01,8.985933957011039627e-03
9.559999999999999609e-01,-3.692423602066762234e-01,4.103223639832376257e-01,5.112977232079653905e-02
9.569999999999999618e-01,-6.501502385971299480e-01,5.585703328258030398e-01,2.721612902651808219e-01
9.579999999999999627e-01,-6.711798572498682836e-01,4.053821356732936199e-01,4.182205897143493334e-01
9.589999999999999636e-01,-3.855752078199325972e-01,7.914736816606936232e-02,3.947230110859438756e-01
9.599999999999999645e-01,9.762489471162992538e-02,-2.730648592259368179e-01,1.147708512692865168e-01
9.609999999999999654e-01,4.208680624097126399e-01,-4.498499682933489452e-01,-9.946212623289292509e-02
9.619999999999999662e-01,4.513188138837942454e-01,-2.813870768595912453e-01,-2.507392401983846164e-01
9.629999999999999671e-01,2.708146583106817995e-01,-1.684726491714525487e-01,-1.967161994348752274e-01
9.639999999999999680e-01,1.120215441781228366e-01,-1.273133972354217880e-01,-1.102615277106344660e-01
9.649999999999999689e-01,2.154772620711619124e-01,-2.889487169613434436e-01,-1.543713183073054662e-02
9.659999999999999698e-01,4.500326376750001800e-01,-4.624874963636443903e-01,-1.514224790453349290e-01
9.669999999999999707e-01,6.652278020047951435e-01,-4.677785108874386588e-01,-3.338133122136007214e-01
9.679999999999999716e-01,5.716797130858678466e-01,-1.919986622921081298e-01,-4.485115632988743717e-01
9.689999999999999725e-01,1.173998628375244324e-01,1.928922265473949904e-01,-2.566428504491243823e-01
9.699999999999999734e-01,-3.359451695192234300e-01,4.599528634781078762e-01,-2.700018027602927098e-02
9.709999999999999742e-01,-5.431204040400641198e-01,4.184879567982616178e-01,2.189459050972754339e-01
9.719999999999999751e-01,-4.035760046036364623e-01,2.034409657544974381e-01,2.788469201946922049e-01
9.729999999999999760e-01,-1.832113300865905181e-01,9.607507787710613256e-02,1.685336043441071907e-01
9.739999999999999769e-01,-1.097889050259563404e-01,2.198183869108176758e-01,5.326418439089086743e-02
9.749999999999999778e-01,-3.186769300390002724e-01,3.976655308299617553e-01,6.385465230678694093e-02
9.759999999999999787e-01,-6.022338532591954285e-01,4.824419530957863023e-01,2.072283427268987455e-01
9.769999999999999796e-01,-6.409141454405998806e-01,2.842154980644396312e-01,3.657021145173938170e-01
9.779999999999999805e-01,-3.259778137698664535e-01,-1.075394038486251341e-01,3.866823090605985835e-01
9.789999999999999813e-01,2.339716910644251691e-01,-4.195168490319391430e-01,1.261719843096561211e-01
9.799999999999999822e-01,5.278656404060110274e-01,-5.192548108070188517e-01,-1.136616773786461865e-01
9.809999999999999831e-01,6.104739921096030697e-01,-3.797599872996640924e-01,-3.152158506951793226e-01
9.819999999999999840e-01,3.449543042110410629e-01,-1.445015098246362484e-01,-2.860428934577121107e-01
9.829999999999999849e-01,1.459166602102948962e-01,-1.308440328037830114e-01,-1.167751885387869754e-01
9.839999999999999858e-01,1.773606284582149861e-01,-3.106587524689580770e-01,-7.042879250276182224e-02
9.849999999999999867e-01,3.904495507268620491e-01,-3.886519834392147543e-01,-1.096700090238579145e-01
9.859999999999999876e-01,6.235160003681775587e-01,-3.402792671082045528e-01,-2.992402859020760753e-01
9.869999999999999885e-01,4.480663479517663639e-01,6.434913833575466036e-03,-3.800072102630308035e-01
9.879999999999999893e-01,1.445607927588940522e-02,3.548675552903300945e-01,-2.866269932053938652e-01
9.889999999999999902e-01,-4.199697604122900607e-01,5.455109081234856827e-01,-3.708980131125442364e-02
9.899999999999999911e-01,-6.087195686654773841e-01,4.402446044679484416e-01,2.374130678594613131e-01
9.909999999999999920e-01,-5.121222384099920477e-01,2.001660324300451321e-01,3.490653228538596053e-01
9.919999999999999929e-01,-2.372801222366856255e-01,1.041241796550854137e-01,2.562940710627424901e-01
9.929999999999999938e-01,-1.652354527805828532e-01,1.985984929724820547e-01,1.218089475921384085e-01
9.939999999999999947e-01,-2.771766037773350511e-01,3.744463353687902951e-01,6.484160753999791693e-02
9.949999999999999956e-01,-5.197616560866396007e-01,3.916266693954900679e-01,1.603082608651283381e-01
9.959999999999999964e-01,-5.599817523033945310e-01,1.373064607688884997e-01,2.952401806327441536e-01
9.969999999999999973e-01,-2.011234779114308147e-01,-2.478345382817196962e-01,3.558126267225492079e-01
9.979999999999999982e-01,2.776151901936183553e-01,-5.376426263713249831e-01,1.418232044674830328e-01
9.989999999999999991e-01,6.298114302846211654e-01,-5.639986013635810425e-01,-1.449383951416764182e-01
1.000000000000000000e+00,6.429518817249947338e-01,-3.104419856505141739e-01,-3.566035242315850340e-01
1.000999999999999890e+00,3.812277735438674986e-01,-1.352773857504092903e-01,-3.848365679495222014e-01
1.002000000000000002e+00,1.278433118494558818e-01,-1.237680556226991302e-01,-2.174953021702400457e-01
1.002999999999999892e+00,1.610072255123896623e-01,-2.527885279851979083e-01,-7.489934905555931111e-02
1.004000000000000004e+00,3.433323792559256904e-01,-3.804852552850670477e-01,-8.447682586172941543e-02
1.004999999999999893e+00,4.822148466202998418e-01,-2.430686895816000781e-01,-2.180657066445020054e-01
1.006000000000000005e+00,3.477791522891295339e-01,1.335682451086238065e-01,-3.286441512206906279e-01
1.006999999999999895e+00,-7.546827375837721064e-02,4.849980332169058772e-01,-2.720230017292406544e-01
1.008000000000000007e+00,-5.294184634233513043e-01,6.200020065512041878e-01,2.348985277725312848e-03
1.008999999999999897e+00,-7.300457117321652589e-01,4.291210678800373990e-01,2.481303978879127181e-01
1.010000000000000009e+00,-6.197090262093463142e-01,1.906474423982757738e-01,4.105973298082697398e-01
1.010999999999999899e+00,-2.815261146480304011e-01,3.907074225525363625e-02,3.578610301396460414e-01
1.012000000000000011e+00,-1.157510422090484298e-01,1.424022597973127469e-01,1.798701442693557973e-01
1.012999999999999901e+00,-1.961347768027130456e-01,3.128612140017672516e-01,5.224936123932766296e-02
1.014000000000000012e+00,-3.763887626952431287e-01,2.484731248049095731e-01,1.006905799993329936e-01
1.014999999999999902e+00,-4.241074228356853659e-01,-1.075671939181732650e-03,2.509433840404710625e-01
1.016000000000000014e+00,-1.176003454899822165e-01,-4.169740192290908865e-01,2.676271879135738163e-01
1.016999999999999904e+00,3.704271615610801316e-01,-6.362619283369248535e-01,1.328398889116917669e-01
1.018000000000000016e+00,7.357467213980294352e-01,-5.643428542143098525e-01,-1.283167229872291815e-01
1.018999999999999906e+00,7.105534387351022385e-01,-3.370092970654851028e-01,-3.548428882729182110e-01
1.020000000000000018e+00,4.365844196418010581e-01,-7.759135896606580984e-02,-4.394202588415460076e-01
1.020999999999999908e+00,1.568451280872193709e-01,-6.422485009170435244e-02,-2.665702938014899437e-01
1.022000000000000020e+00,8.199586754919033216e-02,-1.748749035103497051e-01,-1.334114851922525991e-01
1.022999999999999909e+00,2.430796611116863848e-01,-2.380474927551424480e-01,-6.709691058809663655e-02
1.024000000000000021e+00,3.458357539078873999e-01,-1.164456514592978470e-01,-1.335905858650299760e-01
1.024999999999999911e+00,2.870021201698338964e-01,2.637694324363288323e-01,-2.231820951334633485e-01
1.026000000000000023e+00,-1.470424029729570370e-01,5.864673035721587047e-01,-2.299013485765790399e-01
1.026999999999999913e+00,-6.407868538412974102e-01,6.369660866164070789e-01,-4.386243660804609729e-02
1.028000000000000025e+00,-7.873929072736465251e-01,4.391450981928199382e-01,2.809083723053928394e-01
1.028999999999999915e+00,-5.619270742751509840e-01,1.457694927979316935e-01,4.536681961988843770e-01
1.030000000000000027e+00,-2.381644370864418325e-01,2.697079115958117210e-02,3.888262943857218601e-01
1.030999999999999917e+00,-3.260143397838604490e-02,8.069584653247849348e-02,2.174005427474570429e-01
1.032000000000000028e+00,-8.949885500076791567e-02,1.925100490672734255e-01,7.387521517891305900e-02
1.032999999999999918e+00,-2.322876804110714788e-01,1.466057757962661301e-01,6.845324638700296671e-02
1.034000000000000030e+00,-2.831834961177441268e-01,-1.665279847270972058e-01,1.236879937764853998e-01
1.034999999999999920e+00,7.700729440329352748e-03,-5.035369250281266362e-01,1.848714487508721083e-01
1.036000000000000032e+00,4.574575911928575600e-01,-6.773047072158474569e-01,1.453310404007649714e-01
1.036999999999999922e+00,7.601324330181381539e-01,-5.121275654562432722e-01,-1.545058011175242108e-01
1.038000000000000034e+00,7.583087351389955488e-01,-1.992024776266774766e-01,-3.812081567041168961e-01
1.038999999999999924e+00,4.638950904004676690e-01,2.157790905590400293e-02,-4.816767083357557655e-01
1.040000000000000036e+00,1.065092254603282468e-01,2.537067637791285898e-02,-3.626144148410204160e-01
1.040999999999999925e+00,-9.234702119701019077e-03,-1.092564385201847538e-01,-1.133197096116274200e-01
1.042000000000000037e+00,9.560511564361887094e-02,-1.424326014874660595e-01,-4.547336333332371167e-03
1.042999999999999927e+00,2.540661195901181002e-01,6.293222253618917239e-02,-5.488525625255742668e-02
1.044000000000000039e+00,1.432383890055432818e-01,4.048893352007925106e-01,-1.281047049151782802e-01
1.044999999999999929e+00,-2.469893529298292922e-01,6.841137563906241059e-01,-1.723716410382775954e-01
1.046000000000000041e+00,-7.091921929067662722e-01,6.234570024343109029e-01,-3.901254917366552347e-03
1.046999999999999931e+00,-8.153880857027947515e-01,3.270280162924519840e-01,2.426284067036503234e-01
1.048000000000000043e+00,-6.145957121218575958e-01,4.013557049749564426e-02,4.672025685325643107e-01
1.048999999999999932e+00,-2.430909335359534018e-01,-9.277408016801147461e-02,4.440398302969865707e-01
1.050000000000000044e+00,4.402155508759833524e-02,4.169240730088525498e-02,2.700044408651046668e-01
1.050999999999999934e+00,3.671186832306033709e-02,6.146769108201888959e-02,6.212474181656020555e-02
1.052000000000000046e+00,-1.288609463463940286e-01,2.196130741117799032e-02,-2.554066805168207777e-02
1.052999999999999936e+00,-1.477704936214668530e-01,-2.656563533052297421e-01,9.314096431525409336e-02
1.054000000000000048e+00,6.605365721779850319e-02,-6.126149242219967039e-01,1.493710906765373103e-01
1.054999999999999938e+00,5.113044606128023251e-01,-6.873789720155524252e-01,1.121212721031815129e-01
1.056000000000000050e+00,8.166341664522536181e-01,-4.550879375996262355e-01,-1.091886405875162058e-01
1.056999999999999940e+00,7.681292028249909754e-01,-1.111940047604766946e-01,-3.822205333007486217e-01
1.058000000000000052e+00,4.025414767638254565e-01,8.751441575891286129e-02,-4.996343275704823172e-01
1.058999999999999941e+00,5.041004509670601874e-02,1.182125956387224397e-01,-3.953339591094581773e-01
1.060000000000000053e+00,-1.249228754343841979e-01,-3.140368105145048550e-02,-1.916002927011670187e-01
1.060999999999999943e+00,-5.237986349808202574e-02,-4.282191961436558614e-02,1.103693717344732782e-02
1.062000000000000055e+00,1.413994123115741297e-01,1.566823767583994109e-01,5.383381494342804469e-02
1.062999999999999945e+00,5.715264099440045542e-02,4.890191254737062398e-01,-3.677092964839516476e-02
1.064000000000000057e+00,-3.175054194038430255e-01,6.646920173881080141e-01,-8.918385931044152393e-02
1.064999999999999947e+00,-7.020569258327502560e-01,5.554149165251679454e-01,1.319195351727925347e-02
1.066000000000000059e+00,-8.258813954369144117e-01,2.094948774926288226e-01,2.392046429216625192e-01
1.066999999999999948e+00,-5.943826318813074661e-01,-9.006854464963984230e-02,4.536195677287203631e-01
1.068000000000000060e+00,-1.463944455512157516e-01,-1.436533368696839563e-01,4.578879313312963495e-01
1.068999999999999950e+00,9.503392017591544283e-02,-1.044669034011477954e-01,2.748938720784109280e-01
1.070000000000000062e+00,1.831473834696040193e-01,2.163141733650203805e-02,6.070845018341956140e-02
1.070999999999999952e+00,1.401487353819784627e-02,-6.068152376157157080e-02,-4.852518548269057347e-02
1.072000000000000064e+00,-9.234507225290984611e-02,-3.892996856168771114e-01,-1.745093556630121154e-02
1.072999999999999954e+00,1.597858822288425462e-01,-6.469123802810624602e-01,6.065938016116440706e-02
1.074000000000000066e+00,5.413446285428480387e-01,-6.534113659247665629e-01,-6.667405173265526439e-03
1.074999999999999956e+00,8.522135901828128413e-01,-3.594047500581503130e-01,-1.497703365345302851e-01
1.076000000000000068e+00,7.439289088033906872e-01,7.714350119838129030e-03,-3.404425397350984706e-01
1.076999999999999957e+00,3.612767656446025377e-01,2.154433180034963369e-01,-4.990443661553295440e-01
1.078000000000000069e+00,-3.249090670050145541e-02,1.894898717266065846e-01,-3.955522457961553884e-01
1.078999999999999959e+00,-2.195139833411058339e-01,2.889797665627162268e-02,-1.845300089781317654e-01
1.080000000000000071e+00,-1.487162468537728821e-01,5.502886981387950655e-02,4.387059874939960857e-02
1.080999999999999961e+00,1.322161965615637792e-02,2.597543998274712274e-01,1.169032221197486426e-01
1.082000000000000073e+00,-8.287590733827472633e-02,5.411374430487998488e-01,1.545069503301589034e-03
1.082999999999999963e+00,-3.649136339157405540e-01,6.566040898471140475e-01,-1.582425947467634708e-02
1.084000000000000075e+00,-7.325910858320148211e-01,4.628421537603439329e-01,3.892641812321187382e-03
1.084999999999999964e+00,-8.439345347146364196e-01,1.102985105638904367e-01,2.216710140035274557e-01
1.086000000000000076e+00,-5.712933749602493450e-01,-2.228833884134809873e-01,4.340778657478290281e-01
1.086999999999999966e+00,-1.060183444519355311e-01,-2.895378713004451710e-01,4.885161487837367256e-01
1.088000000000000078e+00,2.650150945712758110e-01,-1.346215515880394287e-01,3.413035747785004848e-01
1.088999999999999968e+00,2.508178876495192888e-01,-4.085352234847795111e-02,3.803449884425044031e-02
1.090000000000000080e+00,1.034660059320355319e-01,-1.757281470216909836e-01,-1.210498388508861184e-01
1.090999999999999970e+00,3.356322087042627050e-02,-4.290050477321515343e-01,-1.325346646857880339e-01
1.092000000000000082e+00,2.295146571037085248e-01,-6.191956954817204872e-01,-2.962719701737852665e-02
1.092999999999999972e+00,5.659046840200027129e-01,-5.352459705063352668e-01,3.554399661155800000e-02
1.094000000000000083e+00,7.975852867926894740e-01,-2.298792510324524918e-01,-8.734103036686242938e-02
1.094999999999999973e+00,7.157870837663515839e-01,1.464138723246902751e-01,-3.651850405133153510e-01
1.096000000000000085e+00,3.011771430525453375e-01,3.463556267708476355e-01,-5.056967619044951956e-01
1.096999999999999975e+00,-1.470601984815144148e-01,2.521258008237526327e-01,-4.429190922912966677e-01
1.098000000000000087e+00,-3.567305258942318202e-01,1.248720089607650852e-01,-1.841693264066933400e-01
1.098999999999999977e+00,-2.885245105736387594e-01,1.194374791246534118e-01,5.471391585411486402e-02
1.100000000000000089e+00,-1.166959506814976844e-01,3.159215381808613832e-01,1.364327104895131371e-01
1.100999999999999979e+00,-1.358872347570064254e-01,5.288651571152749309e-01,1.039635544719156174e-01
1.102000000000000091e+00,-3.665531976599759600e-01,5.890933379680650672e-01,2.121732570605155965e-02
1.102999999999999980e+00,-7.141668796542575137e-01,3.201278155984620954e-01,2.568158942971570519e-02
1.104000000000000092e+00,-7.757997658297609567e-01,-3.847565215450414466e-02,2.425488716184735216e-01
1.104999999999999982e+00,-4.722937281697030532e-01,-3.293395317083861462e-01,3.989865973630218887e-01
1.106000000000000094e+00,-2.369060879487238855e-02,-3.700590910758416174e-01,4.733406874024758126e-01
1.106999999999999984e+00,3.733160871422734894e-01,-2.405734370984507486e-01,3.315000703811596394e-01
1.108000000000000096e+00,4.042341844139512030e-01,-1.104668408605515156e-01,3.698022356690698620e-02
1.108999999999999986e+00,2.707634714100298767e-01,-2.433976002254779059e-01,-1.624338718262240688e-01
1.110000000000000098e+00,1.296984253909038709e-01,-4.216221951746540464e-01,-1.638825855893638328e-01
1.110999999999999988e+00,2.371430765884021685e-01,-5.508579299540665719e-01,-1.290891952023194289e-01
1.112000000000000099e+00,5.556026878807924785e-01,-4.554878702328792883e-01,-3.563944394061283050e-02
1.112999999999999989e+00,7.523485953346499278e-01,-5.346632617169978091e-02,-1.427848052610896645e-01
1.114000000000000101e+00,6.522422793008202380e-01,2.956408324683452715e-01,-3.201107583459996131e-01
1.114999999999999991e+00,2.123846122571498574e-01,4.250989025804837174e-01,-4.639894235118350307e-01
1.116000000000000103e+00,-2.780801872371500560e-01,3.248510908467223124e-01,-4.373665877394858348e-01
1.116999999999999993e+00,-4.799361343722891027e-01,1.681826982888340316e-01,-1.756895526367583671e-01
1.118000000000000105e+00,-3.828367914463052801e-01,1.429425288557853169e-01,9.189178095392314116e-02
1.118999999999999995e+00,-2.231900816400386456e-01,3.480495780767984271e-01,2.599687799972207336e-01
1.120000000000000107e+00,-1.794385327873795344e-01,5.531860573234425038e-01,2.258082825308080355e-01
1.120999999999999996e+00,-3.937710197881005847e-01,4.878036562445340896e-01,1.160525923211436078e-01
1.122000000000000108e+00,-6.460353497455495475e-01,1.568156388346133023e-01,8.985419147157433506e-02
1.122999999999999998e+00,-6.764080446153133419e-01,-1.964828933886898221e-01,2.026079170934784457e-01
1.124000000000000110e+00,-3.989708678204026970e-01,-4.568173485668051148e-01,4.188812239017793981e-01
1.125000000000000000e+00,1.050605142421614790e-01,-4.556604175417963143e-01,4.347449434885733988e-01
1.125999999999999890e+00,4.980867552576015989e-01,-2.756941225708656740e-01,3.307287734300214943e-01
1.127000000000000002e+00,5.128411148829178368e-01,-1.749380581280506053e-01,5.823283767571886538e-02
1.127999999999999892e+00,3.317029523415246373e-01,-2.496481247663648595e-01,-2.034202786892509440e-01
1.129000000000000004e+00,1.612786379246474444e-01,-4.421605730124496536e-01,-2.918709018892652329e-01
1.129999999999999893e+00,2.402580596850197314e-01,-5.319520371251624802e-01,-2.218816367776448861e-01
1.131000000000000005e+00,5.258717054149468773e-01,-2.898515007423334011e-01,-7.326257912655802229e-02
1.131999999999999895e+00,6.861366748362147661e-01,1.159232683156806998e-01,-9.783144210117995787e-02
1.133000000000000007e+00,5.672189452348426197e-01,4.366999758685693456e-01,-2.324959083269251270e-01
1.133999999999999897e+00,1.377179795144904129e-01,4.949574272987347090e-01,-4.235524802761996277e-01
1.135000000000000009e+00,-3.751360486456396526e-01,3.813838434168447811e-01,-4.143840570662588596e-01
1.135999999999999899e+00,-6.064602956280625845e-01,2.042525930391869415e-01,-2.217915981335358833e-01
1.137000000000000011e+00,-5.006593782437412932e-01,1.691391625679257993e-01,7.630230419995680247e-02
1.137999999999999901e+00,-2.863924671234288066e-01,3.226912254458585982e-01,3.133444390826046200e-01
1.139000000000000012e+00,-1.728099154231015344e-01,4.643728602774749303e-01,3.126907836182712397e-01
1.139999999999999902e+00,-3.342636024007531459e-01,4.138757374865598138e-01,1.751683181449304461e-01
1.141000000000000014e+00,-5.795449732154258626e-01,4.350249513167112059e-02,1.097688780851014678e-01
1.141999999999999904e+00,-6.075260239593714973e-01,-3.457950149407237883e-01,1.382793337481059981e-01
1.143000000000000016e+00,-2.924546892030289724e-01,-5.477261694400126224e-01,2.854400678217163811e-01
1.143999999999999906e+00,2.174945676529089766e-01,-4.657675895378892705e-01,4.319515437091821508e-01
1.145000000000000018e+00,5.859225658855783392e-01,-2.598628766707380411e-01,3.309160094400040997e-01
1.145999999999999908e+00,6.193581153640461689e-01,-1.771635886892508061e-01,6.989920468899742112e-02
1.147000000000000020e+00,4.120761308473253615e-01,-2.194008120235703685e-01,-2.484199392124513128e-01
1.147999999999999909e+00,2.202219429218048308e-01,-3.933610797695161199e-01,-3.713692801876249949e-01
1.149000000000000021e+00,2.034245227507676390e-01,-3.859243672941515269e-01,-2.895773428986300191e-01
1.149999999999999911e+00,4.160214274609750906e-01,-1.365536320250409774e-01,-1.079911898046360536e-01
1.151000000000000023e+00,6.095137840032924803e-01,2.553190033424133643e-01,-1.278397763936569842e-01
1.151999999999999913e+00,4.579714920272406897e-01,5.422410742323887645e-01,-1.532381295953461342e-01
1.153000000000000025e+00,-6.530574323666622077e-03,5.845630967059687322e-01,-3.134091334310907806e-01
1.153999999999999915e+00,-4.710567599363195135e-01,3.514979390934227510e-01,-3.201131453497430002e-01
1.155000000000000027e+00,-7.060676836247089527e-01,1.393727957170703691e-01,-1.951799510951267580e-01
1.155999999999999917e+00,-5.718197827197709637e-01,1.326279440262837506e-01,1.034032123418564680e-01
1.157000000000000028e+00,-3.371260273564752330e-01,2.608031496292702034e-01,2.896601353357156072e-01
1.157999999999999918e+00,-1.657412953895832652e-01,3.676805578801500829e-01,3.924345041657066324e-01
1.159000000000000030e+00,-2.348619618000513110e-01,2.316639573782733608e-01,2.798409378950747484e-01
1.159999999999999920e+00,-4.720771327961218455e-01,-1.498081509565737934e-01,1.525862256077404333e-01
1.161000000000000032e+00,-4.973911954615494180e-01,-5.047846380507590158e-01,1.583771342055969589e-01
1.161999999999999922e+00,-1.818731816511407473e-01,-5.927543580604790474e-01,2.064703424142358690e-01
1.163000000000000034e+00,3.585244867146949455e-01,-4.646565542183752617e-01,3.634402882313773064e-01
1.163999999999999924e+00,6.727810146392958490e-01,-2.251755915027031929e-01,2.297846327510937037e-01
1.165000000000000036e+00,7.168307777626484745e-01,-1.252022013941757050e-01,4.604186952131128496e-02
1.165999999999999925e+00,4.645092403551904225e-01,-1.880115017299111846e-01,-2.507151066350862822e-01
1.167000000000000037e+00,2.206759995824626730e-01,-3.016727808262675836e-01,-4.401093163651684237e-01
1.167999999999999927e+00,1.449118540655644771e-01,-2.771086098860980340e-01,-3.437258619881759514e-01
1.169000000000000039e+00,3.314637058543056791e-01,6.879990591502021732e-03,-2.190653439380076672e-01
1.169999999999999929e+00,4.764681138417983242e-01,3.907474558744593041e-01,-9.411553285318974282e-02
1.171000000000000041e+00,3.116166032733301283e-01,6.261953609932784381e-01,-1.211750297450388536e-01
1.171999999999999931e+00,-1.366749037457511973e-01,6.021766534142566352e-01,-2.468337131900129600e-01
1.173000000000000043e+00,-5.758260028649799800e-01,2.933250357927092988e-01,-2.985454357527395630e-01
1.173999999999999932e+00,-8.179629712508953432e-01,1.123613622497969394e-01,-1.690742484431074222e-01
1.175000000000000044e+00,-6.330951410928872258e-01,5.902446070448836429e-02,1.073936593838621112e-01
1.175999999999999934e+00,-2.830712013412047257e-01,2.322267934638690690e-01,3.680976331699840620e-01
1.177000000000000046e+00,-1.338259077962347110e-01,2.513223924094697970e-01,4.759472473400256920e-01
1.177999999999999936e+00,-1.881589111045429696e-01,9.047660584198749523e-02,3.089400726306497647e-01
1.179000000000000048e+00,-3.545760715255252826e-01,-2.849566070044304289e-01,1.166394515416600414e-01
1.179999999999999938e+00,-3.629733102372854625e-01,-6.088720230189599292e-01,8.741574703114689260e-02
