time,acc_x,acc_y,acc_z
0.000000000000000000e+00,-1.647468433893050921e-01,-1.122205131232472397e-01,-9.007362066056329164e-02
1.000000000000000021e-03,-1.261557993434248848e-01,-5.440490175504599651e-02,-9.038674693315755515e-02
2.000000000000000042e-03,-7.285598804891476286e-03,5.228118814995676850e-02,-4.001172187519146106e-02
3.000000000000000062e-03,6.762010053114093922e-02,5.424576144141378398e-02,-6.501965488225359621e-03
4.000000000000000083e-03,5.341717525616936080e-02,1.409616547976760663e-02,3.456508661289328654e-02
5.000000000000000104e-03,-9.719901565483596989e-03,-8.307090428424530881e-02,-6.822025509079821491e-03
6.000000000000000125e-03,-1.291247831403938562e-01,-1.230285180240781734e-01,-4.430034104302925380e-02
7.000000000000000146e-03,-1.762821215249453510e-01,-8.825522757940919283e-02,-6.455237392129171969e-02
8.000000000000000167e-03,-8.094403505798347664e-02,1.651611560930871941e-02,-8.917705522963768894e-02
8.999999999999999320e-03,5.230716032328396048e-02,1.243904885150983741e-01,-3.651410434577751635e-02
1.000000000000000021e-02,1.741364393213110928e-01,1.792668539972228636e-01,6.972612827456639573e-02
1.099999999999999936e-02,2.456367460778578204e-01,1.564892762314913643e-01,1.244703051666678079e-01
1.200000000000000025e-02,1.714116647949674166e-01,5.648693424557412607e-02,1.371163488805278441e-01
1.299999999999999940e-02,4.382474497669675353e-03,-6.459125855878701528e-02,8.907589482490280153e-02
1.400000000000000029e-02,-9.935990750071055366e-02,-1.410224103176060118e-01,-1.409922014999545744e-03
1.499999999999999944e-02,-1.779854589553329369e-01,-1.164103626527623475e-01,-8.278860286915261379e-02
1.600000000000000033e-02,-1.435735137163832997e-01,-3.117663676608723941e-02,-1.181717592373432990e-01
1.700000000000000122e-02,-1.263309711367183175e-02,3.754334947675823375e-02,-4.653101358676937915e-02
1.799999999999999864e-02,5.005585187614690346e-02,4.821597293612141927e-02,-1.370653132939942190e-02
1.899999999999999953e-02,7.358629399295466000e-02,1.126940707890572088e-02,4.618899238015117259e-02
2.000000000000000042e-02,-1.682248864732673044e-02,-8.526059075491115857e-02,4.796939456313620981e-02
2.100000000000000130e-02,-1.220199744758086458e-01,-1.048540365720473239e-01,-2.695843154346671752e-02
2.199999999999999872e-02,-1.398401644150004119e-01,-5.674802960738115076e-02,-8.225356319085354306e-02
2.299999999999999961e-02,-6.686401368677365176e-02,3.358382741743743544e-02,-8.358088857437476205e-02
2.400000000000000050e-02,8.203782298499798231e-02,1.638891350299611915e-01,-2.639881745697185075e-02
2.500000000000000139e-02,1.875798623506034490e-01,1.871239792843839567e-01,5.453605770322581675e-02
2.599999999999999881e-02,2.379267442472771665e-01,1.333607318085812399e-01,1.187343779324431248e-01
2.699999999999999969e-02,1.619797258774804960e-01,2.714846370020005534e-02,1.467342229432612721e-01
2.800000000000000058e-02,1.575940200344022254e-02,-1.046374229800794559e-01,1.062970060582657389e-01
2.900000000000000147e-02,-1.416040413607468629e-01,-1.617257492754436421e-01,-3.054273022108307083e-03
2.999999999999999889e-02,-1.745924719065566622e-01,-1.029891569475072516e-01,-6.618010880487297520e-02
3.099999999999999978e-02,-1.420445964642320369e-01,-4.037829260609881316e-02,-1.050563067065088396e-01
3.200000000000000067e-02,-2.781925913043993559e-02,5.584490335120919496e-02,-6.061807503553611615e-02
3.300000000000000155e-02,6.664290990896043487e-02,5.551831947868840489e-02,2.634872609409938220e-03
3.400000000000000244e-02,4.373489526821151135e-02,-1.454543053464636346e-02,5.144305976504900263e-02
3.500000000000000333e-02,-2.090939486499512195e-02,-8.067897914357727296e-02,4.568662864210751989e-02
3.599999999999999728e-02,-1.061460230141971772e-01,-1.117284002843495494e-01,-2.719775738545242641e-02
3.699999999999999817e-02,-1.365887858919399289e-01,-4.529026931289521773e-02,-7.601425306112012670e-02
3.799999999999999906e-02,-4.425075602425521809e-02,7.613684595312759928e-02,-7.195072219496974342e-02
3.899999999999999994e-02,8.078327717300699817e-02,1.639920990759153319e-01,-2.566879428395314744e-02
4.000000000000000083e-02,2.122448844290739933e-01,1.770404669276167409e-01,5.396714130429309392e-02
4.100000000000000172e-02,2.365725269994502222e-01,1.213778246717967940e-01,1.116377014866095502e-01
4.200000000000000261e-02,1.348046701381035162e-01,-2.418096771934872061e-02,1.236956930709744162e-01
4.299999999999999656e-02,-2.127933460728020920e-02,-1.435871419797026538e-01,8.800028486790734128e-02
4.399999999999999745e-02,-1.377274037626218250e-01,-1.713996812407737047e-01,-1.139191363255367614e-02
4.499999999999999833e-02,-1.973664917548765274e-01,-9.892533249222699998e-02,-6.779681585558532120e-02
4.599999999999999922e-02,-1.551979880075388674e-01,-1.285579437877515212e-02,-1.266192278351510603e-01
4.700000000000000011e-02,-6.482006190315504467e-04,6.108290715069474019e-02,-9.378332600346903081e-02
4.800000000000000100e-02,6.064215397623404225e-02,4.563761572694411545e-02,-5.395848166943857140e-03
4.900000000000000189e-02,7.574294265362767342e-02,-1.016324439928940893e-02,2.370662767193124770e-02
5.000000000000000278e-02,-9.840269570616555267e-05,-6.969314875878455939e-02,2.617001495083320223e-02
5.099999999999999672e-02,-9.024151610411959568e-02,-8.774844502984120720e-02,-1.105990951000506220e-02
5.199999999999999761e-02,-1.151620654804068750e-01,-3.263228316873944407e-02,-5.416197242397702977e-02
5.299999999999999850e-02,-3.267492913794639575e-02,6.753372247601900635e-02,-8.342830277047165455e-02
5.399999999999999939e-02,8.796106786159386959e-02,1.831929770703386584e-01,-3.321820151047841230e-02
5.500000000000000028e-02,1.900494314802837759e-01,1.592789080436142757e-01,3.993558215023334385e-02
5.600000000000000117e-02,2.351958354349604208e-01,8.164741792558022349e-02,1.216185977768961951e-01
5.700000000000000205e-02,1.293979375449999247e-01,-6.839713742762530690e-02,1.583826488812060951e-01
5.800000000000000294e-02,-3.576768245533834545e-02,-1.372389358875631682e-01,8.258277672326576335e-02
5.899999999999999689e-02,-1.703395756566213615e-01,-1.578620525704944044e-01,7.184704376085528262e-03
5.999999999999999778e-02,-2.035837392552167224e-01,-1.021460795540042321e-01,-9.077106757206791776e-02
6.099999999999999867e-02,-1.277380265815722393e-01,2.026461471815065724e-02,-1.070224387522994286e-01
6.199999999999999956e-02,-1.140269033255300948e-02,8.088995692470357657e-02,-9.487125323304571034e-02
6.300000000000000044e-02,8.796944264993247775e-02,5.124882763858311374e-02,-2.757966517000756332e-02
6.400000000000000133e-02,7.063803300712932776e-02,-2.736307067463436549e-02,4.523896455702332287e-02
6.500000000000000222e-02,-8.005945880068468176e-03,-6.781370068981662502e-02,5.082515163221614646e-02
6.600000000000000311e-02,-8.782138706415326679e-02,-6.139802956022867575e-02,1.432080490515947810e-02
6.700000000000000400e-02,-1.126296700766355324e-01,-1.871437943351616021e-02,-2.734069611974833738e-02
6.800000000000000488e-02,-2.089524533513575227e-02,1.161922042696289653e-01,-6.381520991333025639e-02
6.900000000000000577e-02,8.942774214139984079e-02,1.705021830756233980e-01,-3.852182078355004258e-02
7.000000000000000666e-02,1.956811630104061672e-01,1.482959333352313891e-01,2.655641465982125013e-02
7.099999999999999367e-02,2.188087429847716814e-01,5.455317256618676808e-02,1.034053594033712276e-01
7.199999999999999456e-02,1.375738515601096779e-01,-8.764295260157448086e-02,1.295038143492750760e-01
7.299999999999999545e-02,-4.228116679669780692e-02,-1.644505710880087013e-01,1.009623629106898290e-01
7.399999999999999634e-02,-1.767266480713988175e-01,-1.597944636643975347e-01,1.579494234276394371e-03
7.499999999999999722e-02,-1.984110245296895336e-01,-7.660635830933154589e-02,-8.537747235935828904e-02
7.599999999999999811e-02,-1.320565764522654562e-01,3.237719531507832899e-02,-1.190867664419729965e-01
7.699999999999999900e-02,1.147420631852812817e-03,8.520248925077664182e-02,-1.025203955768668879e-01
7.799999999999999989e-02,8.565524541884518561e-02,5.789694907225802212e-02,-2.069442775791320577e-02
7.900000000000000078e-02,7.125824749540959901e-02,-1.076757011924496521e-02,4.414254027184012774e-02
8.000000000000000167e-02,-6.112644578549794420e-03,-5.699855661678199931e-02,5.255915030110617364e-02
8.100000000000000255e-02,-7.529824752323382997e-02,-7.554503152522934473e-02,3.564611852823459937e-02
8.200000000000000344e-02,-9.615669292028967974e-02,2.669905194763889933e-02,-2.610787214632155628e-02
8.300000000000000433e-02,-1.628373879876378804e-03,1.224782103337489492e-01,-6.684418800268498995e-02
8.400000000000000522e-02,8.584217843716589191e-02,1.659192087729638165e-01,-2.918584285021854838e-02
8.500000000000000611e-02,1.770760123134836606e-01,1.339748661691405884e-01,4.234497474011010565e-02
8.599999999999999312e-02,1.965675393721304787e-01,9.062562011256110328e-03,1.030040731994966985e-01
8.699999999999999400e-02,9.777658675932859866e-02,-1.129371826549093183e-01,1.256244452681689050e-01
8.799999999999999489e-02,-8.403311926581907843e-02,-2.026027693474824753e-01,7.911805551990890029e-02
8.899999999999999578e-02,-2.114800334311070229e-01,-1.509432145627034316e-01,2.966712314755059685e-02
8.999999999999999667e-02,-2.215124646969948152e-01,-5.571244675738314112e-02,-7.565019722994949236e-02
9.099999999999999756e-02,-1.420565184228938516e-01,4.916544344847746661e-02,-1.204475576359557570e-01
9.199999999999999845e-02,-2.312894093440545640e-02,8.402040247267643369e-02,-1.114200095451163136e-01
9.299999999999999933e-02,1.079919908739709611e-01,4.567738540211645215e-02,-2.857987340269837334e-02
9.400000000000000022e-02,7.231948825104965450e-02,-2.654735115378986654e-02,1.300343454591064429e-02
9.500000000000000111e-02,1.930730467793242630e-02,-5.238354648033900079e-02,5.273722087370170258e-02
9.600000000000000200e-02,-6.213153399893599910e-02,-3.797512197219275742e-02,2.405532134414158432e-02
9.700000000000000289e-02,-7.775284795535465643e-02,3.923229457009876076e-02,-4.497658422213709171e-03
9.800000000000000377e-02,-7.506775607920446874e-03,1.291873980437289737e-01,-6.483014463304551112e-02
9.900000000000000466e-02,1.108910746769940781e-01,1.446271150229882507e-01,-4.788350740423038404e-02
1.000000000000000056e-01,1.881272154136663100e-01,1.107212994964299341e-01,1.738087503077558049e-02
1.010000000000000064e-01,1.799033725688512775e-01,-2.769092152211418897e-02,1.044260513078994895e-01
1.019999999999999934e-01,8.170815984720007641e-02,-1.190771212291665132e-01,1.384949788251959302e-01
1.029999999999999943e-01,-9.016134327049814268e-02,-1.705466036153822640e-01,8.392573001684007494e-02
1.039999999999999952e-01,-2.107765878065828713e-01,-1.388694931773504504e-01,2.003146585212618042e-02
1.049999999999999961e-01,-2.200388332930851565e-01,-2.633860282548033949e-02,-6.598220376684388322e-02
1.059999999999999970e-01,-1.182061130815575817e-01,6.669633153204916620e-02,-1.442012523213841713e-01
1.069999999999999979e-01,3.182884636351350927e-03,1.117162196925373108e-01,-1.104736632656359019e-01
1.079999999999999988e-01,9.264559813494563367e-02,4.076658678856257684e-02,-6.154042470761663525e-02
1.089999999999999997e-01,1.121868037828951392e-01,-1.023276760001457820e-02,3.805630332631156076e-02
1.100000000000000006e-01,2.170320006270972171e-02,-5.850576886491113543e-02,5.230176481095624719e-02
1.110000000000000014e-01,-2.796773887775946127e-02,-2.955131412293652421e-02,5.430566100734805085e-02
1.120000000000000023e-01,-7.717373622956498480e-02,5.618297838843831771e-02,-7.261204982715954021e-03
1.130000000000000032e-01,-6.982249651041588095e-03,1.328250617690323321e-01,-3.899145104535463313e-02
1.140000000000000041e-01,1.060349038597504789e-01,1.440913466048702185e-01,-4.017927227582297756e-02
1.150000000000000050e-01,1.984592000006995260e-01,7.014352222291539429e-02,5.248008882022212399e-03
1.160000000000000059e-01,1.805225582009420682e-01,-5.183847583107896451e-02,8.490552121786679174e-02
1.170000000000000068e-01,7.286252394333188331e-02,-1.719225675659884212e-01,1.302547224017746585e-01
1.179999999999999938e-01,-9.591569903245304729e-02,-1.675859754938427981e-01,8.887157100200798743e-02
1.189999999999999947e-01,-2.371970323311662632e-01,-1.055906940294280144e-01,1.529231118196579253e-02
1.199999999999999956e-01,-2.310062434031440459e-01,-3.866112076639136009e-04,-8.154549229135957256e-02
1.209999999999999964e-01,-1.253195328512003437e-01,7.671629344667925399e-02,-1.518288875440882979e-01
1.219999999999999973e-01,1.803815802982852712e-02,1.017029551032242601e-01,-1.397800802172879386e-01
1.229999999999999982e-01,1.164603237042119571e-01,3.338906849144483019e-02,-6.073068525611263757e-02
1.239999999999999991e-01,1.176509320019422655e-01,-3.231872356186894085e-02,2.183514575657546919e-02
1.250000000000000000e-01,1.716370583219451601e-02,-5.161145586361542970e-02,6.137819791403501674e-02
1.260000000000000009e-01,-5.653549125874404724e-02,-2.073704581538836703e-02,6.930540797881293291e-02
1.270000000000000018e-01,-7.356642206146002394e-02,5.359205317766623650e-02,-9.860161547061483886e-03
1.280000000000000027e-01,-1.457041479093141439e-02,1.205404500673589452e-01,-4.219229999808817022e-02
1.290000000000000036e-01,1.229735802216140317e-01,1.463258324973696067e-01,-5.452723187260982707e-02
1.300000000000000044e-01,1.927236258486250131e-01,3.898471751728051909e-02,-5.844674040858198992e-03
1.310000000000000053e-01,1.441716630530411880e-01,-9.651016038112543438e-02,8.631489254730126404e-02
1.320000000000000062e-01,2.892207937159628831e-02,-1.826923603402057228e-01,1.128260414691647090e-01
1.330000000000000071e-01,-1.303425662948010377e-01,-1.766835696077664331e-01,1.059611704199484861e-01
1.340000000000000080e-01,-2.175970269932862300e-01,-9.454715689130713252e-02,2.356469013886413645e-03
1.350000000000000089e-01,-2.189453764671905334e-01,2.553873339341577314e-03,-6.908527394207220063e-02
1.360000000000000098e-01,-1.108863498571547174e-01,1.083568289743804119e-01,-1.235294304291780776e-01
1.370000000000000107e-01,4.030725978112013191e-02,1.224737697132209091e-01,-1.457848360508497976e-01
1.380000000000000115e-01,1.281059526071185173e-01,5.074836598641898483e-02,-7.538403191881576371e-02
1.390000000000000124e-01,1.182758863539171978e-01,-3.499562802833170588e-02,2.672494760311797547e-04
1.400000000000000133e-01,3.875480876727358664e-02,-4.231679091980295598e-02,9.227250314446507062e-02
1.409999999999999865e-01,-3.195836669695104049e-02,-4.367432383938842934e-04,6.967224850031181194e-02
1.419999999999999873e-01,-8.335364674099217386e-02,8.141186342959956523e-02,2.237340367063607796e-02
1.429999999999999882e-01,9.835614157799467405e-03,1.305418786505640749e-01,-2.296392800339427595e-02
1.439999999999999891e-01,9.017665836686125647e-02,1.144724794499125536e-01,-2.997461582638529312e-02
1.449999999999999900e-01,1.798405651985888476e-01,-3.006435017067119429e-03,-8.114430036247243655e-03
1.459999999999999909e-01,1.461884319123864517e-01,-1.067371489094478682e-01,6.909851803236337353e-02
1.469999999999999918e-01,2.484833923216535692e-02,-2.142105706311135116e-01,1.127626788571019362e-01
1.479999999999999927e-01,-1.411347849793799236e-01,-1.583804227071801685e-01,1.176766322207953436e-01
1.489999999999999936e-01,-2.476743750288950552e-01,-8.768577497429314027e-02,2.532569658858954340e-02
1.499999999999999944e-01,-2.345050465797037242e-01,6.167276437726969263e-02,-8.027548041087084751e-02
1.509999999999999953e-01,-9.912974080435996149e-02,1.330707996244158697e-01,-1.274477649634888909e-01
1.519999999999999962e-01,4.442483879418698128e-02,1.275871609955533115e-01,-1.629028606517705369e-01
1.529999999999999971e-01,1.401069529163906369e-01,3.421433176255785774e-02,-7.171534064736111158e-02
1.539999999999999980e-01,1.198219281099764250e-01,-3.754540875411882528e-02,2.159397022066440394e-02
1.549999999999999989e-01,4.255063635309635356e-02,-4.736189285585659658e-02,9.223942085620918940e-02
1.559999999999999998e-01,-4.219021640943072804e-02,1.925030354889201503e-02,8.139351806139642764e-02
1.570000000000000007e-01,-5.111640756648418854e-02,8.197747072486613606e-02,4.256810723923931672e-02
1.580000000000000016e-01,-1.404356461232223255e-02,1.325616186158048437e-01,-1.851274487438710550e-02
1.590000000000000024e-01,9.455349601101389889e-02,9.509122617441302661e-02,-4.457605466398290722e-02
1.600000000000000033e-01,1.736408527876168173e-01,-3.178188162092620422e-02,-1.784964923776814760e-02
1.610000000000000042e-01,1.399312072734019974e-01,-1.526038055531443449e-01,5.445623190810076203e-02
1.620000000000000051e-01,-7.263241768213753169e-03,-2.008715901176260921e-01,1.038765291925196482e-01
1.630000000000000060e-01,-1.532968159006415643e-01,-1.569120782807626735e-01,7.951947208262047373e-02
1.640000000000000069e-01,-2.359252011958428430e-01,-4.359548896551163066e-02,2.626054901126736313e-02
1.650000000000000078e-01,-2.109064714250152295e-01,7.219706470516948360e-02,-5.781269894521377795e-02
1.660000000000000087e-01,-1.156348140930588131e-01,1.297871077622578251e-01,-1.234195153115986432e-01
1.670000000000000095e-01,7.090109039027349402e-02,1.045901041210210297e-01,-1.445352401610219273e-01
1.680000000000000104e-01,1.481451643394146034e-01,3.279228902892838277e-02,-9.198815709470038737e-02
1.690000000000000113e-01,1.568197830467948639e-01,-5.533803307747596489e-02,8.419114902586994839e-03
1.700000000000000122e-01,6.253790351446768259e-02,-6.384958331719021996e-02,1.070291306496925776e-01
1.710000000000000131e-01,-3.005862643169698520e-02,2.002604672953694348e-02,9.593854138382508501e-02
1.719999999999999862e-01,-7.023874837760409051e-02,9.521939757632676138e-02,4.780592977065895727e-02
1.729999999999999871e-01,6.122349933823178526e-03,9.958396860984358723e-02,-1.562637700117799899e-02
1.739999999999999880e-01,7.941966476443201861e-02,6.339820625736511395e-02,-5.789629549487357307e-02
1.749999999999999889e-01,1.446357379828258072e-01,-7.213005157380893151e-02,-2.165695331002552571e-02
1.759999999999999898e-01,1.142876316498055850e-01,-1.471965551077195067e-01,3.702510951573061149e-02
1.769999999999999907e-01,-8.719552351702302903e-03,-1.874832013286729382e-01,7.359741041926547156e-02
1.779999999999999916e-01,-1.699471434281980275e-01,-1.197942165535014064e-01,5.660922982320944208e-02
1.789999999999999925e-01,-2.449273591869760291e-01,-5.425456888425464431e-04,3.552224413330038605e-02
1.799999999999999933e-01,-2.283296248106964077e-01,1.120242461743412299e-01,-5.653374885210639411e-02
1.809999999999999942e-01,-7.574437046733945023e-02,1.572033820756592037e-01,-1.330062659741595710e-01
1.819999999999999951e-01,9.006377340352526850e-02,9.323330766660356539e-02,-1.412974604057078143e-01
1.829999999999999960e-01,1.662535590837806998e-01,1.508172420182265876e-02,-8.703237261660207169e-02
1.839999999999999969e-01,1.568816688207738119e-01,-8.077548866978258302e-02,8.842864218641690449e-03
1.849999999999999978e-01,5.819054633274491767e-02,-5.120354667172055674e-02,8.926021717659503307e-02
1.859999999999999987e-01,-1.224019917303394156e-02,3.326757812892898458e-02,9.917039359068879900e-02
1.869999999999999996e-01,-7.724469658445586029e-02,8.253399211106371425e-02,7.354743414865745621e-02
1.880000000000000004e-01,-3.447590265707350943e-02,9.258231522856284756e-02,1.207271224592794227e-02
1.890000000000000013e-01,7.690363403669052411e-02,1.416431284524885884e-02,-4.815431766515683443e-02
1.900000000000000022e-01,1.281154043506662343e-01,-7.873741732100623947e-02,-5.077935714125022398e-02
1.910000000000000031e-01,8.619615492080713592e-02,-1.608305845560790426e-01,2.291212889057583565e-02
1.920000000000000040e-01,-3.588434370502261578e-02,-1.879503821438352762e-01,8.486436698734521611e-02
1.930000000000000049e-01,-1.681459091429059471e-01,-1.167463180407653373e-01,7.148583721598487928e-02
1.940000000000000058e-01,-2.497473317414048988e-01,1.640131607319028975e-02,4.064523947406793736e-02
1.950000000000000067e-01,-1.931598994964262295e-01,1.087120919065649310e-01,-6.568421311621928937e-02
1.960000000000000075e-01,-6.218733310937123171e-02,1.327345804637764526e-01,-1.190869245104602542e-01
1.970000000000000084e-01,8.610370834962896569e-02,8.455762411124588540e-02,-1.450930844864632696e-01
1.980000000000000093e-01,1.877927265129931134e-01,-1.334502367757420434e-02,-9.732501457914627396e-02
1.990000000000000102e-01,1.782579037085039175e-01,-6.460849427065053219e-02,-2.040140024190622778e-03
2.000000000000000111e-01,6.538758310116314643e-02,-3.178063960654013004e-02,8.505902050061320274e-02
2.010000000000000120e-01,-4.965712163439542359e-02,3.196635679237582600e-02,8.868177653092326751e-02
2.020000000000000129e-01,-8.493507236496621038e-02,7.909499542205711275e-02,9.091382076575291182e-02
2.030000000000000138e-01,-2.146632300869692755e-02,8.643060897065608927e-02,1.641170688857805302e-02
2.039999999999999869e-01,7.889842745640625321e-02,2.688500588773396708e-03,-3.370194638027430162e-02
2.049999999999999878e-01,1.244255892478474818e-01,-9.299107867704987929e-02,-5.345866597267719816e-02
2.059999999999999887e-01,9.624038663365196145e-02,-1.804639619934966799e-01,5.301782817006001590e-03
2.069999999999999896e-01,-4.432207166883198740e-02,-1.604773471697261422e-01,5.954828220473531303e-02
2.079999999999999905e-01,-1.804903634543952307e-01,-5.917268734258654406e-02,8.866657025256999280e-02
2.089999999999999913e-01,-2.501532772591159581e-01,5.670739617825313467e-02,2.429964354775323090e-02
2.099999999999999922e-01,-1.645449301521369478e-01,1.351907255046428946e-01,-3.702757501637986975e-02
2.109999999999999931e-01,-3.267982219589680298e-02,1.695966864285738396e-01,-1.055909499941757868e-01
2.119999999999999940e-01,1.165871733784095837e-01,8.524195861823803677e-02,-1.379231089071576433e-01
2.129999999999999949e-01,1.838140859544915573e-01,-1.359504746123655315e-02,-8.429815172289094327e-02
2.139999999999999958e-01,1.705772700308319789e-01,-6.290206473506222695e-02,-1.024005902023370634e-02
2.149999999999999967e-01,4.017055150996173829e-02,-5.857299945729067120e-02,7.324218373713843599e-02
2.159999999999999976e-01,-4.941883974998291518e-02,3.102242060889225800e-02,1.026506713234621310e-01
2.169999999999999984e-01,-7.637471262397449445e-02,8.483998904488962434e-02,7.450177680153095838e-02
2.179999999999999993e-01,-1.862822089672240902e-02,7.799470277869773038e-02,3.345623607808898697e-02
2.190000000000000002e-01,7.628721451350700677e-02,-3.233373944282100232e-02,-2.507682104548341825e-02
2.200000000000000011e-01,1.249976734775369303e-01,-1.238518596464526778e-01,-4.531166328566531981e-02
2.210000000000000020e-01,8.325510889576763496e-02,-1.927684449321477311e-01,-1.779080916592250608e-02
2.220000000000000029e-01,-4.629423565717964012e-02,-1.430888101234287779e-01,4.457505417322863567e-02
2.230000000000000038e-01,-1.613754634846511216e-01,-3.555954016988842337e-02,9.112620149604644393e-02
2.240000000000000047e-01,-2.351409904269721185e-01,1.094248025485370646e-01,3.609784333792970951e-02
2.250000000000000056e-01,-1.715654247347651873e-01,1.545128033730051587e-01,-4.316934093753588275e-02
2.260000000000000064e-01,-2.845961333284345932e-02,1.376232388331729561e-01,-1.109444036964592761e-01
2.270000000000000073e-01,1.383197034987136143e-01,6.202449926029288824e-02,-1.236249800443445512e-01
2.280000000000000082e-01,2.021787270326977637e-01,-2.618710230659191535e-02,-9.339103612024697576e-02
2.290000000000000091e-01,1.769330285187479812e-01,-6.630242186549267780e-02,-3.464150287414162824e-03
2.300000000000000100e-01,7.598082436936984263e-02,-4.651223847382233295e-02,9.450720099188023027e-02
2.310000000000000109e-01,-5.641682879835357295e-02,2.548738590914004232e-02,1.241382573922927141e-01
2.320000000000000118e-01,-9.493644685077505530e-02,5.660994285466218467e-02,1.139063010446783181e-01
2.330000000000000127e-01,-2.880696014197132657e-02,4.720394961436593512e-02,4.156743878983613222e-02
2.340000000000000135e-01,3.788251947727010183e-02,-3.709869329046287106e-02,-3.299559732650572674e-02
2.349999999999999867e-01,8.901982522830756417e-02,-1.318683495406156037e-01,-5.519618304890044208e-02
2.359999999999999876e-01,5.738262201393874024e-02,-1.702161320663876931e-01,-8.576179760590854151e-04
2.369999999999999885e-01,-4.577647679620146237e-02,-1.213221881083495213e-01,3.647151564813590208e-02
2.379999999999999893e-01,-1.729840547150685581e-01,-1.439048845644036803e-02,5.720444258277865984e-02
2.389999999999999902e-01,-2.258586786279212222e-01,1.152711947097846273e-01,2.801303890492111079e-02
2.399999999999999911e-01,-1.537613724299656814e-01,1.892564527887489745e-01,-3.417722146523532317e-02
2.409999999999999920e-01,3.279091768914710152e-03,1.503025710179877739e-01,-1.133759294418053287e-01
2.419999999999999929e-01,1.430705207502390719e-01,4.281283320947713855e-02,-1.355808200320275381e-01
2.429999999999999938e-01,2.221133890172272973e-01,-5.666030399744161755e-02,-9.318267008169593690e-02
2.439999999999999947e-01,1.754277491236399256e-01,-9.091943199650377727e-02,-1.865328493267071411e-02
2.449999999999999956e-01,6.746471680439132534e-02,-3.920917260129396648e-02,8.104641390655677180e-02
2.459999999999999964e-01,-6.823350657480554970e-02,3.883409234259061621e-02,1.008508473825704410e-01
2.469999999999999973e-01,-1.099950517536777278e-01,7.660372043297078437e-02,1.040469257298567707e-01
2.479999999999999982e-01,-5.993428660332969504e-02,4.146425857951061694e-02,3.774011992036315627e-02
2.489999999999999991e-01,4.227711231927599317e-02,-5.805350032680442474e-02,-3.014672095587004816e-02
2.500000000000000000e-01,1.013380068474078050e-01,-1.262716008963600256e-01,-6.117728825749205179e-02
2.510000000000000009e-01,6.198926135132357129e-02,-1.584944585968337538e-01,-2.886657061135526267e-02
2.520000000000000018e-01,-7.207102212307461842e-02,-1.135601991223884194e-01,2.793344102756526934e-02
2.530000000000000027e-01,-1.750136079422607016e-01,3.373644409585505738e-02,4.423511848750023151e-02
2.540000000000000036e-01,-2.194209287226756566e-01,1.439205794736092836e-01,3.051548652711806239e-02
2.550000000000000044e-01,-1.439002453366485801e-01,1.956943889843783535e-01,-1.778059879046679087e-02
2.560000000000000053e-01,2.419366945918414308e-02,1.420916233168422749e-01,-1.024075948630693567e-01
2.570000000000000062e-01,1.689885780847913965e-01,3.417632839389222327e-02,-1.590607749928750481e-01
2.580000000000000071e-01,2.357970245688820188e-01,-7.103954343323390375e-02,-9.666143667359218539e-02
2.590000000000000080e-01,1.740155883838029882e-01,-8.731546054700764503e-02,-9.818503809402205976e-03
2.600000000000000089e-01,5.898910941636641148e-02,-4.566170342237692997e-02,9.627485881565621406e-02
2.610000000000000098e-01,-7.920664564076257408e-02,6.203303976219607524e-02,1.216346503160405795e-01
2.620000000000000107e-01,-1.157495540262484940e-01,7.815025557733122630e-02,1.246849506710598215e-01
2.630000000000000115e-01,-5.807228955362529754e-02,3.631469136288684174e-02,5.545971345053941209e-02
2.640000000000000124e-01,2.438026722231376175e-02,-7.068454095800009995e-02,-2.525823187831788275e-02
2.650000000000000133e-01,7.263587107267423237e-02,-1.439102272175827868e-01,-6.688742195075501884e-02
2.660000000000000142e-01,3.058463817901527562e-02,-1.515211243927409024e-01,-6.214599274557399550e-02
2.670000000000000151e-01,-6.562965565607573049e-02,-6.092614973448241822e-02,-1.430139710282584244e-03
2.680000000000000160e-01,-1.550393714537324497e-01,7.510617403655131530e-02,3.981875229853032438e-02
2.690000000000000169e-01,-2.043979895350530596e-01,1.609640708279575783e-01,2.370310647611374374e-02
2.700000000000000178e-01,-1.305030899179770720e-01,1.796464823131123101e-01,-2.791271244554523537e-02
2.710000000000000187e-01,2.877302446651907111e-02,1.079400074072640325e-01,-6.538144675678381201e-02
2.720000000000000195e-01,1.908488314852811174e-01,-2.285256145938431419e-04,-1.241459467148977591e-01
2.730000000000000204e-01,2.178655500308512571e-01,-9.159278285384613028e-02,-9.525858180491197924e-02
2.740000000000000213e-01,1.759548648962481476e-01,-8.355835056038728170e-02,-1.488341645077179490e-02
2.750000000000000222e-01,3.735660932845233373e-02,-4.794724038765169755e-02,8.818555653968919439e-02
2.760000000000000231e-01,-9.627537371962985313e-02,2.721526476658522528e-02,1.267595378025603570e-01
2.770000000000000240e-01,-1.266087646435893055e-01,4.753786141152802069e-02,1.073219038064505138e-01
2.780000000000000249e-01,-6.647315479403755056e-02,-4.077799215804429889e-03,3.999704279490062103e-02
2.790000000000000258e-01,3.030629550687015741e-02,-7.016528089301041216e-02,-1.264465163625819871e-02
2.800000000000000266e-01,5.697687022932747258e-02,-1.466383734098616054e-01,-5.729756244754752315e-02
2.810000000000000275e-01,4.098751377574016974e-02,-1.258673994860056156e-01,-5.548710374224830738e-02
2.819999999999999729e-01,-7.745659150213277111e-02,-3.338860928148814494e-02,-4.773461474919387347e-03
2.829999999999999738e-01,-1.688723165661748515e-01,9.341842097450156479e-02,3.544604172369474060e-02
2.839999999999999747e-01,-1.966500964127199103e-01,1.834706476353558657e-01,3.704028203630396754e-02
2.849999999999999756e-01,-1.057479683232538797e-01,1.758174652406883087e-01,7.796197826287536159e-03
2.859999999999999765e-01,2.860232326020008958e-02,9.160057803927211528e-02,-9.210248806132440014e-02
2.869999999999999774e-01,1.805242050278681176e-01,-3.842160764423031838e-02,-1.202717389288292527e-01
2.879999999999999782e-01,2.312376748793493475e-01,-1.157465357058729549e-01,-9.039420389007002399e-02
2.889999999999999791e-01,1.831749124116355265e-01,-8.914911354863547244e-02,-6.540955948753742659e-04
2.899999999999999800e-01,4.624051892605655217e-02,-3.026840370332781541e-02,7.342084862228254183e-02
2.909999999999999809e-01,-9.939123363902924169e-02,3.737467783943255323e-02,1.473938883385045306e-01
2.919999999999999818e-01,-1.507281951416356292e-01,6.175829700126589383e-02,1.385390837889421412e-01
2.929999999999999827e-01,-7.205446468869179666e-02,2.926345302463129530e-03,5.424423329319036369e-02
2.939999999999999836e-01,7.667051793661760692e-03,-7.517503021505865524e-02,-1.380315016923780273e-02
2.949999999999999845e-01,7.194735485142370046e-02,-1.551897850293390280e-01,-7.973765966166035390e-02
2.959999999999999853e-01,2.522438536739172663e-02,-1.062477220546374224e-01,-7.925282083399459720e-02
2.969999999999999862e-01,-6.803287888859972654e-02,1.658203470035380517e-02,-1.864597791127781470e-02
2.979999999999999871e-01,-1.706489571781436010e-01,1.322099089067620692e-01,3.177335360634800376e-02
2.989999999999999880e-01,-1.592736986313052217e-01,1.833722240063146713e-01,4.832002630875444765e-02
2.999999999999999889e-01,-7.549796593772961639e-02,1.549015636546172969e-01,6.567766575841346884e-03
3.009999999999999898e-01,6.698322347992168024e-02,4.747138543860190268e-02,-5.808803022594016818e-02
3.019999999999999907e-01,2.221047850919682376e-01,-5.607082028204703888e-02,-1.109324677295516898e-01
3.029999999999999916e-01,2.491269727766724784e-01,-1.371837500810333121e-01,-9.244249091368461624e-02
3.039999999999999925e-01,1.669524951365226884e-01,-1.056796693195387049e-01,-2.535278867576502837e-02
3.049999999999999933e-01,1.957412986742939481e-02,-6.072935049763257542e-03,6.083924615949928144e-02
3.059999999999999942e-01,-8.602601859719002930e-02,3.411257413230919799e-02,1.401230963225385817e-01
3.069999999999999951e-01,-1.602884993823172621e-01,4.146475391846151520e-02,1.369118015636530405e-01
3.079999999999999960e-01,-7.753953891721836189e-02,-1.827795762260531892e-02,7.893260109910676947e-02
3.089999999999999969e-01,2.276730724333904735e-02,-9.677058114451193849e-02,-1.385592727502949796e-02
3.099999999999999978e-01,7.217373345991218159e-02,-1.232999192808504341e-01,-8.316291122935437485e-02
3.109999999999999987e-01,3.702395255290501924e-02,-8.363696400074382975e-02,-7.155346164062363623e-02
3.119999999999999996e-01,-6.404235240279806951e-02,2.515566306881092742e-02,-3.048141123063887944e-02
3.130000000000000004e-01,-1.590927809186410691e-01,1.373952162118856901e-01,1.914600683962609795e-02
3.140000000000000013e-01,-1.512723783200156380e-01,2.016227278172789683e-01,3.067840445129487587e-02
3.150000000000000022e-01,-8.844002332965077151e-02,1.490985370250286213e-01,1.977144312572684005e-03
3.160000000000000031e-01,9.540885984613238502e-02,4.136584804440231883e-02,-5.125296138046166183e-02
3.170000000000000040e-01,1.973613304031865689e-01,-7.060336785599044540e-02,-9.551469077407968855e-02
3.180000000000000049e-01,2.247907326754518542e-01,-1.451669580917502311e-01,-9.280259212383659695e-02
3.190000000000000058e-01,1.311735134741477682e-01,-9.822439039077013323e-02,-2.663967313949716642e-02
3.200000000000000067e-01,1.565375033642066923e-03,-2.634446508230165601e-02,6.875916642682676494e-02
3.210000000000000075e-01,-1.191712445040322560e-01,3.693389698272284138e-02,1.109186086206880029e-01
3.220000000000000084e-01,-1.585316181568136862e-01,4.436884403880938382e-02,1.389223879242215964e-01
3.230000000000000093e-01,-9.453645674592665860e-02,-4.049594059517886563e-02,6.911614792675917218e-02
3.240000000000000102e-01,1.370268343574078049e-02,-8.901574340942264296e-02,-6.870984764337951557e-03
3.250000000000000111e-01,6.578389803420234272e-02,-1.277762360632290761e-01,-8.108970649574544221e-02
3.260000000000000120e-01,3.889854217258828517e-02,-5.416756042935774035e-02,-8.884899591787136230e-02
3.270000000000000129e-01,-7.161831480510778836e-02,5.288916283017337100e-02,-5.764829116648621105e-02
3.280000000000000138e-01,-1.405271353386152167e-01,1.693521902710419247e-01,-9.094858578465518206e-05
3.290000000000000147e-01,-1.425524026456001236e-01,1.748527285750821614e-01,3.412965970002631438e-02
3.300000000000000155e-01,-5.018400768033378506e-02,1.274283657390968549e-01,9.419879973831590814e-03
3.310000000000000164e-01,9.859173708234593436e-02,1.496393239350495095e-03,-4.729940153374901507e-02
3.320000000000000173e-01,2.358221649553181309e-01,-9.284881077869183708e-02,-7.405308202185623134e-02
3.330000000000000182e-01,2.412904923316659678e-01,-1.296074881029358195e-01,-9.292490337599730588e-02
3.340000000000000191e-01,1.330806857653546171e-01,-9.253093149974918330e-02,-3.695221224596464960e-02
3.350000000000000200e-01,-2.717632588048220915e-02,-1.457758776276198848e-02,6.713925136388633474e-02
3.360000000000000209e-01,-1.257985199324666847e-01,6.293473847471511839e-02,1.524990820488664189e-01
3.370000000000000218e-01,-1.506181576360719476e-01,3.954993263627290534e-02,1.317907659996671865e-01
3.380000000000000226e-01,-1.045596687396605079e-01,-4.147533024492626452e-02,7.720649781319322003e-02
3.390000000000000235e-01,1.209216697063873790e-03,-9.556839046282565586e-02,-2.087332926156773918e-02
3.400000000000000244e-01,6.769118650362988820e-02,-1.043991287748160246e-01,-8.418468517149635399e-02
3.410000000000000253e-01,4.123827918795167774e-02,-2.196598509067990840e-02,-1.022301103061893368e-01
3.420000000000000262e-01,-6.426402439063613747e-02,8.895336837890241433e-02,-5.428580341801368669e-02
3.430000000000000271e-01,-1.276912908704389005e-01,1.858838968848112450e-01,-2.646828312662869494e-03
3.439999999999999725e-01,-1.348971293167083307e-01,1.917426035203249612e-01,4.940717092822620449e-02
3.449999999999999734e-01,-5.387326952759015353e-02,9.171171682188257457e-02,1.711606813678884578e-02
3.459999999999999742e-01,1.065112079641722526e-01,-3.882955370583073690e-02,-2.541910633771383987e-02
3.469999999999999751e-01,2.214168854844614509e-01,-1.306455468009927456e-01,-7.711097268104734337e-02
3.479999999999999760e-01,2.476611223432900466e-01,-1.402910064488940567e-01,-1.051409419970721071e-01
3.489999999999999769e-01,1.203621493985917168e-01,-7.746358843410663941e-02,-4.047127440939325693e-02
3.499999999999999778e-01,-4.885547151971145197e-02,1.462662061901822547e-02,5.199288609393946242e-02
3.509999999999999787e-01,-1.671949891719775871e-01,4.470526034831905082e-02,1.221507528787549590e-01
3.519999999999999796e-01,-1.768107888640830239e-01,3.567190178486851632e-02,1.617298355895855355e-01
3.529999999999999805e-01,-1.185386943674057586e-01,-4.167961956419809905e-02,8.841445761772574741e-02
3.539999999999999813e-01,4.651896232247761803e-03,-9.523689571309178203e-02,-4.097806751110173794e-04
3.549999999999999822e-01,6.777888825432437647e-02,-1.028505423337743169e-01,-7.866244090708479630e-02
3.559999999999999831e-01,3.725072539170356384e-02,-8.975644498812973202e-03,-1.062335852536368669e-01
3.569999999999999840e-01,-3.656304440893497210e-02,1.196438895172403233e-01,-7.136777105126577980e-02
3.579999999999999849e-01,-1.303841346076578256e-01,1.995132764928765068e-01,-2.101587565883962852e-02
3.589999999999999858e-01,-1.187815324790986449e-01,1.660504047096716951e-01,3.683553375488984177e-02
3.599999999999999867e-01,-5.179416965274510898e-02,6.492315892539370081e-02,2.697963797619340118e-02
3.609999999999999876e-01,1.176725872774575660e-01,-6.883373837120969341e-02,-3.345119609955152229e-02
3.619999999999999885e-01,2.119256682503009859e-01,-1.451204541301259199e-01,-6.469246376909290608e-02
3.629999999999999893e-01,2.303315486350888952e-01,-1.409812445509520951e-01,-7.853681798567772876e-02
3.639999999999999902e-01,1.160915237987586585e-01,-7.896070164960712623e-02,-2.976916969889441614e-02
3.649999999999999911e-01,-5.468671526508080832e-02,2.740408669108907944e-02,4.092587094239435314e-02
3.659999999999999920e-01,-1.824497176239854856e-01,7.763380824081950182e-02,1.123025853092029930e-01
3.669999999999999929e-01,-1.875600113107034339e-01,2.243848921001556293e-02,1.311037776725606507e-01
3.679999999999999938e-01,-1.225368051168403555e-01,-4.486818509032677871e-02,1.073583158617808925e-01
3.689999999999999947e-01,1.242248567944078015e-02,-8.396135631380387265e-02,-1.555968210194989647e-02
3.699999999999999956e-01,5.485821206293987895e-02,-7.145125171815214227e-02,-8.863539057363568896e-02
3.709999999999999964e-01,5.514581526010441798e-02,2.701676421441337461e-02,-1.238738229670887508e-01
3.719999999999999973e-01,-2.650878562740837177e-02,1.324113733830777073e-01,-1.088141538083633730e-01
3.729999999999999982e-01,-9.464556580973346178e-02,1.897241301086704801e-01,-1.509639834516472712e-02
3.739999999999999991e-01,-1.198817078708819123e-01,1.602494384386494164e-01,2.701643078021776639e-02
3.750000000000000000e-01,-1.178733775989002953e-02,3.057786335073525361e-02,2.692510916882005084e-02
3.760000000000000009e-01,1.205218128888704554e-01,-9.643126237029521486e-02,-2.166551921477036236e-03
3.770000000000000018e-01,2.294306061379362549e-01,-1.526974336334690208e-01,-6.007033486514905263e-02
3.780000000000000027e-01,2.056733822106461274e-01,-1.384281136640022891e-01,-8.196617279609454132e-02
3.790000000000000036e-01,7.505391544947885574e-02,-7.318960347060653182e-02,-3.740003576638625121e-02
3.800000000000000044e-01,-7.400156296606907880e-02,2.776187668019186247e-02,5.179716202084432009e-02
3.810000000000000053e-01,-1.999272725505889803e-01,4.579258404399156462e-02,1.130279640602881441e-01
3.820000000000000062e-01,-2.182222906923518280e-01,3.398003744014942151e-02,1.519569370187458801e-01
3.830000000000000071e-01,-1.015617090923696536e-01,-3.347993970149955312e-02,9.476624347807922899e-02
3.840000000000000080e-01,-1.272287316339338822e-03,-9.059793329409497609e-02,2.287721009015546928e-03
3.850000000000000089e-01,1.007636734121128419e-01,-5.353015531513380387e-02,-8.996334920283535763e-02
3.860000000000000098e-01,8.041075090384905422e-02,3.398901474068757866e-02,-1.361351361866494636e-01
3.870000000000000107e-01,-2.229497081583962231e-02,1.322263126472471018e-01,-1.057303947713204018e-01
3.880000000000000115e-01,-8.646264809106615767e-02,1.856854829154770681e-01,-1.468723550105933973e-02
3.890000000000000124e-01,-1.125040034958594282e-01,1.235825047473821797e-01,3.744406762479808581e-02
3.900000000000000133e-01,3.116296856727765723e-03,1.551532682523151102e-02,6.597668823897602508e-02
3.910000000000000142e-01,1.419524251970981366e-01,-1.118516018483367153e-01,2.786289560159858555e-02
3.920000000000000151e-01,2.208410985510294022e-01,-1.881219742452432397e-01,-4.534280856307838087e-02
3.930000000000000160e-01,1.861685865807361229e-01,-1.240644206632353502e-01,-7.483021370551430629e-02
3.940000000000000169e-01,7.796888921216381385e-02,-1.941562453745507288e-02,-4.459448083943948204e-02
3.950000000000000178e-01,-1.015300326680133453e-01,3.413764649292240494e-02,2.638923635773528925e-02
3.960000000000000187e-01,-1.941520640534919184e-01,7.839201470573504971e-02,9.589887862036837463e-02
3.970000000000000195e-01,-2.029276304804854547e-01,3.741759314243952445e-02,1.312011113790444439e-01
3.980000000000000204e-01,-9.997776579352070370e-02,-4.037230847318169780e-02,1.041449280848124048e-01
3.990000000000000213e-01,-2.701619872051261653e-03,-6.680132748121643538e-02,9.419360803908498683e-03
4.000000000000000222e-01,8.048868434090108992e-02,-4.436663212737008283e-02,-7.046262980336198689e-02
4.010000000000000231e-01,6.689627485662527628e-02,7.145374030348081162e-02,-1.174355541023837796e-01
4.020000000000000240e-01,-2.724311506175680023e-03,1.511977548756362200e-01,-1.121063875079899158e-01
4.030000000000000249e-01,-1.035466554908969494e-01,1.686888287801845687e-01,-3.633424587399636252e-02
4.040000000000000258e-01,-7.793772862754083652e-02,6.699096677710020264e-02,2.898870022414766837e-02
4.050000000000000266e-01,9.232405083389497516e-03,-4.523266171600680285e-02,6.229091611219937652e-02
4.060000000000000275e-01,1.203263370277442151e-01,-1.537162563937263249e-01,7.076216219961030916e-03
4.069999999999999729e-01,2.038569741723111894e-01,-1.656621423772414725e-01,-4.605083130437719052e-02
4.079999999999999738e-01,1.936829147139589591e-01,-1.270867503692523770e-01,-7.025371460900455001e-02
4.089999999999999747e-01,7.085274012114789466e-02,5.390035930582096676e-04,-3.512088906342176325e-02
4.099999999999999756e-01,-1.075659534163045800e-01,7.044191023251478168e-02,1.398520288446940263e-02
4.109999999999999765e-01,-2.208575110353385440e-01,6.732982911241189306e-02,1.075536744209330819e-01
4.119999999999999774e-01,-2.129448634830414244e-01,1.540274941716479259e-02,1.402706143136245587e-01
4.129999999999999782e-01,-1.104647236261443732e-01,-2.168333346961869371e-02,1.064382400114972232e-01
4.139999999999999791e-01,4.338919824201493275e-02,-5.253265417614529781e-02,-4.119661489369788772e-03
4.149999999999999800e-01,9.198113645828813467e-02,6.050682773928673307e-05,-6.737546445277795004e-02
4.159999999999999809e-01,8.326964206260156764e-02,7.432904203048479319e-02,-1.336692893696213025e-01
4.169999999999999818e-01,1.049874979580191388e-02,1.601926600201073747e-01,-1.073417088769739736e-01
4.179999999999999827e-01,-8.489539702118266418e-02,1.417932457053783235e-01,-4.575244029181792238e-02
4.189999999999999836e-01,-5.691945724639373150e-02,5.168498825413358339e-02,2.569287010260549661e-02
4.199999999999999845e-01,1.208065422086156832e-02,-8.238660325308222454e-02,4.945705439359085465e-02
4.209999999999999853e-01,1.383319266036129314e-01,-1.742714127340636854e-01,4.423342038312895463e-02
4.219999999999999862e-01,2.248618046893927913e-01,-1.777637547464105128e-01,-9.871559885185175395e-03
4.229999999999999871e-01,1.846871296115794037e-01,-7.547882180417299358e-02,-4.780753520415675917e-02
4.239999999999999880e-01,6.411204475124152036e-02,1.399390287453957001e-02,-5.327897412433742902e-02
4.249999999999999889e-01,-1.130908492792255388e-01,7.821849114960001403e-02,1.712687364536370771e-02
4.259999999999999898e-01,-2.196635395074950092e-01,8.644886304408069821e-02,9.655742353640180131e-02
4.269999999999999907e-01,-2.092718159773053477e-01,2.885626031779151002e-02,1.423841560894923974e-01
4.279999999999999916e-01,-9.740800825266596186e-02,-4.501563549591314911e-02,1.109974256957227123e-01
4.289999999999999925e-01,5.222923299614641579e-02,-6.796384521934234479e-02,-2.174979052838462400e-03
4.299999999999999933e-01,1.240013851595944822e-01,-3.239394693597190140e-03,-7.551037179456809856e-02
4.309999999999999942e-01,1.107741712299893100e-01,9.471020871521701467e-02,-1.638906130229028368e-01
4.319999999999999951e-01,1.759883606302587583e-02,1.690157326331062082e-01,-9.956868992348254233e-02
4.329999999999999960e-01,-7.453315361542543760e-02,1.512646646144853446e-01,-5.067577478947759423e-02
4.339999999999999969e-01,-7.890778352745519975e-02,4.543484934524513047e-02,3.506339733969229128e-02
4.349999999999999978e-01,2.098020589768498020e-02,-1.054908376881720511e-01,7.830195672887119152e-02
4.359999999999999987e-01,1.140863805569341666e-01,-1.584185864356032203e-01,3.618684126769359383e-02
4.369999999999999996e-01,1.915745579285965394e-01,-1.715606485918050872e-01,-2.324781411222073824e-02
4.380000000000000004e-01,1.589870634188297327e-01,-7.390122209041724566e-02,-4.180105362953850240e-02
4.390000000000000013e-01,2.989320915526764294e-02,1.846904665661220843e-02,-4.841833057621178216e-02
4.400000000000000022e-01,-1.387105134380568761e-01,1.104139456835399741e-01,4.450224237871103911e-03
4.410000000000000031e-01,-2.233104895119286948e-01,9.944322402068002387e-02,9.785001971504179996e-02
4.420000000000000040e-01,-2.188258721405647311e-01,1.754206741357762847e-02,1.071167905840110651e-01
4.430000000000000049e-01,-8.261151980063557998e-02,-4.481853579164622042e-02,9.427201023893497234e-02
4.440000000000000058e-01,5.371684084320162839e-02,-3.229073549340845395e-02,3.647182267145276935e-02
4.450000000000000067e-01,1.273180081652677820e-01,1.956051994035434838e-02,-7.523481102791192143e-02
4.460000000000000075e-01,1.008361419170398926e-01,1.084455932170594189e-01,-1.389964162203330966e-01
4.470000000000000084e-01,1.702556821162131556e-02,1.728705183179125582e-01,-1.225775849853942001e-01
4.480000000000000093e-01,-6.844200128046387666e-02,1.164321984603096938e-01,-5.913553701891003517e-02
4.490000000000000102e-01,-5.845866664635301913e-02,-2.291872188770678262e-02,3.010564102599483025e-02
4.500000000000000111e-01,2.534415185143449462e-02,-1.566576017544542565e-01,9.327717225978794657e-02
4.510000000000000120e-01,1.121415069485404425e-01,-1.995351780741402292e-01,6.583299517429383463e-02
4.520000000000000129e-01,1.801904270287641163e-01,-1.467611723636746690e-01,1.651885893158886983e-03
4.530000000000000138e-01,1.469043714527766831e-01,-4.293291829401746362e-02,-2.498688029278180178e-02
4.540000000000000147e-01,-2.782187712542741592e-03,6.836526282498957274e-02,-4.270228888899319647e-02
4.550000000000000155e-01,-1.591518096629191414e-01,1.138998362046583640e-01,-5.228362151773528928e-03
4.560000000000000164e-01,-2.461622029752133234e-01,9.055132199271007098e-02,5.963633535888933357e-02
4.570000000000000173e-01,-2.184023532212405194e-01,1.684769750753153245e-02,1.118025059509759889e-01
4.580000000000000182e-01,-5.371588023050304778e-02,-5.904759239925653352e-02,8.659380357673894524e-02
4.590000000000000191e-01,6.132237679034587691e-02,-4.281630978001114279e-02,1.119705021870251796e-02
4.600000000000000200e-01,1.275777291394027402e-01,3.756820715746801709e-02,-8.383799727212111474e-02
4.610000000000000209e-01,9.339400618882486016e-02,1.188480163234331699e-01,-1.329178795763015786e-01
4.620000000000000218e-01,3.960249892201958555e-02,1.342434302317892514e-01,-1.432555868017767742e-01
4.630000000000000226e-01,-6.392922185094855603e-02,7.190781439016964705e-02,-6.219221875052199922e-02
4.640000000000000235e-01,-6.629538210293735301e-02,-3.060576308308213256e-02,1.891887905994636340e-02
4.650000000000000244e-01,2.950941317071365325e-02,-1.654155863552899675e-01,8.134098345561906196e-02
4.660000000000000253e-01,1.136291199682008257e-01,-1.966190424186118613e-01,8.979237545457090242e-02
4.670000000000000262e-01,1.724258383427802743e-01,-1.304017555105309312e-01,1.391130493103554140e-02
4.680000000000000271e-01,1.143074891584148906e-01,3.589772339039677164e-03,-1.894896452537632447e-02
4.689999999999999725e-01,-1.800369618507112815e-02,9.463293279752671427e-02,-1.454275353372762314e-02
4.699999999999999734e-01,-1.590738413776580651e-01,1.404679828189200064e-01,-6.534907180417410567e-03
4.709999999999999742e-01,-2.395810918963403313e-01,7.572739546690099299e-02,4.634529740571254053e-02
4.719999999999999751e-01,-1.949830876140314639e-01,-3.587197009556238048e-02,1.092848868496527071e-01
4.729999999999999760e-01,-6.630684720909764407e-02,-4.165693339171543802e-02,1.006324785942362826e-01
4.739999999999999769e-01,8.692233998936067796e-02,-3.046661698534333315e-02,3.528014039537743368e-02
4.749999999999999778e-01,1.605189429896283215e-01,3.601906742788572174e-02,-7.954514000406039120e-02
4.759999999999999787e-01,1.244073433496529629e-01,1.182417851601852976e-01,-1.283985094482056333e-01
4.769999999999999796e-01,3.343461467838750034e-02,1.298958396846009444e-01,-1.435149451939069509e-01
4.779999999999999805e-01,-5.221600592771639959e-02,4.541632863753980454e-02,-7.446392698698131585e-02
4.789999999999999813e-01,-4.888797957255842236e-02,-9.700150836709547919e-02,1.349804614631345927e-02
4.799999999999999822e-01,2.442666530684233298e-02,-1.605746018276055787e-01,8.605133825410214710e-02
4.809999999999999831e-01,1.251932759814031459e-01,-1.746843056827469265e-01,6.068853229656015480e-02
4.819999999999999840e-01,1.676526986254236185e-01,-9.138500418562757466e-02,3.377309625991818665e-02
4.829999999999999849e-01,1.201815558002301831e-01,3.091571188871323692e-02,-2.818019506940837998e-02
4.839999999999999858e-01,-3.241253807183146901e-02,1.249616408134080481e-01,-3.874342221783375062e-02
4.849999999999999867e-01,-1.798192293461885749e-01,1.419153918942582249e-01,-8.518886985397579326e-03
4.859999999999999876e-01,-2.378944000188454311e-01,9.650617660351119842e-02,4.653281409151661246e-02
4.869999999999999885e-01,-1.862029159656932165e-01,-4.950145791739927505e-03,9.000687335208482076e-02
4.879999999999999893e-01,-4.139578279201194810e-02,-6.361387000993012908e-02,8.041943210367365202e-02
4.889999999999999902e-01,9.540924017251523059e-02,4.002680546367444123e-03,7.521246338355891577e-03
4.899999999999999911e-01,1.685126912712958669e-01,4.758570663694624420e-02,-7.249076957035303914e-02
4.909999999999999920e-01,1.257001826337684203e-01,1.031087299231549237e-01,-1.333104798488362053e-01
4.919999999999999929e-01,4.739682458895937145e-02,9.125900531858591180e-02,-1.362194669638019107e-01
4.929999999999999938e-01,-5.123669756909150774e-02,2.646564537121763941e-02,-9.091791761175557762e-02
4.939999999999999947e-01,-6.679641309808026506e-02,-1.034894340117192002e-01,4.637136754634292590e-03
4.949999999999999956e-01,1.082079413661089090e-02,-1.868941221581562062e-01,6.413304540988430669e-02
4.959999999999999964e-01,9.659655898474432678e-02,-1.630856810283616287e-01,1.075358250020893025e-01
4.969999999999999973e-01,1.532820157916288673e-01,-1.134629049337734230e-01,7.322042403820738787e-02
4.979999999999999982e-01,8.097773058133844737e-02,5.292801477863811471e-02,-5.448120516570546627e-03
4.989999999999999991e-01,-2.938825539169821061e-02,1.466851830353206876e-01,-6.888560327903105185e-02
5.000000000000000000e-01,-1.742261963982723039e-01,1.437684266996866744e-01,-3.241389619652591814e-02
5.010000000000000009e-01,-2.455739800868317613e-01,7.726402761437178857e-02,6.591840705103244047e-02
5.020000000000000018e-01,-1.845868865974503448e-01,-3.663258565102268938e-02,8.782027210377917059e-02
5.030000000000000027e-01,-3.109800515575397023e-02,-4.923274250518348133e-02,8.477490158104855622e-02
5.040000000000000036e-01,9.155536515412074361e-02,-2.926065780620146564e-02,3.572861014746279984e-02
5.050000000000000044e-01,1.707242931586402113e-01,6.470984481160162172e-02,-7.242252205600618886e-02
5.060000000000000053e-01,1.309184702813465939e-01,1.096371438131691217e-01,-1.186674897846283216e-01
5.070000000000000062e-01,2.267918600350514111e-02,7.873836871862699427e-02,-1.263019279199317779e-01
5.080000000000000071e-01,-5.022929607625845755e-02,2.135712715671860863e-03,-8.875666088499596651e-02
5.090000000000000080e-01,-6.712324383274706485e-02,-1.251705484686855829e-01,-1.045903342542686687e-02
5.100000000000000089e-01,1.294378155427698815e-03,-1.911876268106058874e-01,9.020479464135883196e-02
5.110000000000000098e-01,9.111929771581386839e-02,-1.606528059175529044e-01,8.371685980146936767e-02
5.120000000000000107e-01,1.453369664350437351e-01,-4.970346124851339475e-02,5.836035960774833831e-02
5.130000000000000115e-01,6.984130195582233247e-02,7.836420675113922596e-02,1.197115560273607007e-02
5.140000000000000124e-01,-4.905296313648088713e-02,1.668304924599192662e-01,-3.585719913799430281e-02
5.150000000000000133e-01,-1.696656959337797255e-01,1.317797757197012865e-01,-4.142296861873182717e-02
5.160000000000000142e-01,-2.408128372228989511e-01,5.335146378121163185e-02,1.743773634869891578e-02
5.170000000000000151e-01,-1.613868510339654394e-01,-1.513787529094200689e-02,8.921764236101055456e-02
5.180000000000000160e-01,-1.147945303723074337e-02,-5.794287373070183128e-02,7.870205898119801702e-02
5.190000000000000169e-01,1.212339981890274282e-01,-2.204837632626274052e-02,2.356163764227344262e-02
5.200000000000000178e-01,1.808402905666268989e-01,4.952481263883592305e-02,-6.648980320262562471e-02
5.210000000000000187e-01,1.330188290399185458e-01,1.093875690722950211e-01,-1.270665251292843190e-01
5.220000000000000195e-01,3.664789833530418539e-02,5.441757178258744415e-02,-1.319846143800791349e-01
5.230000000000000204e-01,-5.809623160950476428e-02,-2.610713489458918110e-02,-1.020241680964569658e-01
5.240000000000000213e-01,-6.628495380076110388e-02,-1.529311902541226897e-01,1.084062506852743503e-02
5.250000000000000222e-01,-1.520515124514675021e-02,-2.007617595351493811e-01,1.004038346990264868e-01
5.260000000000000231e-01,1.060396747042137711e-01,-1.369976389610910728e-01,9.608926546214145714e-02
5.270000000000000240e-01,1.361918560300368619e-01,-2.774021192488580062e-02,7.142688014524901929e-02
5.280000000000000249e-01,6.070641065398846986e-02,1.134116545986117580e-01,3.432809535858159788e-02
5.290000000000000258e-01,-7.474345356283676467e-02,1.453736954883924903e-01,-2.997206180576842890e-02
5.300000000000000266e-01,-1.965962471402927236e-01,1.404380207128173019e-01,-4.055560464661984305e-02
5.310000000000000275e-01,-2.510713977823429977e-01,5.462444889755734695e-02,-4.385312320556677274e-03
5.320000000000000284e-01,-1.666726557236992701e-01,-5.674336953800047934e-02,5.672421151746420698e-02
5.330000000000000293e-01,6.942578580765936674e-03,-8.353315029867212915e-02,7.719053151057139739e-02
5.340000000000000302e-01,1.543578452198950957e-01,-1.200591610036218747e-02,3.375032196574839771e-02
5.350000000000000311e-01,2.187956487886560941e-01,4.918147159192216844e-02,-4.743522959702138608e-02
5.360000000000000320e-01,1.484977867999421886e-01,9.000847363836327053e-02,-1.195906081093467133e-01
5.370000000000000329e-01,3.850821989865584050e-02,4.378841710720639963e-02,-1.507563762072817726e-01
5.380000000000000338e-01,-5.676124502321309301e-02,-5.649042814544610186e-02,-8.860058560493370983e-02
5.390000000000000346e-01,-9.373945460553911868e-02,-1.386082560013227050e-01,6.260541953628647946e-03
5.400000000000000355e-01,1.455072171484765153e-04,-1.728665367760451321e-01,7.709225985230930278e-02
5.410000000000000364e-01,6.268221656693498400e-02,-8.749875674317007801e-02,1.208583622904270960e-01
5.420000000000000373e-01,1.155766355744888424e-01,3.112671384574236880e-02,9.938217642721670908e-02
5.430000000000000382e-01,5.185682763888568858e-02,1.405312361434049584e-01,1.864873071838616878e-02
5.440000000000000391e-01,-7.065838310718482174e-02,1.666045242339861121e-01,-4.578543357454211565e-02
5.450000000000000400e-01,-1.995071717167115344e-01,1.270274782005449132e-01,-4.780468563793503767e-02
5.460000000000000409e-01,-2.283165167155674080e-01,1.779116449389444091e-02,8.680948122337673808e-03
5.470000000000000417e-01,-1.450950766888937926e-01,-5.699749450981751731e-02,4.642603469351509748e-02
5.480000000000000426e-01,2.076148111921690201e-02,-8.465961526472719212e-02,7.778190641276211403e-02
5.490000000000000435e-01,1.605724564229692453e-01,-8.948380187373141878e-03,4.087771920183252972e-02
5.500000000000000444e-01,2.062743119451327101e-01,5.027911788171944563e-02,-3.014695528813546646e-02
5.510000000000000453e-01,1.537615269925221573e-01,6.673142950942292928e-02,-1.158112113306565549e-01
5.520000000000000462e-01,2.242750909355571351e-02,1.916949203195546236e-02,-1.555419534670020865e-01
5.530000000000000471e-01,-6.868844741661780939e-02,-5.715461571738342239e-02,-1.037777581757518136e-01
5.540000000000000480e-01,-7.833126429563645743e-02,-1.724104390942074183e-01,-8.632926549812919986e-03
5.550000000000000488e-01,-2.938192838262625520e-02,-1.579745873187440863e-01,8.499428065554676115e-02
5.560000000000000497e-01,5.964981893875950097e-02,-8.395935231190108927e-02,1.253645158134214510e-01
5.570000000000000506e-01,1.094270957916904097e-01,5.276046297854746631e-02,8.611832802172945944e-02
5.580000000000000515e-01,5.717573766226295706e-02,1.613128630645440376e-01,3.889065195248315315e-02
5.590000000000000524e-01,-1.013142752775242766e-01,1.697351971457191078e-01,-4.396261314072853060e-02
5.600000000000000533e-01,-1.898742657271812739e-01,1.134981225067862032e-01,-4.984542586275406834e-02
5.610000000000000542e-01,-2.147870428717790492e-01,-6.175936297413115762e-03,-3.215383670671331101e-02
5.620000000000000551e-01,-1.167950821876292816e-01,-8.483049633657188671e-02,3.121290104834905516e-02
5.629999999999999449e-01,3.356299293444162113e-02,-7.938654608626435905e-02,7.901158968474833455e-02
5.639999999999999458e-01,1.794652712323231702e-01,-1.879631398171092288e-02,3.624365951099531996e-02
5.649999999999999467e-01,2.137490669652670205e-01,5.653838810500518702e-02,-9.564883429182276242e-03
5.659999999999999476e-01,1.506409658820443698e-01,4.978307741377996365e-02,-1.155770259400697164e-01
5.669999999999999485e-01,1.399615857111190069e-02,-5.495360835435101655e-03,-1.285447367313823086e-01
5.679999999999999494e-01,-6.092726501941457540e-02,-1.062341554689487377e-01,-1.046813290110301387e-01
5.689999999999999503e-01,-1.078700005783822941e-01,-1.675613440165781010e-01,-2.237968986800039847e-02
5.699999999999999512e-01,-2.899291167366201127e-02,-1.490121620766441113e-01,6.620974010477738425e-02
5.709999999999999520e-01,5.922217980957258238e-02,-3.028710862622294858e-02,1.125982727752973950e-01
5.719999999999999529e-01,8.728658517678682116e-02,1.167160303643063474e-01,8.305015364738035921e-02
5.729999999999999538e-01,4.621511405828036823e-02,1.955793324319303195e-01,2.154346595660062633e-02
5.739999999999999547e-01,-7.206706096848450316e-02,1.771979877126921565e-01,-3.846943075790007494e-02
5.749999999999999556e-01,-1.897044696220856197e-01,7.295055896917092275e-02,-5.985021353415250628e-02
5.759999999999999565e-01,-2.116554693185384306e-01,-3.686375746125909736e-02,-3.003022439411630676e-02
5.769999999999999574e-01,-9.210682710270598483e-02,-9.649273659116601454e-02,2.433793845761953248e-02
5.779999999999999583e-01,5.897853983203544398e-02,-5.745160378391071104e-02,4.196471357165098420e-02
5.789999999999999591e-01,1.956369972008157321e-01,6.698817230515180868e-03,4.757309842809327033e-02
5.799999999999999600e-01,2.306716930388900411e-01,6.589193335372371674e-02,-2.998177058296271416e-02
5.809999999999999609e-01,1.470136440183184845e-01,7.140399208027481404e-02,-8.834598233120974364e-02
5.819999999999999618e-01,2.029006813981313120e-02,-2.728320423240028145e-02,-1.455820308230492688e-01
5.829999999999999627e-01,-7.470580960095556111e-02,-9.998362313910871824e-02,-9.105988884287243013e-02
5.839999999999999636e-01,-1.042853274168045741e-01,-1.424664416652580423e-01,-9.419682083841876552e-03
5.849999999999999645e-01,-4.159437437913919566e-02,-1.142445048349334247e-01,8.698051669429500421e-02
5.859999999999999654e-01,3.659970865532277684e-02,-3.380820587989736420e-03,1.460000441214903411e-01
5.869999999999999662e-01,9.273479675572274261e-02,1.025549721295396233e-01,1.190724039255430799e-01
5.879999999999999671e-01,3.152430721828088089e-02,2.124855393110553214e-01,6.022922472115523757e-02
5.889999999999999680e-01,-8.441089918918023849e-02,1.614480147644753172e-01,-2.340820865986394800e-02
5.899999999999999689e-01,-1.883261025475183592e-01,4.537553337751980276e-02,-5.510174745913979516e-02
5.909999999999999698e-01,-1.979724648910000939e-01,-4.006734070710137735e-02,-3.548351907435889213e-02
5.919999999999999707e-01,-8.584492577641172906e-02,-1.005235967791926199e-01,8.159951303401502196e-03
5.929999999999999716e-01,7.277792657379018870e-02,-7.046521481269696352e-02,3.674465317904065942e-02
5.939999999999999725e-01,1.951683439011737686e-01,-1.019951370941438000e-02,4.643251197441859018e-02
5.949999999999999734e-01,2.374439158120732196e-01,6.338022838794654668e-02,-2.017092008266422459e-02
5.959999999999999742e-01,1.481262566352481436e-01,5.148599763383928524e-02,-8.860025727086558167e-02
5.969999999999999751e-01,-1.703189839109439316e-02,-3.923410220835866352e-02,-1.204903878931695843e-01
5.979999999999999760e-01,-9.552588034821073160e-02,-1.146901294943655364e-01,-9.774343336942264981e-02
5.989999999999999769e-01,-1.259832833238731520e-01,-1.509961128540468212e-01,-2.307466082670538501e-02
5.999999999999999778e-01,-4.128404786571934076e-02,-1.066094061204145710e-01,9.052389955902991059e-02
6.009999999999999787e-01,3.413339324477027842e-02,1.908138409190987539e-02,1.229006666131063352e-01
6.019999999999999796e-01,9.695306888963489689e-02,1.425624025364843894e-01,1.068930434076879044e-01
6.029999999999999805e-01,3.193621613930942849e-02,2.127295709707669180e-01,5.708254473981590194e-02
6.039999999999999813e-01,-1.065090095704397805e-01,1.389921988708898437e-01,-2.102851694583619119e-02
6.049999999999999822e-01,-1.810521851732554977e-01,1.441413440258162461e-02,-4.949343701376499732e-02
6.059999999999999831e-01,-1.730171885110787788e-01,-8.214041000353630717e-02,-5.466929091583155181e-02
6.069999999999999840e-01,-7.673308728787381350e-02,-1.324200125904485270e-01,-1.541723594408931156e-02
6.079999999999999849e-01,8.502396686849340857e-02,-6.962296674696784315e-02,3.935702865073951312e-02
6.089999999999999858e-01,2.075591108637572235e-01,1.194253820450058567e-02,4.185611337270331300e-02
6.099999999999999867e-01,2.303937030068054781e-01,7.059459152155378447e-02,-9.410035361870214971e-03
6.109999999999999876e-01,1.378584329892722504e-01,3.930537667347176051e-02,-7.708835159471805198e-02
6.119999999999999885e-01,-2.571788979596279293e-03,-4.346537036442966323e-02,-1.306908670774146741e-01
6.129999999999999893e-01,-1.240778863468857823e-01,-1.154747837245668068e-01,-9.328445826966977328e-02
6.139999999999999902e-01,-1.216349809675741495e-01,-1.312923440453671042e-01,-1.675124629012444619e-02
6.149999999999999911e-01,-8.585025973512044883e-02,-6.142638609676766975e-02,9.154827451275787675e-02
6.159999999999999920e-01,3.574102247013254130e-02,4.815859470093678679e-02,1.298893273222039013e-01
6.169999999999999929e-01,6.530115228019775508e-02,1.527969425964566252e-01,1.145434859129385724e-01
6.179999999999999938e-01,2.221695091026380450e-02,1.839323561479581370e-01,4.797245075466179814e-02
6.189999999999999947e-01,-6.878507175114177696e-02,1.199411381122261339e-01,-2.437816784502252684e-02
6.199999999999999956e-01,-1.619745254014816060e-01,4.154369251706245894e-03,-6.484828346786691844e-02
6.209999999999999964e-01,-1.823907698691344670e-01,-9.337094333215224806e-02,-7.207362189264993058e-02
6.219999999999999973e-01,-4.762228629862446522e-02,-1.180765128946583142e-01,-1.543898156409371364e-02
6.229999999999999982e-01,9.741064443420646701e-02,-4.667908217668237381e-02,2.702525388757297253e-02
6.239999999999999991e-01,2.161734059427156962e-01,2.120903920933137066e-02,1.584532361571447737e-02
6.250000000000000000e-01,2.486612157494834108e-01,4.406028843161816089e-02,-2.732341368946625531e-03
6.260000000000000009e-01,1.221367348562227284e-01,2.695540787875711983e-02,-4.953201966501730863e-02
6.270000000000000018e-01,-1.708188104093424572e-02,-5.636894661400628642e-02,-1.160892775422013301e-01
6.280000000000000027e-01,-1.176671611627388148e-01,-1.261872302196868634e-01,-1.011704895882517413e-01
6.290000000000000036e-01,-1.541860195441421000e-01,-1.307086393380253453e-01,-3.328603158704665499e-02
6.300000000000000044e-01,-5.812559468591151773e-02,-5.181844257537869536e-02,7.232500955273604704e-02
6.310000000000000053e-01,3.485515938753681181e-02,7.979253264594533823e-02,1.380940321097118839e-01
6.320000000000000062e-01,6.932530913193264699e-02,1.730825711426650371e-01,1.402581267517101771e-01
6.330000000000000071e-01,1.485532989587377319e-02,1.800758440731316523e-01,8.520004871115570422e-02
6.340000000000000080e-01,-9.158850190810521874e-02,9.729349935114996184e-02,-4.467799358442814221e-03
6.350000000000000089e-01,-1.537059965672119555e-01,-4.467029723395408297e-02,-8.355318772987974096e-02
6.360000000000000098e-01,-1.347398365901718298e-01,-1.255883898487957506e-01,-9.817889401518864467e-02
6.370000000000000107e-01,-4.536711610926523475e-02,-1.219530299358614345e-01,-4.125563780838558542e-02
6.380000000000000115e-01,1.172862106267677090e-01,-8.211754046226561743e-02,2.632905964708391611e-02
6.390000000000000124e-01,2.394037855305063134e-01,2.015668385851748443e-02,3.979212915812625068e-02
6.400000000000000133e-01,2.329588882393327232e-01,5.433503126880330492e-02,-2.614634599573594127e-03
6.410000000000000142e-01,1.192840393686390305e-01,1.829439049823250105e-02,-6.094905714782838935e-02
6.420000000000000151e-01,-4.854832339260193447e-02,-5.341212227615810271e-02,-1.021141628565993137e-01
6.430000000000000160e-01,-1.508499741000398076e-01,-1.222146655680525357e-01,-9.940754846052843319e-02
6.440000000000000169e-01,-1.560424453470678485e-01,-8.521486772039704727e-02,-2.679733378587865339e-02
6.450000000000000178e-01,-5.446974945404214202e-02,-4.330959873123671131e-03,9.146909730106382586e-02
6.460000000000000187e-01,2.796511617177292047e-02,1.240795205460279022e-01,1.366262615846348671e-01
6.470000000000000195e-01,6.734020079810097703e-02,1.851977529083477791e-01,1.333529394606476348e-01
6.480000000000000204e-01,2.645781245478219870e-02,1.749315308630012000e-01,8.200347734171785363e-02
6.490000000000000213e-01,-8.191862394322287078e-02,8.807545668787783444e-02,1.105867260664397493e-02
6.500000000000000222e-01,-1.637701641869860614e-01,-5.799606398509209171e-02,-8.481872183641218921e-02
6.510000000000000231e-01,-1.455581738413902759e-01,-1.250246270487160027e-01,-1.065597319295403106e-01
6.520000000000000240e-01,-1.278356290358111103e-02,-1.293114787505922902e-01,-5.847844134470201599e-02
6.530000000000000249e-01,1.398873820809657664e-01,-4.433933325463313563e-02,1.660840561071452726e-02
6.540000000000000258e-01,2.276216535449648581e-01,2.173177366495848695e-02,2.810470617133169202e-02
6.550000000000000266e-01,2.201365127284121703e-01,4.982530556156961749e-02,1.697512922912675082e-02
6.560000000000000275e-01,1.186154890842541915e-01,8.067203013722098331e-03,-5.061824565690075522e-02
6.570000000000000284e-01,-5.498333231206578575e-02,-4.334271858396136073e-02,-7.960842106660306894e-02
6.580000000000000293e-01,-1.437741549281455755e-01,-1.123930795027718449e-01,-8.699262734333820801e-02
6.590000000000000302e-01,-1.473104381272150321e-01,-6.357194435769519814e-02,-3.017118166368798829e-02
6.600000000000000311e-01,-9.844029425370141861e-02,2.075765322748099329e-02,5.117517931869527970e-02
6.610000000000000320e-01,4.400553034000743297e-02,1.345197703993609439e-01,1.297753922036563035e-01
6.620000000000000329e-01,6.304627267031408244e-02,1.962367589538804025e-01,1.323828480767533511e-01
6.630000000000000338e-01,2.607447257281310382e-02,1.683858267049051505e-01,7.873187491608765742e-02
6.640000000000000346e-01,-9.497328679267232066e-02,3.625584101981519508e-02,-1.244236727037810984e-02
6.650000000000000355e-01,-1.334022337132421132e-01,-9.655943823787840885e-02,-7.743153825558433956e-02
6.660000000000000364e-01,-1.207233770115184734e-01,-1.687154950711931556e-01,-1.013946930916510419e-01
6.670000000000000373e-01,-1.920261899912393058e-02,-1.289137249829650500e-01,-6.442132053294251370e-02
6.680000000000000382e-01,1.443887420062498761e-01,-4.353885797859548268e-02,1.695425203334506928e-02
6.690000000000000391e-01,2.355443781962216487e-01,4.211150835467983994e-02,4.112582701132923985e-02
6.700000000000000400e-01,2.092062414216797894e-01,6.038159885934519383e-02,2.343494843678541745e-02
6.710000000000000409e-01,9.671185238047164123e-02,8.547998172186923801e-03,-2.280719288015711083e-02
6.720000000000000417e-01,-7.082407782047424327e-02,-7.680215236252398159e-02,-7.944865347860483040e-02
6.730000000000000426e-01,-1.760462156529737920e-01,-8.838166024375683494e-02,-8.752829062807296334e-02
6.740000000000000435e-01,-1.767559861018155043e-01,-6.202743433263760431e-02,-2.719637850554567152e-02
6.750000000000000444e-01,-8.139937097420564538e-02,5.111547588497245692e-02,4.652568932566609333e-02
6.760000000000000453e-01,4.314097881111233351e-02,1.374605735120137118e-01,1.325972274217050717e-01
6.770000000000000462e-01,8.982481718695943529e-02,1.876706482211346061e-01,1.513355331115641689e-01
6.780000000000000471e-01,1.367426261656289055e-02,1.342715211285964716e-01,9.450632747736245620e-02
6.790000000000000480e-01,-5.379114505457197049e-02,2.018217633380308892e-02,1.694623115100382660e-02
6.800000000000000488e-01,-1.111798343745153961e-01,-9.641677665190605262e-02,-9.526852436610629138e-02
6.810000000000000497e-01,-1.041802706526306493e-01,-1.781026112625171964e-01,-1.051347729078400961e-01
6.820000000000000506e-01,-3.829334802724658655e-03,-1.237174763163377822e-01,-6.547976799379838508e-02
6.830000000000000515e-01,1.597228177897508927e-01,-2.939610470847207890e-02,-7.712955925456070790e-03
6.840000000000000524e-01,2.199137178573930540e-01,4.341451467222783023e-02,3.025119697577161385e-02
6.850000000000000533e-01,1.989299135056353252e-01,6.308145731705114279e-02,4.380844127320016740e-02
6.860000000000000542e-01,5.639880172310014067e-02,1.420701007785535146e-02,4.798878896656145511e-03
6.870000000000000551e-01,-9.103214663539981044e-02,-7.819690160507092314e-02,-7.402648231330791195e-02
6.879999999999999449e-01,-2.102686805742165210e-01,-8.497104916283347575e-02,-7.848090603394479448e-02
6.889999999999999458e-01,-1.779569241009018865e-01,-3.990370580266514033e-02,-2.720698832427101768e-02
6.899999999999999467e-01,-7.233391524412134677e-02,8.540627771610966035e-02,5.184337839614694410e-02
6.909999999999999476e-01,2.972876303357011030e-02,1.627481275264665850e-01,1.230651154503808187e-01
6.919999999999999485e-01,9.088530890133346418e-02,1.718974030147264187e-01,1.316502039718624173e-01
6.929999999999999494e-01,1.949619994279336993e-02,1.012542779109954355e-01,9.393574856102258896e-02
6.939999999999999503e-01,-7.112116219070965806e-02,-2.656457212033665194e-02,7.869339447765770143e-03
6.949999999999999512e-01,-1.188874648656671751e-01,-1.309683277059216500e-01,-1.042831260862433079e-01
6.959999999999999520e-01,-1.026058385892568148e-01,-1.587330543605305899e-01,-1.264995171835851806e-01
6.969999999999999529e-01,1.983147690920928144e-02,-1.200654632274972544e-01,-9.127696517971774226e-02
6.979999999999999538e-01,1.623464315439726857e-01,-7.188850973194216287e-03,-1.927571364491740408e-02
6.989999999999999547e-01,2.259315041891165332e-01,5.949591118037354798e-02,4.631634473905836547e-02
6.999999999999999556e-01,1.877413809091231234e-01,5.539088862421830822e-02,4.897635419249241756e-02
7.009999999999999565e-01,3.917005147545123828e-02,1.074926508667713512e-02,-2.046479184612984628e-02
7.019999999999999574e-01,-1.025795389735345703e-01,-9.013952801963259764e-02,-6.526369465284798110e-02
7.029999999999999583e-01,-1.962216005628877602e-01,-6.230619335037722306e-02,-7.026474868893443915e-02
7.039999999999999591e-01,-1.677866107129381557e-01,-1.059087382059007744e-02,-5.209709213859849836e-02
7.049999999999999600e-01,-7.683770498891395739e-02,7.746347528618541256e-02,3.240518474944145688e-02
7.059999999999999609e-01,3.922895733158577453e-02,1.676373621229383382e-01,1.071759786814701215e-01
7.069999999999999618e-01,8.732155502582533702e-02,1.475787107248341112e-01,1.497526578829566080e-01
7.079999999999999627e-01,4.157341051805152343e-02,7.629175726937729995e-02,1.088559963605312125e-01
7.089999999999999636e-01,-1.857591647990358003e-02,-6.002411043287612241e-02,-1.540424228585876229e-03
7.099999999999999645e-01,-9.760963733634575590e-02,-1.600715422279569422e-01,-9.559992058111296820e-02
7.109999999999999654e-01,-7.277157944221493424e-02,-1.570787346659941186e-01,-1.206746939007165564e-01
7.119999999999999662e-01,2.126341963633723159e-02,-9.138063456008152508e-02,-9.701755830594856189e-02
7.129999999999999671e-01,1.594579615671900819e-01,2.340292699039011465e-02,-2.459198501190759667e-02
7.139999999999999680e-01,2.251130119826824649e-01,7.245460473532056023e-02,2.965452040131125178e-02
7.149999999999999689e-01,1.765181639250886780e-01,6.348097619047636531e-02,6.503349799872371051e-02
7.159999999999999698e-01,2.153268687153532882e-02,-4.380696262860814608e-03,9.426172715138547795e-04
7.169999999999999707e-01,-1.117969171388528138e-01,-6.189523645389624629e-02,-5.263859261534815231e-02
7.179999999999999716e-01,-2.195975407027516424e-01,-6.982736978046819032e-02,-8.484488521029705244e-02
7.189999999999999725e-01,-1.738384597138714072e-01,1.732102010549784474e-03,-3.911958543400735622e-02
7.199999999999999734e-01,-1.019814960470296766e-01,9.174578982447273434e-02,4.114261470885192257e-02
7.209999999999999742e-01,4.405275669671483707e-02,1.692356960985041403e-01,1.017866930461005237e-01
7.219999999999999751e-01,9.051093821235027537e-02,1.421623513053203725e-01,1.477440790980906471e-01
7.229999999999999760e-01,5.253763114992535815e-02,4.026568061223040861e-03,1.132879275575808115e-01
7.239999999999999769e-01,-1.644319401056415844e-02,-9.712156545357737703e-02,2.088649388544562210e-02
7.249999999999999778e-01,-1.112260381443301999e-01,-1.787391058191925286e-01,-8.328311765499256392e-02
7.259999999999999787e-01,-8.229897164133992415e-02,-1.650321599965288710e-01,-1.209531595846789903e-01
7.269999999999999796e-01,3.324560051675318206e-02,-8.620728807898964119e-02,-1.133191521844945371e-01
7.279999999999999805e-01,1.701720156746973633e-01,3.092727609636701860e-02,-3.483009028954614505e-02
7.289999999999999813e-01,2.092796287667335886e-01,9.110542391539498686e-02,1.668270998562922797e-02
7.299999999999999822e-01,1.615609951615258610e-01,5.571624454001308097e-02,4.665456890394828471e-02
7.309999999999999831e-01,-6.581365636518135120e-04,-1.680953474806546125e-02,3.478718513089097686e-02
7.319999999999999840e-01,-1.325255296653921611e-01,-5.582080279668091144e-02,-3.414727663717476158e-02
7.329999999999999849e-01,-2.276692418869873946e-01,-5.773045376691047365e-02,-6.666604726251516844e-02
7.339999999999999858e-01,-1.953899153354307916e-01,3.328399229866486203e-02,-4.328513985509880452e-02
7.349999999999999867e-01,-8.940482434961027902e-02,1.267336802344424251e-01,2.072736108601664837e-02
7.359999999999999876e-01,6.026358569764744821e-02,1.659506531394742967e-01,1.138355043802233152e-01
7.369999999999999885e-01,1.109973314248869636e-01,1.172104334403129000e-01,1.358171789519898309e-01
7.379999999999999893e-01,7.200850705673875196e-02,4.079367775247789984e-03,8.240882312119922337e-02
7.389999999999999902e-01,-2.440806925033123589e-02,-1.181571619908409060e-01,7.350424028521953396e-03
7.399999999999999911e-01,-8.702199053135868667e-02,-1.789412274836623962e-01,-9.153710906213545495e-02
7.409999999999999920e-01,-7.324155527675299537e-02,-1.578582750760451625e-01,-1.286867304121782907e-01
7.419999999999999929e-01,3.415637812977938281e-02,-6.327382882365975569e-02,-1.240985663280958079e-01
7.429999999999999938e-01,1.524877928080272393e-01,6.388391715314641062e-02,-3.612316461197544876e-02
7.439999999999999947e-01,2.037196490840463281e-01,8.904286125190202794e-02,2.260946797724584442e-02
7.449999999999999956e-01,1.307648427122269086e-01,7.379616896035066931e-02,5.494185820175531004e-02
7.459999999999999964e-01,-7.693208895373429036e-03,-9.582770549733894694e-03,3.643472930327028292e-02
7.469999999999999973e-01,-1.493285603377174642e-01,-6.908030637937473406e-02,-1.175674521434851363e-02
7.479999999999999982e-01,-2.212562864771786542e-01,-2.991854812410987829e-02,-4.390675594604152160e-02
7.489999999999999991e-01,-2.013439984741898225e-01,4.375281533762417213e-02,-5.159522413603929297e-02
7.500000000000000000e-01,-7.285595467694040706e-02,1.288550598504742128e-01,2.282754862901127668e-02
7.510000000000000009e-01,6.854157244480742206e-02,1.582963453863911463e-01,7.659647762443266839e-02
7.520000000000000018e-01,1.125760407760959259e-01,8.408067735774490958e-02,1.439164353416003683e-01
7.530000000000000027e-01,7.762983818176295847e-02,-2.888354132376799027e-02,1.036153437122507986e-01
7.540000000000000036e-01,-2.882135149161171861e-02,-1.727887636982453901e-01,2.094508882116668733e-02
7.550000000000000044e-01,-9.794623216016658251e-02,-2.022093806515747605e-01,-8.025194052384632126e-02
7.560000000000000053e-01,-5.500643138660337578e-02,-1.373246059013157605e-01,-1.379660666921443124e-01
7.570000000000000062e-01,2.576205780646473667e-02,-6.543593586657160677e-03,-1.367969267452636417e-01
7.580000000000000071e-01,1.435293893558901301e-01,7.390695364307764414e-02,-4.262551809124675434e-02
7.590000000000000080e-01,2.059336606395196778e-01,1.213960638120852864e-01,1.962033080904868748e-02
7.600000000000000089e-01,1.323914620666230557e-01,3.629315478519744981e-02,6.871271014457286386e-02
7.610000000000000098e-01,-2.268574002863316466e-02,-1.960351038179236963e-02,5.319492016649360333e-02
7.620000000000000107e-01,-1.896515011361983860e-01,-5.699872902198412083e-02,-9.934216483628525302e-03
7.630000000000000115e-01,-2.413053570598091557e-01,-2.571741542965006941e-02,-4.073878723855439005e-02
7.640000000000000124e-01,-1.861782931342944591e-01,5.894829132614630429e-02,-4.223342186737220894e-02
7.650000000000000133e-01,-6.362955129666462983e-02,1.094060184189854651e-01,1.172582299504645355e-02
7.660000000000000142e-01,6.835870746537461851e-02,1.365880696067307554e-01,8.051190400900701261e-02
7.670000000000000151e-01,1.367296662448937161e-01,5.382070597814939822e-02,1.278305536380573426e-01
7.680000000000000160e-01,9.668429300905508061e-02,-7.086316192301236883e-02,9.605448903900883073e-02
7.690000000000000169e-01,-2.225382169951614121e-03,-1.842016837083743641e-01,2.533438253245594643e-02
7.700000000000000178e-01,-6.793027444904764511e-02,-1.836787384848544702e-01,-6.834732014355013319e-02
7.710000000000000187e-01,-4.481562769777939353e-02,-9.039683429404178627e-02,-1.392247845815928475e-01
7.720000000000000195e-01,4.621715288696832957e-02,1.390123047366114556e-02,-1.230370922404750156e-01
7.730000000000000204e-01,1.696935034916862428e-01,1.095033634100143344e-01,-6.025977125840863841e-02
7.740000000000000213e-01,1.860085483807151219e-01,1.209631212705731679e-01,7.734978504246686065e-03
7.750000000000000222e-01,1.229075146542898400e-01,5.812875932094199727e-02,7.519684742304526270e-02
7.760000000000000231e-01,-5.568275913459582588e-02,-1.161568628329063754e-02,3.762819589640982454e-02
7.770000000000000240e-01,-1.849074613739671302e-01,-3.294056419069914948e-02,6.377126595652232721e-03
7.780000000000000249e-01,-2.275722627489892569e-01,-3.194580552772551679e-02,-3.204489484535379823e-02
7.790000000000000258e-01,-1.928205078847192999e-01,6.993721357602090960e-02,-4.138646783277835639e-02
7.800000000000000266e-01,-5.000193813236746693e-02,1.294032398991004640e-01,-9.281262694082118361e-03
7.810000000000000275e-01,7.904580546248581030e-02,1.118607289566910939e-01,5.843645527403426576e-02
7.820000000000000284e-01,1.300324201198092833e-01,1.472010226212910715e-02,1.070897940036872747e-01
7.830000000000000293e-01,1.010844846246319179e-01,-9.357620205659381019e-02,1.084559776121491459e-01
7.840000000000000302e-01,1.868628320337305943e-02,-1.923810359439485917e-01,2.812216479530751587e-02
7.850000000000000311e-01,-8.031585116572435845e-02,-1.797888890134102524e-01,-7.200097597007301675e-02
7.860000000000000320e-01,-3.881636736879832267e-02,-7.702260788568134064e-02,-1.323438765685694130e-01
7.870000000000000329e-01,5.323169643988458211e-02,3.920978576132420901e-02,-1.423874141237095048e-01
7.880000000000000338e-01,1.560461020433500379e-01,1.037534086177106379e-01,-8.298039695419050232e-02
7.890000000000000346e-01,1.671309686176010723e-01,1.197644345949971101e-01,2.011005894925931708e-03
7.900000000000000355e-01,7.781159170308242501e-02,4.085104457769447167e-02,6.341296211840553865e-02
7.910000000000000364e-01,-3.856200694991576000e-02,-3.571544325330899133e-02,7.879177500132489298e-02
7.920000000000000373e-01,-1.900486796733739381e-01,-6.424809480555317143e-02,1.287489704589505311e-02
7.930000000000000382e-01,-2.308424755981338949e-01,-2.612130360697289752e-02,-1.667566922768873999e-02
7.940000000000000391e-01,-2.018544735086666708e-01,6.807499532154791255e-02,-3.056236789976125162e-02
7.950000000000000400e-01,-2.414623674850719867e-02,1.121265074725076027e-01,-2.603782573311932275e-02
7.960000000000000409e-01,9.418642002058583151e-02,1.105115479112547122e-01,4.607367435459617383e-02
7.970000000000000417e-01,1.403482289213757450e-01,8.658988617135219071e-03,1.077845150287883996e-01
7.980000000000000426e-01,1.160507663571786890e-01,-1.232675822350132316e-01,1.216178277083048154e-01
7.990000000000000435e-01,-1.253240231921400744e-02,-2.014602285701878326e-01,3.903210070220995004e-02
8.000000000000000444e-01,-6.037898809441433895e-02,-1.514284818908690489e-01,-6.002447996034653011e-02
8.010000000000000453e-01,-5.062471873023680763e-02,-7.439028999984667601e-02,-1.254253069528134812e-01
8.020000000000000462e-01,5.267144800184778847e-02,5.227304025697553092e-02,-1.348074880149125188e-01
8.030000000000000471e-01,1.368024364668690984e-01,1.359210795908899483e-01,-7.700110875844318192e-02
8.040000000000000480e-01,1.584855018016127770e-01,1.219793929049017844e-01,1.243260173405396837e-02
8.050000000000000488e-01,6.795175564434145776e-02,1.758496977480142331e-02,7.746420774073298210e-02
8.060000000000000497e-01,-6.953097207004760305e-02,-4.871464329283131667e-02,8.710073625329033120e-02
8.070000000000000506e-01,-2.052728873629843243e-01,-5.677485257403010188e-02,5.054670216107853137e-02
8.080000000000000515e-01,-2.507505241085128955e-01,-2.330082065127533388e-03,-3.659895009067039903e-03
8.090000000000000524e-01,-1.668740423391642524e-01,9.841500953524388862e-02,-4.545027219483738223e-02
8.100000000000000533e-01,-1.023943284056364270e-02,1.276783558911695760e-01,-1.088306461654968936e-02
8.110000000000000542e-01,1.393598277770528859e-01,8.204528435678387632e-02,5.947198727498940324e-02
8.120000000000000551e-01,1.743580339416365699e-01,-5.014707718617833487e-02,1.210925880548634342e-01
8.129999999999999449e-01,1.053690017320416394e-01,-1.464690261514640934e-01,8.946884926794242132e-02
8.139999999999999458e-01,-3.237515882947272858e-03,-1.945506400837641592e-01,4.132069733882812179e-02
8.149999999999999467e-01,-5.125208787991868131e-02,-1.343535083734817559e-01,-6.087872501042036755e-02
8.159999999999999476e-01,-3.013997485150695169e-02,-2.070685259296408884e-02,-1.344714002774184958e-01
8.169999999999999485e-01,2.737305515221761382e-02,9.476536236361167431e-02,-1.185161216449311800e-01
8.179999999999999494e-01,1.309779350881302706e-01,1.494046163019128459e-01,-9.872034421410394445e-02
8.189999999999999503e-01,1.371079389955733308e-01,1.073921165539390016e-01,1.899774830770024903e-02
8.199999999999999512e-01,6.940199250381470786e-02,2.419792431099203334e-02,8.422098052943245705e-02
8.209999999999999520e-01,-8.891543304689879246e-02,-5.036087612279327441e-02,8.876584727887092130e-02
8.219999999999999529e-01,-2.371805042313909762e-01,-4.283458134958387231e-02,4.730460067575701505e-02
8.229999999999999538e-01,-2.303496829344345576e-01,5.122390823350214499e-03,-1.754488114145203934e-02
8.239999999999999547e-01,-1.525027707545249522e-01,8.437272692605828073e-02,-4.869499781582387055e-02
8.249999999999999556e-01,9.688039977088200999e-03,1.053141286706475582e-01,-1.753315380395968279e-02
8.259999999999999565e-01,1.266511505219420075e-01,4.373409710191766830e-02,3.151447295268755555e-02
8.269999999999999574e-01,1.797232999109602269e-01,-6.319671665403919780e-02,9.448867325252707783e-02
8.279999999999999583e-01,1.252069755810534812e-01,-1.512354237574759785e-01,9.238200372821279982e-02
8.289999999999999591e-01,2.722190899329709687e-02,-1.828778521000433699e-01,1.606516629830374160e-02
8.299999999999999600e-01,-5.794297036161975833e-02,-1.125373151170219604e-01,-6.831411708553636331e-02
8.309999999999999609e-01,-5.486229416512031914e-02,2.947653031790115064e-02,-1.314417363289216711e-01
8.319999999999999618e-01,1.560632642020692504e-02,1.142695246114182744e-01,-1.281402329885305835e-01
8.329999999999999627e-01,1.134679217931281181e-01,1.602317353700804525e-01,-7.831117727234893078e-02
8.339999999999999636e-01,1.407444986318197311e-01,8.962682557855408683e-02,-7.291386182519822134e-04
8.349999999999999645e-01,4.113120034449307960e-02,2.180566248509652194e-02,8.574257870119003644e-02
8.359999999999999654e-01,-1.016617473754270751e-01,-5.475050974497163575e-02,9.517650117332890347e-02
8.369999999999999662e-01,-2.184610227005804317e-01,-5.978309282541446196e-02,6.201074305040973900e-02
8.379999999999999671e-01,-2.281836327243741691e-01,4.751886303357083681e-03,4.245396911666357229e-03
8.389999999999999680e-01,-1.406531161889177928e-01,9.807266195199393355e-02,-4.078911467218981207e-02
8.399999999999999689e-01,2.813370491945000468e-02,8.434931176009068110e-02,-2.060566262150681505e-02
8.409999999999999698e-01,1.340473619129521898e-01,1.023329311581087399e-02,2.158315138461566057e-02
8.419999999999999707e-01,2.097679304039601900e-01,-8.580839077632648748e-02,7.392321502353509100e-02
8.429999999999999716e-01,1.261899543721191341e-01,-1.634943342546461564e-01,8.451876109104521084e-02
8.439999999999999725e-01,2.197404952823645008e-02,-1.850679860714744551e-01,1.658099245359213186e-02
8.449999999999999734e-01,-5.851727498488477203e-02,-1.043773018219899817e-01,-5.943641506758447213e-02
8.459999999999999742e-01,-6.194495794157741514e-02,4.658244304393283075e-02,-1.160479979403606920e-01
8.469999999999999751e-01,2.532099603629075352e-02,1.365570495826836928e-01,-1.474178952968804301e-01
8.479999999999999760e-01,9.929347799248008921e-02,1.610870680309647862e-01,-8.429543391965248211e-02
8.489999999999999769e-01,1.144802216493755326e-01,9.772341318821624323e-02,7.171819933901447779e-03
8.499999999999999778e-01,2.370037780369696132e-02,9.989670271697094484e-03,7.580097631170278072e-02
8.509999999999999787e-01,-9.696642197551325060e-02,-6.966211241451250591e-02,1.116310626109697779e-01
8.519999999999999796e-01,-2.320367833555894155e-01,-5.727604128407064177e-02,6.580246861881119957e-02
8.529999999999999805e-01,-2.324963893503150525e-01,1.704344379446386462e-02,1.878746803540894475e-02
8.539999999999999813e-01,-1.273702705638844468e-01,8.592947409240080103e-02,-3.334090028603988592e-02
8.549999999999999822e-01,4.705811137401577637e-02,7.600682293167065895e-02,-4.463392099575022587e-02
8.559999999999999831e-01,1.782960562978282426e-01,1.801882399152804695e-02,-4.355482986706381461e-03
8.569999999999999840e-01,1.950012950203892925e-01,-1.189750015462328753e-01,6.904552830602657398e-02
8.579999999999999849e-01,1.442150094772938484e-01,-1.673192497338114315e-01,8.262746903863281422e-02
8.589999999999999858e-01,-1.614301281305764377e-02,-1.859661626555261238e-01,3.894097096095381488e-02
8.599999999999999867e-01,-5.661209241828399352e-02,-6.493277056451991769e-02,-5.305828270862307516e-02
8.609999999999999876e-01,-7.737807986040709518e-02,7.518570999995831394e-02,-1.185419727338863222e-01
8.619999999999999885e-01,1.409668998145457812e-02,1.509636592844372238e-01,-1.520917382853036737e-01
8.629999999999999893e-01,1.125224362433355080e-01,1.524007310482810296e-01,-8.998987996933387190e-02
8.639999999999999902e-01,1.010361061840806124e-01,7.406502139094416071e-02,-4.889199037550272242e-03
8.649999999999999911e-01,1.599679389477418100e-03,-3.267663542206020177e-02,7.693847551864338441e-02
8.659999999999999920e-01,-1.049885768195105429e-01,-6.882664918711289825e-02,1.274335459982553487e-01
8.669999999999999929e-01,-2.247764784729714693e-01,-4.664066952783896963e-02,7.308334382051977218e-02
8.679999999999999938e-01,-2.111630744038423824e-01,1.475899989295532261e-02,1.256662185096163974e-02
8.689999999999999947e-01,-1.053317572542566138e-01,7.467571992536942149e-02,-3.633953761012075762e-02
8.699999999999999956e-01,5.809763317921848996e-02,4.510551673708426690e-02,-3.707787518589494846e-02
8.709999999999999964e-01,1.975598376599202177e-01,-8.111090409368981041e-03,-1.225114116978463959e-02
8.719999999999999973e-01,2.034899321513226333e-01,-1.089640493471185634e-01,4.753431037015323768e-02
8.729999999999999982e-01,1.059144248590574849e-01,-1.640307867966348809e-01,8.219151083775480537e-02
8.739999999999999991e-01,-6.360572090520454080e-03,-1.215058692439831695e-01,3.833065455620481704e-02
8.750000000000000000e-01,-7.368621395355554049e-02,-6.625234688013890462e-03,-3.964384811031077677e-02
8.760000000000000009e-01,-6.885232458690061785e-02,1.084242483137844992e-01,-1.205624296058384892e-01
8.770000000000000018e-01,-5.853530834021908845e-03,1.760020575809729815e-01,-1.359811363414799024e-01
8.780000000000000027e-01,7.787218044460579580e-02,1.647509066532544530e-01,-9.351426237660553920e-02
8.790000000000000036e-01,1.025737031954877393e-01,7.686182891328229017e-02,8.702006014712724289e-04
8.800000000000000044e-01,9.749395496869765060e-03,-3.127040685339427945e-02,8.026708504654790632e-02
8.810000000000000053e-01,-1.223070682019463812e-01,-7.877304639950598319e-02,1.330164776142850058e-01
8.820000000000000062e-01,-1.946405344633080070e-01,-5.696419142636413580e-02,9.982666956245273004e-02
8.830000000000000071e-01,-1.985878704432144370e-01,1.435178522367466444e-02,3.263809251475657119e-02
8.840000000000000080e-01,-9.103387958553679771e-02,8.165235747166152414e-02,-2.304171501179787598e-02
8.850000000000000089e-01,9.086230964218476591e-02,4.653484009385964321e-02,-5.176564953006689007e-02
8.860000000000000098e-01,2.182805376571330114e-01,-3.960340434056428688e-02,-2.906309215229913728e-02
8.870000000000000107e-01,2.043908790941676157e-01,-1.419892683230986608e-01,4.516955986192004030e-02
8.880000000000000115e-01,1.286006430799599143e-01,-1.666824489551597399e-01,6.062455608373521626e-02
8.890000000000000124e-01,-1.166812050099361002e-02,-1.031802987925936332e-01,3.159332138911490062e-02
8.900000000000000133e-01,-9.731246738156712484e-02,1.596001652653963529e-02,-2.391101387840635639e-02
8.910000000000000142e-01,-9.628047956004198715e-02,1.273355612946608650e-01,-1.038374504993201664e-01
8.920000000000000151e-01,6.025458416859393387e-03,1.912822030147748875e-01,-1.426417214366575426e-01
8.930000000000000160e-01,8.511124557704262406e-02,1.314991787078868268e-01,-1.058262936139214988e-01
8.940000000000000169e-01,9.242905948009860762e-02,1.599734957758950846e-02,-2.256667693752260201e-02
8.950000000000000178e-01,3.236365349805364090e-03,-5.096431277556626172e-02,8.854054001562011722e-02
8.960000000000000187e-01,-1.046888329160348130e-01,-1.022871350544947988e-01,1.357850970252263423e-01
8.970000000000000195e-01,-2.071325010931113486e-01,-7.470922221024690890e-02,1.101532546628912340e-01
8.980000000000000204e-01,-1.844009378748519001e-01,9.895673820479443730e-03,2.581338144150634520e-02
8.990000000000000213e-01,-7.463765318817058847e-02,5.902845746838401852e-02,-1.915404505345950914e-02
9.000000000000000222e-01,1.088708937610983890e-01,4.336054872075160299e-02,-4.335922855860196296e-02
9.010000000000000231e-01,2.193254354385033023e-01,-5.245178759511270189e-02,-1.054608269122157133e-02
9.020000000000000240e-01,2.169647686916003348e-01,-1.346159317726140225e-01,1.847175431355151803e-02
9.030000000000000249e-01,9.892908807114066116e-02,-1.590837228999800457e-01,5.759641480401173075e-02
9.040000000000000258e-01,-2.858327638023722139e-02,-6.690348699980822045e-02,5.522098237619239847e-02
9.050000000000000266e-01,-1.067861687977944563e-01,4.056492010661540137e-02,-1.913107994295733250e-02
9.060000000000000275e-01,-1.034953737623650755e-01,1.582346185854129617e-01,-8.723002562402118465e-02
9.070000000000000284e-01,-1.702069916379753481e-02,1.830031211147448433e-01,-1.378936877680155271e-01
9.080000000000000293e-01,5.767523439438188709e-02,1.063553874528329612e-01,-1.096202201656288899e-01
9.090000000000000302e-01,7.609903848550146621e-02,7.372075636768841717e-04,-2.918109721492248218e-02
9.100000000000000311e-01,1.088898149725900551e-02,-6.988222551898230772e-02,6.507128343264667603e-02
9.110000000000000320e-01,-1.307626044548848565e-01,-1.042317201916965752e-01,1.191344249159604352e-01
9.120000000000000329e-01,-2.051754394005092519e-01,-3.718673577913204908e-02,1.241145035794097018e-01
9.130000000000000338e-01,-1.789922202563795361e-01,1.840365446676629768e-02,4.078111412176591705e-02
9.140000000000000346e-01,-5.780105348501995283e-02,7.423714553174008690e-02,-4.340264506374710840e-02
9.150000000000000355e-01,1.128370538808193824e-01,2.734881646971491428e-02,-6.815777568071981762e-02
9.160000000000000364e-01,2.016132653814357023e-01,-7.806207953459798343e-02,-5.122337641570867683e-02
9.170000000000000373e-01,2.242734032203955730e-01,-1.314552736843935254e-01,6.744699175937436328e-03
9.180000000000000382e-01,1.064076647965484373e-01,-1.387341861334673854e-01,6.411969386970403639e-02
9.190000000000000391e-01,-3.825921884363822634e-02,-4.805545067360732225e-02,5.246928719404511665e-02
9.200000000000000400e-01,-1.179474221567404363e-01,6.764581107685198325e-02,-1.795279808056853693e-02
9.210000000000000409e-01,-1.020343366058773654e-01,1.739874271574602949e-01,-7.926927250664946023e-02
9.220000000000000417e-01,-1.837374789085280402e-02,1.931506196032899136e-01,-1.224944162721407770e-01
9.230000000000000426e-01,6.261164637586030812e-02,9.629006740728759950e-02,-1.010703676877298812e-01
9.240000000000000435e-01,7.612082786066544371e-02,-1.754837617833347740e-02,-1.399041304239561148e-02
9.250000000000000444e-01,6.354902270531365485e-03,-1.066318491968064053e-01,7.432224995424863145e-02
9.260000000000000453e-01,-1.117841733019545314e-01,-1.161562384817580590e-01,1.522562917996534704e-01
9.270000000000000462e-01,-1.818456674330521938e-01,-6.243115835546985543e-02,1.268800468621837929e-01
9.280000000000000471e-01,-1.582008662960803225e-01,3.769015769047488057e-02,7.768398450556975032e-02
9.290000000000000480e-01,-4.259844089702091025e-02,6.569059675403736420e-02,-2.497480851125600046e-02
9.300000000000000488e-01,1.376113874990763652e-01,1.760998927187066090e-02,-7.977852943179687684e-02
9.310000000000000497e-01,2.174523458787588903e-01,-6.602224658876608421e-02,-6.742521247615021474e-02
9.320000000000000506e-01,2.169518336898313138e-01,-1.346437890695081074e-01,-2.564872458715364290e-02
9.330000000000000515e-01,1.111140920335203230e-01,-1.200920460713613830e-01,1.143771509629994999e-02
9.340000000000000524e-01,-4.121761621976259560e-02,-1.367996316938091192e-02,5.431815274525064047e-02
9.350000000000000533e-01,-1.223147841327726082e-01,1.156350413403385291e-01,-1.418634479547545811e-02
9.360000000000000542e-01,-1.091303783434658808e-01,1.717287145316002406e-01,-7.560108533825679600e-02
9.370000000000000551e-01,-2.781821028261457704e-02,1.764031746476155404e-01,-1.313867584351032514e-01
9.379999999999999449e-01,6.517378472950570434e-02,7.486506036739506986e-02,-1.233100646590328947e-01
9.389999999999999458e-01,5.631156750788276349e-02,-6.195439507978185711e-02,-2.905991728192033191e-02
9.399999999999999467e-01,-7.117125212845105443e-03,-1.328883597855345378e-01,6.653708191280641171e-02
9.409999999999999476e-01,-1.296826375691578770e-01,-9.195636889676685188e-02,1.350305060862123929e-01
9.419999999999999485e-01,-1.869064504087873668e-01,-4.524819484314062529e-02,1.253618158925622061e-01
9.429999999999999494e-01,-1.586683330582087104e-01,3.746327054813597401e-02,6.097179549310095814e-02
9.439999999999999503e-01,-1.978437263133829213e-02,5.495644022069613027e-02,-2.815272207931846307e-02
9.449999999999999512e-01,1.410124654743721562e-01,-2.192887447300025713e-03,-4.979172706363230866e-02
9.459999999999999520e-01,2.412363633640205729e-01,-8.411311545832643455e-02,-7.423429716213229834e-02
9.469999999999999529e-01,2.039631601253420745e-01,-1.322399429108934710e-01,-3.004215341713717749e-02
9.479999999999999538e-01,1.006616992142299605e-01,-8.929403563174093117e-02,2.761863018996478861e-02
9.489999999999999547e-01,-5.588824600789108615e-02,7.810015791589823217e-03,2.406815100640628813e-02
9.499999999999999556e-01,-1.327451512945752310e-01,1.398644191938049897e-01,1.044678116913254351e-02
9.509999999999999565e-01,-1.228926825501943515e-01,2.218495974662362535e-01,-7.673931472759615291e-02
9.519999999999999574e-01,-2.634162053332856149e-02,1.444815791863713061e-01,-9.852100560631546489e-02
9.529999999999999583e-01,5.472470276708523568e-02,5.803032770615778463e-02,-9.420603643564082197e-02
9.539999999999999591e-01,7.327029653330750791e-02,-8.993654492000163758e-02,-2.693408998985708999e-02
9.549999999999999600e-01,-1.239247230042116350e-02,-1.351533785386495046e-01,7.059531136488697567e-02
9.559999999999999609e-01,-1.143910068348555770e-01,-1.194900102271751474e-01,1.285208489778439100e-01
9.569999999999999618e-01,-1.692564658076206596e-01,-1.973439720702830497e-02,1.265979442591986803e-01
9.579999999999999627e-01,-1.405561640785064903e-01,4.798410454244890488e-02,8.966000705293424022e-02
9.589999999999999636e-01,-2.606475441349630218e-02,4.168056124085416092e-02,-2.531748765090194656e-02
9.599999999999999645e-01,1.623318930133587912e-01,-8.863782376500713156e-03,-8.345694844257002531e-02
9.609999999999999654e-01,2.385472156555402679e-01,-9.358427567587200568e-02,-8.377357248971573078e-02
9.619999999999999662e-01,2.275046338604185536e-01,-1.210777400653590546e-01,-3.976970640185709810e-02
9.629999999999999671e-01,8.720681820660504402e-02,-7.074724262866934066e-02,1.939835015841409258e-02
9.639999999999999680e-01,-7.160303918693824987e-02,4.874830199086868654e-02,5.138839711851020398e-02
9.649999999999999689e-01,-1.454306917241922070e-01,1.583892689380447805e-01,4.267176179059238919e-03
9.659999999999999698e-01,-1.244664799736560495e-01,1.866996668819444205e-01,-6.068638633226683399e-02
9.669999999999999707e-01,-4.066960879351669972e-02,1.455884158024152997e-01,-9.555464992542578306e-02
9.679999999999999716e-01,4.134460641103858414e-02,1.870680661531650205e-02,-9.114936426101369338e-02
9.689999999999999725e-01,6.889769031623689532e-02,-1.063069900025415682e-01,-2.375067799107719729e-02
9.699999999999999734e-01,9.230344322144590219e-03,-1.427195340764611242e-01,6.138549703061504242e-02
9.709999999999999742e-01,-1.109989862486094603e-01,-1.069806879737602162e-01,1.422924301298526539e-01
9.719999999999999751e-01,-1.487663981812138991e-01,-1.981091633310169339e-02,1.394024938944520009e-01
9.729999999999999760e-01,-1.142034792430635243e-01,6.193129520810135291e-02,7.424273632055773675e-02
9.739999999999999769e-01,-2.608385782184876722e-03,4.441474480518184387e-02,-5.919633258501285147e-03
9.749999999999999778e-01,1.549432715642156677e-01,-1.590369602617150088e-02,-5.875906869902168539e-02
9.759999999999999787e-01,2.486340676245782921e-01,-8.996024755905712711e-02,-8.850281154704690845e-02
9.769999999999999796e-01,2.006284475125378886e-01,-1.039388960675243084e-01,-4.030934341826983291e-02
9.779999999999999805e-01,6.891798338913571187e-02,-3.484452255024846762e-02,2.059846364779367722e-02
9.789999999999999813e-01,-8.018658155252031405e-02,6.758778692108058372e-02,3.705016623691433086e-02
9.799999999999999822e-01,-1.565159598714249145e-01,1.825800221821783365e-01,3.857549410581188887e-02
9.809999999999999831e-01,-1.377875928535547412e-01,1.851958590757920298e-01,-3.259314434330339016e-02
9.819999999999999840e-01,-4.140730974749984999e-02,1.098621600271494220e-01,-6.287800095664330957e-02
9.829999999999999849e-01,5.689612526972226414e-02,-1.375522481668715446e-03,-9.659681153395942299e-02
9.839999999999999858e-01,6.612613495586501522e-02,-1.122705895923145347e-01,-4.034617770972519224e-02
9.849999999999999867e-01,1.199205539941050266e-02,-1.497808521304156981e-01,6.909917309811525188e-02
9.859999999999999876e-01,-9.444615729396045600e-02,-9.946633366043941549e-02,1.418215189297611922e-01
9.869999999999999885e-01,-1.273666692817359003e-01,1.316366104401875577e-02,1.322568423423374495e-01
9.879999999999999893e-01,-9.240616889529221223e-02,5.581765515735333250e-02,8.745948957654073319e-02
9.889999999999999902e-01,4.016633657426457032e-02,3.578482241834902294e-02,-9.675959042440437918e-03
9.899999999999999911e-01,1.697044367137004461e-01,-2.108489864944492961e-02,-7.239862679081389418e-02
9.909999999999999920e-01,2.430394297243973212e-01,-6.952039256364653252e-02,-1.183729290925687461e-01
9.919999999999999929e-01,1.814698378131149870e-01,-7.581654148146317607e-02,-6.606314072965754902e-02
9.929999999999999938e-01,4.985734800043262888e-02,-2.078593290919759917e-02,-8.934149123296061465e-03
9.939999999999999947e-01,-1.072682792374591437e-01,8.917357642154488673e-02,3.760770573289778235e-02
9.949999999999999956e-01,-1.720521131447600161e-01,1.660601668562860789e-01,3.095156100061841747e-02
9.959999999999999964e-01,-1.508826729467197814e-01,1.642990475721610999e-01,-3.008466185514610189e-02
9.969999999999999973e-01,-6.022782322049059778e-02,8.580394591156684236e-02,-8.788388869861431252e-02
9.979999999999999982e-01,3.945741163234580545e-02,-5.013974545091644947e-02,-9.124231261491799749e-02
9.989999999999999991e-01,9.177982265530883199e-02,-1.487840320291549390e-01,-4.893033259201456237e-02
1.000000000000000000e+00,7.965404511367178350e-03,-1.485634629261337880e-01,5.039153689914434991e-02
1.000999999999999890e+00,-7.470712809363484752e-02,-9.304842699161995634e-02,1.271387588533527679e-01
1.002000000000000002e+00,-1.161501593034686974e-01,4.029403903261023247e-03,1.480222633321894299e-01
1.002999999999999892e+00,-6.662428697838922165e-02,7.993956597515801399e-02,1.033628579720374252e-01
1.004000000000000004e+00,3.355866510589845808e-02,5.494628055102661335e-02,-1.763407709036437718e-02
1.004999999999999893e+00,1.659047456007700649e-01,-2.765515984343214217e-02,-8.502124610007406880e-02
1.006000000000000005e+00,2.462154485825698014e-01,-7.464493263037498549e-02,-1.243688875965694995e-01
1.006999999999999895e+00,1.863033309226515555e-01,-9.283896221738971444e-02,-6.608883964577401404e-02
1.008000000000000007e+00,2.443055047347560821e-02,1.288047050880834071e-02,5.366315503576029808e-03
1.008999999999999897e+00,-1.196328790954254567e-01,1.015456761639199623e-01,3.327111116548823327e-02
1.010000000000000009e+00,-1.972061318663512752e-01,1.771412389758023898e-01,3.181660453065737054e-02
1.010999999999999899e+00,-1.542005492561503432e-01,1.626398087084811317e-01,-2.340827464809875150e-02
1.012000000000000011e+00,-6.049570816299063708e-02,4.205859906654321051e-02,-6.389361478694405294e-02
1.012999999999999901e+00,3.820372587504951983e-02,-8.197205762647591376e-02,-5.660468265340933003e-02
1.014000000000000012e+00,6.950097408577593505e-02,-1.350003163708314580e-01,-4.409618052487020851e-02
1.014999999999999902e+00,9.496792762071689167e-03,-1.692369305040787308e-01,2.785046260070557847e-02
1.016000000000000014e+00,-7.759967827309061095e-02,-4.792126065265051721e-02,1.189853647256139957e-01
1.016999999999999904e+00,-1.171968501188299511e-01,2.936154709782345593e-02,1.579406251363025815e-01
1.018000000000000016e+00,-6.870376909349235062e-02,6.869206587873083469e-02,8.026891093469937233e-02
1.018999999999999906e+00,5.414108875030822221e-02,2.129948791961099736e-02,1.537128487683492653e-02
1.020000000000000018e+00,1.636969970613460501e-01,-2.456304190989330033e-02,-8.207441766215647916e-02
1.020999999999999908e+00,2.348361380913691898e-01,-8.404006739032529594e-02,-1.010883936355276985e-01
1.022000000000000020e+00,1.484997366246195161e-01,-6.195605074654455396e-02,-7.378385793842734408e-02
1.022999999999999909e+00,5.508320855430541216e-03,2.518764346651041625e-02,-3.298109854038102501e-02
1.024000000000000021e+00,-1.392722838489774406e-01,1.377359344654501827e-01,2.202277159865019887e-02
1.024999999999999911e+00,-2.236924294214268361e-01,1.837770222718526913e-01,4.627801067102864374e-02
1.026000000000000023e+00,-1.619800910751956202e-01,1.311205556600627542e-01,-7.185553005109915868e-03
1.026999999999999913e+00,-5.061643490900664955e-02,1.631925978175496547e-02,-6.753112361443334988e-02
1.028000000000000025e+00,6.704735485521268190e-02,-1.157456209596015584e-01,-6.037040803291104929e-02
1.028999999999999915e+00,9.692457217162452066e-02,-1.758766986467605598e-01,-4.421376116034565068e-02
1.030000000000000027e+00,4.465283982124919337e-02,-1.347276771836346254e-01,3.841108000538544925e-02
1.030999999999999917e+00,-5.958607983626395405e-02,-3.673761982700095990e-02,1.073085157483281427e-01
1.032000000000000028e+00,-1.195587563144932391e-01,4.910002911856219815e-02,1.508219775737972279e-01
1.032999999999999918e+00,-6.161162392898676676e-02,7.776493229494671477e-02,1.074711625698540618e-01
1.034000000000000030e+00,5.095214537568353713e-02,4.181400994111115349e-02,4.349447440809369250e-03
1.034999999999999920e+00,1.961692077189095273e-01,-2.937753739042824053e-02,-8.040774869206959719e-02
1.036000000000000032e+00,2.125554391487410877e-01,-7.605309071515016506e-02,-1.137257394821604012e-01
1.036999999999999922e+00,1.443566905934739741e-01,-3.197509077288446938e-02,-9.634597229319756539e-02
1.038000000000000034e+00,-5.071306713289400886e-03,2.825855819341708750e-02,-4.082144699377552449e-02
1.038999999999999924e+00,-1.464263880727833811e-01,1.377747930058976777e-01,2.634294838626584020e-02
1.040000000000000036e+00,-2.022732857186292643e-01,1.621137780046417731e-01,3.583101933575757320e-02
1.040999999999999925e+00,-1.650917122807955828e-01,9.035076710452719095e-02,-1.314620509117425499e-02
1.042000000000000037e+00,-3.984736095808037726e-02,-1.823178704054290514e-02,-4.823245434921846070e-02
1.042999999999999927e+00,4.991563076866579324e-02,-1.473156850409279572e-01,-7.144133949723484311e-02
1.044000000000000039e+00,1.013528576229913020e-01,-1.834197489214267340e-01,-3.680345509138090859e-02
1.044999999999999929e+00,3.003968230182273852e-02,-1.328501185112867522e-01,2.698881915092471440e-02
1.046000000000000041e+00,-6.736988337137569949e-02,-1.614088922133413706e-02,9.175779650898756301e-02
1.046999999999999931e+00,-1.090840642576820368e-01,7.327090622820552068e-02,1.439278194924528687e-01
1.048000000000000043e+00,-4.633460174469912485e-02,9.935242855629354553e-02,9.895791742830470361e-02
1.048999999999999932e+00,7.026398371124667475e-02,3.416520241305834316e-02,1.635801134156805031e-02
1.050000000000000044e+00,1.824574065279986890e-01,-2.800673845092799263e-02,-8.334453589361780212e-02
1.050999999999999934e+00,2.361648398047790642e-01,-8.511860883717368986e-02,-1.278705307916968847e-01
1.052000000000000046e+00,1.378928495857592029e-01,-3.692278967774254017e-02,-1.111870256983288757e-01
1.052999999999999936e+00,-1.993455536421484889e-02,6.969595318125472450e-02,-1.911824558143893418e-02
1.054000000000000048e+00,-1.570010268679890297e-01,1.316050579644768848e-01,5.366605998163252733e-02
1.054999999999999938e+00,-2.358742192056835774e-01,1.545954589811253943e-01,6.275341323334496235e-02
1.056000000000000050e+00,-1.718353234921275174e-01,8.660659654653021788e-02,3.416764847314904263e-02
1.056999999999999940e+00,-3.831904896246500491e-02,-6.135208233810265921e-02,-1.243601765021925404e-02
1.058000000000000052e+00,5.188112499118040233e-02,-1.576765709998770859e-01,-4.514457013720980794e-02
1.058999999999999941e+00,1.168701200139276447e-01,-1.751984410775404843e-01,-4.133399532602258231e-02
1.060000000000000053e+00,1.631113650952498509e-02,-1.152228437048257448e-01,9.570648222361166982e-03
1.060999999999999943e+00,-4.142107861272314312e-02,-4.312265712574503765e-03,1.142045291076078523e-01
1.062000000000000055e+00,-6.364363682841661651e-02,6.844638233419148010e-02,1.299913951675897295e-01
1.062999999999999945e+00,-4.613406306585919603e-02,9.489002780216639066e-02,1.038966273561710563e-01
1.064000000000000057e+00,6.298422585670514218e-02,2.918675396626940408e-02,-2.399118067524275719e-04
1.064999999999999947e+00,1.908212888263438323e-01,-5.191260609503271783e-02,-9.693393781720656410e-02
1.066000000000000059e+00,2.010116788074073346e-01,-5.950284721080889572e-02,-1.446115808941908498e-01
1.066999999999999948e+00,1.109103566900818821e-01,7.050296442104043645e-03,-1.135104093221138144e-01
1.068000000000000060e+00,-1.555834036065701850e-02,8.571687072848965805e-02,-4.916639343626796887e-02
1.068999999999999950e+00,-1.986416821834442736e-01,1.519774181760920051e-01,2.435213061294197803e-02
1.070000000000000062e+00,-2.293004503326563914e-01,1.263157502676357236e-01,6.304667067342038800e-02
1.070999999999999952e+00,-1.873912485788739313e-01,3.282951728734212482e-02,7.126825587958338960e-03
1.072000000000000064e+00,-1.951453290264532070e-02,-9.445520648525687624e-02,1.436578219407085803e-03
1.072999999999999954e+00,6.998136820456481166e-02,-1.900499305838128372e-01,-6.681234659639857798e-02
1.074000000000000066e+00,1.088910162602721304e-01,-1.777415344603935632e-01,-4.346468571291377953e-02
1.074999999999999956e+00,5.217972084336029714e-02,-9.070905493478863268e-02,1.339910771393235632e-02
1.076000000000000068e+00,-3.117827505180304631e-02,2.893235663410889669e-02,1.077128686606317470e-01
1.076999999999999957e+00,-7.116405467204901802e-02,8.431177590797303556e-02,1.332542825860845437e-01
1.078000000000000069e+00,-4.543330186010596100e-02,8.933035138865945413e-02,1.125298085074006443e-01
1.078999999999999959e+00,6.201576021863817317e-02,2.732643073277684839e-02,2.222780010322770658e-02
1.080000000000000071e+00,1.847783084709155588e-01,-3.075826522461420909e-02,-8.254545590209474981e-02
1.080999999999999961e+00,1.955901627519124886e-01,-6.050277888829055928e-02,-1.479022146186523834e-01
1.082000000000000073e+00,1.034750293408023547e-01,3.645743482851033362e-03,-1.074709025729733147e-01
1.082999999999999963e+00,-6.194587891317603068e-02,7.670876867470298455e-02,-5.293946858745801620e-02
1.084000000000000075e+00,-2.118825253699111455e-01,1.526192809475121481e-01,2.380639338065607818e-02
1.084999999999999964e+00,-2.282345890436980607e-01,1.081063561538668644e-01,6.373688027993650029e-02
1.086000000000000076e+00,-1.606491683485654354e-01,1.379175695301011230e-02,5.444680456544914032e-02
1.086999999999999966e+00,-2.724827105662930640e-02,-1.308629828623456559e-01,-9.971763128879696653e-03
1.088000000000000078e+00,1.120366363364540402e-01,-1.821404436299402518e-01,-5.093153064446167416e-02
1.088999999999999968e+00,1.141283778668133048e-01,-1.587692284035679968e-01,-3.965237377820824555e-02
1.090000000000000080e+00,7.524923452490051012e-02,-7.219952837612268748e-02,8.249603933740876603e-04
1.090999999999999970e+00,-3.018191389347167630e-02,5.774340482210852527e-02,7.504271261995479336e-02
1.092000000000000082e+00,-8.381917094873451990e-02,1.055146417941545400e-01,1.288116899841156016e-01
1.092999999999999972e+00,-2.601891560921197610e-02,1.052014180154838413e-01,9.220412591233512201e-02
1.094000000000000083e+00,8.030022699267408415e-02,1.201179827945731901e-02,2.558436486013503791e-02
1.094999999999999973e+00,1.720278606873447969e-01,-3.524776749353403238e-02,-7.343082138551421112e-02
1.096000000000000085e+00,1.748002766023098731e-01,-6.268126356185825532e-02,-1.378177604910752474e-01
1.096999999999999975e+00,1.010810603004157621e-01,3.225728244257347610e-02,-1.346096023414412590e-01
1.098000000000000087e+00,-6.455873723604621528e-02,8.459071894703434902e-02,-5.510735816669284914e-02
1.098999999999999977e+00,-2.054583993630871297e-01,1.329922971324824787e-01,5.579046170651994103e-03
1.100000000000000089e+00,-2.546071504207181868e-01,8.987912123324734437e-02,9.242633119392811014e-02
1.100999999999999979e+00,-1.541567573554846471e-01,-3.344980165810521044e-02,7.955393564321026900e-02
1.102000000000000091e+00,-1.028139317615176483e-02,-1.329534493353463354e-01,1.615149072515857653e-02
1.102999999999999980e+00,9.277312445952545783e-02,-1.807915560600195926e-01,-4.542220883530187492e-02
1.104000000000000092e+00,1.225196802212105557e-01,-1.600600354861016761e-01,-2.909784219813376510e-02
1.104999999999999982e+00,5.976147316327420911e-02,-3.434100302131685295e-02,2.194194503693566028e-02
1.106000000000000094e+00,-1.392279898936807196e-02,8.113443856923767405e-02,7.290956623039554496e-02
1.106999999999999984e+00,-7.731209717298981321e-02,1.223741225471965816e-01,1.164621178717695493e-01
1.108000000000000096e+00,-4.413901348593826657e-02,8.155674717374822302e-02,9.659553484795943556e-02
1.108999999999999986e+00,7.437574341617132767e-02,2.238852772498029289e-02,3.812621657604794295e-02
1.110000000000000098e+00,1.505524338141273344e-01,-4.602210700438831570e-02,-7.628111759338923603e-02
1.110999999999999988e+00,1.588536405843425647e-01,-4.282503710776181666e-02,-1.467300105547871270e-01
1.112000000000000099e+00,7.036930056598569849e-02,3.283201192871371826e-02,-1.194607664181190493e-01
1.112999999999999989e+00,-1.167265055634307963e-01,1.141123429896866576e-01,-6.013707013238754617e-02
1.114000000000000101e+00,-2.125126447080523673e-01,1.272323904091321733e-01,1.684546259556661540e-02
1.114999999999999991e+00,-2.427846049222410485e-01,6.344579785375883962e-02,7.587426419100978814e-02
1.116000000000000103e+00,-1.435711507665748676e-01,-3.216917905816990553e-02,6.098743710874184043e-02
1.116999999999999993e+00,-2.765059331972255941e-03,-1.625629545380217200e-01,3.075909583620718007e-02
1.118000000000000105e+00,1.211008027053612074e-01,-1.850395955129451320e-01,-4.815935456289013004e-03
1.118999999999999995e+00,1.576156212698456294e-01,-1.183424125325826387e-01,-3.045429448980554663e-02
1.120000000000000107e+00,8.143169905462031843e-02,-3.735626382898104853e-03,-1.516889650572775597e-02
1.120999999999999996e+00,-6.338367285184929624e-03,9.611468700918791852e-02,6.117932418820060808e-02
1.122000000000000108e+00,-6.742159174070645744e-02,1.398720829248827069e-01,1.031525776191041799e-01
1.122999999999999998e+00,-3.914628204340011436e-02,7.572737057952619311e-02,8.043285871418522082e-02
1.124000000000000110e+00,6.066181568723721940e-02,-7.416790030771835962e-03,2.007700546056434207e-02
1.125000000000000000e+00,1.531816908822297707e-01,-4.955407810512849065e-02,-4.600122169599607513e-02
1.125999999999999890e+00,1.441919841475736153e-01,-4.299268660479940024e-02,-1.166071474902911353e-01
1.127000000000000002e+00,4.310045306682138561e-02,5.161655401424903450e-02,-1.489677701452680192e-01
1.127999999999999892e+00,-1.055813558009579683e-01,1.078616192434991850e-01,-7.322933767791479920e-02
1.129000000000000004e+00,-1.943450952999965509e-01,1.111891638020400808e-01,1.649151643143769233e-02
1.129999999999999893e+00,-2.280068312868015756e-01,5.466892355094303026e-03,8.943871478520352969e-02
1.131000000000000005e+00,-1.254183287700126326e-01,-7.739297935664375683e-02,8.090363362456420848e-02
1.131999999999999895e+00,3.818840485491809683e-02,-1.708073264900561439e-01,3.714600301984467834e-02
1.133000000000000007e+00,1.406728455190148497e-01,-1.808548744843861966e-01,-3.507900264042355942e-02
1.133999999999999897e+00,1.679245283135287203e-01,-1.014691803327297387e-01,-4.377616753986645487e-02
1.135000000000000009e+00,9.036820084356442240e-02,3.397685826763804234e-02,-1.255608831931049468e-02
1.135999999999999899e+00,-1.862911687347403727e-02,1.219925633052009462e-01,3.875049325061747513e-02
1.137000000000000011e+00,-9.887277372096617278e-02,1.418326792399636493e-01,1.010633432255439584e-01
1.137999999999999901e+00,-2.978230054588767300e-02,6.971272087242302851e-02,1.045902201893353645e-01
1.139000000000000012e+00,6.365777901980687603e-02,-1.517929328785525868e-02,2.720208062169050117e-02
1.139999999999999902e+00,1.372390891166120896e-01,-5.786236125988111767e-02,-6.394807529274558477e-02
1.141000000000000014e+00,1.277023584435004189e-01,-4.602692965548808857e-02,-1.441951832630953834e-01
1.141999999999999904e+00,1.511524219964161496e-02,4.166723046254677126e-02,-1.316925807014384664e-01
1.143000000000000016e+00,-1.258143100508614110e-01,9.187930861481929945e-02,-1.002284684767757311e-01
1.143999999999999906e+00,-2.356046985724529197e-01,7.783167005866868660e-02,1.008509276922797508e-02
1.145000000000000018e+00,-2.303416827324244742e-01,3.789810364373523335e-03,8.433536373986008639e-02
1.145999999999999908e+00,-1.212280057190182198e-01,-1.211494653149736145e-01,9.461356997493383658e-02
1.147000000000000020e+00,2.914860398721253257e-02,-1.819161710788938235e-01,6.153590215817713455e-02
1.147999999999999909e+00,1.580764393595769091e-01,-1.685306223602367759e-01,-1.476852024083074102e-02
1.149000000000000021e+00,1.702895782842296091e-01,-7.349405548565672575e-02,-3.815658905348298657e-02
1.149999999999999911e+00,8.715636615962661649e-02,5.581517382743936273e-02,-3.720361879731247379e-02
1.151000000000000023e+00,-1.762287321308813812e-02,1.478237806252023223e-01,2.610769174598354808e-02
1.151999999999999913e+00,-8.046118741839412836e-02,1.457223133655451697e-01,8.156329101727530229e-02
1.153000000000000025e+00,-3.513873815989401739e-02,8.194454289230507227e-02,9.889640988647256659e-02
1.153999999999999915e+00,5.426536426982313255e-02,-2.336829379516384281e-02,3.770140938286516835e-02
1.155000000000000027e+00,1.259228847777219273e-01,-6.763552077504358939e-02,-5.384175778476404245e-02
1.155999999999999917e+00,1.244141263986000695e-01,-2.278295521602930959e-02,-1.143033121370484878e-01
1.157000000000000028e+00,1.912476835013641324e-02,3.751340321740886247e-02,-1.604634706396979582e-01
1.157999999999999918e+00,-1.224469560036746257e-01,8.444648302509197291e-02,-1.027226190335244205e-01
1.159000000000000030e+00,-2.316936763408544708e-01,6.305270750801986179e-02,-3.954435411320100444e-03
1.159999999999999920e+00,-2.102798795625555051e-01,-1.329631274222733278e-02,9.772612533522141709e-02
1.161000000000000032e+00,-9.082089551611118028e-02,-1.275091709090394043e-01,1.050408915646125207e-01
1.161999999999999922e+00,5.898989548029236196e-02,-1.851676485378573600e-01,6.616409390740840557e-02
1.163000000000000034e+00,1.637903399614180355e-01,-1.466260287250849836e-01,1.407524443514275982e-04
1.163999999999999924e+00,1.900463776459077325e-01,-3.743615572899935962e-02,-3.581630393438079568e-02
1.165000000000000036e+00,9.996178927238000278e-02,8.268500170213372025e-02,-2.433793887743676554e-02
1.165999999999999925e+00,-1.862613122275000310e-02,1.648807323791041113e-01,1.552509054249946556e-02
1.167000000000000037e+00,-8.171770893481936082e-02,1.314107429234457614e-01,6.645377004005473265e-02
1.167999999999999927e+00,-4.826134647825462698e-02,5.742766234506233719e-02,8.909507862803753286e-02
1.169000000000000039e+00,3.825733954924951524e-02,-5.478958697888564044e-02,2.595593775423840621e-02
1.169999999999999929e+00,1.225855809964830206e-01,-6.926695139509297938e-02,-5.928709654973686460e-02
1.171000000000000041e+00,1.044530903119575554e-01,-2.795039121870243268e-02,-1.140626386731256464e-01
1.171999999999999931e+00,7.948816796458096565e-03,5.851148057802899038e-02,-1.315283624395820472e-01
1.173000000000000043e+00,-1.453932870990894133e-01,9.483478014969196068e-02,-8.419837910692340444e-02
1.173999999999999932e+00,-2.260122663528610909e-01,5.308709495899542607e-02,-7.185169476498924450e-03
1.175000000000000044e+00,-2.176469207155165286e-01,-1.178934300287469601e-02,8.157659308734493964e-02
1.175999999999999934e+00,-7.371701047648787641e-02,-1.415835375842333654e-01,1.195556825445843463e-01
1.177000000000000046e+00,1.007193045409441878e-01,-1.821864905921154187e-01,5.900238558968955854e-02
1.177999999999999936e+00,2.083995379299421469e-01,-1.096352450757612645e-01,1.662578188257039791e-02
1.179000000000000048e+00,2.070028109287861129e-01,1.556136716362175633e-02,-3.938664744850889354e-02
1.179999999999999938e+00,1.018172232633813984e-01,1.170654395534448666e-01,-4.359204888551522494e-02
