time,acc_x,acc_y,acc_z
0.000000000000000000e+00,-3.370917380155115106e-01,-2.760504400820938953e-01,-1.766931671923964997e-01
1.000000000000000021e-03,-2.945285428202943367e-01,-1.375484952429057439e-01,-1.948927717216578648e-01
2.000000000000000042e-03,-5.132298267091445904e-02,4.929048045436968534e-02,-1.134676745795834829e-01
3.000000000000000062e-03,1.876780036782899619e-01,2.236141886221034714e-01,2.141278377081809806e-02
4.000000000000000083e-03,3.292321155666407262e-01,2.418922759232132735e-01,1.351214095492892231e-01
5.000000000000000104e-03,2.500214665915625467e-01,1.117075858819101264e-01,2.254436470227538791e-01
6.000000000000000125e-03,4.166102402141599187e-02,-8.759158701762444210e-02,1.147734475961120909e-01
7.000000000000000146e-03,-1.957236371954659548e-01,-2.529013609877789337e-01,-1.303314491047549359e-02
8.000000000000000167e-03,-3.261930146288324339e-01,-2.340561041138491116e-01,-1.532532700689060723e-01
8.999999999999999320e-03,-2.760605644839244088e-01,-1.204609409635398476e-01,-2.348245991000908750e-01
1.000000000000000021e-02,-5.834426794161744201e-02,1.002868794968027888e-01,-1.276746231592094383e-01
1.099999999999999936e-02,1.823413844718565491e-01,2.613688738446285353e-01,2.725257359625592873e-02
1.200000000000000025e-02,3.268087723940391598e-01,2.179561074612300087e-01,1.601552154330663502e-01
1.299999999999999940e-02,2.376034663959508131e-01,6.300488831033933257e-02,1.993605723593390999e-01
1.400000000000000029e-02,2.631940290356027737e-02,-7.762484151560769541e-02,1.249295943720027252e-01
1.499999999999999944e-02,-1.880358647558206808e-01,-2.568955815805223919e-01,-3.190473583590277412e-02
1.600000000000000033e-02,-3.191058984253717368e-01,-2.360302364892833960e-01,-1.603571540061030087e-01
1.700000000000000122e-02,-2.612019271200337611e-01,-7.475352014144868995e-02,-1.778111263084734273e-01
1.799999999999999864e-02,-5.383869408476664453e-02,1.261163526308965444e-01,-1.096581172863094616e-01
1.899999999999999953e-02,2.032378500124525644e-01,2.409434471326488969e-01,-4.510116460165919036e-03
2.000000000000000042e-02,3.251915616196062730e-01,2.190669330137104409e-01,1.383861126268099428e-01
2.100000000000000130e-02,2.461509517748862730e-01,8.431438571020820338e-02,1.899038993441137801e-01
2.199999999999999872e-02,5.101798361319309638e-02,-1.507708462198753818e-01,1.299917730911337166e-01
2.299999999999999961e-02,-2.127209617571373668e-01,-2.367682804561372090e-01,-2.830159845474940553e-02
2.400000000000000050e-02,-2.969806823493234549e-01,-2.009814034451796461e-01,-1.435801880402439723e-01
2.500000000000000139e-02,-2.145187104316330917e-01,-4.737610404237738854e-02,-1.774608995274254419e-01
2.599999999999999881e-02,-2.001789192573924167e-02,1.165070950849756842e-01,-1.187977322761150645e-01
2.699999999999999969e-02,1.986058290283918004e-01,2.316487499183711440e-01,2.464000979186499116e-02
2.800000000000000058e-02,2.673188255152100234e-01,1.769371809500875914e-01,1.482072294487476460e-01
2.900000000000000147e-02,1.928358021615499684e-01,4.492149702995802685e-02,1.734354628572947199e-01
2.999999999999999889e-02,2.247203660560377625e-02,-1.469978459691706485e-01,1.200428739743972378e-01
3.099999999999999978e-02,-1.822122326518921254e-01,-2.219584819995099323e-01,-2.740822414199528545e-02
3.200000000000000067e-02,-2.726069765252873145e-01,-1.489837280233910211e-01,-1.157891914565465086e-01
3.300000000000000155e-02,-1.759494263031165517e-01,-2.598590104126497283e-02,-1.454799814906362343e-01
3.400000000000000244e-02,-3.569124629614344943e-03,1.245393588806563701e-01,-1.202806769664618441e-01
3.500000000000000333e-02,1.634240268241763383e-01,2.134607929419503614e-01,-2.970872194048649381e-03
3.599999999999999728e-02,2.459589673870063720e-01,1.502796886741390725e-01,1.090270156443847588e-01
3.699999999999999817e-02,1.578957276166524093e-01,3.560318997557854279e-03,1.422876023913829391e-01
3.799999999999999906e-02,-1.779637102743103494e-02,-1.295998752370514373e-01,1.137297085092366933e-01
3.899999999999999994e-02,-1.673584012317005931e-01,-1.609023805060757206e-01,-3.605184979290208813e-02
4.000000000000000083e-02,-2.275644860957210247e-01,-1.105824430784739659e-01,-1.194491217862119620e-01
4.100000000000000172e-02,-1.609908874646215904e-01,7.249019545291947655e-03,-1.571973583751541947e-01
4.200000000000000261e-02,9.446063421574384111e-03,1.363989911170522540e-01,-8.231430838013442663e-02
4.299999999999999656e-02,1.666970464695050613e-01,1.707463799739561416e-01,2.253955146062411492e-03
4.399999999999999745e-02,1.983476099028590456e-01,8.228424115482206591e-02,1.044520091577864074e-01
4.499999999999999833e-02,1.117070928722172923e-01,6.789615433210567175e-04,1.097810838532332633e-01
4.599999999999999922e-02,-2.758136032673195667e-02,-1.161786910159633285e-01,7.344242075633712619e-02
4.700000000000000011e-02,-1.470978319066448547e-01,-1.538896025511544696e-01,5.687680475029556135e-03
4.800000000000000100e-02,-1.765666700843591952e-01,-7.797040534708434001e-02,-7.857478401929747502e-02
4.900000000000000189e-02,-1.036318051419421182e-01,3.589003606069988278e-02,-1.080897376006893923e-01
5.000000000000000278e-02,4.477725495778638737e-03,1.084625943152505989e-01,-6.707215319545840881e-02
5.099999999999999672e-02,1.268603191754868742e-01,1.154437454975440480e-01,9.788537356083704122e-03
5.199999999999999761e-02,1.361729676049196480e-01,5.585296829483405584e-02,6.798736396421350969e-02
5.299999999999999850e-02,6.463415395026209098e-02,-4.102335997991449906e-02,7.915180575568235566e-02
5.399999999999999939e-02,-4.183741357243922487e-02,-1.116855971745599613e-01,1.894736185026477809e-02
5.500000000000000028e-02,-1.398375327093892562e-01,-1.091785672108442629e-01,-2.898724937331672788e-02
5.600000000000000117e-02,-1.373571474821627392e-01,-4.346036517776786373e-02,-8.757713622457923008e-02
5.700000000000000205e-02,-2.590691012742803861e-02,4.699459961008708997e-02,-7.475012521427863710e-02
5.800000000000000294e-02,4.903674342827729626e-02,8.590046251224722762e-02,-4.634284870341894708e-02
5.899999999999999689e-02,7.967351379680097379e-02,4.828204793289634505e-02,2.946285265073622997e-02
5.999999999999999778e-02,9.534921786005064182e-02,-6.226111065001274647e-03,3.256358297346868824e-02
6.099999999999999867e-02,3.232603140085107962e-02,-6.566483591017624466e-02,7.765604366503034428e-02
6.199999999999999956e-02,-7.706807317690057835e-02,-9.169760854916481074e-02,2.598871043082504745e-02
6.300000000000000044e-02,-8.370472328038221221e-02,-3.463238381840823277e-02,-2.400207507363057852e-02
6.400000000000000133e-02,-8.990316727422316412e-02,3.884263233355889078e-03,-7.868460128876936244e-02
6.500000000000000222e-02,1.840722871471347707e-02,7.123258607753475691e-02,-5.795947725890317204e-02
6.600000000000000311e-02,5.280516685593037579e-02,6.607039475367819381e-02,-2.671360697718999557e-03
6.700000000000000400e-02,6.913342082491751028e-02,8.945029377030257883e-03,4.172559260344910204e-02
6.800000000000000488e-02,4.792478242369899860e-02,-4.759012530621407888e-02,5.377143804918592396e-02
6.900000000000000577e-02,-2.662767988628795754e-02,-5.094307412599087537e-02,1.300927672190578879e-02
7.000000000000000666e-02,-7.198927076904000633e-02,-4.380234775017155524e-02,1.201032400660486874e-02
7.099999999999999367e-02,-8.758938559525457357e-02,-3.061091659982826535e-02,-2.956093339601817069e-02
7.199999999999999456e-02,-2.132870947945379389e-02,1.904153282577718959e-02,-6.110611201143140853e-02
7.299999999999999545e-02,6.382263252527460573e-02,4.486039496002953986e-02,-1.572362141332807675e-02
7.399999999999999634e-02,7.746080550162028067e-02,2.141165146387704471e-02,2.356285178593952191e-03
7.499999999999999722e-02,5.558999744792223613e-02,-2.965632742160327975e-02,4.268325323903551100e-02
7.599999999999999811e-02,-2.812242689227104769e-02,-6.917698138152567067e-02,6.674159008107176383e-02
7.699999999999999900e-02,-7.302928026926780447e-02,-4.968629925300234451e-02,1.027665521155427322e-02
7.799999999999999989e-02,-6.759315187429389138e-02,-2.204316344401192548e-02,-4.865306340782384747e-02
7.900000000000000078e-02,-5.221401085548246779e-02,6.361738644118722363e-02,-6.883796669936820267e-02
8.000000000000000167e-02,1.244996409064948878e-02,8.576309722718296336e-02,-3.668473718684130136e-02
8.100000000000000255e-02,1.174215093711521718e-01,8.060067714617095980e-02,1.752308649790431869e-02
8.200000000000000344e-02,1.226744380080004720e-01,-1.311640482364673753e-02,4.375608428545500750e-02
8.300000000000000433e-02,2.412244983823402106e-02,-7.112237636156396037e-02,7.553348876814845736e-02
8.400000000000000522e-02,-8.949148488710878535e-02,-1.056504265275289151e-01,3.705735570604563878e-02
8.500000000000000611e-02,-1.123103500626052992e-01,-6.835770784418788992e-02,-5.830065922348202923e-02
8.599999999999999312e-02,-1.116500639376816623e-01,4.576803135231854308e-02,-7.651867665834780063e-02
8.699999999999999400e-02,-1.486646131257725149e-02,1.175829930711859844e-01,-8.948565821276605048e-02
8.799999999999999489e-02,1.050146219538358461e-01,1.187761777614037423e-01,-4.115808958991720723e-02
8.899999999999999578e-02,1.661858376309818530e-01,5.146276787824782123e-02,1.274684158376531394e-02
8.999999999999999667e-02,1.403469152134175779e-01,-4.603222888517325556e-02,8.238232782008933497e-02
9.099999999999999756e-02,-3.886683467868330601e-03,-1.109484989006562783e-01,6.790729356599911615e-02
9.199999999999999845e-02,-1.226941252861929316e-01,-1.284354248523220388e-01,6.981433818808308045e-02
9.299999999999999933e-02,-1.779359094714620948e-01,-6.502100629618565164e-02,-6.131870103768095187e-02
9.400000000000000022e-02,-1.392853154035450791e-01,6.400388996705042022e-02,-1.108748976582417944e-01
9.500000000000000111e-02,-1.983718494326739551e-02,1.648915669958283536e-01,-9.978035714883148888e-02
9.600000000000000200e-02,1.463574638192367827e-01,1.149460524086264868e-01,-4.099945943269797666e-02
9.700000000000000289e-02,2.103011815031617937e-01,3.159191120393486929e-02,2.217827960564821427e-02
9.800000000000000377e-02,1.074837204068172930e-01,-9.538394213356544971e-02,9.316133457109104787e-02
9.900000000000000466e-02,-6.226448275979712052e-03,-1.773541003204912592e-01,1.134481350268332356e-01
1.000000000000000056e-01,-1.690204559538903695e-01,-1.350727625632600626e-01,6.746836228555301573e-02
1.010000000000000064e-01,-2.282896209685364164e-01,-4.315970524380315781e-02,-6.538743723534305718e-02
1.019999999999999934e-01,-1.290235965480120706e-01,9.129391337529597916e-02,-1.280624089194467297e-01
1.029999999999999943e-01,2.060910834214761678e-02,1.849595645672117983e-01,-1.239439677460665301e-01
1.039999999999999952e-01,1.905958263570809441e-01,1.603447037913483253e-01,-5.511364602284835046e-02
1.049999999999999961e-01,2.594180955294141944e-01,5.075319954371917963e-02,5.152497278776068529e-02
1.059999999999999970e-01,1.400900041877524982e-01,-1.468565653125924741e-01,1.367447711546203593e-01
1.069999999999999979e-01,-5.290920078554616629e-02,-2.022422091106114428e-01,1.478704508930179240e-01
1.079999999999999988e-01,-2.079350037843839538e-01,-1.452387126769855152e-01,7.165618249101703141e-02
1.089999999999999997e-01,-2.877292347098787118e-01,-2.745131375005943966e-02,-6.568248522168308734e-02
1.100000000000000006e-01,-1.658826432690502506e-01,1.709784948160779638e-01,-1.660789714307955856e-01
1.110000000000000014e-01,4.368395337105496212e-02,2.172661241727881776e-01,-1.530223177947072632e-01
1.120000000000000023e-01,2.385737794635052200e-01,1.875465651788419397e-01,-9.622325484330192247e-02
1.130000000000000032e-01,2.848757587493606636e-01,1.521580806333033137e-03,6.004450321036159527e-02
1.140000000000000041e-01,1.911934436809355486e-01,-1.374204123450917248e-01,1.616373886259416803e-01
1.150000000000000050e-01,-6.631111966265970659e-02,-2.413500407621382848e-01,1.615973132526062617e-01
1.160000000000000059e-01,-2.385811645514646639e-01,-1.711070133716276753e-01,6.609530856716107350e-02
1.170000000000000068e-01,-2.930581451510513857e-01,-1.349685928944780421e-02,-7.690795080676010587e-02
1.179999999999999938e-01,-1.575754487906916856e-01,1.852280286028184231e-01,-1.709606018905511782e-01
1.189999999999999947e-01,5.399556529808260952e-02,2.716879240022237463e-01,-1.729318516983108234e-01
1.199999999999999956e-01,2.682889702810133947e-01,1.668198742310012805e-01,-8.268801916161272469e-02
1.209999999999999964e-01,3.247150135944742999e-01,-4.392928777468330798e-02,6.891280563260944458e-02
1.219999999999999973e-01,1.351955040012155773e-01,-1.905197336241561124e-01,1.809863388981549637e-01
1.229999999999999982e-01,-4.625841833370678002e-02,-2.623549518953688375e-01,1.827287379573935555e-01
1.239999999999999991e-01,-2.721644491080910666e-01,-1.606510454109875974e-01,6.949790443576556176e-02
1.250000000000000000e-01,-2.839290844109024770e-01,1.621374832968622282e-02,-9.467680862546637433e-02
1.260000000000000009e-01,-1.607280776925359422e-01,1.898547461824073856e-01,-1.791983267011289516e-01
1.270000000000000018e-01,1.000853438976859605e-01,2.814713328089009092e-01,-1.786321567895499673e-01
1.280000000000000027e-01,2.556080415399031858e-01,1.688230318368425520e-01,-8.766804793979350585e-02
1.290000000000000036e-01,3.360653305199707286e-01,-4.438434418226894218e-02,7.718000489623932925e-02
1.300000000000000044e-01,1.803452025806560888e-01,-2.329412868271175940e-01,2.007505882229160266e-01
1.310000000000000053e-01,-7.960560261985473451e-02,-2.685137380342725311e-01,1.984838083800385955e-01
1.320000000000000062e-01,-2.920002720088538672e-01,-1.518205641614405743e-01,1.212808404692440334e-01
1.330000000000000071e-01,-3.102713696240670394e-01,3.132359414731580166e-02,-5.895382279349969945e-02
1.340000000000000080e-01,-1.776792099985070594e-01,2.221550860345503364e-01,-1.764460855671073913e-01
1.350000000000000089e-01,9.013639041528233309e-02,2.648629472419289366e-01,-1.928285307755404632e-01
1.360000000000000098e-01,2.810860313515345377e-01,1.738960361445461844e-01,-1.191077505328023839e-01
1.370000000000000107e-01,3.371644071906191309e-01,-8.838786210356085193e-02,8.794997811003733845e-02
1.380000000000000115e-01,1.673844585806787688e-01,-2.264450286983918370e-01,1.703950204426732673e-01
1.390000000000000124e-01,-9.759844027314282244e-02,-2.871101126338762577e-01,2.139153939583054442e-01
1.400000000000000133e-01,-3.107501833404847091e-01,-1.144510855157282320e-01,9.830883910354944188e-02
1.409999999999999865e-01,-3.015872907612353604e-01,9.358411996250276532e-02,-9.538812756248597757e-02
1.419999999999999873e-01,-1.505329937744856184e-01,2.705630574413144807e-01,-1.933467889102242765e-01
1.429999999999999882e-01,1.064910375771285778e-01,2.269114880470048390e-01,-2.088165555445940791e-01
1.439999999999999891e-01,2.906143554313020960e-01,1.089917925305012164e-01,-1.183281380257773518e-01
1.449999999999999900e-01,3.428167126020941202e-01,-9.354549591020581978e-02,7.206123958553536935e-02
1.459999999999999909e-01,1.649128794477507098e-01,-2.352846837128062807e-01,1.835882764702390368e-01
1.469999999999999918e-01,-1.141138089475881440e-01,-2.571923069885301838e-01,1.927005617785765568e-01
1.479999999999999927e-01,-2.918890083152713699e-01,-1.140471071404715042e-01,9.330463667646858583e-02
1.489999999999999936e-01,-3.364345005295052982e-01,9.414199968025160903e-02,-3.068379941282908807e-02
1.499999999999999944e-01,-1.528893906890927967e-01,2.497665738072622765e-01,-1.847087113425211202e-01
1.509999999999999953e-01,1.292924676453849342e-01,2.349084898608472805e-01,-2.082503845406293297e-01
1.519999999999999962e-01,2.816714944271207499e-01,1.068390111490426231e-01,-8.850354558294798446e-02
1.529999999999999971e-01,3.147452528123203530e-01,-1.030533211171833774e-01,4.573857104036337107e-02
1.539999999999999980e-01,1.396916441341823634e-01,-2.368899088425050203e-01,1.381860564946356118e-01
1.549999999999999989e-01,-1.109663074035829033e-01,-2.405864710492383041e-01,2.086702877352522301e-01
1.559999999999999998e-01,-2.975222867730505927e-01,-6.163268389062329100e-02,9.667562748630054159e-02
1.570000000000000007e-01,-2.978597542033225021e-01,1.324752446597503019e-01,-6.392809713030764285e-02
1.580000000000000016e-01,-1.442140160383077740e-01,2.320840551521121398e-01,-1.581386643286029903e-01
1.590000000000000024e-01,1.042647787073821969e-01,2.183994354466001764e-01,-2.059094881503486241e-01
1.600000000000000033e-01,2.787534774436879470e-01,5.154857142735648490e-02,-1.355292589360577171e-01
1.610000000000000042e-01,2.911114594652305931e-01,-1.383405435510220161e-01,6.889498616334630010e-02
1.620000000000000051e-01,1.322038702905573848e-01,-2.311083645846172263e-01,1.749032929114515966e-01
1.630000000000000060e-01,-1.027358179849165998e-01,-2.326063893698011587e-01,1.509273118372259359e-01
1.640000000000000069e-01,-2.794795566195897862e-01,-4.448056232435641799e-02,1.143519684121274832e-01
1.650000000000000078e-01,-2.764095328972619448e-01,1.173008094293550851e-01,-5.068017177465944031e-03
1.660000000000000087e-01,-1.117528173694220944e-01,2.263045174257757586e-01,-1.341058097769254054e-01
1.670000000000000095e-01,9.287591275061821139e-02,1.675737398624954355e-01,-1.665259258826975730e-01
1.680000000000000104e-01,2.650061727384769861e-01,2.507951002292896706e-02,-9.325963617186470989e-02
1.690000000000000113e-01,2.324284630377874694e-01,-1.194719040752472289e-01,4.668138705106458786e-02
1.700000000000000122e-01,1.237472530318899366e-01,-2.087838124324526423e-01,1.079690101553934523e-01
1.710000000000000131e-01,-1.013818951457731710e-01,-1.637176606536363266e-01,2.016886436175746589e-01
1.719999999999999862e-01,-2.848028908707542217e-01,-7.340834934366483565e-03,1.083114385874926339e-01
1.729999999999999871e-01,-2.239600533961620676e-01,1.375230673189968833e-01,-6.510529717468921396e-02
1.739999999999999880e-01,-6.570545823720201628e-02,1.879281976750903915e-01,-1.174660310452962791e-01
1.749999999999999889e-01,1.025252361011285973e-01,1.230242977425049095e-01,-1.710086883912110001e-01
1.759999999999999898e-01,2.452496269558845920e-01,1.642062725985012680e-03,-9.166114617876348902e-02
1.769999999999999907e-01,2.425756806270270849e-01,-1.198119195182141966e-01,3.985706867855234176e-02
1.779999999999999916e-01,5.145508751140496356e-02,-1.930288939497291634e-01,1.175353864099974721e-01
1.789999999999999925e-01,-9.842859922096740266e-02,-1.093334821953784175e-01,1.688062241761108528e-01
1.799999999999999933e-01,-2.198230809074528669e-01,1.500959503330776164e-02,9.566841321247734897e-02
1.809999999999999942e-01,-2.025596079771205260e-01,1.420815914499504451e-01,-4.792784462391489614e-02
1.819999999999999951e-01,-5.402783464761979487e-02,1.736847345703333434e-01,-1.101565858002471754e-01
1.829999999999999960e-01,8.704794027510005805e-02,7.364276177057399453e-02,-1.261518051762836046e-01
1.839999999999999969e-01,1.966525389250780020e-01,-2.912974756367018095e-02,-9.012493839253812866e-02
1.849999999999999978e-01,1.801207351415689828e-01,-1.105635211691488595e-01,1.813243416889917178e-02
1.859999999999999987e-01,6.788941994362848731e-02,-1.720567254902807819e-01,1.097136184334567832e-01
1.869999999999999996e-01,-1.087296341759447227e-01,-7.691057745348728325e-02,1.194335449574566166e-01
1.880000000000000004e-01,-1.647497116942469864e-01,2.028539479873958315e-02,7.227892980669405054e-02
1.890000000000000013e-01,-1.294469188708828600e-01,9.951550575567111312e-02,-2.259018887643824205e-02
1.900000000000000022e-01,8.008097350384891719e-03,1.032193133950873726e-01,-1.063244116597204109e-01
1.910000000000000031e-01,1.040001817493743513e-01,4.162035099414827799e-02,-1.069253023858084128e-01
1.920000000000000040e-01,1.735281218331683473e-01,-4.609536059339614661e-02,-5.093127754511755229e-02
1.930000000000000049e-01,1.215761718112877143e-01,-1.084513419608545831e-01,3.063371932779500317e-02
1.940000000000000058e-01,2.858553829458294546e-02,-1.249620821070256821e-01,8.845261407835555700e-02
1.950000000000000067e-01,-1.327925454606611322e-01,-3.767602100981970459e-02,7.997905842234928619e-02
1.960000000000000075e-01,-1.380269347108925015e-01,6.685399544354511669e-02,6.274822159614115713e-02
1.970000000000000084e-01,-1.030642305780167800e-01,8.574158495420887427e-02,-2.068256448144539100e-02
1.980000000000000093e-01,9.680031095261087612e-03,7.344235923450760650e-02,-5.206673872803612574e-02
1.990000000000000102e-01,1.165722595907072584e-01,7.658032158156871660e-03,-8.280752413813056989e-02
2.000000000000000111e-01,1.236280783936344330e-01,-6.061676750528773028e-02,-1.195704372690192287e-02
2.010000000000000120e-01,6.821278162455383931e-02,-7.148945840379319905e-02,2.459343423644315754e-02
2.020000000000000129e-01,-2.249472676983943834e-02,-4.880820212543542091e-02,5.563529222046101341e-02
2.030000000000000138e-01,-1.049122084303251851e-01,2.207672779804480470e-02,7.305880508767625958e-02
2.039999999999999869e-01,-8.659722301703302871e-02,6.531164130912349430e-02,1.697030881279367256e-02
2.049999999999999878e-01,-5.320746465534214459e-02,6.562835297722822980e-02,-4.868475467055433104e-02
2.059999999999999887e-01,5.904065368242480266e-02,5.070740203137390212e-02,-4.907764323409815471e-02
2.069999999999999896e-01,7.231486456542968178e-02,-5.741086635069692079e-02,-3.010949467790462880e-02
2.079999999999999905e-01,9.739978827944344164e-02,-5.901239774546121475e-02,2.151442102246311702e-02
2.089999999999999913e-01,2.282361601311124269e-02,-2.468895287684503073e-02,3.914122114967574090e-02
2.099999999999999922e-01,-7.433426766543760333e-02,-8.661933114244365836e-03,3.566827905122214870e-02
2.109999999999999931e-01,-1.162866194722128182e-01,6.431759551224905391e-02,1.451260905451309813e-02
2.119999999999999940e-01,-5.130586163567719959e-02,9.067851223293145468e-02,2.272432164443746044e-02
2.129999999999999949e-01,3.882058503590057191e-02,4.131027374822181936e-02,-5.735803394258612298e-02
2.139999999999999958e-01,1.026086620021300633e-01,-3.415742014277897698e-02,-4.056530488957506980e-02
2.149999999999999967e-01,7.396181398122893269e-02,-8.316828761267852643e-02,-1.000809789913839100e-02
2.159999999999999976e-01,3.843617172094143750e-03,-7.508896415818314130e-02,2.368331138499351132e-02
2.169999999999999984e-01,-6.103625111804775183e-02,-2.120302472506646607e-02,3.035985634784331769e-02
2.179999999999999993e-01,-9.103066466440616622e-02,4.976357452180475704e-02,6.168789947452164163e-02
2.190000000000000002e-01,-5.398577496894111510e-02,7.839734729700119364e-02,-1.042967728645656511e-03
2.200000000000000011e-01,1.732972786171202775e-02,5.907828562799825184e-02,-5.127088408206424003e-02
2.210000000000000020e-01,1.099734164247757051e-01,-3.932701512908080843e-03,-7.734057120831291932e-02
2.220000000000000029e-01,1.092515590629846850e-01,-8.141019921029556128e-02,-4.212502916081473092e-02
2.230000000000000038e-01,6.117279343878447018e-02,-1.299940608396045472e-01,2.011340437041127596e-02
2.240000000000000047e-01,-3.219036652068592991e-02,-7.242116759260941450e-02,9.512529949441227151e-02
2.250000000000000056e-01,-1.203656039916802534e-01,2.803252712625877580e-02,4.714802608195100414e-02
2.260000000000000064e-01,-1.253007395212953901e-01,9.759251654107564677e-02,2.937629649060110454e-02
2.270000000000000073e-01,-7.185558253296581155e-02,1.098333181011928172e-01,-2.261846875875305959e-02
2.280000000000000082e-01,5.073501138619669615e-02,7.097720810220070620e-02,-8.352327225225814056e-02
2.290000000000000091e-01,1.408705075444803001e-01,-9.069397060579211661e-03,-8.286474234946070161e-02
2.300000000000000100e-01,1.817522345937460093e-01,-1.454925492497592954e-01,-3.602643734525663027e-02
2.310000000000000109e-01,7.185276298316668753e-02,-1.415351493589888932e-01,5.747942953055644455e-02
2.320000000000000118e-01,-9.054181675174199917e-02,-7.362690776193787923e-02,8.387550176922545231e-02
2.330000000000000127e-01,-1.668849531544859821e-01,7.070155654143756019e-02,8.204511649784042293e-02
2.340000000000000135e-01,-1.666792117497241099e-01,1.590364038174284511e-01,1.489437078836827744e-02
2.349999999999999867e-01,-1.565585819663040112e-02,1.467028843430223106e-01,-5.164586460685949981e-02
2.359999999999999876e-01,1.032796332601224609e-01,2.983388853119183295e-02,-1.113466060933008817e-01
2.369999999999999885e-01,2.076600913570178508e-01,-7.308416367808230618e-02,-1.237957771795964168e-01
2.379999999999999893e-01,2.038992629160663317e-01,-1.656444510272572779e-01,-5.277695651852810921e-02
2.389999999999999902e-01,8.961049735803185146e-02,-1.683476128288815543e-01,7.701173726042491452e-02
2.399999999999999911e-01,-1.108856704899980478e-01,-4.571127123990087471e-02,1.123708908110573057e-01
2.409999999999999920e-01,-2.146599357390316654e-01,1.051454040529911788e-01,1.289424411771109280e-01
2.419999999999999929e-01,-1.894807944581540504e-01,1.913167799250840295e-01,4.698857792169795072e-02
2.429999999999999938e-01,-4.099947162215734908e-02,1.698195217963411052e-01,-5.162158943973221836e-02
2.439999999999999947e-01,1.254872750024321193e-01,1.858543336264798992e-02,-1.322033259330984423e-01
2.449999999999999956e-01,2.503582028748552180e-01,-1.124922744245219625e-01,-1.299474479935354698e-01
2.459999999999999964e-01,2.101220639979421434e-01,-1.787869587286561868e-01,-5.042914207197492921e-02
2.469999999999999973e-01,3.224187161102902432e-02,-1.766038852505444345e-01,6.107221236123717284e-02
2.479999999999999982e-01,-1.531500158822220736e-01,-5.004933321204083768e-02,1.458216076073268197e-01
2.489999999999999991e-01,-2.611249203520392137e-01,1.208662525521692621e-01,1.366532025610514844e-01
2.500000000000000000e-01,-1.891802785681616361e-01,2.185765992426457749e-01,2.234016543070259722e-02
2.510000000000000009e-01,-2.803679653425757146e-02,1.557691157248329850e-01,-8.281632008241554543e-02
2.520000000000000018e-01,1.550786616456156231e-01,4.130954179752743816e-02,-1.738830611757826994e-01
2.530000000000000027e-01,2.928415236798734833e-01,-1.521725847249902619e-01,-1.475540980013566594e-01
2.540000000000000036e-01,2.248406184294155508e-01,-2.264638432006345348e-01,-2.296164021858051324e-02
2.550000000000000044e-01,9.598178481162913944e-03,-1.746147698465748965e-01,8.948490246312730545e-02
2.560000000000000053e-01,-1.949047750684278490e-01,1.525512494773233196e-02,1.500662555151949795e-01
2.570000000000000062e-01,-2.961646733102288320e-01,1.903479704765048131e-01,1.459779219499103831e-01
2.580000000000000071e-01,-2.481888269562571858e-01,2.488485939322927221e-01,5.479131075170334819e-02
2.590000000000000080e-01,-4.597810503355199280e-02,1.791099887790170986e-01,-8.067563294962704079e-02
2.600000000000000089e-01,1.854496495526924693e-01,4.602368913720416080e-03,-1.655106177960047609e-01
2.610000000000000098e-01,3.236787679498908665e-01,-1.978922234249816114e-01,-1.577796929046315633e-01
2.620000000000000107e-01,2.423198846658712879e-01,-2.759539245897598136e-01,-6.363997761798080577e-02
2.630000000000000115e-01,3.064357950467297767e-02,-1.441555918542404002e-01,1.133014965147356307e-01
2.640000000000000124e-01,-2.084973536093981672e-01,3.954424321929513042e-02,1.894651284934375235e-01
2.650000000000000133e-01,-3.481534025004529576e-01,1.850620395039062338e-01,1.641684797631441650e-01
2.660000000000000142e-01,-2.569325994014191039e-01,2.814880895185499221e-01,4.752591304028946223e-02
2.670000000000000151e-01,-9.523072585086738220e-03,1.452977903470663856e-01,-1.062268655259813316e-01
2.680000000000000160e-01,2.213981000466036242e-01,-5.359340776194332356e-02,-1.832758671236688619e-01
2.690000000000000169e-01,3.083321198187687351e-01,-2.215446378219057544e-01,-1.842086037029803947e-01
2.700000000000000178e-01,2.422586017507197265e-01,-2.588337757622984903e-01,-4.311760556483248963e-02
2.710000000000000187e-01,3.140325467690784078e-02,-1.710483515358989237e-01,9.857980255390581814e-02
2.720000000000000195e-01,-2.027525228562672699e-01,5.470574947791852216e-02,1.770615221243216075e-01
2.730000000000000204e-01,-3.396098093020415432e-01,2.374593691594395484e-01,1.704540607449638867e-01
2.740000000000000213e-01,-2.595389545341987292e-01,2.952002050943284828e-01,8.215530536041094900e-02
2.750000000000000222e-01,-1.404501424428735053e-02,1.473707725417719161e-01,-1.119289712863266173e-01
2.760000000000000231e-01,2.304076645143194324e-01,-4.355508602145648223e-02,-1.977550568771528627e-01
2.770000000000000240e-01,3.486544072352125712e-01,-2.168468825761933061e-01,-1.922524869721762286e-01
2.780000000000000249e-01,2.497046944302055427e-01,-2.705426393221673775e-01,-5.340733743752248963e-02
2.790000000000000258e-01,1.933886265584835312e-02,-1.137790350802244249e-01,6.183907149632496963e-02
2.800000000000000266e-01,-2.300218699043063419e-01,6.748127449299827496e-02,2.009083724350445299e-01
2.810000000000000275e-01,-3.331736767450090841e-01,2.361666163045682276e-01,1.990109454444236314e-01
2.819999999999999729e-01,-2.274706576643125699e-01,2.763022604694710394e-01,5.136503426868577887e-02
2.829999999999999738e-01,2.592171716423942798e-02,1.220417747927899227e-01,-7.540986906991432870e-02
2.839999999999999747e-01,2.300302858790587157e-01,-8.039435976747143220e-02,-1.992545936418388675e-01
2.849999999999999756e-01,3.219688126824105656e-01,-2.251490118758739667e-01,-1.833212915940935495e-01
2.859999999999999765e-01,2.659316857233305909e-01,-2.374143083714753411e-01,-6.100665279320693912e-02
2.869999999999999774e-01,2.378266959709352327e-03,-1.153071436589600124e-01,7.869140706667841767e-02
2.879999999999999782e-01,-2.238888211362265734e-01,1.184220746805700331e-01,2.010705983354247606e-01
2.889999999999999791e-01,-3.219802524337981864e-01,2.621821770447663735e-01,1.821696315075026218e-01
2.899999999999999800e-01,-2.365536393389846281e-01,2.590640090083694558e-01,6.853439214745163377e-02
2.909999999999999809e-01,1.897822681472152717e-02,1.006307047729369381e-01,-8.840441524281601737e-02
2.919999999999999818e-01,2.225640802719687228e-01,-9.661833037156272730e-02,-1.912877158119340726e-01
2.929999999999999827e-01,3.299220480993026450e-01,-2.913287681530642992e-01,-1.929652323181940132e-01
2.939999999999999836e-01,2.172733943008774427e-01,-2.284583900139759705e-01,-8.105802514294774275e-02
2.949999999999999845e-01,-1.935050011569098075e-02,-1.039085031195100262e-01,8.716374151215512678e-02
2.959999999999999853e-01,-2.548725937994577029e-01,1.191970326623982279e-01,1.658095368169499595e-01
2.969999999999999862e-01,-3.182366394439277713e-01,2.638454526947891510e-01,1.831824603538536322e-01
2.979999999999999871e-01,-2.448315331807431050e-01,2.159345166139392258e-01,7.489805167680257947e-02
2.989999999999999880e-01,1.425017135908469498e-02,6.886418069124930486e-02,-9.029877668176662653e-02
2.999999999999999889e-01,2.332913267737494190e-01,-9.947546334979019689e-02,-1.896917391028383471e-01
3.009999999999999898e-01,3.115229838610998336e-01,-1.768398568751276267e-01,-1.775730926045991087e-01
3.019999999999999907e-01,2.032118951945831309e-01,-1.817296974994976333e-01,-6.043911502488234083e-02
3.029999999999999916e-01,1.574483930563821965e-03,-6.017063392772879077e-02,5.462000577377532778e-03
3.039999999999999925e-01,-2.146832268618609763e-01,1.243347356271842508e-01,1.749923408083087495e-01
3.049999999999999933e-01,-2.829437766365964224e-01,2.006085766913121016e-01,1.838962937027061595e-01
3.059999999999999942e-01,-1.902303694698331826e-01,2.013803195834495130e-01,9.530766922856574730e-02
3.069999999999999951e-01,5.131133365043718392e-02,5.935455362817700087e-02,-4.923927587842290982e-02
3.079999999999999960e-01,2.347592728944195850e-01,-1.429010539136342517e-01,-1.666208125730284650e-01
3.089999999999999969e-01,2.600017313688436915e-01,-2.162524045450152088e-01,-1.654522770441066437e-01
3.099999999999999978e-01,1.668350033066622329e-01,-1.536944960435925600e-01,-7.551837947539442875e-02
3.109999999999999987e-01,-4.953603955249961596e-03,-3.255593937024280071e-02,5.412676375480716257e-02
3.119999999999999996e-01,-2.292974364741790227e-01,1.192073872485472363e-01,1.585485394759005295e-01
3.130000000000000004e-01,-2.525182867428899525e-01,1.822867070754181085e-01,1.698124012931999938e-01
3.140000000000000013e-01,-1.400629843435649835e-01,1.283112168873101477e-01,8.489084844856477352e-02
3.150000000000000022e-01,5.606496896280131759e-02,2.529458529135182598e-02,-4.848772468587460999e-02
3.160000000000000031e-01,2.192390325604778589e-01,-1.396058398721619631e-01,-1.114776481607672037e-01
3.170000000000000040e-01,2.463396670459634397e-01,-1.953963863297931425e-01,-1.373633639741523582e-01
3.180000000000000049e-01,1.164791091564974512e-01,-1.357920973182701885e-01,-1.039510296567249248e-01
3.190000000000000058e-01,-4.326654872215358189e-02,7.430965559535090449e-03,4.164039623977551507e-02
3.200000000000000067e-01,-1.868300020459592314e-01,1.223776039224359347e-01,1.389882658068788135e-01
3.210000000000000075e-01,-2.337139498037464902e-01,1.430342753067682104e-01,1.429467251520914750e-01
3.220000000000000084e-01,-1.160135138503855662e-01,8.187196769974286470e-02,7.646628342195227468e-02
3.230000000000000093e-01,5.387866273225440372e-02,7.464857157080446613e-04,-3.907342869790952217e-02
3.240000000000000102e-01,1.837340270038412826e-01,-1.190448722835806966e-01,-1.136975409801600362e-01
3.250000000000000111e-01,1.870898646126139264e-01,-1.667578129297766776e-01,-9.870579315328791015e-02
3.260000000000000120e-01,1.045176376587527850e-01,-1.057421845882503958e-01,-5.987690233965262121e-02
3.270000000000000129e-01,-6.760734289256187246e-02,2.543845558390845155e-02,3.981026560629061239e-02
3.280000000000000138e-01,-1.391295347446359909e-01,1.020400277513227871e-01,7.667245641434984604e-02
3.290000000000000147e-01,-1.315213121380273131e-01,1.354688633075705750e-01,1.153108172063276454e-01
3.300000000000000155e-01,-6.710904933030187314e-02,5.986243389278939758e-02,2.089375406244196529e-02
3.310000000000000164e-01,5.546743978369232664e-02,-1.784662997375192905e-02,-3.381377772264135273e-02
3.320000000000000173e-01,1.435720460261240006e-01,-9.271012116394980462e-02,-1.074753340750212310e-01
3.330000000000000182e-01,1.609598441515435463e-01,-9.117051507859248727e-02,-1.074523707862884703e-01
3.340000000000000191e-01,7.763339826153831114e-02,-1.600954176415776350e-02,-4.724864560938801111e-02
3.350000000000000200e-01,-6.736106861558827097e-02,5.902074503350911161e-02,4.846848206472072901e-02
3.360000000000000209e-01,-1.492642432110043438e-01,8.701337873439222992e-02,1.014379990318235863e-01
3.370000000000000218e-01,-1.081513695419810683e-01,5.623550828114235595e-02,8.728408380083606255e-02
3.380000000000000226e-01,-2.864131563386006912e-02,1.289447354371964054e-02,2.066212991604549076e-02
3.390000000000000235e-01,7.085087076041789167e-02,-7.862820178559239148e-02,-3.927455500178780173e-02
3.400000000000000244e-01,1.382511923496187733e-01,-9.799258109976340114e-02,-6.423700271424948038e-02
3.410000000000000253e-01,4.488975553278629071e-02,-5.567206504877604545e-02,-4.110167910754421866e-02
3.420000000000000262e-01,-1.331541147038176054e-02,2.273402025171732642e-03,-2.123212625845874880e-03
3.430000000000000271e-01,-6.411783952681991694e-02,5.980967018989178513e-02,3.872892903295080402e-02
3.439999999999999725e-01,-1.280213460028396533e-01,4.753651564950702596e-02,7.083445512376720932e-02
3.449999999999999734e-01,-5.534720204041615466e-02,2.849392771467845406e-02,6.166133127903034028e-02
3.459999999999999742e-01,7.681571248881938598e-04,-4.615696643522210207e-02,3.605165577712746042e-04
3.469999999999999751e-01,9.365050283162458522e-02,-6.625364141597707424e-02,-2.924396813419252381e-02
3.479999999999999760e-01,8.812862997553200239e-02,-5.262074682186291402e-02,-6.044247892313238391e-02
3.489999999999999769e-01,2.908514857245404414e-02,1.760696848971752757e-02,-4.007290832981516560e-02
3.499999999999999778e-01,-3.268127628110674421e-02,6.499112942701998352e-02,1.207862799583279620e-02
3.509999999999999787e-01,-1.010129342824490767e-01,6.584317527661710800e-02,5.715961711291768499e-02
3.519999999999999796e-01,-5.187749528239184865e-02,3.575695546149303822e-02,2.397039751351059955e-02
3.529999999999999805e-01,1.891542054576291279e-02,-3.362014961028626098e-02,1.801777738306006155e-02
3.539999999999999813e-01,6.639044721670825377e-02,-6.775760762863813902e-02,-1.593170459934252839e-02
3.549999999999999822e-01,1.088430898558778726e-01,-5.323898673674187787e-02,-4.075385232355530768e-02
3.559999999999999831e-01,6.503748645042949084e-02,-7.493511089441205753e-03,-2.272255332210143183e-02
3.569999999999999840e-01,-4.326060181522946996e-02,3.508205874373025723e-02,1.108682299398271696e-02
3.579999999999999849e-01,-1.185541728884232510e-01,8.437012082346879993e-02,4.468217661683736297e-02
3.589999999999999858e-01,-9.666752980062806588e-02,5.835522990011078603e-02,4.979847590227918369e-02
3.599999999999999867e-01,-4.238225944828157704e-02,4.604872418248604675e-04,5.054801364100913047e-02
3.609999999999999876e-01,4.467260352626917230e-02,-8.793328660101075445e-02,-7.439133640395226114e-04
3.619999999999999885e-01,1.321745741208058267e-01,-9.283096912208239904e-02,-3.748812289306770185e-02
3.629999999999999893e-01,1.037423010337859275e-01,-6.867555771060593339e-02,-4.284261668072965323e-02
3.639999999999999902e-01,-1.268768747068042997e-02,1.580472716555906057e-02,-5.218004157649257929e-02
3.649999999999999911e-01,-7.692831408485334421e-02,9.842302551722686976e-02,3.238596444939017410e-02
3.659999999999999920e-01,-1.525013936871291720e-01,1.227571406679215799e-01,5.530051518896871715e-02
3.669999999999999929e-01,-8.491886330816784956e-02,9.135481648392497489e-02,8.431505165307617844e-02
3.679999999999999938e-01,6.342775311099563794e-03,-3.514895353657476740e-02,-1.083180242457401111e-02
3.689999999999999947e-01,9.914642375186637213e-02,-1.509193929822203462e-01,-3.926541454948430376e-02
3.699999999999999956e-01,1.740354718989868543e-01,-1.307146272833377421e-01,-6.826200503595519775e-02
3.709999999999999964e-01,9.035601330566324363e-02,-5.900800900697764778e-02,-4.653680722264989800e-02
3.719999999999999973e-01,-1.263902718857217063e-02,7.561640141713200924e-02,-2.102890318590714541e-02
3.729999999999999982e-01,-1.574263367229652988e-01,1.511711199064960931e-01,6.578419735677190627e-02
3.739999999999999991e-01,-1.832720095040792641e-01,1.655902302915580881e-01,1.054242422489086589e-01
3.750000000000000000e-01,-8.824255493129314065e-02,3.739485559515731000e-02,8.166711505744211896e-02
3.760000000000000009e-01,1.778032849716535899e-02,-7.265804679324350257e-02,4.794277464336656885e-02
3.770000000000000018e-01,1.677163129779503103e-01,-1.914230813079589033e-01,-7.668644054644339902e-02
3.780000000000000027e-01,1.915530254744351735e-01,-1.517371458393128314e-01,-9.096350686451155909e-02
3.790000000000000036e-01,1.443771603406373005e-01,-4.089172535322966456e-02,-1.158605493127120717e-01
3.800000000000000044e-01,-6.384469127558957402e-02,8.071233792576913701e-02,-1.449573983377111519e-02
3.810000000000000053e-01,-2.022953568146289849e-01,2.162342257622429653e-01,1.172455635299553961e-01
3.820000000000000062e-01,-2.312634012830258046e-01,1.454465307183306078e-01,1.312832131278585390e-01
3.830000000000000071e-01,-1.314503458487976950e-01,1.189916752999745433e-02,1.021148811309438159e-01
3.840000000000000080e-01,8.209015515171225186e-02,-1.242954659336166223e-01,6.217830748192720858e-02
3.850000000000000089e-01,2.137806702593011421e-01,-2.172397099834866008e-01,-9.349828657367592610e-02
3.860000000000000098e-01,2.369703610338275701e-01,-1.616747452103577676e-01,-1.365690058932670647e-01
3.870000000000000107e-01,1.036079075393190468e-01,-2.524959981958778410e-02,-1.239020950067797749e-01
3.880000000000000115e-01,-7.115886465361216662e-02,1.381687276142133103e-01,7.005958991505139774e-03
3.890000000000000124e-01,-2.498356162225513766e-01,2.395078969457747065e-01,1.047519916985577559e-01
3.900000000000000133e-01,-2.742502964828321677e-01,1.666441929563961533e-01,1.566623927219099321e-01
3.910000000000000142e-01,-1.102558194998833480e-01,2.884202611066771435e-02,1.062283178573257270e-01
3.920000000000000151e-01,7.866381728924047578e-02,-1.786743268588876499e-01,3.271090117311579309e-02
3.930000000000000160e-01,2.656147747847731888e-01,-2.446075435200193438e-01,-1.104731148170883526e-01
3.940000000000000169e-01,2.677204649829437177e-01,-1.883743054957914276e-01,-1.541229759140353706e-01
3.950000000000000178e-01,1.178086620763828529e-01,3.155527057679114941e-03,-1.196201712069181883e-01
3.960000000000000187e-01,-1.068230701637678109e-01,1.858497195654842671e-01,-4.786295818431850896e-02
3.970000000000000195e-01,-3.014604223259064186e-01,2.439052765138059464e-01,1.155782792124078057e-01
3.980000000000000204e-01,-2.710573395813076769e-01,1.509342495105855664e-01,2.006502560215563669e-01
3.990000000000000213e-01,-1.853066396958221451e-01,-2.874893028773116768e-02,1.445576799818844294e-01
4.000000000000000222e-01,9.826854265982262748e-02,-1.777622228442926888e-01,7.412282641933139529e-03
4.010000000000000231e-01,2.852790904440270503e-01,-2.590959093992489803e-01,-9.367485910266845628e-02
4.020000000000000240e-01,2.747705287504987326e-01,-1.787374986925422682e-01,-1.719810125335471118e-01
4.030000000000000249e-01,1.154350891899779269e-01,3.678300839897910568e-02,-1.533804177168662242e-01
4.040000000000000258e-01,-1.259332750850665761e-01,1.943079808125381114e-01,-3.151332526311773768e-02
4.050000000000000266e-01,-3.153251165654802901e-01,2.737256516450256028e-01,8.826625908775044549e-02
4.060000000000000275e-01,-3.110986994446831577e-01,1.650168267485534468e-01,1.930164074353655224e-01
4.069999999999999729e-01,-1.517910813112730850e-01,-5.890869352008599319e-03,1.524817932689344624e-01
4.079999999999999738e-01,1.108796253120074710e-01,-1.678554826282875057e-01,1.299551258752398505e-02
4.089999999999999747e-01,3.072955010822700506e-01,-2.617318202456073162e-01,-1.308892184970555927e-01
4.099999999999999756e-01,2.939171830315681633e-01,-1.623807799218605907e-01,-2.035010557821854138e-01
4.109999999999999765e-01,1.333968125268434890e-01,3.412886076471244312e-02,-1.261571257607921048e-01
4.119999999999999774e-01,-1.413748201535134641e-01,2.359893980169536498e-01,-1.072073766552998283e-02
4.129999999999999782e-01,-3.053732995499716663e-01,2.629981409681928506e-01,1.200418157810353298e-01
4.139999999999999791e-01,-3.116741583782556280e-01,1.354200850083152052e-01,2.041694360533335417e-01
4.149999999999999800e-01,-1.015509965661576947e-01,-7.063369453201322201e-02,2.016315317261744289e-01
4.159999999999999809e-01,1.577452483232353320e-01,-2.274442040396613685e-01,3.431252527486310100e-02
4.169999999999999818e-01,3.207589795926650278e-01,-2.921095359364175859e-01,-1.198141570853751281e-01
4.179999999999999827e-01,3.345314602437773899e-01,-1.641118110417266185e-01,-2.099552050970710237e-01
4.189999999999999836e-01,1.256927500231361794e-01,8.751798822747089424e-02,-1.703968053630229573e-01
4.199999999999999845e-01,-1.431174583118460519e-01,2.336479316951166341e-01,-5.231233976992102214e-02
4.209999999999999853e-01,-3.491626989007044490e-01,2.518103502271086258e-01,1.193432282226104535e-01
4.219999999999999862e-01,-3.224797571400286889e-01,1.048183177825613710e-01,2.056045815309918146e-01
4.229999999999999871e-01,-1.147868536738441136e-01,-1.095858457742028280e-01,1.840592088554391659e-01
4.239999999999999880e-01,1.341986479534131860e-01,-2.400925021464699327e-01,7.171240642214674402e-03
4.249999999999999889e-01,3.503762588073006112e-01,-2.427972483389883862e-01,-1.057177301669159630e-01
4.259999999999999898e-01,2.913477681973028477e-01,-1.100674746847727092e-01,-1.889101838397128086e-01
4.269999999999999907e-01,1.132504448507204720e-01,7.484316848606745176e-02,-2.010547719054645854e-01
4.279999999999999916e-01,-1.686482421416637956e-01,2.110341348494139124e-01,-4.228280623774308133e-02
4.289999999999999925e-01,-3.068201188664320123e-01,2.426945482854173941e-01,1.123392405772943303e-01
4.299999999999999933e-01,-3.029768694951530672e-01,1.171851051133355193e-01,1.706394342414980503e-01
4.309999999999999942e-01,-9.704021701864952443e-02,-1.276141261218259881e-01,1.562384510235680646e-01
4.319999999999999951e-01,1.713837866641823582e-01,-2.502472122577499847e-01,3.091856313572260290e-02
4.329999999999999960e-01,3.122115329225313984e-01,-2.436732757991399989e-01,-8.307423570052833994e-02
4.339999999999999969e-01,2.824566765251063649e-01,-6.641635917236760056e-02,-2.093899755745982361e-01
4.349999999999999978e-01,9.626254039756539094e-02,1.444487972587931712e-01,-1.737691913619697492e-01
4.359999999999999987e-01,-1.326253148553605266e-01,2.303345871318866478e-01,-4.539924655261812908e-02
4.369999999999999996e-01,-3.137594649880210973e-01,2.021516741633612724e-01,9.206980147123088043e-02
4.380000000000000004e-01,-2.588189511987086799e-01,5.460721231189359648e-02,1.857774596559541580e-01
4.390000000000000013e-01,-7.298612875617779827e-02,-1.473683449372401311e-01,1.734663551249625291e-01
4.400000000000000022e-01,1.360838654008683923e-01,-2.284782326567674771e-01,3.452414502252856149e-02
4.410000000000000031e-01,3.118740431423815407e-01,-2.048398919636410798e-01,-8.888708837506732741e-02
4.420000000000000040e-01,2.668073544698980615e-01,-7.760224662639007842e-02,-1.782803413630365263e-01
4.430000000000000049e-01,7.642747169223021442e-02,1.242524409158890925e-01,-1.624853710770781945e-01
4.440000000000000058e-01,-1.566394213327023111e-01,2.075204590639438129e-01,-5.339964541740300358e-02
4.450000000000000067e-01,-2.503725769968443982e-01,1.785505991508746781e-01,7.257577516797793227e-02
4.460000000000000075e-01,-2.639386871954013114e-01,4.616038715523840263e-02,1.799421847821323084e-01
4.470000000000000084e-01,-6.905106458320954543e-02,-1.411341084966568626e-01,1.508309714366814491e-01
4.480000000000000093e-01,1.182037458589845491e-01,-2.189756499544467661e-01,5.463612805433999686e-02
4.490000000000000102e-01,2.515809340132348360e-01,-1.772757454305633751e-01,-9.268243886734132964e-02
4.500000000000000111e-01,2.299849155609012819e-01,-4.331364627396745021e-02,-1.277858295726730375e-01
4.510000000000000120e-01,2.024469746365166120e-02,1.253627715075864291e-01,-1.474563244688724128e-01
4.520000000000000129e-01,-1.465699700193693056e-01,1.767842921514838628e-01,-1.120868021893944508e-02
4.530000000000000138e-01,-2.600800870455401981e-01,1.643263993814899626e-01,7.961430765073668203e-02
4.540000000000000147e-01,-2.179064138996123501e-01,3.664696703097123504e-02,1.655917377369688082e-01
4.550000000000000155e-01,-2.649139841661727821e-02,-1.350875341100447324e-01,1.140574960728727300e-01
4.560000000000000164e-01,1.452952804395277464e-01,-1.713327048166771449e-01,3.762093058770681064e-02
4.570000000000000173e-01,2.116570623045706256e-01,-1.058074608373237163e-01,-5.216133707950404430e-02
4.580000000000000182e-01,1.711666690488098386e-01,-3.779154523724255650e-03,-1.424772110538314596e-01
4.590000000000000191e-01,2.083577055647963666e-02,9.906516696595218940e-02,-1.545256845976845372e-01
4.600000000000000200e-01,-1.607668974851321486e-01,1.664015830193204815e-01,-3.806605932891254929e-02
4.610000000000000209e-01,-1.936970495125842351e-01,1.016336208182245099e-01,4.013072025109640922e-02
4.620000000000000218e-01,-1.580862186008465398e-01,-3.370677190675573642e-02,1.148160019332939569e-01
4.630000000000000226e-01,-2.288913231171499710e-02,-1.045229712932273236e-01,9.250845108520400206e-02
4.640000000000000235e-01,1.502827133529303083e-01,-1.232472648062580972e-01,1.665577061456286617e-02
4.650000000000000244e-01,1.912523989165799132e-01,-7.608251752577591120e-02,-4.314775841026731451e-02
4.660000000000000253e-01,1.279554768504674589e-01,2.086140010689528992e-02,-1.183460983485110363e-01
4.670000000000000262e-01,-8.922740489419408614e-04,1.102046615297553045e-01,-1.083456442942493797e-01
4.680000000000000271e-01,-1.436068749386134047e-01,1.333944010403320668e-01,-4.831609910880289155e-02
4.689999999999999725e-01,-1.680461120321151414e-01,4.245018819124091181e-02,4.517868664652233829e-02
4.699999999999999734e-01,-1.191384956500118747e-01,-3.369802067096588222e-02,1.222372685102863649e-01
4.709999999999999742e-01,3.038007508224390210e-02,-7.993113032409984720e-02,1.006948160311313817e-01
4.719999999999999751e-01,1.164117036818724665e-01,-7.753511681471927930e-02,4.183637625061253917e-02
4.729999999999999760e-01,1.588667228846449286e-01,-3.499717861458541412e-02,-6.080690000210757507e-02
4.739999999999999769e-01,1.055272993603501297e-01,5.570782441690907971e-02,-1.091080304214193664e-01
4.749999999999999778e-01,-3.281470448881648738e-02,8.773325870710332874e-02,-9.048843239900450364e-02
4.759999999999999787e-01,-1.177968316669509991e-01,6.109258363483661969e-02,-2.516752130571027479e-02
4.769999999999999796e-01,-1.045190661009085531e-01,2.560181534435895453e-02,6.406271948156014306e-02
4.779999999999999805e-01,-4.727768831882713657e-02,-4.871946609594171584e-02,9.720602583365091365e-02
4.789999999999999813e-01,4.217565860343409911e-02,-5.030557639791253394e-02,5.512869314598185105e-02
4.799999999999999822e-01,1.102669387472533513e-01,-3.547696524730184486e-02,-1.089826574220874528e-03
4.809999999999999831e-01,9.242465577096740936e-02,7.757113700780618806e-03,-4.200897731400982105e-02
4.819999999999999840e-01,2.975481465080717300e-02,4.775076331301608690e-02,-5.131241169447248868e-02
4.829999999999999849e-01,-4.108461101228581824e-02,4.754172392458069774e-02,-5.742849219834018915e-02
4.839999999999999858e-01,-8.785385491948433101e-02,1.627385698119263729e-02,8.487327662088253385e-03
4.849999999999999867e-01,-6.424028527983952075e-02,-2.290258834184836015e-02,3.674928077401684590e-02
4.859999999999999876e-01,-2.796525912863912292e-03,-8.244513646048838573e-02,6.325705593893848899e-02
4.869999999999999885e-01,8.053596044458663505e-02,-5.258162039763075724e-02,4.710230916226273296e-02
4.879999999999999893e-01,9.819847903959966207e-02,1.309799266821377699e-02,2.625265476612452384e-05
4.889999999999999902e-01,7.060321164930774551e-02,4.440382187157383698e-02,-5.773618449452524309e-02
4.899999999999999911e-01,-1.414390870349706286e-02,5.314791264306876345e-02,-4.876238297333904126e-02
4.909999999999999920e-01,-7.930240742537149334e-02,4.527510073905151311e-02,-1.781333927694189745e-02
4.919999999999999929e-01,-6.295911480800536753e-02,-1.620342283070870526e-02,9.579811159421459249e-03
4.929999999999999938e-01,-4.884780275309852371e-02,-1.192882871002440975e-01,5.699691143281084005e-02
4.939999999999999947e-01,4.083006153066709443e-02,-1.153972646247783396e-01,1.592801394693210346e-02
4.949999999999999956e-01,8.545736807326703710e-02,-2.065610692248938396e-02,1.185662441515064613e-02
4.959999999999999964e-01,6.766259054078266333e-02,5.781761427219905825e-02,-2.254228469291556791e-02
4.969999999999999973e-01,1.297461327857278059e-02,1.025273538605011581e-01,-7.007562534855756031e-02
4.979999999999999982e-01,-8.716033496797256919e-02,8.189150699873845585e-02,-4.755338170329098668e-02
4.989999999999999991e-01,-1.159600890950259894e-01,-3.704287724068820037e-02,2.774021325240751817e-02
5.000000000000000000e-01,-8.448442274173070810e-02,-8.101798712473999575e-02,4.882343098257151126e-02
5.010000000000000009e-01,1.744027123878740676e-02,-1.360688242561681471e-01,3.747124212829129608e-02
5.020000000000000018e-01,1.264680228060552081e-01,-8.690934177822072504e-02,1.778020088201485993e-02
5.030000000000000027e-01,1.340937643126894618e-01,1.600611423756899410e-02,-3.199740884528588791e-02
5.040000000000000036e-01,6.491317729274560799e-02,1.403194797222932222e-01,-6.900579355747130106e-02
5.050000000000000044e-01,-8.526251677547615204e-02,1.582597297668249525e-01,-6.349838593847322021e-02
5.060000000000000053e-01,-1.326381025846088690e-01,7.379235017956893572e-02,-2.994501206030686369e-02
5.070000000000000062e-01,-1.543077166151032020e-01,-2.569487104643978365e-02,1.957715073465813790e-02
5.080000000000000071e-01,-2.451408662162852733e-02,-1.221997893355166453e-01,5.927473670677300271e-02
5.090000000000000080e-01,7.901254276545971456e-02,-1.516069312869939845e-01,7.207553697886399935e-02
5.100000000000000089e-01,1.533883045081051166e-01,-3.839637935031921939e-02,-1.256626102822139095e-02
5.110000000000000098e-01,1.619633991915527260e-01,6.299108958287429061e-02,-7.833876666883103634e-02
5.120000000000000107e-01,6.518375083491808816e-03,1.727701834546091497e-01,-1.027970373159776823e-01
5.130000000000000115e-01,-1.094399795557964156e-01,1.537921894115408805e-01,-9.286770044276708436e-02
5.140000000000000124e-01,-2.075686032179038243e-01,6.825613748664771663e-02,1.443489307951910904e-02
5.150000000000000133e-01,-1.460252132964586225e-01,-7.531412826593114618e-02,8.844833914232319572e-02
5.160000000000000142e-01,-3.681716645921388753e-02,-1.639382048583895302e-01,1.113762181911512050e-01
5.170000000000000151e-01,1.195506404370936665e-01,-1.758031541179996549e-01,7.197337107786509758e-02
5.180000000000000160e-01,2.261386060246104168e-01,-3.307665872495903214e-02,-4.938257609130356114e-03
5.190000000000000169e-01,1.604851420942384199e-01,1.051314062184047909e-01,-5.682162524081071225e-02
5.200000000000000178e-01,1.377334887957906012e-02,1.836569181137638340e-01,-1.191498819907506890e-01
5.210000000000000187e-01,-1.061528289423413068e-01,1.548807555985765583e-01,-7.610678594348863069e-02
5.220000000000000195e-01,-2.421868353881331537e-01,2.990077381307549784e-02,-1.644211364533388134e-02
5.230000000000000204e-01,-1.910558800709864502e-01,-1.351063287822254766e-01,1.061369294775529326e-01
5.240000000000000213e-01,-9.274485600011201161e-03,-2.286485318646555021e-01,1.506082141002570984e-01
5.250000000000000222e-01,1.574266157065886129e-01,-1.726318915289059008e-01,1.033042300008565478e-01
5.260000000000000231e-01,2.604139306204521498e-01,-2.917623452970304412e-02,2.789542466100900821e-04
5.270000000000000240e-01,1.811509513201252641e-01,1.654808081520335317e-01,-1.392165534600275645e-01
5.280000000000000249e-01,-1.073719846958079600e-02,2.103179627336240753e-01,-1.705768513079767568e-01
5.290000000000000258e-01,-1.822794414737838875e-01,1.840023319880348118e-01,-8.565818749230916240e-02
5.300000000000000266e-01,-2.858793062652995043e-01,2.950556488395859878e-02,-3.874245902110238192e-03
5.310000000000000275e-01,-1.956756019438499195e-01,-1.708349289438644836e-01,9.239656914170712998e-02
5.320000000000000284e-01,1.204683915928059061e-02,-2.395806563397466227e-01,1.796042661401016372e-01
5.330000000000000293e-01,1.830478938362595787e-01,-1.797563529603787846e-01,9.837106043823461154e-02
5.340000000000000302e-01,2.798782252503728141e-01,4.976825682594873679e-03,-2.444947556343105705e-02
5.350000000000000311e-01,2.246274941574014639e-01,1.842419588051182611e-01,-1.173188305803295195e-01
5.360000000000000320e-01,-2.200856837344775802e-02,2.625785836731058809e-01,-1.647115837096649327e-01
5.370000000000000329e-01,-2.249432289082243797e-01,1.689167520328473671e-01,-1.027911155629877421e-01
5.380000000000000338e-01,-3.070179836466130352e-01,2.732097589269363164e-02,9.802358981228009166e-03
5.390000000000000346e-01,-2.124472309376931878e-01,-1.925469519976994170e-01,1.221423768002275062e-01
5.400000000000000355e-01,8.375315917633831264e-03,-2.472168079253056205e-01,1.713421017849406647e-01
5.410000000000000364e-01,2.081840810218065496e-01,-1.488895077791763943e-01,1.267368438731265035e-01
5.420000000000000373e-01,3.225897642095362783e-01,4.124470164859996707e-02,2.555061209192551613e-02
5.430000000000000382e-01,1.850977676943512396e-01,2.112746054717568600e-01,-1.611318848836026663e-01
5.440000000000000391e-01,-3.598168554235460503e-02,2.653549769913194911e-01,-1.947414112236418859e-01
5.450000000000000400e-01,-2.406766510122385350e-01,1.612647000173768885e-01,-1.478950384114037231e-01
5.460000000000000409e-01,-3.375274275398781332e-01,-3.779742679145434159e-02,-1.543044939151723589e-02
5.470000000000000417e-01,-1.916524746920081346e-01,-1.825562045539473877e-01,1.496284471929793802e-01
5.480000000000000426e-01,3.457665499145186339e-02,-2.655875912767134972e-01,1.736367425597420133e-01
5.490000000000000435e-01,2.361798722293936281e-01,-1.542913335029627020e-01,1.454293016739632016e-01
5.500000000000000444e-01,3.076930103700931673e-01,5.008736869369140310e-02,1.968464571254241458e-03
5.510000000000000453e-01,2.174470739165958455e-01,2.066023762288429211e-01,-1.390984039138005446e-01
5.520000000000000462e-01,2.220933621595960489e-03,2.683686099479696274e-01,-1.759393672270192222e-01
5.530000000000000471e-01,-2.885880712360454625e-01,1.375288886200549676e-01,-1.362906260274544812e-01
5.540000000000000480e-01,-3.317440948769851405e-01,-3.753537147891557180e-02,-9.359921003365221509e-03
5.550000000000000488e-01,-1.933507617331049755e-01,-2.454518788405916085e-01,1.454205421072661542e-01
5.560000000000000497e-01,2.787078025835917211e-02,-2.765013598804592632e-01,2.218336797176073405e-01
5.570000000000000506e-01,2.672155924865738386e-01,-1.552649113650910739e-01,1.470039021410635693e-01
5.580000000000000515e-01,3.723945357873562068e-01,7.941161711397330680e-02,-1.063580815444768041e-02
5.590000000000000524e-01,1.866090893200122169e-01,2.327947393424427969e-01,-1.488404048870517749e-01
5.600000000000000533e-01,-1.835093795855838664e-02,2.873755351676084424e-01,-1.803905401633127126e-01
5.610000000000000542e-01,-2.760448581410712698e-01,1.432274471459178411e-01,-1.749115029683133427e-01
5.620000000000000551e-01,-3.437788405297159677e-01,-5.843421469763564885e-02,-1.922350944456539118e-02
5.629999999999999449e-01,-2.243531555436161506e-01,-2.335279834807921229e-01,1.457882501592472069e-01
5.639999999999999458e-01,5.453513793347895128e-02,-2.234417358786895957e-01,2.129194165145441298e-01
5.649999999999999467e-01,2.500931335476125339e-01,-1.166801742962745997e-01,1.487679514304567630e-01
5.659999999999999476e-01,3.176750684509436762e-01,9.502899948752288606e-02,2.114436855050246672e-02
5.669999999999999485e-01,2.174347113341127957e-01,2.559256974568492327e-01,-1.597926017068093951e-01
5.679999999999999494e-01,-3.233129605036653281e-02,2.061475392168315712e-01,-1.981110690202766700e-01
5.689999999999999503e-01,-2.858716258964133505e-01,1.053321589360067950e-01,-1.753176050069265024e-01
5.699999999999999512e-01,-3.126632425495142198e-01,-8.974303484904994077e-02,2.039274546236381422e-02
5.709999999999999520e-01,-1.926645008573825979e-01,-2.459128100122990601e-01,1.437893455099074902e-01
5.719999999999999529e-01,4.035725280582003888e-02,-2.234175164493516497e-01,2.001342119779641604e-01
5.729999999999999538e-01,2.736226092450634861e-01,-1.027541591966413675e-01,1.550121586052155553e-01
5.739999999999999547e-01,3.375244257434116824e-01,9.057212175548254307e-02,3.049877734480844690e-02
5.749999999999999556e-01,1.860337453234600924e-01,2.448042660412094729e-01,-1.548090186608249985e-01
5.759999999999999565e-01,-7.110302948772480314e-02,2.152498281638109134e-01,-2.119082531702015659e-01
5.769999999999999574e-01,-2.550423450999988462e-01,7.203027289835803315e-02,-1.654805235078870562e-01
5.779999999999999583e-01,-3.249007355393028762e-01,-1.292419864062770984e-01,-6.239714174103627720e-02
5.789999999999999591e-01,-1.778711526966972323e-01,-2.177838853914550177e-01,1.190008849584750089e-01
5.799999999999999600e-01,6.227379374337163598e-02,-1.902674361437419748e-01,1.997048566690702021e-01
5.809999999999999609e-01,2.531693658249624113e-01,-7.010457840331646429e-02,1.494003815438075256e-01
5.819999999999999618e-01,2.832110267016889615e-01,1.014185176696754259e-01,2.796935476290351302e-02
5.829999999999999627e-01,1.247826310231211627e-01,2.224686491302873825e-01,-1.022776193243117027e-01
5.839999999999999636e-01,-7.642010197381982062e-02,1.721122301028342183e-01,-1.852433931424106450e-01
5.849999999999999645e-01,-2.675027966833319337e-01,7.622155921382492427e-02,-1.522181992109522264e-01
5.859999999999999654e-01,-2.730114101146312588e-01,-1.128162007559912194e-01,-3.711110845919615708e-02
5.869999999999999662e-01,-1.425829965225019480e-01,-2.010611293741831895e-01,9.438599310962483835e-02
5.879999999999999671e-01,6.110060700045209098e-02,-1.515804527539570679e-01,1.789291286652937851e-01
5.889999999999999680e-01,2.315854879460372551e-01,-4.092249846860053497e-02,1.390647919377914210e-01
5.899999999999999689e-01,2.648132079782676285e-01,1.100363650719818759e-01,3.405575227764506829e-02
5.909999999999999698e-01,1.260595012598406117e-01,1.904762288740000364e-01,-1.386560361217643311e-01
5.919999999999999707e-01,-5.966238981381703083e-02,1.383279752224426395e-01,-1.538614532678851676e-01
5.929999999999999716e-01,-2.098013791908741321e-01,1.171156048887923851e-02,-1.181786559953854343e-01
5.939999999999999725e-01,-2.258709613358733936e-01,-1.219546440555631939e-01,-3.668592581062967567e-02
5.949999999999999734e-01,-1.366732221314671814e-01,-1.785494503816663081e-01,9.670424062536167598e-02
5.959999999999999742e-01,6.770580832065768717e-02,-1.192637547807514908e-01,2.034476083446683237e-01
5.969999999999999751e-01,2.312211847373638052e-01,1.287657796403324749e-02,1.318775634669676622e-01
5.979999999999999760e-01,2.314035630784557207e-01,1.124693630041487952e-01,8.756522597778218509e-03
5.989999999999999769e-01,9.334343562111184489e-02,1.442141014482438699e-01,-1.134913826541291831e-01
5.999999999999999778e-01,-7.927193522498783562e-02,1.065916061153285993e-01,-1.310721752953763752e-01
6.009999999999999787e-01,-1.986107231700944553e-01,-1.708108512406930277e-02,-1.174415878941528490e-01
6.019999999999999796e-01,-1.875265479258364232e-01,-8.636538844428280626e-02,-6.306860867356028910e-02
6.029999999999999805e-01,-8.352470570561695840e-02,-1.142021195831132846e-01,9.374708262455989927e-02
6.039999999999999813e-01,7.583472702479593375e-02,-7.738125166133658084e-02,1.539079105848359108e-01
6.049999999999999822e-01,1.785241173732531883e-01,4.807895235550505020e-02,1.193260767322332355e-01
6.059999999999999831e-01,1.631742124975360808e-01,1.016289038860858779e-01,2.337962196349941887e-02
6.069999999999999840e-01,4.840332029492475097e-02,1.168108153078930983e-01,-5.007568204199328715e-02
6.079999999999999849e-01,-6.478395847980335243e-02,5.129234465656579839e-02,-1.196569650340647828e-01
6.089999999999999858e-01,-1.592958329534462647e-01,-4.046310455674985429e-02,-1.359135008128752320e-01
6.099999999999999867e-01,-1.305585506378014182e-01,-9.872912196237146332e-02,-1.252670982946797523e-03
6.109999999999999876e-01,-3.802302526147981893e-02,-8.142337685379014145e-02,6.594196123937721976e-02
6.119999999999999885e-01,7.037014796234532243e-02,-5.195430635286978072e-02,1.056970875980687147e-01
6.129999999999999893e-01,1.439092011713787034e-01,8.912084333740272202e-02,1.247103663658069989e-01
6.139999999999999902e-01,1.042728629429494625e-01,7.904277810289860040e-02,4.929307150394346415e-02
6.149999999999999911e-01,-1.167794446564030149e-02,6.312174261602436498e-02,-9.442299680998382516e-02
6.159999999999999920e-01,-8.286265367711215246e-02,-8.699404456655397732e-04,-9.788469669924994288e-02
6.169999999999999929e-01,-1.303739711328913697e-01,-4.754884185277637176e-02,-7.983255894442777001e-02
6.179999999999999938e-01,-1.206446949453542639e-01,-9.046075780370162189e-02,-2.226445922976444045e-03
6.189999999999999947e-01,2.767607299172166260e-03,-1.156124487467914339e-02,4.917823075434618607e-02
6.199999999999999956e-01,5.182855187385683460e-02,-2.725537168142648341e-03,9.171860580099286397e-02
6.209999999999999964e-01,1.197132167583508933e-01,3.971130284252664261e-02,5.841360328926535617e-02
6.219999999999999973e-01,5.204853937540086101e-02,3.850022341809387905e-02,-1.309788728416345222e-02
6.229999999999999982e-01,-1.415464100356218780e-02,3.858129349239654976e-02,-6.415625313216594128e-02
6.239999999999999991e-01,-9.775504337339402383e-02,-5.381422402103499224e-03,-3.481838162932790470e-02
6.250000000000000000e-01,-9.230933829401019586e-02,-5.586730101997854081e-02,-5.813258795629465403e-02
6.260000000000000009e-01,-1.895890499754494807e-02,-4.219535447893520141e-02,9.160723238226821039e-03
6.270000000000000018e-01,1.583668387422722257e-02,2.373924872762781316e-02,5.696435322013976982e-02
6.280000000000000027e-01,5.587652472370199103e-02,6.958465977516643808e-02,4.004006458829087456e-02
6.290000000000000036e-01,8.566150584183357397e-02,9.206976657077389770e-02,3.128270764576465690e-02
6.300000000000000044e-01,-4.738501091007574738e-03,5.981730942416747104e-02,-2.107018492336096283e-02
6.310000000000000053e-01,-7.937805184899417166e-02,-4.969523193375034037e-02,-4.520969305490028095e-02
6.320000000000000062e-01,-8.411174677640759212e-02,-7.168706724674799025e-02,-4.986057403065492083e-02
6.330000000000000071e-01,-5.050792205855472033e-02,-8.491648308181275195e-02,1.680445404934228755e-03
6.340000000000000080e-01,2.406896019936472994e-02,4.777658034498915608e-03,4.927572366962882505e-02
6.350000000000000089e-01,9.386130839998899078e-02,8.191002562990774838e-02,3.569961578549018383e-02
6.360000000000000098e-01,8.985978177956456536e-02,1.036347152986467762e-01,1.415051786538834393e-02
6.370000000000000107e-01,7.254436330090517811e-03,7.794614528746679483e-02,-5.357503769636534630e-03
6.380000000000000115e-01,-6.231235892973692458e-02,2.566424805348577198e-03,-5.285920686467473345e-02
6.390000000000000124e-01,-9.685037490973971708e-02,-7.220097711946726893e-02,-5.428982143237653241e-02
6.400000000000000133e-01,-7.027378498814355889e-02,-1.046608951529843373e-01,-4.500277350259003495e-02
6.410000000000000142e-01,-2.274125573947927831e-02,-9.307243914269092144e-02,2.139823066529644366e-02
6.420000000000000151e-01,9.746810242306774841e-02,5.848006720143954229e-02,6.688113880723328686e-02
6.430000000000000160e-01,1.445974656190078533e-01,1.247156708774613404e-01,5.984454125023824095e-02
6.440000000000000169e-01,9.598594407696790787e-02,1.523940696483580548e-01,2.637178168957394347e-02
6.450000000000000178e-01,-9.140888564761600124e-03,7.378901703632879949e-02,-5.561766445519707863e-02
6.460000000000000187e-01,-1.158881381932805044e-01,-2.151757280780010329e-02,-6.168132495362803336e-02
6.470000000000000195e-01,-1.557377014386661651e-01,-1.492921267804699914e-01,-9.418641814090208952e-02
6.480000000000000204e-01,-8.428803692935719905e-02,-1.551749291231734607e-01,-1.671079099376306673e-03
6.490000000000000213e-01,3.401909667055091208e-02,-5.157166660764869043e-02,6.078136699370387253e-02
6.500000000000000222e-01,1.419271578674934087e-01,4.799950236693085320e-02,9.931606226971008422e-02
6.510000000000000231e-01,1.846649677088448571e-01,1.567725963055709992e-01,3.791363617371183714e-02
6.520000000000000240e-01,1.052792607642161760e-01,1.410315646550237556e-01,-3.631451505834396021e-03
6.530000000000000249e-01,-4.657261265440932468e-02,5.436638345763535052e-02,-6.919451567424364513e-02
6.540000000000000258e-01,-1.736271012520307910e-01,-1.043795800868790036e-01,-9.899509443129529684e-02
6.550000000000000266e-01,-1.861091403746877315e-01,-1.554766015073799079e-01,-7.172659507030500203e-02
6.560000000000000275e-01,-1.008877958190099039e-01,-1.589951522118802363e-01,1.615658768488778887e-02
6.570000000000000284e-01,6.554076920477684698e-02,-6.296996916394895227e-02,7.987042604118678446e-02
6.580000000000000293e-01,2.151812568239281631e-01,8.791379455555878297e-02,1.239234962837794107e-01
6.590000000000000302e-01,2.055884846554602574e-01,1.737109058277208073e-01,3.972304595876580829e-02
6.600000000000000311e-01,8.370686689542947145e-02,1.970727681875231729e-01,-5.017264828689328715e-02
6.610000000000000320e-01,-8.985857178871563267e-02,2.094641332444332343e-02,-8.880607258309734797e-02
6.620000000000000329e-01,-2.467177699098901389e-01,-1.177705598661191594e-01,-1.055973998364947430e-01
6.630000000000000338e-01,-2.253926418056449443e-01,-2.183433788969834366e-01,-8.606161894671117418e-02
6.640000000000000346e-01,-9.078820461314152102e-02,-1.597489325346024835e-01,3.660138286236971905e-02
6.650000000000000355e-01,1.204824945658381219e-01,-3.315367547047327196e-02,1.219992960692355827e-01
6.660000000000000364e-01,2.248480179597314721e-01,1.437955004203700649e-01,1.568368073852709210e-01
6.670000000000000373e-01,2.318222999588842870e-01,2.256629814534600320e-01,6.967992632207996306e-02
6.680000000000000382e-01,8.519834753390903570e-02,1.906978327713805266e-01,-2.206533794642148716e-02
6.690000000000000391e-01,-1.162417437249917834e-01,2.306916372313387587e-02,-1.138151446644903725e-01
6.700000000000000400e-01,-2.770068978033994322e-01,-1.799970991064915593e-01,-1.505425710778718340e-01
6.710000000000000409e-01,-2.261464532564255725e-01,-2.515794276559149001e-01,-1.037997542460138839e-01
6.720000000000000417e-01,-7.538591353561391317e-02,-1.969115808302327741e-01,6.982497699435042705e-03
6.730000000000000426e-01,1.230341262522890444e-01,6.361612097853610627e-03,1.291497567096393795e-01
6.740000000000000435e-01,2.788697414866079249e-01,1.661953032159085297e-01,1.391252287581109526e-01
6.750000000000000444e-01,2.692498606910112557e-01,2.622808471759407456e-01,8.412114529780240213e-02
6.760000000000000453e-01,8.192270813957665265e-02,1.816857237341480136e-01,-2.039362218550568734e-02
6.770000000000000462e-01,-1.376177048296570726e-01,1.707840170974545338e-02,-1.331375591410121073e-01
6.780000000000000471e-01,-2.853854690566951513e-01,-1.901713706699956485e-01,-1.816710076501373561e-01
6.790000000000000480e-01,-2.623544018068010852e-01,-2.462427815215869620e-01,-9.276441541982453909e-02
6.800000000000000488e-01,-5.749283896807397959e-02,-2.049091994101100989e-01,4.557114818205779821e-02
6.810000000000000497e-01,1.456829922079652118e-01,1.377090410123086792e-02,1.341782271726780773e-01
6.820000000000000506e-01,3.106155410744876333e-01,2.392636751209172019e-01,1.883925228200022117e-01
6.830000000000000515e-01,2.820070313805729811e-01,2.721327774217491280e-01,8.626148567787556010e-02
6.840000000000000524e-01,1.204382629564205165e-01,1.559978682110740034e-01,-1.599514298352425201e-02
6.850000000000000533e-01,-1.597226122821051586e-01,-2.616153200852136193e-02,-1.527397534401783163e-01
6.860000000000000542e-01,-3.003149246584776444e-01,-1.869609392407493020e-01,-1.767722438859325174e-01
6.870000000000000551e-01,-2.762522721109351709e-01,-2.549919520204348422e-01,-1.247032694923989327e-01
6.879999999999999449e-01,-4.772809211912733968e-02,-1.683468653030722739e-01,3.954170097692441717e-03
6.889999999999999458e-01,1.908911939664144908e-01,4.792847790572856564e-02,1.477403796503166111e-01
6.899999999999999467e-01,3.618634767285359710e-01,2.388000857497397933e-01,1.849040970721346488e-01
6.909999999999999476e-01,2.817614327390959295e-01,2.639950450176832275e-01,1.233056353356973278e-01
6.919999999999999485e-01,5.548728945533903945e-02,1.675814683555919560e-01,-4.009245827360834874e-02
6.929999999999999494e-01,-2.013698494383988347e-01,-6.910650827355513393e-02,-1.669786920216300707e-01
6.939999999999999503e-01,-3.407066581435860830e-01,-2.221517195285639401e-01,-1.965392494387429856e-01
6.949999999999999512e-01,-2.892110244739151681e-01,-2.396637579755492298e-01,-1.132606533282637801e-01
6.959999999999999520e-01,-3.171254424565118912e-02,-1.372807006896944182e-01,5.905252372763478662e-03
6.969999999999999529e-01,1.936377972875331088e-01,5.867149892337820971e-02,1.494792365341687801e-01
6.979999999999999538e-01,3.353554193892381852e-01,2.328942499434205060e-01,2.141813055631109908e-01
6.989999999999999547e-01,2.805389748700293229e-01,2.259746607614455394e-01,1.308765161089238682e-01
6.999999999999999556e-01,6.956080714746586124e-02,1.138857420272742366e-01,-2.681926491147985925e-02
7.009999999999999565e-01,-1.830827765355635961e-01,-6.121986320819966521e-02,-1.462513068472863775e-01
7.019999999999999574e-01,-3.160348050543577703e-01,-2.534894967020269729e-01,-2.261893312288174029e-01
7.029999999999999583e-01,-2.882782257935351256e-01,-2.445671570149124396e-01,-1.299050942092088434e-01
7.039999999999999591e-01,-9.017318032203756883e-02,-1.014113373395778145e-01,1.865426324077627818e-02
7.049999999999999600e-01,2.000756402824295788e-01,7.054528222274859817e-02,1.441255649799772498e-01
7.059999999999999609e-01,3.353293835726641192e-01,2.183787883176396549e-01,2.187449136528843707e-01
7.069999999999999618e-01,2.544560166423808223e-01,2.798142359713963745e-01,1.285395256677697440e-01
7.079999999999999627e-01,5.801071266088154293e-02,8.576524654539990911e-02,-2.241302801035285550e-02
7.089999999999999636e-01,-1.917011498112969059e-01,-1.100659107949598370e-01,-1.646087921918363284e-01
7.099999999999999645e-01,-3.154989956657500705e-01,-2.424790339569986020e-01,-1.885905418493579455e-01
7.109999999999999654e-01,-2.857807060824315570e-01,-1.950960997394451946e-01,-1.498429788702881627e-01
7.119999999999999662e-01,-7.338575816395109808e-02,-1.179577855030664590e-01,2.171669943780320591e-02
7.129999999999999671e-01,1.982299895793665778e-01,1.351152835246356987e-01,1.380678360655724080e-01
7.139999999999999680e-01,3.221479489753205638e-01,2.217919364186606290e-01,1.941314851439609745e-01
7.149999999999999689e-01,2.356484678599607141e-01,2.185211847723059209e-01,1.588403359941843451e-01
7.159999999999999698e-01,4.452122909802275208e-02,6.535607033409920885e-02,-1.463750012058141758e-02
7.169999999999999707e-01,-1.765784692280366330e-01,-1.232165444746922134e-01,-1.175664181200186675e-01
7.179999999999999716e-01,-3.066222909615699543e-01,-2.156781753106314092e-01,-2.418783124698264675e-01
7.189999999999999725e-01,-2.533265639256069290e-01,-1.858629045625654341e-01,-1.330653504355976957e-01
7.199999999999999734e-01,-5.793695782839875658e-02,-4.863040082634816769e-02,5.745869898575529759e-03
7.209999999999999742e-01,1.900072638685885995e-01,1.009364516293849434e-01,1.127570007008460162e-01
7.219999999999999751e-01,3.286021769410581994e-01,2.040654463180344713e-01,1.708894097571782567e-01
7.229999999999999760e-01,2.491102554548604298e-01,1.954122869668378226e-01,1.283018716214192334e-01
7.239999999999999769e-01,3.166618572865798065e-02,4.340691600845562187e-02,5.977563401181723232e-03
7.249999999999999778e-01,-1.669731843608028010e-01,-1.062359778521740905e-01,-1.339115817812511489e-01
7.259999999999999787e-01,-2.815363851630114933e-01,-2.008980216173636701e-01,-1.813362391795807493e-01
7.269999999999999796e-01,-2.499947003359855313e-01,-1.699697527521638052e-01,-1.151074851468263938e-01
7.279999999999999805e-01,-2.532632624163590543e-02,-6.388238007426179366e-02,-1.778477240288977787e-02
7.289999999999999813e-01,1.798289850444006466e-01,1.076298888073830423e-01,1.237514323263141786e-01
7.299999999999999822e-01,2.537625016279472234e-01,2.004310219540384186e-01,1.809847168605950296e-01
7.309999999999999831e-01,2.015741637868342651e-01,1.472183128369286553e-01,1.498112072791459581e-01
7.319999999999999840e-01,1.270875750662110726e-02,4.778492676424649435e-03,-4.724648023255357404e-03
7.329999999999999849e-01,-1.622989398829220720e-01,-1.088654349553210277e-01,-1.132634571135935492e-01
7.339999999999999858e-01,-2.418138622161091211e-01,-1.867501448922341267e-01,-1.435275143773938056e-01
7.349999999999999867e-01,-1.709432989908286349e-01,-1.135729395353646115e-01,-1.308866568622369941e-01
7.359999999999999876e-01,-9.585537811112496490e-03,-9.036222177497471369e-04,4.226068545034242924e-03
7.369999999999999885e-01,1.417538494405787275e-01,1.203496796509418154e-01,1.197135139017475591e-01
7.379999999999999893e-01,2.412088034901844757e-01,1.450612017654067665e-01,1.636413373375476266e-01
7.389999999999999902e-01,1.744018160804194639e-01,8.976078243461095563e-02,1.228563373539874326e-01
7.399999999999999911e-01,3.405047663150794174e-04,1.359268769002969874e-03,-2.850434682609428658e-02
7.409999999999999920e-01,-1.707748845037381780e-01,-8.590118505507675362e-02,-1.218148791728754371e-01
7.419999999999999929e-01,-1.958282661083532161e-01,-1.291331084629593617e-01,-1.348337035740335699e-01
7.429999999999999938e-01,-1.146464997853071932e-01,-7.451771257386499703e-02,-1.094115314406558376e-01
7.439999999999999947e-01,-5.272884870279259499e-03,9.996515275381222254e-03,-1.455395939586862954e-02
7.449999999999999956e-01,1.346718744195560535e-01,9.613788692970440253e-02,7.836830370168480775e-02
7.459999999999999964e-01,1.715384739417537829e-01,1.375696203091206493e-01,1.052863432290725154e-01
7.469999999999999973e-01,1.318107393098991165e-01,6.456795507580335991e-02,9.374526136689426137e-02
7.479999999999999982e-01,-2.262478159403392974e-02,-5.628684352664958812e-02,-6.501467169979045085e-03
7.489999999999999991e-01,-1.127809532773148271e-01,-8.164187005237281969e-02,-1.013797648051494721e-01
7.500000000000000000e-01,-1.695401235529872819e-01,-1.090033504153197497e-01,-1.440123894610753907e-01
7.510000000000000009e-01,-1.096332682236887679e-01,-2.600195675620601068e-02,-7.950602529947682628e-02
7.520000000000000018e-01,4.748217980431393426e-02,7.575777505844860649e-02,-1.475260565737441902e-02
7.530000000000000027e-01,1.140430396125729079e-01,8.907950188565787186e-02,7.133092193436667283e-02
7.540000000000000036e-01,1.285206346651877607e-01,3.039391617027350015e-02,9.589484288861584160e-02
7.550000000000000044e-01,8.185221056921056226e-02,-2.432446197125984200e-02,7.280090265895942936e-02
7.560000000000000053e-01,-3.984627583571034165e-02,-3.313289786003924958e-02,-9.740530100263716448e-03
7.570000000000000062e-01,-1.126295936583979057e-01,-4.511700994877831938e-02,-7.650050403533743826e-02
7.580000000000000071e-01,-1.035503329090310953e-01,-2.117960790905329405e-02,-1.002142632289223512e-01
7.590000000000000080e-01,-2.949839570722344317e-02,2.472115895388442286e-02,-6.316906716286331547e-02
7.600000000000000089e-01,6.090861136637877593e-02,8.118086464526025336e-02,-7.681591249864440536e-03
7.610000000000000098e-01,1.005530822760870302e-01,4.669331684497977919e-02,8.488444648495149791e-02
7.620000000000000107e-01,1.052356290642238040e-01,2.996235542371184293e-03,8.290668573010573361e-02
7.630000000000000115e-01,-1.223709752697845453e-02,-1.606161912780675743e-02,4.298002295002375378e-02
7.640000000000000124e-01,-5.772706711849854427e-02,-7.703225497594612392e-02,7.656521350834753943e-03
7.650000000000000133e-01,-1.018453058680305751e-01,-3.120054899949198032e-02,-7.283506927483804350e-02
7.660000000000000142e-01,-6.599900920865046927e-02,2.277412051646243024e-02,-8.227635693381005200e-02
7.670000000000000151e-01,4.137954708359441180e-02,7.435552243211294987e-02,-3.244423185760419298e-02
7.680000000000000160e-01,1.080272208118085997e-01,8.109947078733704962e-02,3.558680087954848442e-02
7.690000000000000169e-01,8.969825325893453216e-02,1.926112264404864285e-02,3.595897598317347732e-02
7.700000000000000178e-01,1.411122333327121704e-02,-3.805443340917032818e-02,6.486649720445150646e-02
7.710000000000000187e-01,-3.316270248304100526e-02,-9.333204688873793231e-02,4.037456829606762138e-02
7.720000000000000195e-01,-8.919988597933706242e-02,-3.413976413788458175e-02,-4.628648376642186674e-02
7.730000000000000204e-01,-6.299201277691522660e-02,-8.321652963706250780e-03,-4.211509516126032970e-02
7.740000000000000213e-01,2.015255065378418475e-02,8.616974813144820389e-02,-2.180832070885070639e-02
7.750000000000000222e-01,9.941916882725174154e-02,8.122453878169007269e-02,1.999880945693272277e-03
7.760000000000000231e-01,1.089504482361418752e-01,6.296937880532992027e-02,3.554733245951272047e-02
7.770000000000000240e-01,8.258283916714916073e-02,3.848504501579234297e-03,4.049588075944655918e-02
7.780000000000000249e-01,-2.344984888400271361e-02,-1.112793197971650300e-01,6.853115905614466132e-03
7.790000000000000258e-01,-1.316457979455846194e-01,-1.217574683649064182e-01,-3.220452375731994513e-03
7.800000000000000266e-01,-1.174003195684054507e-01,-7.719029800525280260e-02,-1.909497459111759304e-02
7.810000000000000275e-01,-5.760334659691196402e-02,6.481572272626283208e-03,-4.925959881359906478e-02
7.820000000000000284e-01,4.514784877281221437e-02,1.211413521586060527e-01,-1.782223565946721572e-02
7.830000000000000293e-01,1.455996294286540371e-01,1.526207377030164569e-01,3.196375389995077115e-02
7.840000000000000302e-01,1.043441094159720250e-01,7.915369485994111498e-02,6.624241672652510238e-02
7.850000000000000311e-01,4.483104849645179468e-02,-4.616921243498606220e-02,2.869204721605011360e-02
7.860000000000000320e-01,-1.185274962261413656e-01,-1.232948198909401410e-01,-1.112640409659809704e-02
7.870000000000000329e-01,-1.712396783338872019e-01,-2.041567987923997296e-01,-4.621350714992042419e-02
7.880000000000000338e-01,-1.517622628637743110e-01,-8.257539581928814709e-02,-5.934998790114533185e-02
7.890000000000000346e-01,3.148645730859017233e-03,6.108052350544226211e-02,-4.841373640264435424e-02
7.900000000000000355e-01,1.422956652049855719e-01,1.548595819792038808e-01,-2.066786754702412687e-03
7.910000000000000364e-01,1.662559384825219588e-01,1.495789238988176062e-01,5.582004395244913320e-02
7.920000000000000373e-01,1.190627280188178705e-01,6.399917255037727848e-02,7.914189724109045587e-02
7.930000000000000382e-01,1.340279284606497347e-02,-8.971218540227142435e-02,3.748736520419926332e-02
7.940000000000000391e-01,-1.002716867080110236e-01,-1.795663366614013434e-01,-9.675781095549420207e-04
7.950000000000000400e-01,-1.773608556258985114e-01,-1.839448157426842312e-01,-9.322194035966643866e-02
7.960000000000000409e-01,-1.117151070537680119e-01,-4.732338174102229678e-02,-8.394947423446147416e-02
7.970000000000000417e-01,1.921307218761275984e-02,1.100117758453224015e-01,-5.170876480655341167e-02
7.980000000000000426e-01,1.712766748583248178e-01,2.152239817083007878e-01,4.468435647186309867e-02
7.990000000000000435e-01,2.135343896673361219e-01,1.437844281730350504e-01,9.377534219542468796e-02
8.000000000000000444e-01,1.379974988864917651e-01,3.852797827265241806e-03,1.138479464778701239e-01
8.010000000000000453e-01,-1.644945851744336954e-02,-1.127407998329225114e-01,5.491831356981816820e-02
8.020000000000000462e-01,-1.835572935543278716e-01,-2.481203828801034905e-01,-4.760747362727186030e-03
8.030000000000000471e-01,-2.453272593564781723e-01,-1.666732544580327435e-01,-1.181253909604031427e-01
8.040000000000000480e-01,-1.664914927270262635e-01,-2.500232987160792147e-02,-1.108706535517976211e-01
8.050000000000000488e-01,-4.876962300204327962e-04,1.231217871834749955e-01,-5.603558531705796902e-02
8.060000000000000497e-01,1.820469264898928186e-01,2.389285077227958076e-01,2.063756373454746912e-02
8.070000000000000506e-01,2.864229952847166527e-01,1.828524207051292205e-01,1.154768426097518286e-01
8.080000000000000515e-01,1.593041385350068284e-01,1.668504095327924888e-02,1.490645019982935748e-01
8.090000000000000524e-01,-5.263335161373911691e-02,-1.631119977743085425e-01,5.993416813531256271e-02
8.100000000000000533e-01,-2.358401564240227566e-01,-2.301752062661996667e-01,-5.799966522288010212e-02
8.110000000000000542e-01,-2.952815632249330968e-01,-1.760464185347126731e-01,-1.405587079820282970e-01
8.120000000000000551e-01,-1.420977780177960503e-01,-1.803041680661939331e-02,-1.511277988606355149e-01
8.129999999999999449e-01,6.133274948315278058e-02,1.477335188921048981e-01,-7.881605548146401741e-02
8.139999999999999458e-01,2.309539748663553826e-01,2.476391277340886654e-01,6.079624367160132298e-02
8.149999999999999467e-01,2.936313868483299561e-01,1.895051466392058681e-01,1.233106024280658519e-01
8.159999999999999476e-01,1.912301279474691862e-01,-7.208990989658164636e-03,1.339429057449314509e-01
8.169999999999999485e-01,-4.010227705511977547e-02,-1.813831724147269009e-01,5.002101519765043969e-02
8.179999999999999494e-01,-2.521662983299221561e-01,-2.697269779204293783e-01,-3.996273795198453105e-02
8.189999999999999503e-01,-3.067440498783903235e-01,-1.679714192380175608e-01,-1.509281094348715879e-01
8.199999999999999512e-01,-1.788382694900897130e-01,9.985453105970697532e-03,-1.832046360721883704e-01
8.209999999999999520e-01,6.867246189693149150e-02,1.907272316058344075e-01,-8.829330055612988337e-02
8.219999999999999529e-01,2.403603399186177159e-01,2.857725897363086465e-01,6.192025681954888006e-02
8.229999999999999538e-01,3.129227085234539407e-01,1.771862241113230374e-01,1.459261505959936478e-01
8.239999999999999547e-01,1.919186392385333895e-01,-2.362640792344496837e-02,1.695634661534034526e-01
8.249999999999999556e-01,-4.151165626557542371e-02,-1.978294385190247917e-01,1.046890456779830808e-01
8.259999999999999565e-01,-2.755309861414909633e-01,-2.809878373362634241e-01,-5.626888351587031739e-02
8.269999999999999574e-01,-3.199317159164573598e-01,-1.577885479931844803e-01,-1.711718092558602577e-01
8.279999999999999583e-01,-1.756848587021460906e-01,2.225928592477104812e-02,-1.921323545305562708e-01
8.289999999999999591e-01,9.927243908892786906e-02,2.290603765127676716e-01,-8.264222171613612444e-02
8.299999999999999600e-01,2.798993013333049840e-01,2.436090682989974221e-01,5.334725664351489677e-02
8.309999999999999609e-01,3.327362320068419366e-01,1.811824381648299842e-01,1.688645469745302385e-01
8.319999999999999618e-01,1.987660165799506884e-01,-3.525501816692269696e-02,2.059280129980171070e-01
8.329999999999999627e-01,-8.848572905575707859e-02,-2.417376643235832068e-01,9.887655140151831168e-02
8.339999999999999636e-01,-2.749786098942285095e-01,-2.767347678157396906e-01,-7.758798569570271586e-02
8.349999999999999645e-01,-3.265323539249830320e-01,-1.515481612654846488e-01,-1.595907164614468188e-01
8.359999999999999654e-01,-1.772474284472476957e-01,6.584961091179004911e-02,-2.013692241544487449e-01
8.369999999999999662e-01,9.520420218022263015e-02,2.109869327933255045e-01,-1.236550177574447240e-01
8.379999999999999671e-01,2.794260297740347454e-01,2.751299630384323458e-01,7.023808592697554365e-02
8.389999999999999680e-01,3.234071325673953945e-01,1.134084973322819351e-01,1.485707107375367764e-01
8.399999999999999689e-01,1.700361441454701639e-01,-6.788428892349693267e-02,2.152410139001752487e-01
8.409999999999999698e-01,-1.069467481095926070e-01,-2.254982897439017642e-01,1.323678122452466854e-01
8.419999999999999707e-01,-2.660084251804389899e-01,-2.494932993265395471e-01,-5.375710229589069494e-02
8.429999999999999716e-01,-3.231235879266680100e-01,-1.113502876438752509e-01,-1.659726487468027867e-01
8.439999999999999725e-01,-1.671990878069248843e-01,8.972575741600004318e-02,-1.985647116119798883e-01
8.449999999999999734e-01,9.107423032542712182e-02,2.602450768823814653e-01,-1.091832471639131857e-01
8.459999999999999742e-01,2.832810501736474085e-01,2.253429370433205625e-01,4.268909877704690076e-02
8.469999999999999751e-01,3.340115814263231453e-01,9.885622978172411979e-02,1.492141738167598319e-01
8.479999999999999760e-01,1.590698718630371156e-01,-8.202891147630282653e-02,1.835632241456927327e-01
8.489999999999999769e-01,-1.016081239212965615e-01,-2.249686382329941225e-01,1.069787988605550577e-01
8.499999999999999778e-01,-2.670293508208508304e-01,-2.315269089141646364e-01,-5.998940319994807563e-02
8.509999999999999787e-01,-2.974125457774642323e-01,-6.560688529909997069e-02,-1.529773257488135085e-01
8.519999999999999796e-01,-1.372911455644911238e-01,1.020556610338492765e-01,-1.961043609621507811e-01
8.529999999999999805e-01,1.029626247029482439e-01,2.286625660728560383e-01,-1.116021711890792661e-01
8.539999999999999813e-01,2.635740321662883856e-01,2.221800101189634336e-01,1.556906860953844243e-02
8.549999999999999822e-01,3.223149759106599954e-01,7.426115465759652867e-02,1.608438548000619972e-01
8.559999999999999831e-01,1.616639246339746927e-01,-1.520428256124580768e-01,1.946269994841474393e-01
8.569999999999999840e-01,-8.923929511960589089e-02,-2.172818129027178358e-01,1.245103636797010999e-01
8.579999999999999849e-01,-2.833231860190487672e-01,-1.879431647207742972e-01,-4.303804766761389067e-02
8.589999999999999858e-01,-3.210589913816496166e-01,-6.213388285501705161e-02,-1.566910186069291055e-01
8.599999999999999867e-01,-1.358432390300395864e-01,9.134608977390934470e-02,-1.853153251926943079e-01
8.609999999999999876e-01,1.058379695870566017e-01,2.014149535716835970e-01,-1.044766344960463555e-01
8.619999999999999885e-01,2.462018344661401070e-01,1.735007941352214034e-01,5.707729138906276339e-02
8.629999999999999893e-01,2.742445420894715213e-01,4.196589382876830115e-02,1.549337625654221284e-01
8.639999999999999902e-01,1.057177320490804151e-01,-9.873214325450510587e-02,1.885584539766568812e-01
8.649999999999999911e-01,-1.073503802286887299e-01,-1.936095721116396773e-01,1.136714668137726869e-01
8.659999999999999920e-01,-2.699294624468008830e-01,-1.464336382542291981e-01,-3.376967240719572910e-02
8.669999999999999929e-01,-2.525222547832337017e-01,-2.794868843018886995e-02,-1.526187397808964341e-01
8.679999999999999938e-01,-1.067191031009735308e-01,1.288416161350706968e-01,-1.839981609023116083e-01
8.689999999999999947e-01,8.500704325917469995e-02,1.871176784938501925e-01,-1.005174451939222641e-01
8.699999999999999956e-01,2.557814118999356401e-01,1.428124862332210976e-01,2.144188485750365275e-03
8.709999999999999964e-01,2.694723533405103399e-01,3.594194620633238413e-02,1.264742324341712187e-01
8.719999999999999973e-01,9.459577364856588955e-02,-1.236358766486046201e-01,1.547821095504750000e-01
8.729999999999999982e-01,-1.119488025633340322e-01,-1.469268754774522845e-01,1.004261413067412401e-01
8.739999999999999991e-01,-2.314027012272001083e-01,-1.161748921261770706e-01,-2.602130131367343113e-02
8.750000000000000000e-01,-2.147609707901131926e-01,-9.460871229478971941e-05,-1.400659842276071043e-01
8.760000000000000009e-01,-9.274471633217155897e-02,1.146057701431373865e-01,-1.724057535696165988e-01
8.770000000000000018e-01,9.252117938602871794e-02,1.471806766745890616e-01,-1.290504951948935886e-01
8.780000000000000027e-01,2.272404114017372578e-01,1.043542918695152116e-01,2.789326595108710186e-02
8.790000000000000036e-01,2.011663249557792132e-01,-2.449830275422472739e-02,1.492576753410414236e-01
8.800000000000000044e-01,6.176976554459586571e-02,-1.068596361693033431e-01,1.539514962442874169e-01
8.810000000000000053e-01,-1.000939161081440959e-01,-1.258653414157894224e-01,1.080575042897864851e-01
8.820000000000000062e-01,-1.940093197027218663e-01,-5.012843728052292919e-02,1.522688879737719991e-02
8.830000000000000071e-01,-1.920096138088812354e-01,2.956211604662332265e-02,-1.068969682211567268e-01
8.840000000000000080e-01,-3.446577655284194242e-02,1.192644127351474709e-01,-1.420659825689603861e-01
8.850000000000000089e-01,1.190410760537698037e-01,7.089246698052451001e-02,-7.402912392457233759e-02
8.860000000000000098e-01,1.721965406063483139e-01,6.404247473746679797e-02,2.279928511855387405e-02
8.870000000000000107e-01,1.301113384631656655e-01,-3.529551133159387899e-02,7.286763742457813553e-02
8.880000000000000115e-01,1.150599864107607756e-02,-1.166238854757983001e-01,1.375208744640404324e-01
8.890000000000000124e-01,-1.087554832554747386e-01,-7.756541177836238921e-02,7.013288661824058912e-02
8.900000000000000133e-01,-1.794875925769016667e-01,-1.693245621841486456e-02,-4.408652754753335234e-03
8.910000000000000142e-01,-1.073309687854690081e-01,3.936488767537385525e-02,-1.019194511252359131e-01
8.920000000000000151e-01,-3.134246329231298728e-02,7.976402394655997263e-02,-1.161991731767317571e-01
8.930000000000000160e-01,1.042684407479771147e-01,8.557170461873353506e-02,-6.625987813554365391e-02
8.940000000000000169e-01,1.581735004873906225e-01,6.001700652337256699e-03,2.129627807993685409e-02
8.950000000000000178e-01,1.022516657313854715e-01,-4.815363326679092393e-02,8.328873858784394124e-02
8.960000000000000187e-01,-2.073024413356703427e-02,-6.527832637939055827e-02,9.760238974936424894e-02
8.970000000000000195e-01,-1.036328917361583474e-01,-4.338775790131660370e-02,6.230625792120159795e-02
8.980000000000000204e-01,-9.344930253478962723e-02,1.761445392874257110e-02,-2.075756310298404808e-02
8.990000000000000213e-01,-7.303944892227846875e-02,5.934407483004587591e-02,-8.483893318458347876e-02
9.000000000000000222e-01,2.245315926789660105e-02,4.435344416753093932e-02,-1.037066737022807605e-01
9.010000000000000231e-01,9.096486932282650539e-02,1.241563224116900600e-02,-3.782462892012902062e-02
9.020000000000000240e-01,9.722210025844348069e-02,-5.142319018175700585e-02,3.222280143572581190e-02
9.030000000000000249e-01,4.858366939665020173e-02,-9.101192392447909896e-02,4.607491984642074490e-02
9.040000000000000258e-01,-4.853900324583108883e-02,-6.506014911406056422e-02,7.386457761378278919e-02
9.050000000000000266e-01,-7.959001858659407735e-02,-2.426396425079366172e-03,2.682545893045071295e-02
9.060000000000000275e-01,-4.468595783197262805e-02,6.297080848419388255e-02,1.837244279874666441e-03
9.070000000000000284e-01,-1.661819675575980371e-02,5.055909947182018332e-02,-7.424964359521185608e-02
9.080000000000000293e-01,6.661950284922787957e-02,2.378726289064158478e-02,-6.220715759493705699e-02
9.090000000000000302e-01,6.982352421370682793e-02,-2.184689026573624279e-02,-4.361176488760747094e-02
9.100000000000000311e-01,6.498230588662336216e-02,-9.676565303009967978e-02,1.327738842047867206e-02
9.110000000000000320e-01,-9.899927024947926743e-03,-6.545985168201327864e-02,6.041422220569876711e-02
9.120000000000000329e-01,-7.059430553317247448e-02,-1.027376797749972835e-02,4.148562149816679284e-02
9.130000000000000338e-01,-7.380026407684345258e-02,7.039748970747758405e-02,-2.419815780452019491e-02
9.140000000000000346e-01,-3.702792676920000497e-02,9.413584853903306238e-02,-3.923731867706904686e-02
9.150000000000000355e-01,4.245190660016624762e-02,8.401306261919741503e-02,-6.707898381611582250e-02
9.160000000000000364e-01,1.116538493295005097e-01,-4.236027337589842040e-02,-3.255099991045184299e-02
9.170000000000000373e-01,6.283283057559262141e-02,-8.666700151136542962e-02,1.716206569826062359e-02
9.180000000000000382e-01,-1.883547789214232160e-02,-1.229782620627217771e-01,7.865106693658012460e-02
9.190000000000000391e-01,-9.217754971874689285e-02,-9.343787373803043306e-02,6.456045035661087117e-02
9.200000000000000400e-01,-1.139614515270850337e-01,3.719264679730314299e-02,2.226383510998868054e-02
9.210000000000000409e-01,-9.250103153739228090e-02,1.211533528457448272e-01,-3.335442056666051286e-02
9.220000000000000417e-01,1.600511135491665057e-02,1.184633867738053015e-01,-6.448601583689757277e-02
9.230000000000000426e-01,1.046604212736163275e-01,9.326937782986799430e-02,-5.555137623497511529e-02
9.240000000000000435e-01,1.354625431336705654e-01,-3.123996167344300981e-02,-8.153120418678348746e-03
9.250000000000000444e-01,6.805333504556757007e-02,-1.313425835477014525e-01,3.774855567627703745e-02
9.260000000000000453e-01,-4.277615817235314033e-02,-1.483818134577702952e-01,5.775993265712187075e-02
9.270000000000000462e-01,-1.336276512356793233e-01,-7.969987847565825068e-02,4.084777952528429595e-02
9.280000000000000471e-01,-1.672748890948554390e-01,7.611503100585745307e-02,1.389672668205101970e-02
9.290000000000000480e-01,-7.155820970624926503e-02,1.338622594452474057e-01,-7.527066920159991570e-02
9.300000000000000488e-01,8.490778854888617055e-02,1.756826784111557849e-01,-8.029087351231445346e-02
9.310000000000000497e-01,1.767915801991075397e-01,8.737094849023815946e-02,-7.961819855557317194e-02
9.320000000000000506e-01,1.532984981319560069e-01,-7.109391520294269795e-02,2.995466643048318861e-02
9.330000000000000515e-01,4.844725131532007928e-02,-2.010044252613419069e-01,4.723801490544712184e-02
9.340000000000000524e-01,-7.627044271439148426e-02,-1.774484022453564347e-01,1.143485146738830449e-01
9.350000000000000533e-01,-1.815184135333492155e-01,-6.317351552642920531e-02,3.722819023013679285e-02
9.360000000000000542e-01,-1.710848691981919079e-01,1.288889340749067580e-01,-2.445615937203791945e-02
9.370000000000000551e-01,-7.676190528859749840e-02,1.920193114939182377e-01,-7.031762577564650007e-02
9.379999999999999449e-01,1.357493090405035852e-01,2.003554733509685659e-01,-8.771559105288014024e-02
9.389999999999999458e-01,2.061218636167712059e-01,2.768907903909919796e-02,-9.468990976431406262e-03
9.399999999999999467e-01,1.937147326586592666e-01,-1.151999132897394140e-01,2.305313700590174222e-02
9.409999999999999476e-01,5.324234111490806776e-02,-2.196275224859630948e-01,8.565612241191471188e-02
9.419999999999999485e-01,-1.148316965264092743e-01,-1.643169642549114073e-01,7.880833158416877815e-02
9.429999999999999494e-01,-1.920089154094075934e-01,-5.344090956089168204e-02,5.070535509912350858e-02
9.439999999999999503e-01,-2.359349655711402149e-01,1.659253779217318148e-01,-5.870592654028614077e-02
9.449999999999999512e-01,-6.023369170666644651e-02,2.232118913765661350e-01,-1.163126472193340838e-01
9.459999999999999520e-01,1.493297408054019837e-01,2.114900286718731925e-01,-1.350590928340947849e-01
9.469999999999999529e-01,2.868757705643815714e-01,3.374478011020688034e-02,-3.370249383511104285e-02
9.479999999999999538e-01,2.081564705668307036e-01,-1.436671715108664982e-01,4.554307408114453143e-02
9.489999999999999547e-01,4.842190761210850986e-02,-2.523733886872281396e-01,1.452987271751479958e-01
9.499999999999999556e-01,-1.462025526257238195e-01,-1.927779619730591310e-01,1.149521883976909048e-01
9.509999999999999565e-01,-2.775190863483263937e-01,-8.503353565002433681e-03,5.213202173421758318e-02
9.519999999999999574e-01,-2.552462423560217242e-01,1.635380737402107321e-01,-7.098461223057006553e-02
9.529999999999999583e-01,-3.337326223971211203e-02,2.964323445907974808e-01,-1.563574017788241510e-01
9.539999999999999591e-01,1.304832144754612400e-01,2.034005310128086663e-01,-1.395438227607460058e-01
9.549999999999999600e-01,3.036126295067611003e-01,-1.376278579305740407e-02,-5.986099515018459410e-02
9.559999999999999609e-01,2.078320025884229094e-01,-1.938014693662344912e-01,8.510595603422989319e-02
9.569999999999999618e-01,2.263773864954723644e-02,-2.609437316916999872e-01,1.440686568347805119e-01
9.579999999999999627e-01,-1.783698403330837012e-01,-1.936374954978190288e-01,1.540301298297329924e-01
9.589999999999999636e-01,-3.127242762432378420e-01,-2.420047335692511372e-03,5.207515432894405105e-02
9.599999999999999645e-01,-2.510731603906516396e-01,1.971052923425076209e-01,-4.505258588120196472e-02
9.609999999999999654e-01,-1.688616208388047171e-02,2.613677180034251757e-01,-1.479360821092636225e-01
9.619999999999999662e-01,1.919647887394242414e-01,1.767281262053388979e-01,-1.374684037922082880e-01
9.629999999999999671e-01,2.939544067185769771e-01,-2.746067782543326272e-02,-5.344924691313113208e-02
9.639999999999999680e-01,2.488339455937977063e-01,-1.985830144384780893e-01,7.695871592760267221e-02
9.649999999999999689e-01,1.781680866411094327e-02,-2.713289362781531877e-01,1.757647324861663918e-01
9.659999999999999698e-01,-1.925977383041580504e-01,-1.608928248330338540e-01,1.633992551831811579e-01
9.669999999999999707e-01,-3.467044960881561222e-01,4.170913654511521768e-02,7.463832781430235208e-02
9.679999999999999716e-01,-2.642850092006846507e-01,2.104513646871420951e-01,-8.975688782646118469e-02
9.689999999999999725e-01,-7.985761777866588057e-03,2.643562039047966383e-01,-1.523538684548408073e-01
9.699999999999999734e-01,2.214156094765372396e-01,1.755537092243394381e-01,-1.581255041383750892e-01
9.709999999999999742e-01,3.375453156606587068e-01,-2.212472367408330892e-02,-7.813291259140664469e-02
9.719999999999999751e-01,2.394293083739763295e-01,-2.340661909377537986e-01,8.945546913999861960e-02
9.729999999999999760e-01,5.787913731727480776e-02,-2.894905668366782869e-01,1.855302717892554909e-01
9.739999999999999769e-01,-2.116112253555435530e-01,-1.498228292193278799e-01,1.942518908362049490e-01
9.749999999999999778e-01,-3.351225333377177429e-01,5.227879115101401880e-02,4.231644382652388625e-02
9.759999999999999787e-01,-2.504903381511314198e-01,2.388857128957581066e-01,-5.974870649082674595e-02
9.769999999999999796e-01,-2.541354766836151358e-02,2.559783083073410848e-01,-2.009251222584831076e-01
9.779999999999999805e-01,2.023905095822736699e-01,1.222958060492123494e-01,-1.959066308266834422e-01
9.789999999999999813e-01,3.544080222510812561e-01,-8.237239310775341938e-02,-6.460037123686797333e-02
9.799999999999999822e-01,2.555160813734445591e-01,-2.468486589503534334e-01,8.725904179947961692e-02
9.809999999999999831e-01,2.265957570407417868e-02,-2.354166584836982490e-01,1.815337457021585221e-01
9.819999999999999840e-01,-2.183037773237459789e-01,-1.114218592060141899e-01,2.050319759676017817e-01
9.829999999999999849e-01,-3.607326803565114037e-01,5.710278542357585113e-02,6.171415487552803225e-02
9.839999999999999858e-01,-2.645024314505308172e-01,2.335384757637413433e-01,-5.668736319265451490e-02
9.849999999999999867e-01,-1.961989324738146537e-02,2.316688706322205249e-01,-2.257934610502098927e-01
9.859999999999999876e-01,2.324498174657932958e-01,1.264507676994958141e-01,-1.889456965268533628e-01
9.869999999999999885e-01,3.387269244063730866e-01,-9.652780917516952386e-02,-1.003528368576112884e-01
9.879999999999999893e-01,2.448725067907261410e-01,-2.396406727465311137e-01,6.372380435170459101e-02
9.889999999999999902e-01,1.266979635797202929e-02,-2.113210290232118704e-01,2.106236049513149633e-01
9.899999999999999911e-01,-2.444045578335430902e-01,-8.516512928632621882e-02,1.901026705066924949e-01
9.909999999999999920e-01,-3.319367588524934631e-01,9.168697931105847243e-02,7.462510170151782918e-02
9.919999999999999929e-01,-2.576636885938049515e-01,1.973131020593558715e-01,-2.929392599404476855e-02
9.929999999999999938e-01,-5.754507735536059862e-03,2.261747378908353923e-01,-1.709175418736162411e-01
9.939999999999999947e-01,2.196668033912561602e-01,8.581362719260120231e-02,-2.305035396440006656e-01
9.949999999999999956e-01,3.039274066211993808e-01,-1.006639215411939542e-01,-1.079262992665492304e-01
9.959999999999999964e-01,2.543388150046541063e-01,-2.173303618811824878e-01,5.157899657426018303e-02
9.969999999999999973e-01,8.133568414769773089e-03,-2.087580672464344478e-01,1.885607930984868896e-01
9.979999999999999982e-01,-2.394111269049288560e-01,-6.239372002493806524e-02,2.195052069239830372e-01
9.989999999999999991e-01,-2.988627440824849768e-01,8.426368747085861977e-02,9.799677277088318650e-02
1.000000000000000000e+00,-2.138647161919043360e-01,1.897449992448605183e-01,-7.549480520932475014e-02
1.000999999999999890e+00,-8.953871756943591539e-03,1.649890894536076014e-01,-1.896261588586955205e-01
1.002000000000000002e+00,2.096024540070378916e-01,4.956686242005475113e-02,-2.072988759016817784e-01
1.002999999999999892e+00,3.014730032681355310e-01,-9.108291116148645172e-02,-7.885092181547588563e-02
1.004000000000000004e+00,1.845226951062299281e-01,-2.076831242009831990e-01,6.031506064016419616e-02
1.004999999999999893e+00,-2.157116836241774679e-02,-1.636619507993768152e-01,1.692807026964913697e-01
1.006000000000000005e+00,-1.781634634055741517e-01,-3.235239726770693797e-02,1.872932118189243600e-01
1.006999999999999895e+00,-2.757787669579896406e-01,9.384748011400813328e-02,1.087259997498278008e-01
1.008000000000000007e+00,-1.913513859724152166e-01,1.667689844750189776e-01,-4.708748567055166812e-02
1.008999999999999897e+00,9.167631435868770634e-03,1.476037089671333180e-01,-1.809216482463194275e-01
1.010000000000000009e+00,2.057564573365425475e-01,2.086064526354471788e-02,-1.753802369739751177e-01
1.010999999999999899e+00,2.794196216381009679e-01,-5.909201377487283136e-02,-9.224387059896903274e-02
1.012000000000000011e+00,1.452956061908442509e-01,-1.614728039039826368e-01,5.361322650355814651e-02
1.012999999999999901e+00,-1.909555260046597036e-02,-1.306081847085159564e-01,1.279437672443126395e-01
1.014000000000000012e+00,-1.958313728272536303e-01,-7.437329615080295409e-04,1.910205464132959940e-01
1.014999999999999902e+00,-2.570096668578518151e-01,8.568362807345084042e-02,9.890914633705144565e-02
1.016000000000000014e+00,-1.369520961564485162e-01,1.338312947183976365e-01,-5.062179954881675104e-02
1.016999999999999904e+00,1.070592186743942777e-02,7.533866159579831467e-02,-1.249451529503729508e-01
1.018000000000000016e+00,1.950659048675696672e-01,-2.888315785615117037e-02,-1.810034887649980551e-01
1.018999999999999906e+00,1.972205836467272599e-01,-1.160426083037667255e-01,-9.429751583158670070e-02
1.020000000000000018e+00,1.100616691587119056e-01,-1.213841360230618477e-01,1.210836192815269163e-02
1.020999999999999908e+00,-3.065504980876154056e-02,-5.953260574283228412e-02,1.258325596955936487e-01
1.022000000000000020e+00,-1.954360268987717364e-01,4.545872774104853936e-02,1.576975748436389435e-01
1.022999999999999909e+00,-1.993696142203189581e-01,9.365805269903501595e-02,6.958064013552853200e-02
1.024000000000000021e+00,-9.831931397447371546e-02,9.521751194888403158e-02,-3.220126645903712004e-02
1.024999999999999911e+00,2.588001581020655736e-02,3.639778055951971986e-02,-1.234437843718697719e-01
1.026000000000000023e+00,1.452472565774903246e-01,-7.911712860831615624e-03,-1.387790067263543758e-01
1.026999999999999913e+00,1.538070217182352650e-01,-6.216366809101647739e-02,-7.863408292501609942e-02
1.028000000000000025e+00,8.343054670194971489e-02,-7.005439844974907515e-02,2.494827478915124033e-02
1.028999999999999915e+00,-8.070865143295533062e-02,-8.881241600679221429e-03,1.212087938548024740e-01
1.030000000000000027e+00,-1.382861274032563259e-01,6.583382939002106748e-02,1.267080460072833592e-01
1.030999999999999917e+00,-1.350873265508676091e-01,8.333835513524187610e-02,6.607935456567359811e-02
1.032000000000000028e+00,-5.154249019109078539e-02,4.026919275223408978e-02,-2.354489458452448114e-02
1.032999999999999918e+00,3.366714313421183269e-02,-1.551950058098740736e-04,-1.005166967010201196e-01
1.034000000000000030e+00,1.247237201920055050e-01,-6.562424580783780825e-02,-1.063959882084899444e-01
1.034999999999999920e+00,1.175182925091344116e-01,-5.009472591904578359e-02,-8.369684464661820977e-02
1.036000000000000032e+00,3.055038421040064470e-02,-4.147160718381868311e-02,5.053783243653120483e-02
1.036999999999999922e+00,-8.766587042451470801e-02,3.708434837412970947e-02,8.492173911164942190e-02
1.038000000000000034e+00,-1.012362966461446273e-01,6.784579275512755969e-02,1.009383297808840313e-01
1.038999999999999924e+00,-5.612905806523867114e-02,6.900118681119278563e-02,3.777352349286258737e-02
1.040000000000000036e+00,-2.338384018386967939e-02,-9.616403174416407245e-04,-4.552945584114693328e-02
1.040999999999999925e+00,5.721233873645977658e-02,-7.160898596335059374e-02,-5.988960786897990635e-02
1.042000000000000037e+00,7.061005160121515412e-02,-5.684702176818335478e-02,-9.392927079055778117e-02
1.042999999999999927e+00,4.183230393991131668e-02,-5.977106983864434453e-02,-6.564571401016101870e-02
1.044000000000000039e+00,-3.869714773566320515e-02,1.193472894792637143e-02,6.099946325947291914e-02
1.044999999999999929e+00,-6.595302468589923917e-02,5.357216267566726475e-02,5.702687227160273264e-02
1.046000000000000041e+00,-1.001235649750293333e-01,5.976441733070501222e-02,4.440747459558911509e-02
1.046999999999999931e+00,-2.595049738329071459e-02,2.638344634865230978e-02,4.182095696166323630e-03
1.048000000000000043e+00,2.618551116825104316e-02,-7.190414197846915767e-02,-2.794604756955679573e-02
1.048999999999999932e+00,8.148865915367085877e-02,-7.153491184593345487e-02,-8.499584206526733521e-02
1.050000000000000044e+00,6.329203837126352872e-02,-9.182290403488974073e-02,-3.191791657693613532e-02
1.050999999999999934e+00,1.712394408368304519e-02,-2.554062527586546325e-02,-2.266720663165762775e-02
1.052000000000000046e+00,-5.774760789035005698e-02,5.871014603692737560e-02,1.766330903461646798e-02
1.052999999999999936e+00,-7.768113028514833651e-02,1.514619206402746387e-01,5.176276886625930801e-02
1.054000000000000048e+00,-7.569506147644416982e-02,8.795060832603686374e-02,1.617079136373319320e-02
1.054999999999999938e+00,3.532405337734798728e-02,-1.107850431665317881e-02,1.739572992465050760e-02
1.056000000000000050e+00,9.386805930399137743e-02,-9.763479829968507717e-02,-4.310713434943420214e-02
1.056999999999999940e+00,1.048299571281159775e-01,-1.255264642467019687e-01,-5.360874406156957567e-02
1.058000000000000052e+00,1.548059372366737685e-02,-7.099433831561824393e-02,-2.517041724006233161e-02
1.058999999999999941e+00,-7.605739041991703420e-02,3.356742848152417021e-03,1.699669740983238142e-02
1.060000000000000053e+00,-1.059686219212032932e-01,1.081510085542835009e-01,5.088220139351529170e-02
1.060999999999999943e+00,-9.965039526182645213e-02,1.469921184542370418e-01,3.617582283848434777e-02
1.062000000000000055e+00,-4.046501348300367285e-02,8.319167034456674548e-02,-1.773736992941083454e-03
1.062999999999999945e+00,6.742377354840838055e-02,-2.851725016219216688e-02,-5.111231982584776845e-02
1.064000000000000057e+00,1.328727859365263497e-01,-1.168675599168804563e-01,-3.418889932498585943e-02
1.064999999999999947e+00,8.772087181683839441e-02,-1.652242543280017517e-01,-3.451269811953958794e-02
1.066000000000000059e+00,9.098695619365558800e-04,-5.756920876136504411e-02,6.779366379154970652e-03
1.066999999999999948e+00,-1.416262670926046185e-01,8.042937793013744951e-02,4.331188809569823384e-02
1.068000000000000060e+00,-1.521669155500560422e-01,1.833372284093972016e-01,5.174986318511994032e-02
1.068999999999999950e+00,-1.188830107106451511e-01,1.474894718412543548e-01,3.232311953212396033e-02
1.070000000000000062e+00,-4.235247717924927983e-03,5.774005032793678993e-02,-3.565535219000790651e-02
1.070999999999999952e+00,1.487922899422053358e-01,-5.682887339786270309e-02,-4.916121215204571210e-02
1.072000000000000064e+00,1.869557046007717382e-01,-1.901515465301591434e-01,-4.603191474710165154e-02
1.072999999999999954e+00,1.188024187046354957e-01,-1.743751706123816969e-01,-3.333723772852360129e-02
1.074000000000000066e+00,-1.585106124387967302e-02,-7.483103277057273628e-02,3.387096169881073648e-02
1.074999999999999956e+00,-1.462372437766640554e-01,9.653051368500928375e-02,8.306308062562181571e-02
1.076000000000000068e+00,-2.064745653095731437e-01,2.228729386248010647e-01,8.978331899952654571e-02
1.076999999999999957e+00,-1.079245411149166445e-01,1.938339791549364977e-01,3.572867876001924181e-02
1.078000000000000069e+00,4.402695161551944264e-02,4.795350487876682416e-02,-3.747488054691717335e-02
1.078999999999999959e+00,1.757373869141040934e-01,-1.055839694548936364e-01,-9.291738464631450756e-02
1.080000000000000071e+00,2.248768721546032801e-01,-2.266189549424969252e-01,-1.007737655555501211e-01
1.080999999999999961e+00,1.229559329845448939e-01,-1.872365597087682909e-01,-3.175706775987936076e-02
1.082000000000000073e+00,-5.436952621550824455e-02,-3.624488871384686645e-02,7.397937663120519869e-02
1.082999999999999963e+00,-2.167848695262139525e-01,1.521206005092662905e-01,1.030494197807194923e-01
1.084000000000000075e+00,-2.315632438253270586e-01,2.383405935584956559e-01,8.497508077010067218e-02
1.084999999999999964e+00,-1.554678315948541667e-01,1.931326751516649343e-01,3.779567268569570399e-02
1.086000000000000076e+00,4.052659515546458424e-02,1.663008158408132986e-02,-9.488391717755186028e-02
1.086999999999999966e+00,2.370820122624824333e-01,-1.577053498062974124e-01,-9.647183558520791569e-02
1.088000000000000078e+00,2.676551303274901095e-01,-2.471727794670018630e-01,-1.541235246782154678e-01
1.088999999999999968e+00,1.459075094729548883e-01,-2.123227178050381969e-01,-1.790805963052238825e-02
1.090000000000000080e+00,-7.890672226271945588e-02,-3.651171559285108781e-02,6.587317790436984788e-02
1.090999999999999970e+00,-2.476029970563401184e-01,1.848815832974378959e-01,1.287499544703009091e-01
1.092000000000000082e+00,-2.873002877387385579e-01,2.533330605751004660e-01,1.070834634526573320e-01
1.092999999999999972e+00,-1.313179147976253347e-01,1.935594010384185104e-01,5.293495986061779596e-02
1.094000000000000083e+00,7.516124822361316959e-02,6.784140004482241970e-03,-7.442081098126897276e-02
1.094999999999999973e+00,2.859853324436560928e-01,-1.868782652195632721e-01,-1.699074336721374257e-01
1.096000000000000085e+00,2.904100368718577907e-01,-2.702238553799438670e-01,-1.250752385631069830e-01
1.096999999999999975e+00,1.308043089172996332e-01,-2.022253648654612490e-01,-1.452154401866191311e-02
1.098000000000000087e+00,-1.060185614393339831e-01,-1.318474596613801106e-02,1.074237527260506753e-01
1.098999999999999977e+00,-2.809317408987356268e-01,2.131482323701054948e-01,2.074047255616864871e-01
1.100000000000000089e+00,-3.011711820786117655e-01,2.709283979631604278e-01,1.239256278384536086e-01
1.100999999999999979e+00,-1.662615079150935316e-01,1.951870239826778985e-01,3.022036618404367117e-02
1.102000000000000091e+00,9.129348300983586295e-02,-7.407359584971470214e-03,-9.924436044564674542e-02
1.102999999999999980e+00,2.970270635727944031e-01,-2.099064450371825041e-01,-1.613155299441806079e-01
1.104000000000000092e+00,3.263583049346442388e-01,-2.767177568920377584e-01,-1.060265419304584344e-01
1.104999999999999982e+00,1.316168198070960527e-01,-1.907870729020930689e-01,-7.266791147834038289e-02
1.106000000000000094e+00,-1.295452733236691079e-01,3.210193814321218170e-02,9.769275275150102189e-02
1.106999999999999984e+00,-3.127850721191303696e-01,2.094458581093939509e-01,1.688276306432231755e-01
1.108000000000000096e+00,-3.257875657589001106e-01,2.722282909152083374e-01,1.254537111957306217e-01
1.108999999999999986e+00,-1.393608434543276153e-01,1.800914458911743177e-01,5.201044853593707329e-02
1.110000000000000098e+00,1.168402536689271409e-01,-4.100489456628887003e-02,-8.430523587761623583e-02
1.110999999999999988e+00,3.003146551437774758e-01,-2.186949943268957364e-01,-1.946123135715087937e-01
1.112000000000000099e+00,3.246620556273799862e-01,-2.725994901969645001e-01,-1.481479419245525786e-01
1.112999999999999989e+00,1.406103302011262324e-01,-1.639827406952510669e-01,-3.974175752413257323e-02
1.114000000000000101e+00,-1.260741687185978066e-01,7.464283638193058845e-02,8.626958394379712070e-02
1.114999999999999991e+00,-3.036411101785556066e-01,2.210705780215308780e-01,1.837547425120117373e-01
1.116000000000000103e+00,-3.152420322559697508e-01,2.885846164201587016e-01,1.707005982103812769e-01
1.116999999999999993e+00,-1.308992098174995844e-01,1.466449453518017254e-01,3.114657414764709920e-02
1.118000000000000105e+00,1.103576041808561475e-01,-7.959102345315048621e-02,-1.006539993808642647e-01
1.118999999999999995e+00,2.940900173100765569e-01,-2.151100389626788567e-01,-1.691076834703128529e-01
1.120000000000000107e+00,3.274795936767279647e-01,-2.467659602106161143e-01,-1.710733644253082109e-01
1.120999999999999996e+00,1.440508275616055045e-01,-1.220439754660136711e-01,-5.261972873302015602e-02
1.122000000000000108e+00,-1.152308910182869434e-01,5.305737136119845904e-02,6.907896037380600873e-02
1.122999999999999998e+00,-2.924344037047198475e-01,1.966385090350664389e-01,2.216658241309118205e-01
1.124000000000000110e+00,-3.079274578078411428e-01,2.270828241144672299e-01,1.857502644693242722e-01
1.125000000000000000e+00,-1.324491451985468637e-01,1.203152842672801370e-01,8.318447944559047291e-02
1.125999999999999890e+00,1.450891699677538393e-01,-8.551518851153294687e-02,-1.215572560090864285e-01
1.127000000000000002e+00,3.380975207333563604e-01,-2.254955050000390926e-01,-2.155942727950617976e-01
1.127999999999999892e+00,3.177473392974398680e-01,-2.357462482280902050e-01,-1.827607128108185430e-01
1.129000000000000004e+00,1.282170449273036250e-01,-1.145666238743709847e-01,-8.736111230491551416e-02
1.129999999999999893e+00,-1.426054298857623026e-01,7.993400847968346046e-02,8.963384440708174750e-02
1.131000000000000005e+00,-3.224343285692259919e-01,2.401350948954760478e-01,1.954198426480471262e-01
1.131999999999999895e+00,-3.066019687292770302e-01,2.378793452981320666e-01,1.946719300318732193e-01
1.133000000000000007e+00,-1.052184238260146926e-01,8.365304241280471786e-02,4.633140688988662131e-02
1.133999999999999897e+00,1.266514324895757770e-01,-8.787253253161268762e-02,-9.445724536748253963e-02
1.135000000000000009e+00,3.219397328244500978e-01,-2.110580406012948218e-01,-2.123280047647481406e-01
1.135999999999999899e+00,2.861442935842117286e-01,-1.728496476960533768e-01,-1.646059305961397878e-01
1.137000000000000011e+00,1.215223480286186652e-01,-7.858491218284847923e-02,-8.435225252833895848e-02
1.137999999999999901e+00,-1.471531555255343182e-01,1.258165074543617645e-01,9.307216033786348819e-02
1.139000000000000012e+00,-3.136509550879053032e-01,2.094981849622833403e-01,1.768693507490767258e-01
1.139999999999999902e+00,-2.808433454842002019e-01,1.875461568801693180e-01,1.772601123931523692e-01
1.141000000000000014e+00,-8.723717818384237044e-02,4.941052192489786554e-02,5.059079759172011720e-02
1.141999999999999904e+00,1.142601755694113153e-01,-1.001122754665543790e-01,-7.432817125998096575e-02
1.143000000000000016e+00,2.677149798684023141e-01,-1.900879881661293180e-01,-1.760381877878377521e-01
1.143999999999999906e+00,2.539325826434923328e-01,-1.587251592939898648e-01,-1.695956905037956375e-01
1.145000000000000018e+00,7.751266709733059534e-02,-2.888607064551233783e-02,-6.819454729303708884e-02
1.145999999999999908e+00,-1.770301465852106015e-01,9.928162230936568577e-02,1.008901082397405807e-01
1.147000000000000020e+00,-2.703647327566212621e-01,1.620290472377589330e-01,1.847940235158124778e-01
1.147999999999999909e+00,-2.471614445818947903e-01,1.576474582622420795e-01,1.729326821180605378e-01
1.149000000000000021e+00,-8.035789896340579663e-02,-2.920117387458745929e-04,5.911274282181889356e-02
1.149999999999999911e+00,1.243754147191001858e-01,-1.035726097412232732e-01,-6.661496308955480727e-02
1.151000000000000023e+00,2.264865964818587873e-01,-1.476360437028371997e-01,-1.464736316646034486e-01
1.151999999999999913e+00,2.371643408394975561e-01,-1.395487709836793766e-01,-1.720022768534091862e-01
1.153000000000000025e+00,6.349576822006411381e-02,7.356621778232354247e-03,-5.739008914505831782e-02
1.153999999999999915e+00,-1.179252955715393431e-01,1.097517019054776582e-01,5.605540112325245461e-02
1.155000000000000027e+00,-2.436865624539846509e-01,1.261780303431072059e-01,1.658202848544353125e-01
1.155999999999999917e+00,-1.864810328429636899e-01,8.000130211744677089e-02,1.420870795497383432e-01
1.157000000000000028e+00,-5.045116873305283828e-02,-1.629335058524502070e-02,6.555947943499072783e-02
1.157999999999999918e+00,1.215458314502360915e-01,-1.114067361967355507e-01,-7.538825262877402178e-02
1.159000000000000030e+00,2.182051117526881689e-01,-1.156790359573650756e-01,-1.430071914870399696e-01
1.159999999999999920e+00,1.958115344632374577e-01,-6.419440650109733970e-02,-1.473162654202702093e-01
1.161000000000000032e+00,2.160114600240927232e-02,4.174790094915562660e-02,-6.436525697220971121e-02
1.161999999999999922e+00,-1.052637815339669686e-01,8.359704204661967675e-02,5.978970324770267741e-02
1.163000000000000034e+00,-2.094706722713639557e-01,1.035249066577095950e-01,1.500459421312762276e-01
1.163999999999999924e+00,-1.334265872679695208e-01,6.992627821745438232e-02,1.326945492288800765e-01
1.165000000000000036e+00,-3.375926918134615484e-02,-4.942105789175592345e-02,7.154489354643302212e-02
1.165999999999999925e+00,1.080221541408022540e-01,-6.051316930519370224e-02,-5.399485088947125061e-02
1.167000000000000037e+00,2.009345867167669775e-01,-8.590984361891361443e-02,-9.484139634570254440e-02
1.167999999999999927e+00,1.385559472222279154e-01,-1.022183358741880765e-02,-1.306492957015925604e-01
1.169000000000000039e+00,2.297589402226120087e-03,7.246671313810304493e-02,-7.230595837046202567e-02
1.169999999999999929e+00,-1.153724642435132453e-01,1.046624191429239570e-01,5.211868116915382987e-02
1.171000000000000041e+00,-1.828250893635778862e-01,7.023021102778202740e-02,1.533014809061194472e-01
1.171999999999999931e+00,-1.038879248615602463e-01,1.062777851030564762e-02,1.036670321533580824e-01
1.173000000000000043e+00,1.901038271605159230e-02,-3.949019377176936352e-02,1.787862125937348182e-02
1.173999999999999932e+00,8.988179966890375017e-02,-8.566021834626152964e-02,-4.527872888178797323e-02
1.175000000000000044e+00,1.463423342245267211e-01,-1.641807436130554923e-02,-9.760108493914602945e-02
1.175999999999999934e+00,8.733900960121707135e-02,3.664857968458201665e-02,-1.281536604642875277e-01
1.177000000000000046e+00,-1.194777358863486662e-02,8.510403426756131540e-02,-2.391954015245286932e-02
1.177999999999999936e+00,-7.326563159727110530e-02,3.868704295395793830e-02,3.131149054518643504e-02
1.179000000000000048e+00,-1.117387494624377392e-01,1.258076050298914499e-02,9.610026416785814873e-02
1.179999999999999938e+00,-1.810157118822362798e-02,-4.921247902959632881e-02,9.364069777607031408e-02
1.181000000000000050e+00,5.360932694573187357e-02,-4.295222892637547141e-02,3.071436051797443376e-02
