time,acc_x,acc_y,acc_z
0.000000000000000000e+00,2.035564880640995666e-01,6.087636931155572528e-02,2.090594782959998843e-01
1.000000000000000021e-03,1.834395111983509186e-01,5.267588531155240755e-02,1.948366414269281366e-01
2.000000000000000042e-03,1.775954242755617141e-01,4.788928038013474248e-02,1.848944116183993958e-01
3.000000000000000062e-03,1.530200688477188486e-01,1.444526852502307432e-02,1.737179752809458466e-01
4.000000000000000083e-03,7.194366565214337095e-02,-7.371586971396221211e-02,1.442306708940822579e-01
5.000000000000000104e-03,-6.902374405899924792e-02,-2.039741533891941960e-01,7.337948080271355922e-02
6.000000000000000125e-03,-2.607141478063139117e-01,-3.447629087975345175e-01,-3.286909450687038742e-02
7.000000000000000146e-03,-4.225119854580889345e-01,-4.520530370614625482e-01,-1.353751631512086495e-01
8.000000000000000167e-03,-5.220515148229153413e-01,-5.005407505293019144e-01,-2.144174275844338284e-01
8.999999999999999320e-03,-5.656044126389907500e-01,-5.331442075176284767e-01,-2.650186314792368214e-01
1.000000000000000021e-02,-6.156646319905483278e-01,-5.557152649228013219e-01,-2.900357510864443045e-01
1.099999999999999936e-02,-6.539005828249928598e-01,-6.042178985024465598e-01,-3.098209706561605437e-01
1.200000000000000025e-02,-7.084983713342019040e-01,-6.259805594217511260e-01,-3.610686887950614876e-01
1.299999999999999940e-02,-7.195849540589239757e-01,-6.019211444766955355e-01,-3.826426782986664943e-01
1.400000000000000029e-02,-6.554854515920074398e-01,-5.093477161668833464e-01,-3.790047093880882789e-01
1.499999999999999944e-02,-5.370509974036169476e-01,-3.967424661076434655e-01,-3.236090259918657508e-01
1.600000000000000033e-02,-3.816755094116368041e-01,-2.787034884345643282e-01,-2.310760577267055027e-01
1.700000000000000122e-02,-2.743439560650036690e-01,-2.020704701001338199e-01,-1.577274880951343161e-01
1.799999999999999864e-02,-2.016979508944130584e-01,-1.505067444321375736e-01,-1.124488645946361276e-01
1.899999999999999953e-02,-1.585501018563018893e-01,-1.104276856291454417e-01,-8.069495215091049278e-02
2.000000000000000042e-02,-1.150107625522097526e-01,-5.815739277505033167e-02,-5.245914664024767943e-02
2.100000000000000130e-02,-3.867305567150761125e-02,5.657433781128873892e-05,-2.475402365170454103e-02
2.199999999999999872e-02,2.934837726715116418e-02,2.481953915057912713e-02,3.266827187963164403e-02
2.299999999999999961e-02,1.960370957819197041e-02,-8.896355758135613204e-03,3.991123387407755074e-02
2.400000000000000050e-02,-6.920368805615666197e-02,-1.034290506149964373e-01,2.765053085599552402e-02
2.500000000000000139e-02,-1.988723188254040708e-01,-2.079755284004270177e-01,-4.904534607990351791e-02
2.599999999999999881e-02,-3.312062293078428810e-01,-3.090279390305509799e-01,-1.339306144266760035e-01
2.699999999999999969e-02,-4.259608647892283995e-01,-3.482001839577883451e-01,-2.075350763470192039e-01
2.800000000000000058e-02,-4.791844363534437101e-01,-3.989770308060706094e-01,-2.592562240844126231e-01
2.900000000000000147e-02,-5.657611894567124988e-01,-4.554876062453769858e-01,-3.064566111243973157e-01
2.999999999999999889e-02,-6.557176532359995091e-01,-5.452445142923316723e-01,-3.499538570431020013e-01
3.099999999999999978e-02,-7.685410041134760339e-01,-6.063897238877087315e-01,-4.129284430455196775e-01
3.200000000000000067e-02,-8.134649287905323378e-01,-6.088240214942172157e-01,-4.832522468968425411e-01
3.300000000000000155e-02,-8.089859943499839723e-01,-5.445048657734489206e-01,-5.131155234966300327e-01
3.400000000000000244e-02,-7.288007455523466405e-01,-4.384892603023365365e-01,-4.863639978846575618e-01
3.500000000000000333e-02,-6.019699173671586578e-01,-3.264204869656063823e-01,-4.303688857957548852e-01
3.599999999999999728e-02,-4.755898214278486136e-01,-2.538813892718390086e-01,-3.669101333085862393e-01
3.699999999999999817e-02,-3.913827244236611769e-01,-1.931628825411006445e-01,-2.961045390695082880e-01
3.799999999999999906e-02,-3.249565873732895294e-01,-1.124302641002576653e-01,-2.604255575703348091e-01
3.899999999999999994e-02,-2.155611343527087387e-01,-9.659330487792497193e-04,-2.192086664293018128e-01
4.000000000000000083e-02,-6.823447018641723427e-02,1.269497798130575783e-01,-1.467451803904505081e-01
4.100000000000000172e-02,6.727096648788113975e-02,2.004264455874538720e-01,-6.226221899038860558e-02
4.200000000000000261e-02,1.560948840316999653e-01,2.146367510722931582e-01,7.499056145384595459e-03
4.299999999999999656e-02,1.488632801287352869e-01,1.686754843112236724e-01,4.612921706044288694e-02
4.399999999999999745e-02,9.568204686824542671e-02,1.154387648818316903e-01,4.483244143830677347e-02
4.499999999999999833e-02,3.361838853666190841e-02,7.557493440478060820e-02,-9.416307393950197613e-03
4.599999999999999922e-02,-2.140202268889348711e-02,4.881494804787751829e-02,-4.905764394590236138e-02
4.700000000000000011e-02,-6.598767106281394623e-02,5.962412563854872782e-03,-7.240731028762155408e-02
4.800000000000000100e-02,-1.270463934147913199e-01,-7.231306265282615164e-02,-1.031862249338918874e-01
4.900000000000000189e-02,-2.262271783190183405e-01,-1.707644420199562751e-01,-1.459334033581384249e-01
5.000000000000000278e-02,-3.582541051177055014e-01,-2.765392059149895942e-01,-2.125046417365999973e-01
5.099999999999999672e-02,-4.812268116603670709e-01,-3.107234516322879281e-01,-2.913238999251616668e-01
5.199999999999999761e-02,-5.155561791369218660e-01,-2.985107458566436112e-01,-3.556434247805637106e-01
5.299999999999999850e-02,-4.877891454710227004e-01,-2.299495481383575513e-01,-3.865115835470941952e-01
5.399999999999999939e-02,-4.189423682492973144e-01,-1.714420131967847316e-01,-3.711829232987081673e-01
5.500000000000000028e-02,-3.456028965395321340e-01,-1.348235228409750963e-01,-3.259942666801112776e-01
5.600000000000000117e-02,-2.966634714532002115e-01,-8.049386766159874473e-02,-2.871221260390892649e-01
5.700000000000000205e-02,-2.329295212710891794e-01,-2.654226534588448577e-03,-2.532506355071024728e-01
5.800000000000000294e-02,-1.253458504409354080e-01,1.338782591612336648e-01,-2.196491251681291224e-01
5.899999999999999689e-02,3.690051191805904240e-02,2.697436295183066601e-01,-1.643838663013868218e-01
5.999999999999999778e-02,2.243595389218857872e-01,4.066775619034802003e-01,-5.591659180272192525e-02
6.099999999999999867e-02,3.701247509758320842e-01,4.596516390163666310e-01,5.669074962606367868e-02
6.199999999999999956e-02,4.482552535196002164e-01,4.628874311845952993e-01,1.392596024110128727e-01
6.300000000000000044e-02,4.556124679763381979e-01,4.498721161305938576e-01,1.774653372762721171e-01
6.400000000000000133e-02,4.600765145708034520e-01,4.637480493500502066e-01,1.944926021986639053e-01
6.500000000000000222e-02,4.588992474894790230e-01,4.679790124945821805e-01,1.968785458686180823e-01
6.600000000000000311e-02,4.755148916946965731e-01,4.417299791458773606e-01,1.983200660465962162e-01
6.700000000000000400e-02,4.442694040890815543e-01,3.587278482763109899e-01,2.135989311799957879e-01
6.800000000000000488e-02,3.566262963781844930e-01,2.473260609416878808e-01,1.967084955382154832e-01
6.900000000000000577e-02,2.151651128964414961e-01,1.275187866491366284e-01,1.519201088658907184e-01
7.000000000000000666e-02,7.096906244345599357e-02,5.791679153976014849e-02,6.491115274649139621e-02
7.099999999999999367e-02,-2.162583175441919886e-02,2.649281299573207418e-02,-1.507172276599995885e-02
7.199999999999999456e-02,-5.580531489053042887e-02,1.613565006477606437e-02,-6.621511142222315238e-02
7.299999999999999545e-02,-5.358670849656767265e-02,2.052912861589237942e-02,-9.872335833778285441e-02
7.399999999999999634e-02,-4.188079586660161530e-02,-3.824446334465977492e-03,-9.839516695770968158e-02
7.499999999999999722e-02,-7.745692389586883442e-02,1.347657850070174993e-03,-9.863723714149899569e-02
7.599999999999999811e-02,-7.023003207702312178e-02,5.396514642456618632e-02,-1.031415902217376612e-01
7.699999999999999900e-02,-1.740643123081017998e-02,1.611101641939196860e-01,-1.014190758594640668e-01
7.799999999999999989e-02,1.157320650889407804e-01,3.060570156616527204e-01,-7.798707626185558128e-02
7.900000000000000078e-02,3.023767371319949770e-01,4.116020587789518403e-01,1.617610403059880405e-03
8.000000000000000167e-02,4.490929065009010013e-01,4.934627712167245495e-01,1.008471709500567554e-01
8.100000000000000255e-02,5.473259328683719449e-01,5.306536640612831146e-01,1.932600309846985442e-01
8.200000000000000344e-02,6.090541545111171073e-01,5.540431188994852096e-01,2.549142051865463943e-01
8.300000000000000433e-02,6.617914284067724084e-01,6.138023746985786788e-01,3.034321064856966843e-01
8.400000000000000522e-02,7.223196933513136297e-01,6.567296964545312754e-01,3.404687865589978712e-01
8.500000000000000611e-02,7.951557232713990508e-01,6.545195347437089417e-01,3.893675224562132553e-01
8.599999999999999312e-02,8.008815299857563463e-01,5.837019361875523948e-01,4.238659351042547985e-01
8.699999999999999400e-02,7.541729826724349328e-01,4.618351207345346987e-01,4.542233250460778193e-01
8.799999999999999489e-02,6.485087299357438217e-01,3.540912294553204553e-01,4.477252113607982364e-01
8.899999999999999578e-02,4.956714072920190839e-01,2.565903046748287952e-01,3.915015970270157575e-01
8.999999999999999667e-02,3.654823581455237669e-01,1.936977883456910132e-01,3.068421974992605050e-01
9.099999999999999756e-02,2.923407808699691746e-01,1.382439845906497378e-01,2.356368463149987602e-01
9.199999999999999845e-02,2.408765452586440203e-01,6.567849412121420927e-02,1.810760252722984909e-01
9.299999999999999933e-02,1.657409938722213816e-01,-2.022883383190483483e-02,1.393801724287837274e-01
9.400000000000000022e-02,6.674462544028765543e-02,-7.284695539745052184e-02,1.110164950452680460e-01
9.500000000000000111e-02,-2.339711508238814797e-02,-7.013759262279456452e-02,4.852580101457806827e-02
9.600000000000000200e-02,-5.075797410521872000e-02,-2.123041659540282969e-02,8.720312622433269018e-03
9.700000000000000289e-02,1.142261410720530820e-02,7.537906800960954279e-02,-1.844238296223990603e-02
9.800000000000000377e-02,1.189224964840297771e-01,1.622645378563298268e-01,7.081957417515396440e-04
9.900000000000000466e-02,2.320932142029197565e-01,2.106195268892455674e-01,5.303639915361373081e-02
1.000000000000000056e-01,3.200719327236987710e-01,2.553226401966657844e-01,1.369909187692031072e-01
1.010000000000000064e-01,3.707658264621393474e-01,3.173602316668379109e-01,1.863347483506148095e-01
1.019999999999999934e-01,4.414943782999823374e-01,4.014213404754093939e-01,2.403894113102725272e-01
1.029999999999999943e-01,5.444613235496092996e-01,4.722698045793315980e-01,2.732273899904648640e-01
1.039999999999999952e-01,6.576092333092797837e-01,5.170932795121329084e-01,3.220265460694702320e-01
1.049999999999999961e-01,7.255294098259169600e-01,4.784921449144108330e-01,4.026392659073223523e-01
1.059999999999999970e-01,7.347856414478627363e-01,3.952185096942223974e-01,4.544089693438823629e-01
1.069999999999999979e-01,6.507444428390378732e-01,3.101866044664783328e-01,4.833362010560956490e-01
1.079999999999999988e-01,5.467616270998344463e-01,2.281849328730066184e-01,4.704283473196960164e-01
1.089999999999999997e-01,4.461709709135073254e-01,1.614679959729499459e-01,4.100819977638968661e-01
1.100000000000000006e-01,3.553495032305860613e-01,8.215961574774466314e-02,3.439839222859948364e-01
1.110000000000000014e-01,2.776678936998276948e-01,-3.757858812917334174e-02,3.057855651174883338e-01
1.120000000000000023e-01,1.593270875536661191e-01,-1.694493831625016877e-01,2.623126625544016099e-01
1.130000000000000032e-01,1.214721075519796870e-02,-2.859786500476569904e-01,2.015290910538417302e-01
1.140000000000000041e-01,-1.461533349490554967e-01,-3.294945826544734557e-01,1.160269065621191975e-01
1.150000000000000050e-01,-2.497905873783186070e-01,-3.258647143504836974e-01,2.090665135737422575e-02
1.160000000000000059e-01,-2.908301980829947064e-01,-2.820047880474750301e-01,-5.228680254734034000e-02
1.170000000000000068e-01,-2.497462195550485264e-01,-2.443409042173864676e-01,-9.405849193264510799e-02
1.179999999999999938e-01,-2.055590380779994675e-01,-2.280317473498493230e-01,-9.249893175670029222e-02
1.189999999999999947e-01,-1.696185996985402344e-01,-1.983416073002311486e-01,-7.260367578077683848e-02
1.199999999999999956e-01,-1.466513878213183686e-01,-1.238788207208595948e-01,-3.619584204603228106e-02
1.209999999999999964e-01,-9.664266505310155353e-02,-2.626137458669705257e-02,-2.584863383686169733e-02
1.219999999999999973e-01,2.062434586722702162e-02,8.692834573420324396e-02,-1.360464765575926209e-02
1.229999999999999982e-01,1.546692166973267502e-01,1.611556149331850873e-01,4.807823917014733550e-02
1.239999999999999991e-01,2.741867237188784223e-01,1.668219922884554562e-01,1.149349047863850171e-01
1.250000000000000000e-01,3.376288007878298081e-01,1.371878744659282834e-01,1.921462655233314165e-01
1.260000000000000009e-01,3.167187884028288547e-01,9.260969071242046435e-02,2.617991220733384972e-01
1.270000000000000018e-01,2.749232513982557413e-01,6.292291700518694297e-02,2.792986576589997494e-01
1.280000000000000027e-01,2.322719566184422990e-01,3.871847713193068280e-02,2.571800242464892805e-01
1.290000000000000036e-01,2.050328477408235039e-01,-3.556992272353555473e-02,2.370311959360295317e-01
1.300000000000000044e-01,1.415003607553680653e-01,-1.597924133362753352e-01,2.040360002551208918e-01
1.310000000000000053e-01,4.450549600703528064e-02,-2.985715941395647999e-01,1.931450754894594168e-01
1.320000000000000062e-01,-1.322930625671216442e-01,-4.189340080816474909e-01,1.656112222402214840e-01
1.330000000000000071e-01,-2.978601562551111970e-01,-5.042518258847021873e-01,8.003726428571111828e-02
1.340000000000000080e-01,-4.504139255100256256e-01,-5.246131229765004234e-01,-1.699039734809992819e-02
1.350000000000000089e-01,-5.407890565029577212e-01,-5.336160030833195789e-01,-1.351541776203900036e-01
1.360000000000000098e-01,-5.743652094734723601e-01,-5.449908871517072928e-01,-2.076085551207133839e-01
1.370000000000000107e-01,-5.925275893826495999e-01,-5.698236340735548522e-01,-2.491618679607073839e-01
1.380000000000000115e-01,-6.189993501806371201e-01,-5.711149448743965129e-01,-2.733603417330832119e-01
1.390000000000000124e-01,-6.455143958355491485e-01,-5.023336756125603708e-01,-2.868460065363501732e-01
1.400000000000000133e-01,-6.261164347614431858e-01,-3.975681236763298210e-01,-3.057241825295586857e-01
1.409999999999999865e-01,-5.491056244402529041e-01,-2.562329865748115831e-01,-3.244320470536578571e-01
1.419999999999999873e-01,-3.925082547354524776e-01,-1.685945200000611710e-01,-3.102698335371053551e-01
1.429999999999999882e-01,-2.624880811269919567e-01,-1.173069210161115788e-01,-2.464106857271231577e-01
1.439999999999999891e-01,-1.471607621109492225e-01,-8.926103728408270321e-02,-1.798949973417094395e-01
1.449999999999999900e-01,-9.695917174343965383e-02,-6.788655778495329696e-02,-8.880688828547120273e-02
1.459999999999999909e-01,-6.921854311455530318e-02,-2.840847766802193433e-02,-4.041494551366567323e-02
1.469999999999999918e-01,-4.727311924294846229e-02,7.797266854758513280e-04,-1.467140612352961157e-02
1.479999999999999927e-01,5.193955501134914048e-03,-1.256666596225088778e-02,-8.971107105394286046e-03
1.489999999999999936e-01,2.463351671371506735e-02,-1.120840010508165063e-01,8.385591453833302067e-03
1.499999999999999944e-01,-1.079388643365972178e-02,-2.192657015884072191e-01,4.916469407706362121e-02
1.509999999999999953e-01,-1.245497207252237587e-01,-3.358797171708270413e-01,4.966680171339083599e-02
1.519999999999999962e-01,-2.773880264616260805e-01,-4.068935142576916020e-01,1.831533327109968745e-02
1.529999999999999971e-01,-4.237316520582617985e-01,-4.460899709096504684e-01,-4.786124121235435513e-02
1.539999999999999980e-01,-5.207361142045447977e-01,-4.905510715409835965e-01,-1.495910482029482180e-01
1.549999999999999989e-01,-5.808359645203261534e-01,-5.449472742336697317e-01,-2.387775274170558237e-01
1.559999999999999998e-01,-6.535980017681668475e-01,-6.144284926356664567e-01,-2.831954675678977074e-01
1.570000000000000007e-01,-7.098387488658303157e-01,-6.368387646746158648e-01,-3.251321910695639250e-01
1.580000000000000016e-01,-8.034250678676407853e-01,-5.977562118795289869e-01,-3.738010878713138863e-01
1.590000000000000024e-01,-8.313877217578623524e-01,-4.971607562648275858e-01,-4.264055236959896633e-01
1.600000000000000033e-01,-7.871920458046763880e-01,-3.766885945453115059e-01,-4.761125930953412633e-01
1.610000000000000042e-01,-6.850170877666830194e-01,-2.826218130276469953e-01,-5.146032302819764093e-01
1.620000000000000051e-01,-5.331957430233799089e-01,-2.078096284177673447e-01,-4.812724443230410598e-01
1.630000000000000060e-01,-4.206670072449019693e-01,-1.486885739661028272e-01,-4.245843841660300044e-01
1.640000000000000069e-01,-3.282491458181819310e-01,-5.780383298760104899e-02,-3.317961232862159382e-01
1.650000000000000078e-01,-2.578800584772875659e-01,4.349747253155247795e-02,-2.597093680611146094e-01
1.660000000000000087e-01,-1.677776579711786620e-01,1.286187827004520445e-01,-2.184855919794882195e-01
1.670000000000000095e-01,-3.992646333190775360e-02,1.717149106680305737e-01,-1.720087732689916937e-01
1.680000000000000104e-01,7.286553626915220905e-02,1.493254819086857477e-01,-1.187849927670321659e-01
1.690000000000000113e-01,1.287097397201426019e-01,7.456639183754232292e-02,-5.959335218411005580e-02
1.700000000000000122e-01,8.194698891166615762e-02,2.624993212604603571e-03,9.826982951316209566e-03
1.710000000000000131e-01,-2.823487600111488673e-03,-5.054254193894408553e-02,2.708316032462043665e-02
1.719999999999999862e-01,-1.028112315805035371e-01,-8.067104815477509072e-02,2.105395617801031349e-02
1.729999999999999871e-01,-1.498010712335127170e-01,-1.409202876516863767e-01,-4.336097998874110376e-02
1.739999999999999880e-01,-2.036947006476161892e-01,-2.286808548730543955e-01,-8.121590188264132815e-02
1.749999999999999889e-01,-2.806537717840689172e-01,-3.171177525215064241e-01,-1.262240142264866027e-01
1.759999999999999898e-01,-3.831000153116635998e-01,-3.762848223092938871e-01,-1.619270794392075885e-01
1.769999999999999907e-01,-5.078153853917803939e-01,-3.839316499521264747e-01,-2.050885082775826540e-01
1.779999999999999916e-01,-5.875321377099022024e-01,-3.226135289826136399e-01,-2.626372503744364706e-01
1.789999999999999925e-01,-6.114621387049608003e-01,-2.328499416050927029e-01,-3.567201215246588730e-01
1.799999999999999933e-01,-5.452035140833902949e-01,-1.757601207362636808e-01,-4.043469741107289517e-01
1.809999999999999942e-01,-4.439125566961816260e-01,-1.165801436509652511e-01,-4.347956026002636754e-01
1.819999999999999951e-01,-3.580441145703126549e-01,-2.940244551001679543e-02,-4.062916631991381200e-01
1.829999999999999960e-01,-2.849777067882682813e-01,7.137552027892561657e-02,-3.419787586781233846e-01
1.839999999999999969e-01,-2.054650176997949718e-01,2.086625722604333599e-01,-3.047289604325068013e-01
1.849999999999999978e-01,-8.282558433213865756e-02,3.340613312949460290e-01,-2.609327837921587845e-01
1.859999999999999987e-01,7.744746771586105694e-02,4.230784601377139964e-01,-2.156705797863124607e-01
1.869999999999999996e-01,2.503252360615865757e-01,4.425615341945831060e-01,-1.542383422282798955e-01
1.880000000000000004e-01,3.778973595587226675e-01,4.164757157629179751e-01,-4.960575425733353833e-02
1.890000000000000013e-01,4.149457920642172226e-01,3.998696591636398123e-01,3.670547031774573643e-02
1.900000000000000022e-01,4.143230609597483571e-01,3.940798564583525843e-01,1.322359022837621134e-01
1.910000000000000031e-01,3.776320002219089589e-01,3.716740768900136382e-01,1.671344975564205415e-01
1.920000000000000040e-01,3.641880336631221904e-01,3.196754774011575928e-01,1.506116041823545859e-01
1.930000000000000049e-01,3.488538906928214112e-01,2.062832418358695463e-01,1.513880935957844787e-01
1.940000000000000058e-01,3.101013082014841826e-01,8.985375763176139952e-02,1.412575876137699693e-01
1.950000000000000067e-01,2.086413137079872471e-01,-1.183797206871260721e-02,1.384115631602521324e-01
1.960000000000000075e-01,5.836935322663810294e-02,-4.558399798814426196e-02,1.226149816372876927e-01
1.970000000000000084e-01,-7.353542999498240140e-02,-3.660781629126824005e-02,7.074713204555314883e-02
1.980000000000000093e-01,-1.514424395753004859e-01,-1.184958281903254057e-02,-7.818492340900646057e-03
1.990000000000000102e-01,-1.514065329919464520e-01,-1.322390068876502485e-03,-9.853975731777264713e-02
2.000000000000000111e-01,-1.241177344590362608e-01,-2.286240390404264619e-03,-1.415357939545011379e-01
2.010000000000000120e-01,-1.000220005787840760e-01,5.397249243394130341e-02,-1.713257911406068090e-01
2.020000000000000129e-01,-8.747955469703565246e-02,1.345411507112857230e-01,-1.468025689081484397e-01
2.030000000000000138e-01,-6.382403417847232197e-02,2.679693328098676219e-01,-1.409344234090125769e-01
2.039999999999999869e-01,2.907458437549153424e-02,4.023040275795187193e-01,-1.287627212160507850e-01
2.049999999999999878e-01,1.845633624201860612e-01,5.007546112746777967e-01,-1.175211550235535640e-01
2.059999999999999887e-01,3.623665996555949786e-01,5.456181109709470345e-01,-8.689638369131680307e-02
2.069999999999999896e-01,5.106742196532000344e-01,5.701060283463134093e-01,-9.797607482027686707e-03
2.079999999999999905e-01,6.068936767860506620e-01,5.897357971955223821e-01,1.090411658563571751e-01
2.089999999999999913e-01,6.456009337964619954e-01,6.350273548864382445e-01,2.047239776322240523e-01
2.099999999999999922e-01,6.673438018624927581e-01,6.339213389267156495e-01,2.742756117813174854e-01
2.109999999999999931e-01,7.132093093935161221e-01,5.936181685177353007e-01,3.176549725681166447e-01
2.119999999999999940e-01,7.582124150584055311e-01,4.811824492217526839e-01,3.402447771249489938e-01
2.129999999999999949e-01,7.528526936323710617e-01,3.636391401854939809e-01,3.619517957487785043e-01
2.139999999999999958e-01,6.742002051985584998e-01,2.463993293387458372e-01,3.977354578870510582e-01
2.149999999999999967e-01,5.341614133268423048e-01,1.879026513164867296e-01,4.210091893328230528e-01
2.159999999999999976e-01,3.792002044122994020e-01,1.385786358761363357e-01,3.943502538544025882e-01
2.169999999999999984e-01,2.702135138343644827e-01,8.379801106134955602e-02,3.357384750491965719e-01
2.179999999999999993e-01,2.035408610872360968e-01,3.461783225319179508e-02,2.487223963252624126e-01
2.190000000000000002e-01,1.642270839474057054e-01,-3.354148062760711063e-02,1.638014859962771685e-01
2.200000000000000011e-01,9.810201976614227326e-02,-3.435188921158035397e-02,1.286572019168676362e-01
2.210000000000000020e-01,2.441619461222205301e-02,8.297655254875330177e-03,9.331378763960088141e-02
2.220000000000000029e-01,-1.407600717337404578e-02,9.289022229012806886e-02,6.614969573994909646e-02
2.230000000000000038e-01,-3.764011022400848804e-03,1.983427498555151436e-01,2.812973964528257820e-02
2.240000000000000047e-01,7.617839609581510130e-02,2.903529745714315546e-01,-1.007161783226269078e-02
2.250000000000000056e-01,2.230815434634363381e-01,3.386813722304806706e-01,-1.987352359096949267e-02
2.260000000000000064e-01,3.491303141176543834e-01,3.759806119628509302e-01,-4.362130568527294340e-03
2.270000000000000073e-01,4.415006259252323706e-01,4.382052214928914835e-01,6.890456054625967997e-02
2.280000000000000082e-01,5.002060007497290961e-01,5.031867597844225104e-01,1.580828225656710773e-01
2.290000000000000091e-01,5.554976810082787875e-01,5.500994986393469288e-01,2.289474028570165354e-01
2.300000000000000100e-01,6.513527696878462780e-01,5.434776529085947328e-01,2.756768694554488919e-01
2.310000000000000109e-01,7.390605639580772879e-01,4.671222356931088449e-01,3.114073100849619746e-01
2.320000000000000118e-01,7.764907621029435436e-01,3.547711772498640670e-01,3.717395037985989914e-01
2.330000000000000127e-01,7.502433939183573708e-01,2.576690191204598634e-01,4.254769329336723360e-01
2.340000000000000135e-01,6.518326496524788904e-01,1.845350706235577565e-01,4.833819690283769344e-01
2.349999999999999867e-01,5.153284179918861119e-01,1.027100865814757208e-01,5.055224438492699202e-01
2.359999999999999876e-01,4.008484786519947440e-01,2.293668693866662486e-02,4.698949382524109653e-01
2.369999999999999885e-01,3.194395930074258039e-01,-8.161983531014414817e-02,4.047578897095658323e-01
2.379999999999999893e-01,2.241977671209897383e-01,-2.051433359712683535e-01,3.469484290441113838e-01
2.389999999999999902e-01,1.161237500712508780e-01,-2.716436017979182993e-01,2.790633437981970277e-01
2.399999999999999911e-01,-2.496617808538909022e-02,-2.826518673738356302e-01,2.299287146402802517e-01
2.409999999999999920e-01,-1.618628407294046556e-01,-2.413375322940496115e-01,1.844622330203113392e-01
2.419999999999999929e-01,-2.302130367515096143e-01,-1.736594887388151764e-01,1.101799038326766456e-01
2.429999999999999938e-01,-2.242255389183732128e-01,-1.391145053858832137e-01,2.889722407186832986e-02
2.439999999999999947e-01,-1.569010108403217085e-01,-1.067285569039191639e-01,-4.585141535425046183e-02
2.449999999999999956e-01,-9.313022753236570306e-02,-5.168355637872238534e-02,-7.475918490703001296e-02
2.459999999999999964e-01,-2.945309903695490436e-02,2.279410629868964394e-02,-6.611984780978420739e-02
2.469999999999999973e-01,2.803119524327767152e-03,1.353908959918342925e-01,-2.054241161689144418e-02
2.479999999999999982e-01,6.509787730063101852e-02,2.233552360525151437e-01,7.881803538661425954e-03
2.489999999999999991e-01,1.826941794626103510e-01,2.525275814197596724e-01,4.824378270717308986e-02
2.500000000000000000e-01,3.207590758672039799e-01,2.155048778418535704e-01,7.580065442300652767e-02
2.510000000000000009e-01,4.104302456214550809e-01,1.520852393901681865e-01,1.077627403489189034e-01
2.520000000000000018e-01,4.398536766639941642e-01,9.932785141526820349e-02,1.750006920952295320e-01
2.530000000000000027e-01,3.951068370254093298e-01,5.348675248806065985e-02,2.615506931190141882e-01
2.540000000000000036e-01,3.239955752185111337e-01,-7.607122411488228056e-03,3.275719856293383692e-01
2.550000000000000044e-01,2.531487199238784958e-01,-9.325078621818989888e-02,3.456687650975210357e-01
2.560000000000000053e-01,1.917286544721435171e-01,-2.369259685069094179e-01,3.136321235566412735e-01
2.570000000000000062e-01,1.194537317811322219e-01,-3.744321106438392999e-01,2.714337161143239308e-01
2.580000000000000071e-01,4.528138154031804800e-03,-4.733219510582992728e-01,2.292717133299485843e-01
2.590000000000000080e-01,-1.654488492581825954e-01,-5.201579980176144202e-01,1.960310552277944873e-01
2.600000000000000089e-01,-3.374124418676260895e-01,-5.209157625281051196e-01,1.524107964516062119e-01
2.610000000000000098e-01,-4.780152887340791135e-01,-5.102422932119166088e-01,7.843909723940026280e-02
2.620000000000000107e-01,-5.329722277242914252e-01,-5.173253194630205165e-01,-1.239216913459414114e-02
2.630000000000000115e-01,-5.275947039949377970e-01,-5.005150266068744136e-01,-1.179862247474211673e-01
2.640000000000000124e-01,-5.401722924005362136e-01,-4.707274595904836767e-01,-2.087714278023014569e-01
2.650000000000000133e-01,-5.490319395775307143e-01,-3.706887029121720967e-01,-2.421383773351561963e-01
2.660000000000000142e-01,-5.509679829679928753e-01,-2.451202086359308419e-01,-2.555017041898586805e-01
2.670000000000000151e-01,-5.018671669386222112e-01,-1.423451964550281057e-01,-2.467848665471306935e-01
2.680000000000000160e-01,-3.972194166581818897e-01,-7.440756918809160458e-02,-2.496801823974412193e-01
2.690000000000000169e-01,-2.540314738813856388e-01,-4.116452339132169874e-02,-2.611798843659417502e-01
2.700000000000000178e-01,-1.056859380202346543e-01,-5.170737521147436566e-02,-2.422636851738086405e-01
2.710000000000000187e-01,-2.562856546525901780e-02,-4.149606065102867669e-02,-1.842021614359201087e-01
2.720000000000000195e-01,-2.456557627487862723e-03,-1.242805334193664360e-02,-1.028776119805874800e-01
2.730000000000000204e-01,-5.349957996969821605e-04,-2.712781103280704001e-02,-1.956229007996778888e-02
2.740000000000000213e-01,3.803014112542039450e-03,-8.654514254429863940e-02,4.200147035762604592e-02
2.750000000000000222e-01,2.879404636825376451e-02,-2.011586451776136708e-01,5.821193245861230881e-02
2.760000000000000231e-01,9.561961210379006648e-03,-3.397590847845181061e-01,5.216196126797492671e-02
2.770000000000000240e-01,-6.397937133159249667e-02,-4.420066964354824601e-01,5.548444927775797453e-02
2.780000000000000249e-01,-1.939725300031889255e-01,-4.930623155720894046e-01,6.339364553422155435e-02
2.790000000000000258e-01,-3.730343489314245642e-01,-5.283142258570687755e-01,6.022741934862182317e-02
2.800000000000000266e-01,-5.030613142230844215e-01,-5.655063259889789862e-01,2.626151916749429327e-02
2.810000000000000275e-01,-6.005395401371969033e-01,-6.007507870798571847e-01,-5.716611473512884373e-02
2.819999999999999729e-01,-6.539247241824940327e-01,-6.321037849911432804e-01,-1.627376162878789723e-01
2.829999999999999738e-01,-6.970544108392747740e-01,-6.200498750231198120e-01,-2.488268785520160731e-01
2.839999999999999747e-01,-7.559632813677131802e-01,-5.419868536256599034e-01,-3.150277020572796460e-01
2.849999999999999756e-01,-8.112725525868460519e-01,-4.144721322133081975e-01,-3.555263542818243860e-01
2.859999999999999765e-01,-8.209304213098089775e-01,-3.047636842937840873e-01,-3.945653764168949862e-01
2.869999999999999774e-01,-7.358433691909028740e-01,-2.094036556368532032e-01,-4.245699357302962218e-01
2.879999999999999782e-01,-6.079195585521800504e-01,-1.485936178695732302e-01,-4.505189506638608288e-01
2.889999999999999791e-01,-4.492678606502252259e-01,-8.898709365585930064e-02,-4.910563375526103558e-01
2.899999999999999800e-01,-3.328202320811644022e-01,-8.004832721069570292e-03,-4.560047489516159125e-01
2.909999999999999809e-01,-2.587097413928823308e-01,6.806151545689487214e-02,-3.876058576766104324e-01
2.919999999999999818e-01,-1.914705816746060663e-01,1.291167877404466591e-01,-3.010430639401947550e-01
2.929999999999999827e-01,-1.127294934591747677e-01,1.153611127867283370e-01,-2.275218554669414528e-01
2.939999999999999836e-01,-1.228842028272130078e-02,4.428113726727738592e-02,-1.855580312906010831e-01
2.949999999999999845e-01,6.708555083205003378e-02,-5.310421926737555337e-02,-1.409957795602138353e-01
2.959999999999999853e-01,7.338345289284649298e-02,-1.351722201251299993e-01,-1.078506834286426241e-01
2.969999999999999862e-01,-1.141247097365456374e-03,-1.774190431166689508e-01,-6.207580138812632264e-02
2.979999999999999871e-01,-1.097906552529113039e-01,-2.149455681390214923e-01,4.031101389380547378e-03
2.989999999999999880e-01,-2.191514359018809921e-01,-2.774543331748851038e-01,3.003646173142819967e-02
2.999999999999999889e-01,-2.938534622708118826e-01,-3.606189825264465298e-01,-3.244282179377752044e-03
3.009999999999999898e-01,-3.545708006140445012e-01,-4.319779714475110444e-01,-6.937123088321099640e-02
3.019999999999999907e-01,-4.271592402997272941e-01,-4.511495385512830913e-01,-1.359897485839234310e-01
3.029999999999999916e-01,-5.176003861161465602e-01,-3.976946951384446871e-01,-1.946364303875504631e-01
3.039999999999999925e-01,-6.148071608130988297e-01,-3.119098781593409586e-01,-2.339546455972685013e-01
3.049999999999999933e-01,-6.825056429744300601e-01,-2.133941046400837926e-01,-2.743404925842777287e-01
3.059999999999999942e-01,-6.624072103643376952e-01,-1.284394787422592221e-01,-3.158982788071064696e-01
3.069999999999999951e-01,-5.674889376788768702e-01,-6.814779991640233792e-02,-3.914340556140894489e-01
3.079999999999999960e-01,-4.448593374619588814e-01,1.903485812406437508e-02,-4.522176845576309501e-01
3.089999999999999969e-01,-3.426752344189650801e-01,1.452729102225870650e-01,-4.681079946305304329e-01
3.099999999999999978e-01,-2.613244769455704830e-01,2.575388640266595974e-01,-4.379124184659030639e-01
3.109999999999999987e-01,-1.772918781535848254e-01,3.692892390819807469e-01,-3.699192588535406001e-01
3.119999999999999996e-01,-4.422102977942103663e-02,3.963462766722583019e-01,-3.008719973551874372e-01
3.130000000000000004e-01,1.218877191267923460e-01,3.791076562185135557e-01,-2.460487830286637034e-01
3.140000000000000013e-01,2.644571835945731531e-01,3.343044910407535486e-01,-2.043701921459200876e-01
3.150000000000000022e-01,3.516205133742577038e-01,3.062566660261075158e-01,-1.538834055474648521e-01
3.160000000000000031e-01,3.613223098699153146e-01,2.887005917962975898e-01,-6.507365499486798821e-02
3.170000000000000040e-01,3.167468022143877238e-01,2.531290103496289801e-01,3.030964836119649439e-02
3.180000000000000049e-01,2.774861069986866435e-01,1.711942735552326456e-01,1.159113813257389713e-01
3.190000000000000058e-01,2.355533431293887758e-01,5.504804700910097964e-02,1.460308961454167553e-01
3.200000000000000067e-01,2.192994426340444669e-01,-5.465082991962781633e-02,1.335528883992350702e-01
3.210000000000000075e-01,1.506346082698388211e-01,-1.076182409203938345e-01,1.038025143372979797e-01
3.220000000000000084e-01,3.668107228440230932e-02,-1.136394525925971122e-01,8.011783885145171147e-02
3.230000000000000093e-01,-1.146565603353534024e-01,-7.071617958614045962e-02,7.908301007304692487e-02
3.240000000000000102e-01,-2.189858727088205836e-01,-2.764727664435311788e-02,4.872638187785363617e-02
3.250000000000000111e-01,-2.598614068873775218e-01,-4.489375862846051862e-03,-7.907456696234936230e-03
3.260000000000000120e-01,-2.344725282765442453e-01,3.357209036051318762e-02,-8.889695286880419656e-02
3.270000000000000129e-01,-1.795605049943979903e-01,1.028482416836717372e-01,-1.717249321785956351e-01
3.280000000000000138e-01,-1.378774642291250574e-01,2.215541578969348335e-01,-2.186162702102155686e-01
3.290000000000000147e-01,-1.106451406473586141e-01,3.760410709990196776e-01,-2.255292945527054282e-01
3.300000000000000155e-01,-4.035072159143825166e-02,4.945681369330590660e-01,-2.153119037187287976e-01
3.310000000000000164e-01,7.005756179765477987e-02,5.515266717328017876e-01,-1.812324193710198594e-01
3.320000000000000173e-01,2.401948390161602609e-01,5.631370356853481196e-01,-1.548665734781635994e-01
3.330000000000000182e-01,4.214859462839926074e-01,5.820324384744596236e-01,-1.248397417730516129e-01
3.340000000000000191e-01,5.615993427587436804e-01,5.827095270898583479e-01,-7.792957027172785212e-02
3.350000000000000200e-01,6.237501544537820131e-01,5.932725570127621584e-01,-7.644224656333699222e-04
3.360000000000000209e-01,6.366131451960201915e-01,5.824378637205124276e-01,9.659750498906892469e-02
3.370000000000000218e-01,6.495928897918195055e-01,5.021639118209689778e-01,2.089592747638486514e-01
3.380000000000000226e-01,6.818915700357643939e-01,3.706471999556408270e-01,2.850551573351615131e-01
3.390000000000000235e-01,6.897914134947130682e-01,2.479445366151235841e-01,3.143680959287425414e-01
3.400000000000000244e-01,6.650090612089224473e-01,1.572875189111583860e-01,3.279626316258938412e-01
3.410000000000000253e-01,5.538245925945470827e-01,1.042541081882413789e-01,3.259767424429636518e-01
3.420000000000000262e-01,4.049261855481535721e-01,8.931520040151905149e-02,3.597740068117104562e-01
3.430000000000000271e-01,2.601112519375067822e-01,5.425857702008891892e-02,3.736694410718873760e-01
3.439999999999999725e-01,1.625824505194537195e-01,1.827723627999803743e-02,3.386043562335532275e-01
3.449999999999999734e-01,1.269286490844045434e-01,-2.376787444032319157e-03,2.776346514989620484e-01
3.459999999999999742e-01,9.098161059837271691e-02,1.504188514456155160e-02,1.935163695384125859e-01
3.469999999999999751e-01,5.563506788395784081e-02,1.072385685280842077e-01,1.149652531535059474e-01
3.479999999999999760e-01,1.163915542194670326e-02,2.343538641851130033e-01,5.010474525615265379e-02
3.489999999999999769e-01,-9.164283425751510934e-03,3.351965375228940780e-01,4.301411509770634856e-02
3.499999999999999778e-01,5.502498697377844472e-02,3.972925110589637376e-01,2.555343559855818847e-02
3.509999999999999787e-01,1.659450513569694363e-01,4.447284585150135805e-01,9.072296604905964387e-03
3.519999999999999796e-01,3.211390778958943537e-01,4.740231626948462895e-01,-1.881870924065114081e-02
3.529999999999999805e-01,4.563151731847543413e-01,5.235129472290416253e-01,-2.029747326581906111e-02
3.539999999999999813e-01,5.391273251801449451e-01,5.901609541623439315e-01,1.068277473207085958e-02
3.549999999999999822e-01,6.038641731239058341e-01,5.978969601321446614e-01,9.781482047210242337e-02
3.559999999999999831e-01,6.497078156170833507e-01,5.383261950828209796e-01,1.909175611898832892e-01
3.569999999999999840e-01,7.226201222489023746e-01,4.260694174083101138e-01,2.761051913351361131e-01
3.579999999999999849e-01,7.992325127389747763e-01,3.041374292612089580e-01,3.188828686756243758e-01
3.589999999999999858e-01,7.989316506890256075e-01,1.992271913077260648e-01,3.524856266732389609e-01
3.599999999999999867e-01,7.306748586403997159e-01,1.323109241406189573e-01,4.013841919916912304e-01
3.609999999999999876e-01,6.118691768218145199e-01,5.773167125361573088e-02,4.429251426078481546e-01
3.619999999999999885e-01,4.672532869653339693e-01,-1.595473772008805177e-02,4.844798804914412504e-01
3.629999999999999893e-01,3.414086930661692776e-01,-1.287822241580583449e-01,5.032063788409880667e-01
3.639999999999999902e-01,2.645471867565244439e-01,-2.108612577806532051e-01,4.694016329966086976e-01
3.649999999999999911e-01,1.859775238961158816e-01,-2.354567698881502857e-01,3.969571522680462872e-01
3.659999999999999920e-01,7.528433772142083258e-02,-1.944552033584820705e-01,3.101980611477125893e-01
3.669999999999999929e-01,-4.070333032035176185e-02,-1.266414740730247845e-01,2.558340543179442039e-01
3.679999999999999938e-01,-1.407772414027022578e-01,-5.966671125773147927e-02,2.009048905699222787e-01
3.689999999999999947e-01,-1.741652009552072389e-01,-9.546168867105218198e-03,1.678445790405671267e-01
3.699999999999999956e-01,-1.418979965006061106e-01,3.293984428984111229e-02,9.258887089026882067e-02
3.709999999999999964e-01,-3.781048945248360188e-02,9.216542849096286127e-02,3.157232260905544485e-02
3.719999999999999973e-01,4.503201553528487361e-02,1.669289875739742857e-01,-3.599580729504985033e-02
3.729999999999999982e-01,1.085839678695503518e-01,2.729975481923669345e-01,-5.060722073130419219e-02
3.739999999999999991e-01,1.527032008879254110e-01,3.225224682323663550e-01,-4.495532283328029788e-02
3.750000000000000000e-01,2.322529918758786671e-01,3.014303765653977840e-01,3.232746948593977904e-02
3.760000000000000009e-01,3.461429016752255450e-01,2.361908376496802964e-01,7.744715237271311559e-02
3.770000000000000018e-01,4.474780139610424756e-01,1.498389353100536836e-01,1.154686135906771299e-01
3.780000000000000027e-01,5.293778168305258713e-01,7.545142603648426205e-02,1.390372191294804438e-01
3.790000000000000036e-01,5.227139245390227673e-01,2.699369265785529770e-02,1.829017119735088515e-01
3.800000000000000044e-01,4.339381164258316881e-01,-5.256928614657651461e-02,2.564182283128333406e-01
3.810000000000000053e-01,3.507540563085604357e-01,-1.592207330843195823e-01,3.166723848943046038e-01
3.820000000000000062e-01,2.596790128075188719e-01,-3.128227370517588368e-01,3.781427288422989919e-01
3.830000000000000071e-01,1.824633687084439293e-01,-4.190182042816807395e-01,3.875681793098117445e-01
3.840000000000000080e-01,9.126655950011013096e-02,-4.838491526387215802e-01,3.598933847008627951e-01
3.850000000000000089e-01,-4.887765574085364134e-02,-4.945265758381905408e-01,3.062057367761248372e-01
3.860000000000000098e-01,-2.137088787625510411e-01,-4.773407672242337418e-01,2.409516371216486874e-01
3.870000000000000107e-01,-3.664084511996433258e-01,-4.466450983607828662e-01,2.039575495513728798e-01
3.880000000000000115e-01,-4.814518364283582597e-01,-4.320990362427218900e-01,1.506447316731724939e-01
3.890000000000000124e-01,-5.114345823898698296e-01,-4.069644894651109901e-01,8.078141427215365655e-02
3.900000000000000133e-01,-4.868111280183137213e-01,-3.487320589346784017e-01,-1.557350596076184646e-02
3.910000000000000142e-01,-4.491187387110722740e-01,-2.434358592839221402e-01,-1.214293925523299428e-01
3.920000000000000151e-01,-4.400532115752750495e-01,-1.110777794232097049e-01,-1.987118115544668218e-01
3.930000000000000160e-01,-4.251197682824456869e-01,-2.047610604076751176e-02,-2.182860461226776294e-01
3.940000000000000169e-01,-3.648951560532735505e-01,9.505012899757258465e-03,-2.156419482550070432e-01
3.950000000000000178e-01,-2.394890473139777709e-01,1.659814725737368546e-03,-2.021393482282456966e-01
3.960000000000000187e-01,-1.035831278839067643e-01,-2.666478986975635498e-02,-1.895023560313537914e-01
3.970000000000000195e-01,4.038001841041404666e-02,-2.840041806775515237e-02,-1.833748319990365916e-01
3.980000000000000204e-01,1.012257132437054674e-01,-4.046520344533935387e-02,-1.515784100628535525e-01
3.990000000000000213e-01,8.650736239910408742e-02,-9.204837330454712641e-02,-1.131226796332985562e-01
4.000000000000000222e-01,5.522742438517650593e-02,-1.869055047330744068e-01,-2.320240081017865830e-02
4.010000000000000231e-01,3.279872725397013633e-02,-3.124558152794112975e-01,5.706899788652475269e-02
4.020000000000000240e-01,1.578010084572629979e-02,-4.557918336817072258e-01,1.157450042179069272e-01
4.030000000000000249e-01,-6.353063428118490251e-03,-5.281344710400392994e-01,1.211248305206340525e-01
4.040000000000000258e-01,-1.077880511705681249e-01,-5.744727194944259097e-01,9.564827792179697585e-02
4.050000000000000266e-01,-2.662605776209598929e-01,-5.816026020031345167e-01,8.883186430108534759e-02
4.060000000000000275e-01,-4.524657500684287625e-01,-5.850887065265986120e-01,8.963071033341510341e-02
4.069999999999999729e-01,-5.912280953150452767e-01,-6.112508453356482185e-01,5.804678985195170504e-02
4.079999999999999738e-01,-6.513471337832298369e-01,-6.293076796591343669e-01,1.861043160398184737e-02
4.089999999999999747e-01,-6.890576102853933627e-01,-5.684565939333402484e-01,-6.610313323842326172e-02
4.099999999999999756e-01,-7.131838203086386940e-01,-4.560503909574513681e-01,-1.677624711050913209e-01
4.109999999999999765e-01,-7.580378099523484847e-01,-3.194432432252691245e-01,-2.649256237530016045e-01
4.119999999999999774e-01,-7.792688204233606530e-01,-2.148387622421633614e-01,-3.268147059281136801e-01
4.129999999999999782e-01,-7.646954233536706891e-01,-1.479143358913295736e-01,-3.703312610524849280e-01
4.139999999999999791e-01,-6.561363039144271214e-01,-9.941747240910316086e-02,-3.809806566440606113e-01
4.149999999999999800e-01,-5.077093098283713690e-01,-5.152531398911157356e-02,-3.954231492580221330e-01
4.159999999999999809e-01,-3.576150452240324795e-01,1.468366736619230485e-02,-4.289969886080950423e-01
4.169999999999999818e-01,-2.510624698741653060e-01,6.557307650456165038e-02,-4.455406429917180278e-01
4.179999999999999827e-01,-1.951588820472117125e-01,6.448564235619910767e-02,-4.191628261831347735e-01
4.189999999999999836e-01,-1.371750098739245860e-01,1.187227690611914258e-02,-3.451722470457777581e-01
4.199999999999999845e-01,-7.596278150897070591e-02,-9.360375864273939861e-02,-2.533447855884068400e-01
4.209999999999999853e-01,9.505910693960530110e-04,-1.803271488389860677e-01,-1.791001936234558056e-01
4.219999999999999862e-01,2.908550935041332927e-02,-2.509722523042730580e-01,-1.273639865714512875e-01
4.229999999999999871e-01,1.156238576198062411e-02,-2.959380421862701782e-01,-9.961151211948712780e-02
4.239999999999999880e-01,-9.317433994915744200e-02,-3.463551176305167401e-01,-7.210492851224427346e-02
4.249999999999999889e-01,-2.278891110864749714e-01,-4.001547152193879464e-01,-3.092648739689204951e-02
4.259999999999999898e-01,-3.354899322989025601e-01,-4.674163108305449676e-01,3.022315318500994920e-03
4.269999999999999907e-01,-4.206381102486797530e-01,-5.102843123652537338e-01,1.897536800993784856e-02
4.279999999999999916e-01,-4.808230936045992943e-01,-4.884364158865501793e-01,-1.701977561254891178e-02
4.289999999999999925e-01,-5.423899374584166821e-01,-3.819805604812649413e-01,-1.002015554584827356e-01
4.299999999999999933e-01,-6.248254171119566047e-01,-2.802836317634366803e-01,-1.755407567926995371e-01
4.309999999999999942e-01,-7.119544728140863032e-01,-1.763244420657813227e-01,-2.564818849281093049e-01
4.319999999999999951e-01,-7.424133848879064246e-01,-9.294146367330929914e-02,-2.911926986963334629e-01
4.329999999999999960e-01,-6.752669285158422463e-01,-2.300187566185686247e-02,-3.247231379764048409e-01
4.339999999999999969e-01,-5.622051875724567438e-01,6.987847696385922347e-02,-3.710137988835345846e-01
4.349999999999999978e-01,-4.219234740726863775e-01,1.786042104718392198e-01,-4.312229163941169729e-01
4.359999999999999987e-01,-3.110022786636822412e-01,2.925865080233093773e-01,-4.766315296866520113e-01
4.369999999999999996e-01,-2.266737920802096296e-01,3.541974185069018399e-01,-4.849215976312789556e-01
4.380000000000000004e-01,-1.379806516721618914e-01,3.374018387959634713e-01,-4.453421056128541444e-01
4.390000000000000013e-01,-1.575867857999225727e-02,2.924595503020764320e-01,-3.643508159452891748e-01
4.400000000000000022e-01,1.310692263653081002e-01,2.444749108285436123e-01,-2.940922053757453192e-01
4.410000000000000031e-01,2.473735471342710657e-01,1.872706528202705556e-01,-2.415886938499393066e-01
4.420000000000000040e-01,3.092363646064270610e-01,1.550474549390555845e-01,-1.936921648363942872e-01
4.430000000000000049e-01,2.867965761995941998e-01,9.915111323978792468e-02,-1.382560575532459091e-01
4.440000000000000058e-01,2.183811782796883927e-01,1.146467066626273221e-02,-5.572322349876046577e-02
4.450000000000000067e-01,1.443775772473685493e-01,-8.697934990965221214e-02,2.252730245186121416e-02
4.460000000000000075e-01,9.638291615306419924e-02,-1.667389211038222130e-01,8.389568170496579380e-02
4.470000000000000084e-01,6.245418565937262828e-02,-1.748009289446438574e-01,1.110684248600353891e-01
4.480000000000000093e-01,-8.436896175185183352e-03,-1.441807387851313516e-01,1.033039860755538136e-01
4.490000000000000102e-01,-1.334471227326312348e-01,-8.031470332354535835e-02,5.951189933730829246e-02
4.500000000000000111e-01,-2.572457930800580161e-01,-2.823421718212014431e-02,1.137393786760551584e-02
4.510000000000000120e-01,-3.445363121327914557e-01,7.641448011280362398e-03,-2.584037720922576636e-02
4.520000000000000129e-01,-3.535914634321689065e-01,7.544660204168883444e-02,-4.571897652620713487e-02
4.530000000000000138e-01,-2.872744235283579139e-01,1.774256526801340494e-01,-8.963943359017705059e-02
4.540000000000000147e-01,-2.190449036118988779e-01,3.265637867326720567e-01,-1.559243868763147689e-01
4.550000000000000155e-01,-1.483576389265203188e-01,4.517368144608048808e-01,-2.314707593171302091e-01
4.560000000000000164e-01,-9.941295843132258447e-02,5.319618580369702698e-01,-2.781229490476044841e-01
4.570000000000000173e-01,-1.232815715944591065e-02,5.708437119871030418e-01,-2.863660907152039137e-01
4.580000000000000182e-01,1.132136079840347365e-01,5.585087467533746963e-01,-2.567408642995026580e-01
4.590000000000000191e-01,2.909343239664405334e-01,5.559297966634058064e-01,-2.137981875041847779e-01
4.600000000000000200e-01,4.675888626861278707e-01,5.467216218953960816e-01,-1.758195113073026672e-01
4.610000000000000209e-01,5.762670687139503922e-01,5.362555569122152699e-01,-1.301036688428218180e-01
4.620000000000000218e-01,6.282950799249794605e-01,4.864153135964041641e-01,-8.351035373942188034e-02
4.630000000000000226e-01,6.186854689814990094e-01,3.807830392220177274e-01,-9.244920749569751975e-03
4.640000000000000235e-01,6.044987489159644456e-01,2.542814705811710096e-01,9.697164755286644122e-02
4.650000000000000244e-01,6.141250619591198667e-01,1.397700159169667222e-01,1.944493497444487740e-01
4.660000000000000253e-01,6.013912320969606595e-01,7.300618237197289973e-02,2.608811888484248165e-01
4.670000000000000262e-01,5.382438554400957864e-01,6.420947245831261363e-02,3.073797857062256500e-01
4.680000000000000271e-01,4.222659370923586564e-01,5.872975842420440074e-02,2.937076414040670214e-01
4.689999999999999725e-01,2.687034611386721616e-01,4.745903430433952991e-02,3.049525560818923675e-01
4.699999999999999734e-01,1.382217019264352365e-01,2.942688299826901055e-02,2.969368114988343299e-01
4.709999999999999742e-01,5.026697207248415067e-02,3.400514509468124252e-02,2.947009969347832992e-01
4.719999999999999751e-01,4.127822106598628277e-02,1.124370821211499449e-01,2.725239506476178075e-01
4.729999999999999760e-01,4.158999422657647105e-02,2.341446994963284345e-01,1.992142279100887203e-01
4.739999999999999769e-01,3.344991682132056332e-02,3.629702514329863905e-01,1.071907988394805306e-01
4.749999999999999778e-01,1.510443392314861875e-02,4.436457004599899112e-01,2.954364801736472645e-02
4.759999999999999787e-01,3.393955043936620897e-02,4.976175360664284453e-01,-1.009984937428724285e-02
4.769999999999999796e-01,1.211490166534266444e-01,5.201727220696650278e-01,-1.567458632492304063e-02
4.779999999999999805e-01,2.596655600245809659e-01,5.601422931041345477e-01,-1.752413616370353949e-02
4.789999999999999813e-01,4.303494224317137018e-01,5.904353220008544678e-01,-2.307147050252985124e-02
4.799999999999999822e-01,5.649619198875420745e-01,6.167812734246296280e-01,-2.590335084124556486e-02
4.809999999999999831e-01,6.358641520224452837e-01,5.755494440852368943e-01,-1.143662054148201004e-02
4.819999999999999840e-01,6.680023122780084366e-01,4.974282315449891634e-01,3.015887905940454333e-02
4.829999999999999849e-01,7.046020800013840235e-01,3.467164342771910657e-01,1.146255656941721213e-01
4.839999999999999858e-01,7.636272350452369961e-01,2.254228285278195576e-01,2.161408884095828431e-01
4.849999999999999867e-01,8.146353017310586919e-01,1.480141845734908868e-01,3.012805323781136413e-01
4.859999999999999876e-01,7.876656688936282125e-01,8.582872269612953908e-02,3.364559312766361998e-01
4.869999999999999885e-01,6.909875293500483684e-01,2.082889547415360532e-02,3.860469655285380663e-01
4.879999999999999893e-01,5.496812446513429373e-01,-5.365324590759615320e-02,4.092149820926568871e-01
4.889999999999999902e-01,3.915773546539658700e-01,-1.310067167495820584e-01,4.427609725409469288e-01
4.899999999999999911e-01,2.881173872844972061e-01,-1.855458776191974135e-01,4.918436724073704802e-01
4.909999999999999920e-01,2.088336612057233588e-01,-1.568987906321011594e-01,4.877934966334692701e-01
4.919999999999999929e-01,1.485040975693545373e-01,-8.269114683294324919e-02,4.491789681066626905e-01
4.929999999999999938e-01,5.542241694229889382e-02,2.122748791023549436e-02,3.699573683278223335e-01
4.939999999999999947e-01,-5.065180956156760395e-02,7.706513578665921682e-02,2.831602301589505877e-01
4.949999999999999956e-01,-1.219424097433308291e-01,1.343806026447343649e-01,2.119656995353649265e-01
4.959999999999999964e-01,-1.073212252467443950e-01,1.701105455686879042e-01,1.752439762356866881e-01
4.969999999999999973e-01,-3.658641153288878789e-02,2.380588613521143482e-01,1.318157825913548464e-01
4.979999999999999982e-01,7.847627856416712622e-02,3.077128692924533393e-01,7.831630544477916067e-02
4.989999999999999991e-01,1.867009174661764526e-01,3.728564184868538578e-01,2.587785023518932720e-02
5.000000000000000000e-01,2.517616976221643266e-01,3.797985629585157175e-01,-1.293016705312237911e-02
5.010000000000000009e-01,2.998848272116250158e-01,3.199468258522809583e-01,-3.723225673774865907e-02
5.020000000000000018e-01,3.756189289642080653e-01,2.268316968963601798e-01,7.759521381777231700e-04
5.030000000000000027e-01,4.833557373413350233e-01,1.262376837250973327e-01,6.704171300534718381e-02
5.040000000000000036e-01,5.665997726196895234e-01,4.673316965365156839e-02,1.276597055018428573e-01
5.050000000000000044e-01,6.021086636552150928e-01,-2.261699897779420598e-02,1.932059675996632142e-01
5.060000000000000053e-01,5.733373543232227476e-01,-1.063279351750339718e-01,2.202420061475478807e-01
5.070000000000000062e-01,4.732585093572890811e-01,-2.296343248334094256e-01,2.580953737527122982e-01
5.080000000000000071e-01,3.310223392430157174e-01,-3.508366227323894693e-01,3.147478575579643612e-01
5.090000000000000080e-01,2.317580159102241022e-01,-4.478317989077040817e-01,3.810475453401814816e-01
5.100000000000000089e-01,1.491938765125927768e-01,-4.698095916217129298e-01,4.289870125547119994e-01
5.110000000000000098e-01,5.531096884069734709e-02,-4.398875904964142380e-01,4.288545450805067438e-01
5.120000000000000107e-01,-7.423925876947388980e-02,-3.872657174423003723e-01,3.925756337254082684e-01
5.130000000000000115e-01,-2.378321327991214096e-01,-3.556761554250525426e-01,3.147870764717766723e-01
5.140000000000000124e-01,-3.819125171456996259e-01,-3.267396093182806105e-01,2.516381643274552271e-01
5.150000000000000133e-01,-4.455344237676426844e-01,-2.845053470453838274e-01,2.009472790086980765e-01
5.160000000000000142e-01,-4.400865267160891103e-01,-2.026309795961470372e-01,1.499636327666405422e-01
5.170000000000000151e-01,-4.015831727544826313e-01,-9.076776769764331732e-02,8.153462909449149532e-02
5.180000000000000160e-01,-3.340997582718979175e-01,1.791598566319933111e-02,-4.502864760477210369e-03
5.190000000000000169e-01,-3.199927565166040822e-01,6.403437683643241340e-02,-9.338930714944385092e-02
5.200000000000000178e-01,-2.790484687516557316e-01,5.488086769556305144e-02,-1.695767174921517240e-01
5.210000000000000187e-01,-1.961131104019917804e-01,2.349275117366849200e-02,-1.967374635639437819e-01
5.220000000000000195e-01,-7.636692869257249994e-02,-2.829533961980246204e-02,-1.848004225459304040e-01
5.230000000000000204e-01,5.251425897471335286e-02,-4.234283060596925191e-02,-1.506078734975390965e-01
5.240000000000000213e-01,1.594300575173312751e-01,-8.628606351805000185e-02,-1.293704509537834113e-01
5.250000000000000222e-01,1.825029612219661312e-01,-1.667007459517635404e-01,-1.112614238851128839e-01
5.260000000000000231e-01,1.479436653954594727e-01,-2.930283704784414911e-01,-8.804297779375944155e-02
5.270000000000000240e-01,9.893496210240020072e-02,-4.274143791652679769e-01,-3.116077912493428470e-02
5.280000000000000249e-01,5.384507156238990677e-02,-5.351367294634279403e-01,4.924450077353619698e-02
5.290000000000000258e-01,1.692133444262678560e-02,-5.839946895425280893e-01,1.280213283148154690e-01
5.300000000000000266e-01,-5.556291156155851452e-02,-5.954223451710329851e-01,1.696153799908910742e-01
5.310000000000000275e-01,-1.668466239866066292e-01,-5.966398831649235568e-01,1.839577261568224598e-01
5.320000000000000284e-01,-3.471842820514181582e-01,-6.029398284370935945e-01,1.652234543662052246e-01
5.330000000000000293e-01,-5.138368329519753530e-01,-6.109786331211404242e-01,1.187520470346885432e-01
5.340000000000000302e-01,-6.387131635897023152e-01,-5.755792341460570505e-01,9.140923794728193774e-02
5.350000000000000311e-01,-6.847149364719334885e-01,-4.742204451956170685e-01,7.621075225788170870e-02
5.360000000000000320e-01,-6.841259790895928283e-01,-3.517759152843026871e-01,2.299110396085542879e-02
5.370000000000000329e-01,-7.121043305361978160e-01,-2.285638537583032370e-01,-5.458371416845936297e-02
5.380000000000000338e-01,-7.304290213115858243e-01,-1.366157994228273109e-01,-1.733856998177083220e-01
5.390000000000000346e-01,-7.272655656849782435e-01,-8.892084687701820589e-02,-2.656907450461228337e-01
5.400000000000000355e-01,-6.657501686868887436e-01,-6.602183185343679650e-02,-3.318990042632851134e-01
5.410000000000000364e-01,-5.457129610954742915e-01,-2.413226565525574546e-02,-3.564544478499784841e-01
5.420000000000000373e-01,-3.971425739302709146e-01,1.060442263188833383e-02,-3.710858506679401980e-01
5.430000000000000382e-01,-2.496897243156336599e-01,2.167793595152039607e-02,-3.740544303073164989e-01
5.440000000000000391e-01,-1.555496445931062732e-01,-1.157702940568493093e-02,-3.928468688455356017e-01
5.450000000000000400e-01,-1.139534778276287269e-01,-1.098062453133398925e-01,-3.973627768935574234e-01
5.460000000000000409e-01,-8.890130452902338110e-02,-2.159582841290642041e-01,-3.569637458149629849e-01
5.470000000000000417e-01,-6.029698396477509853e-02,-3.257309308765141131e-01,-2.947475703478140141e-01
5.480000000000000426e-01,1.126771726764253965e-03,-3.830976711670854851e-01,-1.975334729998861616e-01
5.490000000000000435e-01,-6.371146044454233321e-04,-4.064245921387994454e-01,-1.207238769196668920e-01
5.500000000000000444e-01,-7.472869580039077919e-02,-4.494663596081765466e-01,-8.242890358061452649e-02
5.510000000000000453e-01,-2.006560377106966497e-01,-5.003088359968110854e-01,-6.084798999776678402e-02
5.520000000000000462e-01,-3.522949530301722754e-01,-5.355936796105094100e-01,-4.175688285665581090e-02
5.530000000000000471e-01,-4.665522831348930533e-01,-5.316135574595798330e-01,-2.583341429952778351e-02
5.540000000000000480e-01,-5.420542467880110626e-01,-4.649668855871962880e-01,2.484171907012713062e-03
5.550000000000000488e-01,-5.826602382172892947e-01,-3.384223402086178334e-01,8.292704958606544538e-03
5.560000000000000497e-01,-6.400155925860371298e-01,-2.205217677185416225e-01,-4.359435848243517486e-02
5.570000000000000506e-01,-7.124618689313829689e-01,-1.267065713025209706e-01,-1.355520963830580128e-01
5.580000000000000515e-01,-7.497369350169111879e-01,-5.459349779762782962e-02,-2.147006788461560955e-01
5.590000000000000524e-01,-7.587369310575574621e-01,2.335213673024433972e-02,-2.910891248252800989e-01
5.600000000000000533e-01,-6.801449276094899687e-01,1.142216574933995060e-01,-3.418679216326402370e-01
5.610000000000000542e-01,-5.249479965940200277e-01,2.038215507428408624e-01,-3.724714171646052452e-01
5.620000000000000551e-01,-3.753463943811414238e-01,2.803147696931284627e-01,-4.053155515428122913e-01
5.629999999999999449e-01,-2.651476114840494169e-01,3.013480337606197490e-01,-4.471225998742208163e-01
5.639999999999999458e-01,-1.789648939940172157e-01,2.576551639553671946e-01,-4.980780726740556275e-01
5.649999999999999467e-01,-9.625636189547609467e-02,1.696697333528781326e-01,-4.914283710901977131e-01
5.659999999999999476e-01,2.000033802490790505e-02,9.615824645219139821e-02,-4.430235371796073518e-01
5.669999999999999485e-01,1.424040189269645817e-01,5.330604716015049233e-02,-3.606402484194921043e-01
5.679999999999999494e-01,2.297515576260412695e-01,1.636862266192141979e-02,-2.821096234924188040e-01
5.689999999999999503e-01,2.553552128417590494e-01,-4.427082882391686347e-02,-2.155516301829672743e-01
5.699999999999999512e-01,1.881510964963896138e-01,-1.340377615269171541e-01,-1.743644237306077593e-01
5.709999999999999520e-01,9.366108589484582747e-02,-2.180383784375250211e-01,-1.304854007419228024e-01
5.719999999999999529e-01,7.714452271130574704e-04,-2.557569258759710973e-01,-5.588826636876517706e-02
5.729999999999999538e-01,-4.456207856004704843e-02,-2.258717002754421499e-01,9.598964286007280119e-03
5.739999999999999547e-01,-9.399930339252629552e-02,-1.424230453527532414e-01,8.119714212295925382e-02
5.749999999999999556e-01,-1.756936964770347831e-01,-6.787183011133404720e-02,7.703278033946900361e-02
5.759999999999999565e-01,-2.840796250552323210e-01,2.383112051537033811e-04,6.113233946941027536e-02
5.769999999999999574e-01,-3.861188194979715549e-01,5.594076033540363452e-02,1.299278711467831068e-02
5.779999999999999583e-01,-4.564140905986264762e-01,1.345700353574765806e-01,-5.851603929777226404e-02
5.789999999999999591e-01,-4.228264438054482599e-01,2.596847587098067289e-01,-9.193808064047084838e-02
5.799999999999999600e-01,-3.319650625975071323e-01,3.937481551394759749e-01,-1.199767935013511255e-01
5.809999999999999609e-01,-2.405957013868424976e-01,5.086752424001416140e-01,-1.616099698437296617e-01
5.819999999999999618e-01,-1.364438540280986378e-01,5.519206314604160335e-01,-2.342096227135968267e-01
5.829999999999999627e-01,-6.845330689417908343e-02,5.468811666122043169e-01,-2.959473531503388211e-01
5.839999999999999636e-01,2.245042327217945319e-02,5.058115170900268076e-01,-3.455033789838357627e-01
5.849999999999999645e-01,1.649385831370488720e-01,4.848780670431349638e-01,-3.386352220776621125e-01
5.859999999999999654e-01,3.332065784198296465e-01,4.722394580120949925e-01,-2.916511998256719473e-01
5.869999999999999662e-01,4.862676431298317836e-01,4.489748228018439757e-01,-2.274412179553146063e-01
5.879999999999999671e-01,5.749461566433392568e-01,3.707677656528836629e-01,-1.809510647175256448e-01
5.889999999999999680e-01,5.856503048752493834e-01,2.519838808564438537e-01,-1.344038964288037097e-01
5.899999999999999689e-01,5.457936842017868662e-01,1.251044614261338228e-01,-9.399782304731059412e-02
5.909999999999999698e-01,5.193779498534489836e-01,4.337474620084926652e-02,-1.389094640241251948e-02
5.919999999999999707e-01,5.177959444460840110e-01,1.629593033469224975e-02,8.827569067608177777e-02
5.929999999999999716e-01,4.747290280394267370e-01,2.829183051845392607e-02,1.874841477032218873e-01
5.939999999999999725e-01,4.085323627412064673e-01,5.105003170610535740e-02,2.518023105974405151e-01
5.949999999999999734e-01,2.716734617496984749e-01,4.026265129429155987e-02,2.776926928325244015e-01
5.959999999999999742e-01,1.290665671879246690e-01,6.432385404872389967e-02,2.605694326574573561e-01
5.969999999999999751e-01,4.272067049411398636e-03,1.184308843385069171e-01,2.395213212443557949e-01
5.979999999999999760e-01,-4.071588188489368154e-02,2.268345754146915694e-01,2.414392708601216797e-01
5.989999999999999769e-01,-2.915662234628608324e-02,3.650819532489762431e-01,2.279624772156940704e-01
5.999999999999999778e-01,1.732038635803562774e-03,4.623496847607702631e-01,1.982582601521061527e-01
6.009999999999999787e-01,1.176789465406518492e-02,5.465678518549141884e-01,1.329776113892330025e-01
6.019999999999999796e-01,2.777295931654798905e-02,5.691664248665297965e-01,5.895759441460600436e-02
6.029999999999999805e-01,7.493462037784354157e-02,5.740478125285103372e-01,-3.247735950066824723e-02
6.039999999999999813e-01,2.006411653582019228e-01,5.895088072137379953e-01,-7.156706983985675063e-02
6.049999999999999822e-01,3.565519642436088543e-01,6.014208120375550415e-01,-7.551428792179171179e-02
6.059999999999999831e-01,5.148772278816157177e-01,5.964998802508404419e-01,-5.481937711027045496e-02
6.069999999999999840e-01,6.466153011193952471e-01,5.203286883560666043e-01,-5.227613374250443534e-02
6.079999999999999849e-01,6.928786226887616584e-01,4.029942314802916203e-01,-3.105583146296220579e-02
6.089999999999999858e-01,7.084013003719009660e-01,2.656400892987916817e-01,-1.748831398942107818e-02
6.099999999999999867e-01,7.388156616674593780e-01,1.537063586340090826e-01,4.217873098241628482e-02
6.109999999999999876e-01,7.691184025466840657e-01,9.991506333937247297e-02,1.248388635335040825e-01
6.119999999999999885e-01,7.941199913750147665e-01,4.149956485504194964e-02,2.202288442969689286e-01
6.129999999999999893e-01,7.410421532521700438e-01,5.102311139067818892e-03,3.151956100363113022e-01
6.139999999999999902e-01,6.142014006968791184e-01,-5.829163987079944570e-02,3.797407402379703312e-01
6.149999999999999911e-01,4.579000118928659990e-01,-1.060058332737458947e-01,3.976113924843175385e-01
6.159999999999999920e-01,3.066759941452022464e-01,-1.147581098144269812e-01,4.027409188572339538e-01
6.169999999999999929e-01,2.128531962386810972e-01,-5.148208662467555069e-02,4.319120593232129712e-01
6.179999999999999938e-01,1.507786424950936510e-01,5.673804939478677839e-02,4.555506313690282361e-01
6.189999999999999947e-01,9.989832729913268594e-02,1.535341990288240643e-01,4.653735567586257393e-01
6.199999999999999956e-01,3.821128203620902108e-02,2.134852728238967878e-01,4.100624788313342317e-01
6.209999999999999964e-01,-3.966463631292353048e-02,2.499888913053632256e-01,3.364126950307878561e-01
6.219999999999999973e-01,-6.650103677319425810e-02,3.018636339494858434e-01,2.485680672886597664e-01
6.229999999999999982e-01,-2.361006891162301807e-02,3.546931728389233207e-01,1.700882357896369990e-01
6.239999999999999991e-01,8.496437051399405305e-02,4.118979742790823129e-01,1.268224502599978598e-01
6.250000000000000000e-01,2.248225006609858578e-01,4.377766254403634982e-01,1.054906003197677716e-01
6.260000000000000009e-01,3.327605465902988002e-01,3.948374841657860679e-01,5.725915239853705818e-02
6.270000000000000018e-01,3.980023783801951986e-01,3.012629877325854189e-01,3.331701946682651821e-02
6.280000000000000027e-01,4.245631985658383512e-01,1.883703566745276448e-01,-1.257761680797270937e-02
6.290000000000000036e-01,5.023342547938367542e-01,8.900501548357428461e-02,-1.168929682155034691e-02
6.300000000000000044e-01,5.915937383951962447e-01,1.010724358574792599e-02,3.396428482468679538e-02
6.310000000000000053e-01,6.571620466589735976e-01,-6.587648925121572518e-02,1.061398365010496198e-01
6.320000000000000062e-01,6.635463337276710227e-01,-1.634234146816481159e-01,1.841068840817720043e-01
6.330000000000000071e-01,5.807499518295342611e-01,-2.719876747455169941e-01,2.467200628927648798e-01
6.340000000000000080e-01,4.520423066235755849e-01,-3.763491787174944592e-01,2.704846658973636964e-01
6.350000000000000089e-01,3.219835891319767773e-01,-4.232792936440264997e-01,3.232164940928961006e-01
6.360000000000000098e-01,2.057231796862651896e-01,-4.063550812815920898e-01,3.617578774572698941e-01
6.370000000000000107e-01,1.246635022168498114e-01,-3.420362426656732846e-01,4.110671915745069960e-01
6.380000000000000115e-01,1.861524873529324040e-02,-2.798779909570979219e-01,4.582479441959297906e-01
6.390000000000000124e-01,-9.629821899667619090e-02,-2.408279849117713201e-01,4.607599287367800667e-01
6.400000000000000133e-01,-2.436855541897813837e-01,-2.107165507567671237e-01,3.982727094404877044e-01
6.410000000000000142e-01,-3.537416122753744840e-01,-1.474263792571932630e-01,3.179779067899120570e-01
6.420000000000000151e-01,-4.031800261829137644e-01,-5.083435787915192849e-02,2.468000678511081403e-01
6.430000000000000160e-01,-3.611300939518448105e-01,5.742675982862616157e-02,1.785198088116014270e-01
6.440000000000000169e-01,-2.806678316076224311e-01,1.245959154347255904e-01,1.348633493584018850e-01
6.450000000000000178e-01,-2.119202775057392740e-01,1.257161742624068601e-01,8.848969152704540264e-02
6.460000000000000187e-01,-1.697091094986501736e-01,8.935565657426004782e-02,8.362744493288678648e-04
6.470000000000000195e-01,-1.212112323240093908e-01,7.045845462436774002e-03,-8.624805173150633386e-02
6.480000000000000204e-01,-3.689548026452966339e-02,-4.435320639308500124e-02,-1.470813867157354238e-01
6.490000000000000213e-01,7.626041690359235126e-02,-7.890961434326096424e-02,-1.658512634750595738e-01
6.500000000000000222e-01,2.015156977974568719e-01,-1.501290860261234039e-01,-1.288513793927874573e-01
6.510000000000000231e-01,2.715570216182637275e-01,-2.432248843190982779e-01,-8.556742572645691103e-02
6.520000000000000240e-01,2.663644710315254405e-01,-3.839964602651719239e-01,-4.588480102683044348e-02
6.530000000000000249e-01,1.911915179099484552e-01,-5.117517369028388163e-01,-1.755906648053459640e-02
6.540000000000000258e-01,1.229832909868971424e-01,-5.917639461060604233e-01,-4.668513820912607859e-03
6.550000000000000266e-01,4.197415970360303394e-02,-5.964385160876057856e-01,5.678500035389021788e-02
6.560000000000000275e-01,-6.054298600810009874e-03,-5.925728340321282372e-01,1.220291218292649388e-01
6.570000000000000284e-01,-9.767205731335554253e-02,-5.704128795576751676e-01,1.907943663102290299e-01
6.580000000000000293e-01,-2.278564275589524679e-01,-5.611414079314702708e-01,2.398103731610219669e-01
6.590000000000000302e-01,-4.080739728022708679e-01,-5.419442355452033233e-01,2.407596286464226409e-01
6.600000000000000311e-01,-5.711480943648513664e-01,-4.822277214831447445e-01,1.935310589939193970e-01
6.610000000000000320e-01,-6.628426727703569110e-01,-3.552622331504179387e-01,1.380633079539951014e-01
6.620000000000000329e-01,-6.829356414844870438e-01,-2.346151566708150615e-01,1.118160174716296973e-01
6.630000000000000338e-01,-6.673835266349821271e-01,-1.159555178972979661e-01,6.545577643219038788e-02
6.640000000000000346e-01,-6.586661404914705420e-01,-6.972497441442214450e-02,3.024253223070325763e-02
6.650000000000000355e-01,-6.466526540176862348e-01,-5.748287230758823696e-02,-6.303642251607828595e-02
6.660000000000000364e-01,-6.283095508741266544e-01,-5.425816216434967837e-02,-1.657406894401600994e-01
6.670000000000000373e-01,-5.686410650968952707e-01,-4.409584344529615674e-02,-2.729448915781288454e-01
6.680000000000000382e-01,-4.300497644396976127e-01,-2.549821238467617907e-02,-3.380897849198942762e-01
6.690000000000000391e-01,-2.736835054078151641e-01,-5.505216208637537384e-02,-3.530708575471431243e-01
6.700000000000000400e-01,-1.326619049687887408e-01,-1.177985796972870480e-01,-3.403058136153478408e-01
6.710000000000000409e-01,-7.868725613795271578e-02,-2.509018775534175849e-01,-3.299566643878745764e-01
6.720000000000000417e-01,-6.006691444823773762e-02,-3.703732098934183203e-01,-3.429174404247437025e-01
6.730000000000000426e-01,-5.986743971527715841e-02,-4.418300052865907768e-01,-3.341982973123813205e-01
6.740000000000000435e-01,-4.778442860541714382e-02,-4.748095158575527663e-01,-2.892124895027529119e-01
6.750000000000000444e-01,-3.506586690549375745e-02,-4.871132561331378286e-01,-2.205919016248718001e-01
6.760000000000000453e-01,-7.740675711432856709e-02,-5.246146552366406368e-01,-1.376783920451092325e-01
6.770000000000000462e-01,-1.521779606038050348e-01,-5.501305152844452317e-01,-6.057651953443735776e-02
6.780000000000000471e-01,-3.190693924948420634e-01,-5.493785811377090988e-01,-7.364020890837841629e-03
6.790000000000000480e-01,-4.694491243422695415e-01,-5.163449646083503319e-01,-1.371136410135235552e-02
6.800000000000000488e-01,-5.847487844380319100e-01,-4.115253865535180577e-01,-1.299367925674391015e-02
6.810000000000000497e-01,-6.389049991811049933e-01,-2.692966877604316966e-01,-4.347051739144165358e-03
6.820000000000000506e-01,-6.737113775500600532e-01,-1.582112652046649137e-01,-9.678193017414241789e-03
6.830000000000000515e-01,-7.154521339826285242e-01,-7.306809753909652982e-02,-1.875880829620227633e-02
6.840000000000000524e-01,-7.524234847732376164e-01,-1.640527936166132766e-02,-6.236437214831853926e-02
6.850000000000000533e-01,-7.818731309813621300e-01,4.983970639639825201e-02,-1.513263307224298748e-01
6.860000000000000542e-01,-7.508441952895851257e-01,1.290291619869136097e-01,-2.518239437005483916e-01
6.870000000000000551e-01,-6.257116437978760271e-01,2.050637679827202464e-01,-3.324245757866476358e-01
6.879999999999999449e-01,-4.879546631751088825e-01,2.387554592451164581e-01,-3.757869087860497559e-01
6.889999999999999458e-01,-3.085974507186582949e-01,2.008254772294406632e-01,-3.981307992252847705e-01
6.899999999999999467e-01,-2.178840709589122682e-01,1.325879921076796031e-01,-4.300943746720659600e-01
6.909999999999999476e-01,-1.411417226127948676e-01,2.904876865010183606e-02,-4.560146418700006254e-01
6.919999999999999485e-01,-6.231443834157655154e-02,-4.150551729824712710e-02,-4.810312017108851479e-01
6.929999999999999494e-01,2.184910251519653346e-02,-8.264178454252403550e-02,-4.844403333422399038e-01
6.939999999999999503e-01,1.211020172627562397e-01,-1.141763963089735545e-01,-4.317193941735951168e-01
6.949999999999999512e-01,1.855063152953107530e-01,-1.858250611786915196e-01,-3.402516753807493521e-01
6.959999999999999520e-01,1.657056692237291462e-01,-2.618302458574077174e-01,-2.565694723838908287e-01
6.969999999999999529e-01,7.231305754168670941e-02,-3.179146564056612445e-01,-1.852964110285561516e-01
6.979999999999999538e-01,-5.162449203404046588e-02,-3.006782919010893562e-01,-1.436435256803374472e-01
6.989999999999999547e-01,-1.397074074380774689e-01,-2.322581285337849410e-01,-9.811346931604279786e-02
6.999999999999999556e-01,-2.046868563078458048e-01,-1.274129174447900525e-01,-5.310208055161014240e-02
7.009999999999999565e-01,-2.520150837727255233e-01,-4.767171712253322896e-02,1.686905596593738703e-04
7.019999999999999574e-01,-3.260705545668510785e-01,3.679479821727024702e-02,5.645233557878151509e-02
7.029999999999999583e-01,-4.276117330342192879e-01,1.059662657742670017e-01,5.022406016123772549e-02
7.039999999999999591e-01,-5.092496270373140232e-01,2.052199750541743861e-01,1.107961918419879919e-02
7.049999999999999600e-01,-5.225679878084340535e-01,3.304877863569570251e-01,-4.879816850221611185e-02
7.059999999999999609e-01,-4.629149217466502764e-01,4.428349164313927222e-01,-1.157798307446282204e-01
7.069999999999999618e-01,-3.545927796419356959e-01,5.220570698833449930e-01,-1.704961299053192325e-01
7.079999999999999627e-01,-2.165041588210998291e-01,5.305740248317506458e-01,-1.900151654124144218e-01
7.089999999999999636e-01,-1.174604127922468655e-01,4.938077200170480352e-01,-2.387612734065629183e-01
7.099999999999999645e-01,-4.262933896920906990e-02,4.441625029789512680e-01,-2.971067610534698922e-01
7.109999999999999654e-01,7.309534475831917788e-02,4.058765231833420528e-01,-3.502746934561944969e-01
7.119999999999999662e-01,2.035799758304432383e-01,3.726183099223387973e-01,-3.953888612396586066e-01
7.129999999999999671e-01,3.530431374860228955e-01,3.187220431297363432e-01,-3.864789471806608923e-01
7.139999999999999680e-01,4.843095206217736259e-01,2.191208540733762811e-01,-3.350907996503481034e-01
7.149999999999999689e-01,5.453156134558367896e-01,1.020332989959675807e-01,-2.584122835861171752e-01
7.159999999999999698e-01,5.176739730709879472e-01,-1.566025896518049004e-03,-1.879042961237952503e-01
7.169999999999999707e-01,4.673622621231079965e-01,-2.862380066042815099e-02,-1.415362178733833853e-01
7.179999999999999716e-01,4.090341326029924285e-01,-1.312166366837534855e-02,-8.737933274374727610e-02
7.189999999999999725e-01,3.751266138153561136e-01,2.128797488627836090e-02,-1.427532970334246566e-02
7.199999999999999734e-01,3.432152993067141278e-01,6.043357967388133384e-02,7.462662165334242592e-02
7.209999999999999742e-01,2.520441582405607006e-01,8.925389555649516915e-02,1.734470788576801259e-01
7.219999999999999751e-01,1.248247695189500517e-01,1.309817578191725673e-01,2.373990628795025204e-01
7.229999999999999760e-01,-1.141286915913430379e-02,2.074442155431142909e-01,2.417330869912203695e-01
7.239999999999999769e-01,-1.038484765202777743e-01,3.422712597424040770e-01,2.231069464010375647e-01
7.249999999999999778e-01,-1.262800743600581144e-01,4.761879420191007517e-01,1.914996475033189094e-01
7.259999999999999787e-01,-7.201665528649860148e-02,5.625511382078202116e-01,1.655657231345060709e-01
7.269999999999999796e-01,-3.061231589904580760e-02,5.995812798534458921e-01,1.396455911356615787e-01
7.279999999999999805e-01,1.458271857092150944e-02,6.001777827775207630e-01,1.118660677163061667e-01
7.289999999999999813e-01,5.829514015151760625e-02,5.921100311340089517e-01,5.999198998664168059e-02
7.299999999999999822e-01,1.361073482482361152e-01,5.876581007134544787e-01,-2.288641320044731281e-02
7.309999999999999831e-01,2.640984084532442822e-01,5.967146875367442815e-01,-1.101535683249579844e-01
7.319999999999999840e-01,4.406510632050245624e-01,5.440516857471592305e-01,-1.270722062340276237e-01
7.329999999999999849e-01,5.876394568740684887e-01,4.493450438458436724e-01,-1.266333502781989695e-01
7.339999999999999858e-01,6.940836597815743803e-01,2.900685644419689346e-01,-9.240095012885986281e-02
7.349999999999999867e-01,7.371285385547126090e-01,1.648230419963509219e-01,-7.115234233293837862e-02
7.359999999999999876e-01,7.257691549645994833e-01,9.697862788996386429e-02,-4.500539340246684922e-02
7.369999999999999885e-01,7.424106430485659658e-01,5.403022367138718418e-02,-1.727071232018184688e-02
7.379999999999999893e-01,7.528586806069003101e-01,4.004702506164181663e-02,4.377587735071263725e-02
7.389999999999999902e-01,7.353385082721224375e-01,-9.003397599236412016e-03,1.403596102547083613e-01
7.399999999999999911e-01,6.693746311042477748e-01,-3.987220355559675800e-02,2.316781249309396162e-01
7.409999999999999920e-01,5.258891555955239605e-01,-5.823969494398406610e-02,3.313170722077504737e-01
7.419999999999999929e-01,3.588225683750231321e-01,-6.414005034989419748e-03,3.782094948656841704e-01
7.429999999999999938e-01,2.314551705167054163e-01,9.479001504342333961e-02,4.055040040307237303e-01
7.439999999999999947e-01,1.380884552393725484e-01,2.117576371701597182e-01,4.164144699082582002e-01
7.449999999999999956e-01,9.825074942311394499e-02,2.955440663369386933e-01,4.136395826767959583e-01
7.459999999999999964e-01,8.326140881660841486e-02,3.479951113224193371e-01,4.204053334253570751e-01
7.469999999999999973e-01,3.624382064086514865e-02,3.705260815992941215e-01,4.139054475763675467e-01
7.479999999999999982e-01,-1.749788880271422112e-02,4.005163516201264984e-01,3.779178759503722951e-01
7.489999999999999991e-01,-7.930484492322389251e-03,4.568382218683289531e-01,2.893167080158975946e-01
7.500000000000000000e-01,6.246045853030527534e-02,4.795217162576873582e-01,2.067037899630908560e-01
7.510000000000000009e-01,2.171641688859924368e-01,4.647879991729135241e-01,1.301314995533767171e-01
7.520000000000000018e-01,3.503803027446774077e-01,3.729550337964243623e-01,7.681909989988762455e-02
7.530000000000000027e-01,4.656463120292295144e-01,2.591066579135135051e-01,6.779347177081884723e-02
7.540000000000000036e-01,5.210946630798742873e-01,1.343791548741984643e-01,5.547497202325321619e-02
7.550000000000000044e-01,5.559319747177772220e-01,4.107250338241302118e-02,2.033533828606235577e-02
7.560000000000000053e-01,6.068048988444166847e-01,-3.611792214471309936e-02,-1.963227414066104435e-03
7.570000000000000062e-01,6.841037382566741432e-01,-1.001510396623944699e-01,5.484096246754582848e-03
7.580000000000000071e-01,7.110590326659672611e-01,-2.014219891696162890e-01,5.891371177774928913e-02
7.590000000000000080e-01,6.889515437047947222e-01,-3.043865495683097944e-01,1.472624435699707302e-01
7.600000000000000089e-01,5.832990160527697920e-01,-3.656144167231032416e-01,2.324928825161503010e-01
7.610000000000000098e-01,4.234480588993568273e-01,-3.609398843219355779e-01,2.991458962359920815e-01
7.620000000000000107e-01,2.735596034321079451e-01,-2.985139240598432275e-01,3.406798323778164606e-01
7.630000000000000115e-01,1.668750574714390200e-01,-2.275181262639361379e-01,3.721185023491875854e-01
7.640000000000000124e-01,9.405571596640832643e-02,-1.508150039115762064e-01,3.917823522969601790e-01
7.650000000000000133e-01,2.105904693159066192e-03,-1.079456375584905287e-01,4.469998471783065419e-01
7.660000000000000142e-01,-1.207955419265158148e-01,-6.310338129600280566e-02,4.793175725717102598e-01
7.670000000000000151e-01,-2.409797722611873305e-01,-4.783917147841441724e-03,4.711692869477940304e-01
7.680000000000000160e-01,-3.199290177340677888e-01,9.232957418239033653e-02,4.038614351092355559e-01
7.690000000000000169e-01,-3.190928745621492979e-01,1.564445301524027276e-01,3.275954762559779021e-01
7.700000000000000178e-01,-2.447319341493077449e-01,1.897729517988606118e-01,2.316888743678633122e-01
7.710000000000000187e-01,-1.550757611664134172e-01,1.503126721594289505e-01,1.761148818171212327e-01
7.720000000000000195e-01,-7.084736829400746505e-02,6.647562445742501158e-02,1.254072197487559881e-01
7.730000000000000204e-01,-1.260114239496560977e-02,-1.581159717459269462e-02,7.040339809557467909e-02
7.740000000000000213e-01,3.132965127128835986e-02,-8.245974464240039825e-02,5.117781162045609636e-03
7.750000000000000222e-01,1.109275963115302077e-01,-1.275623431407433839e-01,-6.203007879665171226e-02
7.760000000000000231e-01,2.319977809275073355e-01,-2.171421360825854241e-01,-1.165175939719199361e-01
7.770000000000000240e-01,3.291438956279686412e-01,-3.323033050161090518e-01,-1.333798285874454592e-01
7.780000000000000249e-01,3.683047791847933738e-01,-4.704915954775179543e-01,-8.690447245645346874e-02
7.790000000000000258e-01,3.279916537434926505e-01,-5.640718280545129470e-01,-2.380903043621194690e-02
7.800000000000000266e-01,2.256595881098032719e-01,-5.991288667068488394e-01,2.761817083057541838e-02
7.810000000000000275e-01,1.181419154226905216e-01,-5.888449956661743201e-01,5.947863629526293355e-02
7.820000000000000284e-01,4.119554681691414699e-02,-5.448769440751028981e-01,8.789246369091499589e-02
7.830000000000000293e-01,-3.909899244518103001e-02,-5.179944463075241146e-01,1.382473907934781698e-01
7.840000000000000302e-01,-1.386051627281314480e-01,-4.952687897287951779e-01,1.981541316118403673e-01
7.850000000000000311e-01,-2.815023079106357962e-01,-4.549872239740783697e-01,2.582286924257993777e-01
7.860000000000000320e-01,-4.582375310035268767e-01,-3.620972531326978605e-01,2.948934851208067642e-01
7.870000000000000329e-01,-5.963314286510393858e-01,-2.420946510779065086e-01,2.837529004270568644e-01
7.880000000000000338e-01,-6.583943773917571018e-01,-1.038610996128402908e-01,2.385523543703035876e-01
7.890000000000000346e-01,-6.524745195702024159e-01,-4.394199739424096279e-02,1.711169658121959314e-01
7.900000000000000355e-01,-6.109495649547733720e-01,-3.451276799714790566e-02,1.182076916445241044e-01
7.910000000000000364e-01,-5.770319685533624732e-01,-4.028975783015055490e-02,7.934480047382798384e-02
7.920000000000000373e-01,-5.490789990467654924e-01,-5.243211869918232987e-02,1.919630492232291333e-02
7.930000000000000382e-01,-5.215780701176077061e-01,-5.990146417101074178e-02,-6.249449484739251492e-02
7.940000000000000391e-01,-4.289600859203242522e-01,-8.066672781922491764e-02,-1.523472296840225615e-01
7.950000000000000400e-01,-2.826568686331817348e-01,-1.336929010560708175e-01,-2.568566057221846610e-01
7.960000000000000409e-01,-1.456326806704463794e-01,-2.425785576435566526e-01,-3.068148596629677871e-01
7.970000000000000417e-01,-3.325480058564991848e-02,-3.789853136502308040e-01,-3.193728156135619556e-01
7.980000000000000426e-01,-3.086434810996664235e-03,-4.766375194754681188e-01,-3.059008403056154846e-01
7.990000000000000435e-01,-2.001362911408692893e-02,-5.382826457028573319e-01,-2.813573260477186810e-01
8.000000000000000444e-01,-4.031135507220369452e-02,-5.532033318354180329e-01,-2.798888452673467531e-01
8.010000000000000453e-01,-5.583151720531055739e-02,-5.606503136604119586e-01,-2.646983919447542521e-01
8.020000000000000462e-01,-6.955671334314721121e-02,-5.775729512826832668e-01,-2.327353087598024173e-01
8.030000000000000471e-01,-1.275982409644564608e-01,-5.809781818404397002e-01,-1.609194130033351766e-01
8.040000000000000480e-01,-2.415439565514500286e-01,-5.506729119259937688e-01,-8.149320212586799728e-02
8.050000000000000488e-01,-4.167593145795438492e-01,-4.625032964016092540e-01,4.970983341712805620e-03
8.060000000000000497e-01,-5.787646511831455731e-01,-3.347668927610098488e-01,4.342920008550203020e-02
8.070000000000000506e-01,-6.731641533466949934e-01,-1.978108648834846217e-01,3.928906904972107039e-02
8.080000000000000515e-01,-7.017971909662836794e-01,-8.906036606466800898e-02,1.765179321804196885e-02
8.090000000000000524e-01,-7.288214586272280249e-01,-3.890346289640271571e-02,-9.276397895417136516e-04
8.100000000000000533e-01,-7.378195460238359260e-01,1.385892689594515892e-02,-5.031514647323895827e-04
8.110000000000000542e-01,-7.804307506678559436e-01,6.101034420498140098e-02,-2.558054802512686396e-02
8.120000000000000551e-01,-7.762607792976631282e-01,1.292990157238521343e-01,-8.299695664177052234e-02
8.129999999999999449e-01,-6.959205874337957010e-01,1.709720003626545859e-01,-1.684282176693778776e-01
8.139999999999999458e-01,-5.711106939750442146e-01,1.636862559581717946e-01,-2.717518631301267806e-01
8.149999999999999467e-01,-3.969864918689958722e-01,8.633090828707630504e-02,-3.475526485563956158e-01
8.159999999999999476e-01,-2.538171111602335883e-01,-2.164199695291012943e-02,-4.049316281798864270e-01
8.169999999999999485e-01,-1.541474771208390659e-01,-1.138768437856837457e-01,-4.273904384171235415e-01
8.179999999999999494e-01,-1.006920428457725170e-01,-1.746359613177142500e-01,-4.262987896261880572e-01
8.189999999999999503e-01,-4.074712701526476272e-02,-2.092741597893428285e-01,-4.434964933448034552e-01
8.199999999999999512e-01,2.100253404606842317e-02,-2.390767839201581313e-01,-4.645618743251104799e-01
8.209999999999999520e-01,9.443238792700400785e-02,-3.017088558166540202e-01,-4.630184132231831007e-01
8.219999999999999529e-01,1.118002669540741900e-01,-3.659042147993125660e-01,-4.039279829257470533e-01
8.229999999999999538e-01,6.119843768338070061e-02,-3.662992856938732666e-01,-3.148979668242321006e-01
8.239999999999999547e-01,-5.805064968295658989e-02,-3.132026842602796957e-01,-2.234565705622238996e-01
8.249999999999999556e-01,-1.989648742781072732e-01,-2.143819731079800728e-01,-1.526676582967973483e-01
8.259999999999999565e-01,-2.906221323199822959e-01,-8.392094134766729663e-02,-1.067263335770369942e-01
8.269999999999999574e-01,-3.534348973232524505e-01,4.129666621180197277e-03,-7.913561604060134758e-02
8.279999999999999583e-01,-3.959793441719589024e-01,7.779675751743082845e-02,-5.325029110046052699e-02
8.289999999999999591e-01,-4.517107462004570917e-01,1.447134541769136695e-01,-5.298326267588599620e-03
8.299999999999999600e-01,-5.319417232191587797e-01,2.422315909279540436e-01,2.573988598462277275e-02
8.309999999999999609e-01,-5.923117014018414173e-01,3.653867422696527867e-01,2.172574595037205653e-02
8.319999999999999618e-01,-5.832791273651338759e-01,4.624440441105475696e-01,-2.840895527547509722e-02
8.329999999999999627e-01,-4.851597322791836309e-01,4.903803715372327399e-01,-1.117155486462942937e-01
8.339999999999999636e-01,-3.451035527546498782e-01,4.541859586606266097e-01,-1.868333062232323538e-01
8.349999999999999645e-01,-2.025685450778517693e-01,3.967808090474104765e-01,-2.454837938245472695e-01
8.359999999999999654e-01,-9.794367456597591337e-02,3.281702219542216858e-01,-2.695296504263203219e-01
8.369999999999999662e-01,-1.689309035967260370e-02,2.908264546724714794e-01,-3.020817156418655336e-01
8.379999999999999671e-01,8.885052152811048765e-02,2.489652820302383218e-01,-3.512600438187914453e-01
8.389999999999999680e-01,2.200275605386453615e-01,1.811029436925171432e-01,-3.986091971966315151e-01
8.399999999999999689e-01,3.648639478467841646e-01,8.441820799983366930e-02,-4.263069355997997634e-01
8.409999999999999698e-01,4.563345995543898193e-01,-1.281122205061165434e-02,-4.157501192252642253e-01
8.419999999999999707e-01,4.797974815840696516e-01,-8.341161830946955402e-02,-3.373152853626649739e-01
8.429999999999999716e-01,4.257562785501451397e-01,-7.860083861012198692e-02,-2.624867148640906422e-01
8.439999999999999725e-01,3.478906827049416117e-01,-1.982638522718176838e-02,-1.877569694689540658e-01
8.449999999999999734e-01,2.682497977482578566e-01,4.217702006938019860e-02,-1.332259199083002110e-01
8.459999999999999742e-01,2.432587448121765472e-01,9.162795172941201605e-02,-7.584582865205656554e-02
8.469999999999999751e-01,1.801991583805697961e-01,1.406578295857496275e-01,-2.349265076850270972e-02
8.479999999999999760e-01,9.745419080574543869e-02,2.122348090776885743e-01,6.629910278227255094e-02
8.489999999999999769e-01,-2.039821320655896969e-02,3.075779940706643845e-01,1.494311843575279464e-01
8.499999999999999778e-01,-1.485113878008308408e-01,4.355053828144059835e-01,1.976141903713943271e-01
8.509999999999999787e-01,-2.097950379136886145e-01,5.611992370436771349e-01,2.270176898813195676e-01
8.519999999999999796e-01,-1.796011546545697724e-01,6.167465064406862929e-01,1.634333820429270945e-01
8.529999999999999805e-01,-1.076183796339997140e-01,6.187573329946997047e-01,1.226742797947089625e-01
8.539999999999999813e-01,-2.950821638840847930e-02,6.012306436907969287e-01,9.429527170777246559e-02
8.549999999999999822e-01,3.643731119587776540e-02,5.692156266890271432e-01,6.059667280104640702e-02
8.559999999999999831e-01,9.599519839373918395e-02,5.551556548890574927e-01,3.329607590901893788e-02
8.569999999999999840e-01,1.859333876712644940e-01,5.262589124576857458e-01,-1.871809354623478819e-02
8.579999999999999849e-01,3.286925759675663472e-01,4.482434447779452547e-01,-8.887578390781204762e-02
8.589999999999999858e-01,5.078509432261405498e-01,3.339388951599355226e-01,-1.716848308864415418e-01
8.599999999999999867e-01,6.400317108757804796e-01,2.021116503594999336e-01,-2.015381525715211064e-01
8.609999999999999876e-01,7.311240622190058325e-01,9.648020390356082387e-02,-1.846042554270753422e-01
8.619999999999999885e-01,7.323577283024216289e-01,4.044993643114151716e-02,-1.370982562518479331e-01
8.629999999999999893e-01,7.083289381250577055e-01,3.007926767356616446e-02,-8.426786127409996441e-02
8.639999999999999902e-01,6.937586897034893063e-01,2.286613657609420230e-02,-4.641030180034044078e-02
8.649999999999999911e-01,6.897424139739358750e-01,1.530080666628907092e-02,-1.921879954195947551e-02
8.659999999999999920e-01,6.484434250543593681e-01,-4.817414699423787881e-04,4.380062467890001587e-02
8.669999999999999929e-01,5.645564958577681258e-01,3.538154880020924486e-02,1.367872891050910533e-01
8.679999999999999938e-01,4.105454664395001840e-01,1.163942380469427385e-01,2.248750750114313635e-01
8.689999999999999947e-01,2.473565973529205930e-01,2.408242037386354173e-01,3.208929140802832536e-01
8.699999999999999956e-01,1.329308730453951926e-01,3.514140303244217556e-01,3.798657280855409768e-01
8.709999999999999964e-01,7.730613860907659118e-02,4.237474169267864688e-01,3.954030177105916088e-01
8.719999999999999973e-01,6.900700943687243516e-02,4.550561683316199368e-01,3.834441013214463512e-01
8.729999999999999982e-01,7.088245311843258123e-02,4.690904176087549171e-01,3.731769623151101611e-01
8.739999999999999991e-01,5.242589233890038863e-02,4.877029658725797745e-01,3.753662147548055272e-01
8.750000000000000000e-01,3.685436081458644264e-02,5.119487032783653913e-01,3.655209511136645606e-01
8.760000000000000009e-01,6.971013704254670762e-02,5.066158258371882273e-01,3.150488907722809317e-01
8.770000000000000018e-01,1.742309981491037274e-01,4.460767210107815517e-01,2.372593071394487330e-01
8.780000000000000027e-01,3.440860730037167969e-01,3.239789583075688983e-01,1.455631146615474214e-01
8.790000000000000036e-01,4.871105766772215184e-01,1.926696451911545371e-01,7.096489106938196068e-02
8.800000000000000044e-01,5.781157113227097799e-01,6.294303328014448640e-02,3.457812097133611262e-02
8.810000000000000053e-01,6.188586496161174733e-01,-4.301108421719478450e-03,2.635585410059440928e-02
8.820000000000000062e-01,6.505791699448764120e-01,-6.988136927438147461e-02,3.138634321370831898e-02
8.830000000000000071e-01,6.802889840217560824e-01,-1.405852354396979198e-01,3.526822612179345701e-02
8.840000000000000080e-01,7.205711566583661298e-01,-2.137740491522352460e-01,1.985512299786705570e-02
8.850000000000000089e-01,7.360356774610778974e-01,-2.839732487733239719e-01,2.919264916779212501e-02
8.860000000000000098e-01,6.707622753231721191e-01,-3.076904267544902094e-01,8.061550606171985489e-02
8.870000000000000107e-01,5.485773510241815920e-01,-2.541044334648060454e-01,1.824312026366789186e-01
8.880000000000000115e-01,3.775391990653829133e-01,-1.776905601893266906e-01,2.785692262275984987e-01
8.890000000000000124e-01,2.355147441251597418e-01,-7.813192715213261585e-02,3.478276130950370137e-01
8.900000000000000133e-01,1.331831925418379692e-01,-1.526145363296307900e-02,3.837274581115442951e-01
8.910000000000000142e-01,5.426518010117767354e-02,1.267646443485446854e-02,4.043128004176886892e-01
8.920000000000000151e-01,-8.631696881770912697e-03,6.780710990304787689e-02,4.198155572125005786e-01
8.930000000000000160e-01,-1.112714694559140682e-01,1.285030534459882245e-01,4.558033802950149926e-01
8.940000000000000169e-01,-2.151695225408825074e-01,2.169943749806638178e-01,4.701740184966003433e-01
8.950000000000000178e-01,-2.500867865144531521e-01,2.462916253347915141e-01,4.676646884566692530e-01
8.960000000000000187e-01,-2.193217063641804687e-01,2.309637618003511639e-01,3.966967575928490031e-01
8.970000000000000195e-01,-1.121107963058933232e-01,1.477615286036544073e-01,3.197155110548202117e-01
8.980000000000000204e-01,-4.328452875328307227e-03,4.672957249254554302e-02,2.213725639811659485e-01
8.990000000000000213e-01,9.266257449751513775e-02,-4.637408981941047031e-02,1.580241163668399118e-01
9.000000000000000222e-01,1.429646138880676376e-01,-1.203868050348220892e-01,9.226636181498108769e-02
9.010000000000000231e-01,1.855287802464076485e-01,-1.861133441731132876e-01,5.842343308474975960e-02
9.020000000000000240e-01,2.644706667336509942e-01,-2.762822340296492429e-01,1.506812955138041657e-02
9.030000000000000249e-01,3.659367294509121571e-01,-4.135680240176996536e-01,-5.407590018219501915e-02
9.040000000000000258e-01,4.373825173347195006e-01,-5.197735821865213657e-01,-6.743349568512840841e-02
9.050000000000000266e-01,4.392155700386266015e-01,-5.795600761836499082e-01,-8.001286051319000947e-02
9.060000000000000275e-01,3.581154147519041153e-01,-5.720288384970302342e-01,-4.853074890836154426e-02
9.070000000000000284e-01,2.354731932464285693e-01,-5.208540103026700896e-01,3.711781036490049979e-02
9.080000000000000293e-01,1.061962041506746834e-01,-4.695675463594927712e-01,9.205308205872551885e-02
9.090000000000000302e-01,1.464909286388330241e-02,-4.269196296471330365e-01,1.389824682434676606e-01
9.100000000000000311e-01,-6.599774518794142286e-02,-4.011373433816088907e-01,1.722816377820809153e-01
9.110000000000000320e-01,-1.866025431639563859e-01,-3.202884134555739615e-01,2.100814448312619820e-01
9.120000000000000329e-01,-3.147154930304671971e-01,-2.333992973398822113e-01,2.625480716470948717e-01
9.130000000000000338e-01,-4.700107357436992817e-01,-1.198282557458149183e-01,3.128013974980468626e-01
9.140000000000000346e-01,-5.837588205872832336e-01,-1.713564347513900007e-02,3.392471151725487966e-01
9.150000000000000355e-01,-6.209117693100386637e-01,2.561422077861490090e-03,3.303469469029387540e-01
9.160000000000000364e-01,-5.876101313626271860e-01,-4.279715309832540608e-03,2.615420229558597098e-01
9.170000000000000373e-01,-5.267021716081354832e-01,-5.718738264470619309e-02,1.783285585968517328e-01
9.180000000000000382e-01,-4.675701448957632067e-01,-7.977173706064506764e-02,1.224741944622200068e-01
9.190000000000000391e-01,-4.359225128920387604e-01,-1.091310853488130089e-01,7.156438331991604729e-02
9.200000000000000400e-01,-3.798151361326016495e-01,-1.531110405110840955e-01,1.726296078994052352e-02
9.210000000000000409e-01,-2.943957849888462208e-01,-2.389330218007138795e-01,-6.522633876690339672e-02
9.220000000000000417e-01,-1.488210287112973484e-01,-3.765674454027078677e-01,-1.540793018007380610e-01
9.230000000000000426e-01,-2.009502042070061140e-02,-5.039223493327047443e-01,-2.245665607022118704e-01
9.240000000000000435e-01,6.633930215960542887e-02,-5.755145970174846415e-01,-2.881142583810313851e-01
9.250000000000000444e-01,6.133269032406971771e-02,-5.992894051691629587e-01,-2.948669313048889462e-01
9.260000000000000453e-01,1.710952806570969348e-02,-5.891414091959272792e-01,-2.692368842797170925e-01
9.270000000000000462e-01,-4.024836931539152451e-02,-5.742612004134998172e-01,-2.333260326450548316e-01
9.280000000000000471e-01,-6.950184258298679196e-02,-5.622010081510243618e-01,-2.149832024212224857e-01
9.290000000000000480e-01,-1.106418825243657977e-01,-5.677936480604380831e-01,-1.773881478937160694e-01
9.300000000000000488e-01,-2.012713421000690839e-01,-5.011338860521344918e-01,-1.561879980671077583e-01
9.310000000000000497e-01,-3.396445252884545685e-01,-3.844153594877973146e-01,-8.557577967692076015e-02
9.320000000000000506e-01,-5.087697035586814520e-01,-2.396031650057797446e-01,-3.986601771414178402e-03
9.330000000000000515e-01,-6.686695756898275445e-01,-1.162844368743155693e-01,6.894161529484874040e-02
9.340000000000000524e-01,-7.399087300313235138e-01,-3.498182751372985733e-02,9.141146843769379360e-02
9.350000000000000533e-01,-7.554417071216209534e-01,-1.202201641249345775e-02,7.610189320475536923e-02
9.360000000000000542e-01,-7.436306208685057317e-01,1.589544867549190152e-02,5.066975445971056563e-02
9.370000000000000551e-01,-7.549910367571024405e-01,5.874996633435852766e-02,2.150791194423744279e-02
9.379999999999999449e-01,-7.464549410700922483e-01,8.684750679445221722e-02,-3.585065330880258215e-03
9.389999999999999458e-01,-7.210737621497723682e-01,9.690881604445714115e-02,-3.559750745766967345e-02
9.399999999999999467e-01,-6.323007805776547086e-01,4.038021971688967454e-02,-9.193079834550318963e-02
9.409999999999999476e-01,-4.814628170452238121e-01,-6.325548870210018215e-02,-1.767384792247721215e-01
9.419999999999999485e-01,-3.114305569733839540e-01,-1.727856920129663965e-01,-2.943691423586927147e-01
9.429999999999999494e-01,-1.861357447491971129e-01,-2.613589482111252638e-01,-3.678554303136759018e-01
9.439999999999999503e-01,-1.038325003562723947e-01,-2.968752128996658413e-01,-4.230444517426206197e-01
9.449999999999999512e-01,-7.105846571638321785e-02,-3.282218248756706980e-01,-4.325121286758838446e-01
9.459999999999999520e-01,-3.685281093980186107e-02,-3.477393957386610834e-01,-4.296669195436639277e-01
9.469999999999999529e-01,2.394613322840789555e-03,-3.899666696743389060e-01,-4.296348630332641472e-01
9.479999999999999538e-01,3.814096833558627830e-02,-4.124196395273969640e-01,-4.432359141697068683e-01
9.489999999999999547e-01,2.240878621704679025e-02,-3.843074127355898262e-01,-4.273871875799569731e-01
9.499999999999999556e-01,-5.857246596687029627e-02,-2.885994059294581526e-01,-3.737074080995749226e-01
9.509999999999999565e-01,-2.060281760831187692e-01,-1.582078559151419428e-01,-2.871574588066863609e-01
9.519999999999999574e-01,-3.388111265030164798e-01,-3.722701997591085221e-02,-1.836208906017423037e-01
9.529999999999999583e-01,-4.352558789131886763e-01,5.538908643284980171e-02,-1.172903447526971871e-01
9.539999999999999591e-01,-4.894860579612529405e-01,1.082448613236815793e-01,-7.547316891906646896e-02
9.549999999999999600e-01,-5.175272790311432614e-01,1.900487624059012948e-01,-6.750325608044360770e-02
9.559999999999999609e-01,-5.654133799215331768e-01,2.796838112526915943e-01,-4.713380717776337325e-02
9.569999999999999618e-01,-6.201102447549385888e-01,3.746958555930425261e-01,-1.970140822839525074e-02
9.579999999999999627e-01,-6.536517176157254916e-01,4.347252658069944431e-01,-2.720209025978981027e-03
9.589999999999999636e-01,-6.031157112771353690e-01,4.148048752050241261e-01,-1.396954370731429834e-02
9.599999999999999645e-01,-4.776856098193345002e-01,3.436535104432325571e-01,-7.002744925428655565e-02
9.609999999999999654e-01,-3.102874449218979147e-01,2.626940192380533556e-01,-1.502039546937132264e-01
9.619999999999999662e-01,-1.633633480997188914e-01,2.035578161513486584e-01,-2.413409918347915739e-01
9.629999999999999671e-01,-7.360342693232949096e-02,1.680123405925444124e-01,-3.060918943056263331e-01
9.639999999999999680e-01,1.660327378299552431e-02,1.114504437769346656e-01,-3.367669681202613563e-01
9.649999999999999689e-01,1.108286821433863978e-01,4.389353969626898222e-02,-3.559407372853985452e-01
9.659999999999999698e-01,2.335257703767682491e-01,-5.152914901255091495e-02,-3.893040624308289899e-01
9.669999999999999707e-01,3.430590265335857758e-01,-1.319677497510555186e-01,-4.240102159024055073e-01
9.679999999999999716e-01,4.130547815063317363e-01,-1.421721828646223540e-01,-4.358411272775172818e-01
9.689999999999999725e-01,3.954099347123655739e-01,-8.662474706136345792e-02,-4.224247437318443543e-01
9.699999999999999734e-01,3.127994923567491981e-01,-1.160115327794607621e-03,-3.595927466741390965e-01
9.709999999999999742e-01,2.092903044014289005e-01,6.662325553938169831e-02,-2.650408765707932268e-01
9.719999999999999751e-01,1.345427550536240635e-01,1.284368958629448221e-01,-1.832114609104473213e-01
9.729999999999999760e-01,8.064157078626847663e-02,1.862204555164900244e-01,-1.186597898260127182e-01
9.739999999999999769e-01,2.727832849669564741e-02,2.915388624469922307e-01,-7.277047624051184715e-02
9.749999999999999778e-01,-6.149497280620887241e-02,4.108564069435166055e-01,-2.485911909846812151e-02
9.759999999999999787e-01,-1.616487040845317469e-01,5.380473273278643109e-01,4.425857240494838335e-02
9.769999999999999796e-01,-2.543499512099353654e-01,6.127226774733184333e-01,1.230533921350346893e-01
9.779999999999999805e-01,-2.840539562944828789e-01,6.328012036260014517e-01,1.681042330053449940e-01
9.789999999999999813e-01,-2.272878735107153880e-01,5.920557707441478357e-01,1.552249199221579223e-01
9.799999999999999822e-01,-1.234079320237204264e-01,5.620108102331464739e-01,1.166616483503446072e-01
9.809999999999999831e-01,-2.527314957063389600e-02,5.306489610530397139e-01,6.028493590802937174e-02
9.819999999999999840e-01,5.801890767885143491e-02,4.932824681096538155e-01,8.713072885074737983e-03
9.829999999999999849e-01,1.363263606834742014e-01,4.432054914392530298e-01,-1.451675538517945355e-02
9.839999999999999858e-01,2.433114417104845772e-01,3.393366898575483903e-01,-4.825861934251242380e-02
9.849999999999999867e-01,4.018776940641670681e-01,2.012633534912295907e-01,-1.032672692853003060e-01
9.859999999999999876e-01,5.616618736408655055e-01,1.029993965060433808e-01,-1.738909156030966630e-01
9.869999999999999885e-01,6.755766901927733326e-01,3.838466750537322669e-02,-2.252187172273948657e-01
9.879999999999999893e-01,7.213283937335961404e-01,2.281452098271400525e-02,-2.476212660085616857e-01
9.889999999999999902e-01,7.083811287281577274e-01,4.042915302936773286e-02,-2.209782644886087166e-01
9.899999999999999911e-01,6.396146642491801204e-01,4.637248458071625834e-02,-1.707488940744926742e-01
9.909999999999999920e-01,6.218008236321338478e-01,6.245504980115339916e-02,-1.057740709949479413e-01
9.919999999999999929e-01,5.958283582003039980e-01,7.241352832854247579e-02,-4.598672717613866423e-02
9.929999999999999938e-01,5.386408245906114667e-01,1.333962647458176165e-01,-1.273144102214394079e-02
9.939999999999999947e-01,4.442427882805284889e-01,2.566717689643643330e-01,4.701656301666000404e-02
9.949999999999999956e-01,2.902786677676711391e-01,3.817951397832888838e-01,1.342022011766520195e-01
9.959999999999999964e-01,1.364986803654257563e-01,4.853898548016024606e-01,2.331063605523875926e-01
9.969999999999999973e-01,3.876900220391125973e-02,5.183833517442495431e-01,3.231124794921404475e-01
9.979999999999999982e-01,2.135455887644674422e-02,5.252353533798125307e-01,3.706182312817788427e-01
9.989999999999999991e-01,4.833136831157467533e-02,5.203240730923793800e-01,3.710351484043393211e-01
1.000000000000000000e+00,6.982342945206636287e-02,5.281403159091436761e-01,3.523380466763504359e-01
1.000999999999999890e+00,7.403507985291096771e-02,5.345845836025012732e-01,3.256590700774412150e-01
1.002000000000000002e+00,9.432015843758259632e-02,4.980377080778692345e-01,3.122276600766807908e-01
1.002999999999999892e+00,1.544649150900022638e-01,3.931976102917277283e-01,3.044964291759655883e-01
1.004000000000000004e+00,2.912769703814615530e-01,2.501297266869330627e-01,2.456074380206560437e-01
1.004999999999999893e+00,4.484345821886200345e-01,1.147599325176141966e-01,1.800864253738885257e-01
1.006000000000000005e+00,6.011444630530865529e-01,2.286424666926523130e-02,8.818673377287938875e-02
1.006999999999999895e+00,6.872521817576372483e-01,-3.124149428640956780e-02,6.974822969770609615e-03
1.008000000000000007e+00,7.117283513978878151e-01,-8.314047979067362704e-02,-1.126068358168503050e-02
1.008999999999999897e+00,7.176044249267348185e-01,-1.280186935415522920e-01,-8.946392814962036283e-03
1.010000000000000009e+00,7.335167828069296680e-01,-2.041169302823152565e-01,5.448117239158362969e-03
1.010999999999999899e+00,7.477673587260500465e-01,-2.323446698523066734e-01,2.444265376219598856e-02
1.012000000000000011e+00,7.349146053332087369e-01,-2.099633956770688703e-01,2.719947397504593814e-02
1.012999999999999901e+00,6.350415254541055265e-01,-1.219925646633378269e-01,5.123254754403471639e-02
1.014000000000000012e+00,4.930995341473396465e-01,-1.284252314509954154e-02,1.076452750760015370e-01
1.014999999999999902e+00,3.149717708554057860e-01,7.984122335015302052e-02,2.141376653748022219e-01
1.016000000000000014e+00,1.796567183429002013e-01,1.231360548536385852e-01,3.061977221279650885e-01
1.016999999999999904e+00,8.969576457938442660e-02,1.458797988527275324e-01,3.773940371472043198e-01
1.018000000000000016e+00,3.262162009037405247e-02,1.916157001368581914e-01,4.115865836319202997e-01
1.018999999999999906e+00,-2.156164331522655853e-02,2.499480450816189692e-01,4.256124549157302983e-01
1.020000000000000018e+00,-9.510021713242858277e-02,2.963922009128643897e-01,4.382724839423653429e-01
1.020999999999999908e+00,-1.535790246253909141e-01,2.942518441871718182e-01,4.626060050047505201e-01
1.022000000000000020e+00,-1.580509903997476262e-01,2.241199963418078756e-01,4.687657581963361464e-01
1.022999999999999909e+00,-9.650155403397678300e-02,1.084312894794863258e-01,4.530379228020472437e-01
1.024000000000000021e+00,2.885501881882988895e-02,5.622702991618944168e-05,3.897379042658269954e-01
1.024999999999999911e+00,1.602514672938732954e-01,-9.068231381863005314e-02,2.963725407161690306e-01
1.026000000000000023e+00,2.449707193864156252e-01,-1.613119763144922614e-01,1.958904793696200630e-01
1.026999999999999913e+00,2.945339855354101033e-01,-2.387800413930638299e-01,1.217482241327676046e-01
1.028000000000000025e+00,3.358841560396293446e-01,-3.353679829121819500e-01,8.514183824788079669e-02
1.028999999999999915e+00,3.953606869104823174e-01,-4.502560613156856295e-01,5.277602415070431485e-02
1.030000000000000027e+00,4.723608291932855918e-01,-5.365840613118446623e-01,1.728073005827919853e-02
1.030999999999999917e+00,5.115761289914396714e-01,-5.433895320658174155e-01,-1.684919852133420770e-02
1.032000000000000028e+00,4.776495480708158881e-01,-4.811770796587179211e-01,-4.331961669555542405e-02
1.032999999999999918e+00,3.671403218156771842e-01,-4.272987484564004790e-01,-4.597958499492840051e-02
1.034000000000000030e+00,2.380262565142990949e-01,-3.610706709822970040e-01,6.159025337056147145e-03
1.034999999999999920e+00,8.899871849139681657e-02,-3.145949341426403367e-01,1.037340977711382894e-01
1.036000000000000032e+00,-1.484655723944174749e-02,-2.918797895272018383e-01,1.725868265362814347e-01
1.036999999999999922e+00,-1.020549888082264434e-01,-1.983177579843425076e-01,2.097260770667693230e-01
1.038000000000000034e+00,-2.097881345091884842e-01,-9.839137771289829804e-02,2.586837556068535271e-01
1.038999999999999924e+00,-3.416706853045308190e-01,-1.576530447301793293e-03,2.745506113746065679e-01
1.040000000000000036e+00,-4.791354233896661929e-01,4.150474702453088582e-02,3.019152883016359978e-01
1.040999999999999925e+00,-5.576961787479080002e-01,4.148351407289842252e-02,3.591410602886377368e-01
1.042000000000000037e+00,-5.528357369441737612e-01,-1.611867671946045494e-02,3.860578942558048898e-01
1.042999999999999927e+00,-4.889027508392717047e-01,-8.329372733079504210e-02,3.548106840301466502e-01
1.044000000000000039e+00,-4.033026669692462707e-01,-1.287870506443356267e-01,2.884537841094474420e-01
1.044999999999999929e+00,-3.384644953267694767e-01,-1.709247239857016321e-01,1.952916806189118892e-01
1.046000000000000041e+00,-3.009868896774532399e-01,-2.449005789266465449e-01,1.305092909501362197e-01
1.046999999999999931e+00,-2.515848020123150341e-01,-3.549419559358494847e-01,6.520519858736541219e-02
1.048000000000000043e+00,-1.263055192381534464e-01,-4.835321677543665819e-01,5.747701692243576722e-03
1.048999999999999932e+00,-1.557409944020055059e-02,-5.893118780772914622e-01,-3.929550039589483484e-02
1.050000000000000044e+00,1.017446371171737418e-01,-6.382419375820442831e-01,-1.244700976743477044e-01
1.050999999999999934e+00,1.348324548019808888e-01,-6.236385592920002940e-01,-2.145136013495604899e-01
1.052000000000000046e+00,1.137026171969795080e-01,-5.890408581797055287e-01,-2.594444857092867984e-01
1.052999999999999936e+00,3.000391225015446722e-02,-5.687115549193852981e-01,-2.566639244035460732e-01
1.054000000000000048e+00,-5.158443938213598534e-02,-5.515366686468398116e-01,-2.143304852010615436e-01
1.054999999999999938e+00,-1.119517252635751636e-01,-4.901803395742386771e-01,-1.642921749652412611e-01
1.056000000000000050e+00,-1.742233094187344566e-01,-4.142215172402543555e-01,-1.279961963487011578e-01
1.056999999999999940e+00,-2.788967054377781696e-01,-2.817428197577178106e-01,-1.091161949387895735e-01
1.058000000000000052e+00,-4.195050820709890771e-01,-1.441987372940926049e-01,-7.798092239505857726e-02
1.058999999999999941e+00,-5.841165427687026179e-01,-5.166676100562328511e-02,-9.447605450483662071e-03
1.060000000000000053e+00,-7.049841105412772979e-01,-1.912185314439520181e-02,5.830656356236079557e-02
1.060999999999999943e+00,-7.835555103457789716e-01,-2.508619400535071382e-03,1.254267022452150715e-01
1.062000000000000055e+00,-7.780511819354170022e-01,1.710291447084543500e-03,1.530677061559806429e-01
1.062999999999999945e+00,-7.242102971143400403e-01,2.139252197709025707e-02,1.254700987536550572e-01
1.064000000000000057e+00,-7.079183997060997102e-01,3.729377803948238229e-02,8.365143271077730980e-02
1.064999999999999947e+00,-6.984766941446646227e-01,-9.885083385758167834e-03,3.481785948745267506e-02
1.066000000000000059e+00,-6.387561134747463676e-01,-9.332888761203220196e-02,-1.172198776130982346e-03
1.066999999999999948e+00,-5.369524483366663326e-01,-2.212251328878137024e-01,-4.573260613543210507e-02
1.068000000000000060e+00,-3.792246327057272604e-01,-3.259880541702753765e-01,-1.042919585013191708e-01
1.068999999999999950e+00,-2.284661950038403277e-01,-3.877608681005630942e-01,-1.863534858072510292e-01
1.070000000000000062e+00,-9.724096305881045621e-02,-3.975898429488641250e-01,-2.981513100371272484e-01
1.070999999999999952e+00,-6.107352634351230491e-02,-4.241535224473650945e-01,-3.811684970289557217e-01
1.072000000000000064e+00,-5.313212201248435768e-02,-4.245684031533296099e-01,-4.294276511679574471e-01
1.072999999999999954e+00,-5.653334956148592383e-02,-4.604147877074387663e-01,-4.247363561276707444e-01
1.074000000000000066e+00,-3.936436294178288775e-02,-4.335844474113749181e-01,-4.097129193346407683e-01
1.074999999999999956e+00,-1.977059180398859500e-02,-3.594515076752420879e-01,-3.980497208534896081e-01
1.076000000000000068e+00,-6.618493701871107360e-02,-2.307315053588832321e-01,-3.949099337591430725e-01
1.076999999999999957e+00,-1.855837029172224262e-01,-9.800643327981853337e-02,-3.708166439612446408e-01
1.078000000000000069e+00,-3.460175102632224720e-01,9.435735436386575095e-03,-3.352997977224428383e-01
1.078999999999999959e+00,-4.776638302591402763e-01,9.238248431593072685e-02,-2.462914486702385275e-01
1.080000000000000071e+00,-5.662991848363276848e-01,1.451880543844366322e-01,-1.476251325990016183e-01
1.080999999999999961e+00,-5.966221281225425610e-01,2.215593268945253991e-01,-7.780255102137660639e-02
1.082000000000000073e+00,-6.067266404982861738e-01,3.042739811329033262e-01,-3.678221258858150461e-02
1.082999999999999963e+00,-6.387431931697025167e-01,3.536033214435604366e-01,-3.702481455192172671e-02
1.084000000000000075e+00,-6.756090370489628016e-01,3.586365743863459965e-01,-4.028095851521237142e-02
1.084999999999999964e+00,-6.665756086798685365e-01,3.056913204196827216e-01,-2.640382724728601929e-02
1.086000000000000076e+00,-6.009832729523527650e-01,2.177863320464999974e-01,-2.045511568135469430e-02
1.086999999999999966e+00,-4.460038895926154434e-01,1.309280700290708643e-01,-4.153543709774885212e-02
1.088000000000000078e+00,-2.728601992434058765e-01,7.306767795994265069e-02,-1.067937045133102031e-01
1.088999999999999968e+00,-1.273714800168523620e-01,2.482135518229354465e-02,-2.022836839245145124e-01
1.090000000000000080e+00,-2.757851423309943747e-02,-2.810304666816615393e-02,-2.969625951621112647e-01
1.090999999999999970e+00,3.127748926107210697e-02,-7.129576415065916328e-02,-3.593137725186205667e-01
1.092000000000000082e+00,1.135700970403703824e-01,-1.703495769777905455e-01,-3.811882646900673910e-01
1.092999999999999972e+00,2.142169959096388299e-01,-1.887860384283693849e-01,-4.021296354866042422e-01
1.094000000000000083e+00,3.022970358147343828e-01,-1.515459658238061391e-01,-4.209521977040294183e-01
1.094999999999999973e+00,3.318239991278768009e-01,-7.077948809236003780e-02,-4.456515909396411845e-01
1.096000000000000085e+00,2.809649768736262598e-01,2.356686356322798548e-02,-4.529560280066032840e-01
1.096999999999999975e+00,1.650473769898645471e-01,1.281020500701607334e-01,-4.253751529050484592e-01
1.098000000000000087e+00,5.294812172918701709e-02,1.931925335947790590e-01,-3.533826213365600655e-01
1.098999999999999977e+00,-1.759303499190652265e-02,2.615469867511162061e-01,-2.620339835362376357e-01
1.100000000000000089e+00,-7.315262750849650664e-02,3.610368517773339114e-01,-1.656360511192528362e-01
1.100999999999999979e+00,-1.247806473546786560e-01,4.753202970319715948e-01,-1.108269786117241501e-01
1.102000000000000091e+00,-1.991385164805031249e-01,5.809957777464588302e-01,-5.855569536754862137e-02
1.102999999999999980e+00,-2.887629627420217893e-01,6.335648243561106119e-01,-1.949891540511860394e-02
1.104000000000000092e+00,-3.526412297585107547e-01,6.086978446357534933e-01,3.375402214687826807e-02
1.104999999999999982e+00,-3.373641311288524958e-01,5.438285399358993022e-01,9.220054892317673667e-02
1.106000000000000094e+00,-2.534512224673432512e-01,4.931725988974624553e-01,1.299807341668852423e-01
1.106999999999999984e+00,-1.181230178279115833e-01,4.458607106072028925e-01,1.234495165639341863e-01
1.108000000000000096e+00,1.855265065968525061e-04,4.079899391877976900e-01,5.944772050996752905e-02
1.108999999999999986e+00,8.750649149701400509e-02,3.310246931555966277e-01,-1.397136851158451397e-02
1.110000000000000098e+00,1.782364435012142867e-01,2.224343361162332833e-01,-6.443458275209430763e-02
1.110999999999999988e+00,2.901297917230060697e-01,1.065215936186045403e-01,-1.153905453065243031e-01
1.112000000000000099e+00,4.400264892207874645e-01,3.173053574496483703e-02,-1.357435994228899656e-01
1.112999999999999989e+00,5.798834912240048434e-01,-9.185206273991873907e-03,-1.696815677910291364e-01
1.114000000000000101e+00,6.720133634441197712e-01,2.589455557733853427e-02,-2.243176801438079293e-01
1.114999999999999991e+00,6.963678302586432389e-01,7.417059907688983156e-02,-2.781281900462376777e-01
1.116000000000000103e+00,6.433116038129436109e-01,9.375620260446661247e-02,-2.919245707866761075e-01
1.116999999999999993e+00,5.642411430027751695e-01,1.101252689895150100e-01,-2.649703239140708266e-01
1.118000000000000105e+00,5.112885167605462078e-01,1.762802387596686671e-01,-1.945801358859704511e-01
1.118999999999999995e+00,4.860911943198917284e-01,2.717392850708983953e-01,-1.206028214700470419e-01
1.120000000000000107e+00,4.081375599663134013e-01,4.024790157359559584e-01,-6.217735227375256052e-02
1.120999999999999996e+00,2.996099211338870694e-01,5.086140817702554662e-01,-3.917883099236522254e-03
1.122000000000000108e+00,1.673241597870427366e-01,5.697222473620705552e-01,5.272715578325191943e-02
1.122999999999999998e+00,3.732036055036198896e-02,5.900365539432149697e-01,1.269818810525731312e-01
1.124000000000000110e+00,-3.027124224905792041e-02,5.608531474619184998e-01,2.263563382984401240e-01
1.125000000000000000e+00,-2.155753681859224474e-02,5.514793854382069593e-01,2.930772095024845592e-01
1.125999999999999890e+00,3.317531320286918467e-02,5.393337410983748414e-01,3.481633703484955933e-01
1.127000000000000002e+00,8.578765750344080621e-02,5.152944516527302454e-01,3.331345705461778439e-01
1.127999999999999892e+00,1.162846915887889299e-01,4.420267841603846559e-01,3.026845484281759924e-01
1.129000000000000004e+00,1.691083711631197750e-01,3.115817530625207277e-01,2.701157610424012590e-01
1.129999999999999893e+00,2.544614956850833054e-01,1.725910289409038068e-01,2.501001626536400457e-01
1.131000000000000005e+00,3.883112586972007896e-01,4.901044546592811524e-02,2.259722674473184367e-01
1.131999999999999895e+00,5.579125664226295411e-01,-1.806898388499665609e-02,1.887976958139479799e-01
1.133000000000000007e+00,6.921029818466102324e-01,-5.589173700890665702e-02,1.180941469455119575e-01
1.133999999999999897e+00,7.607409109973850558e-01,-7.940429326498081586e-02,3.701642518247200142e-02
1.135000000000000009e+00,7.588860453892130042e-01,-1.195973280462759997e-01,-4.112533746998808803e-02
1.135999999999999899e+00,7.454572306444674501e-01,-1.509046267961433319e-01,-5.344804112521154421e-02
1.137000000000000011e+00,7.398274313256332224e-01,-1.454172478489578479e-01,-4.488243695199877620e-02
1.137999999999999901e+00,7.250569010918876955e-01,-8.080607670737578740e-02,-8.437144864723871221e-03
1.139000000000000012e+00,6.837632856485986732e-01,2.769297154973342223e-02,2.570987561163542989e-02
1.139999999999999902e+00,5.659061158858154084e-01,1.427259755485529302e-01,3.234084276154617493e-02
1.141000000000000014e+00,4.155749860056014988e-01,2.162219455653199285e-01,8.025201537737050583e-02
1.141999999999999904e+00,2.410497651631532401e-01,2.454932038603209465e-01,1.342134604831599354e-01
1.143000000000000016e+00,1.178222394157603242e-01,2.639156785723421605e-01,2.312016064231870449e-01
1.143999999999999906e+00,5.162104691370091730e-02,3.022218506114319747e-01,3.371419582997332576e-01
1.145000000000000018e+00,2.949042369473931641e-02,3.338897036745267499e-01,4.156610662649796173e-01
1.145999999999999908e+00,-2.116846851398188067e-02,3.499308364352982648e-01,4.460916792544648568e-01
1.147000000000000020e+00,-5.941215078553425954e-02,3.077969038345505504e-01,4.416437089213975375e-01
1.147999999999999909e+00,-9.675524774220577162e-02,1.948256615333508190e-01,4.393156674699346120e-01
1.149000000000000021e+00,-5.890205893335799525e-02,5.704569436122669535e-02,4.399108717500324062e-01
1.149999999999999911e+00,2.224197421176481518e-02,-5.934776890192105386e-02,4.493531314534192078e-01
1.151000000000000023e+00,1.863583193049299092e-01,-1.403443033207834034e-01,4.255938415299519995e-01
1.151999999999999913e+00,3.125176817520520234e-01,-2.135407641114240862e-01,3.620381845561526091e-01
1.153000000000000025e+00,3.935017293966999730e-01,-2.705686281210794575e-01,2.617452960932066253e-01
1.153999999999999915e+00,4.324597785887816515e-01,-3.707689209657348273e-01,1.763739853263589508e-01
1.155000000000000027e+00,4.563814777765845543e-01,-4.625099208608650092e-01,1.007865282924639422e-01
1.155999999999999917e+00,5.048475066201685291e-01,-4.919636017792379246e-01,7.279823484340920692e-02
1.157000000000000028e+00,5.555789230993145589e-01,-4.674182156968437196e-01,3.986760562215566073e-02
1.157999999999999918e+00,5.734470210007907021e-01,-3.936727037302728549e-01,3.015655971691155735e-02
1.159000000000000030e+00,4.982427123346163667e-01,-3.104564622266465790e-01,8.200238624101378535e-03
1.159999999999999920e+00,3.683055648856415898e-01,-2.455228244819064876e-01,-1.080341392733148893e-02
1.161000000000000032e+00,1.963269995252027722e-01,-2.062458449946092398e-01,9.772951466239812590e-03
1.161999999999999922e+00,5.332433912862993841e-02,-1.512460717005690292e-01,7.225784650777392071e-02
1.163000000000000034e+00,-3.815701150650359363e-02,-7.332075490342732094e-02,1.522613607332346797e-01
1.163999999999999924e+00,-1.244606486913088089e-01,1.565901549099876430e-02,2.337639103746465274e-01
1.165000000000000036e+00,-2.233581601490961244e-01,7.794835432115616858e-02,2.887835068550054785e-01
1.165999999999999925e+00,-3.443066657085235294e-01,7.969619576250377979e-02,3.146735691112456657e-01
1.167000000000000037e+00,-4.530887446648751427e-01,2.414952195796422202e-02,3.291174951656841707e-01
1.167999999999999927e+00,-4.970498770076853812e-01,-5.909628155187771764e-02,3.661924993466162404e-01
1.169000000000000039e+00,-4.528283102327363419e-01,-1.365749851698030704e-01,3.958851756443731995e-01
1.169999999999999929e+00,-3.802192094452236382e-01,-1.927153237808848507e-01,4.132115346226295505e-01
1.171000000000000041e+00,-2.679785051647274874e-01,-2.373044716167809487e-01,3.755322558680696532e-01
1.171999999999999931e+00,-1.903883937960187955e-01,-3.272417151933249002e-01,3.098980266255650373e-01
1.173000000000000043e+00,-1.497786573148586486e-01,-4.594416628876970554e-01,2.004759681022127149e-01
1.173999999999999932e+00,-9.296907886399302656e-02,-5.748921000333485631e-01,1.327462912385844185e-01
1.175000000000000044e+00,8.489991427525774015e-03,-6.559849684268024284e-01,6.154673727067359879e-02
1.175999999999999934e+00,1.229913921074084204e-01,-6.602584409006799770e-01,6.928905736996996377e-03
1.177000000000000046e+00,1.974243620040402603e-01,-6.046475504703068271e-01,-3.358405933292273049e-02
1.177999999999999936e+00,2.101115243567015234e-01,-5.570351653430843930e-01,-1.056667107110910303e-01
1.179000000000000048e+00,1.431566777608636043e-01,-5.156461886579858378e-01,-1.879213735916077932e-01
1.179999999999999938e+00,2.601735581813374373e-02,-4.876962810045662455e-01,-2.144626346933845573e-01
