time,acc_x,acc_y,acc_z
0.000000000000000000e+00,-2.474579782545574536e-01,-2.158519561225285543e-01,-9.635947528689400854e-02
1.000000000000000021e-03,-2.697625651239895506e-01,-2.008251772308791983e-01,-1.688960006305826322e-01
2.000000000000000042e-03,-2.009910105899852806e-01,-1.827997533863324475e-01,-1.127042909216569300e-01
3.000000000000000062e-03,-1.893657366673009435e-01,-9.468427976159632387e-02,-1.267788043362734762e-01
4.000000000000000083e-03,-1.451861605301558444e-01,-9.339333294055636447e-02,-9.012311524946003960e-02
5.000000000000000104e-03,-1.773273996589359025e-01,-1.487840868821391771e-01,-8.541687914993228992e-02
6.000000000000000125e-03,-1.774187601227283084e-01,-1.001224177315289815e-01,-1.017583070962640723e-01
7.000000000000000146e-03,-1.321506034050669853e-01,2.281248928313839037e-03,-1.327767182777156718e-01
8.000000000000000167e-03,4.348099408813497352e-02,1.561719695875054548e-01,-7.052792580629471675e-02
8.999999999999999320e-03,2.433089043375124272e-01,3.122165499788435161e-01,5.428372598044561848e-02
1.000000000000000021e-02,4.378382943961097173e-01,3.797581386138311199e-01,1.779152089156508243e-01
1.099999999999999936e-02,4.783755526830865690e-01,3.162966526432448022e-01,2.516972178026359308e-01
1.200000000000000025e-02,3.637407604140672768e-01,1.172232706569084626e-01,3.009713310081952309e-01
1.299999999999999940e-02,1.341946111653462281e-01,-6.316297711760443523e-02,2.234100660592794607e-01
1.400000000000000029e-02,-8.942751091725364976e-02,-2.020995415953957541e-01,5.561586023410990121e-02
1.499999999999999944e-02,-2.841339558611818972e-01,-2.894282372630264111e-01,-8.253521558871339259e-02
1.600000000000000033e-02,-3.125969744745046852e-01,-2.312174402980378130e-01,-1.694106148600528217e-01
1.700000000000000122e-02,-2.450571488912836327e-01,-1.811801916396236500e-01,-1.942662239090865717e-01
1.799999999999999864e-02,-1.750214163619333296e-01,-1.127162186083232598e-01,-1.486177014045589051e-01
1.899999999999999953e-02,-1.225427672991370592e-01,-6.954004590500442728e-02,-9.718820802075159304e-02
2.000000000000000042e-02,-1.015949959160947352e-01,-9.816548979002996667e-02,-8.530832135680710415e-02
2.100000000000000130e-02,-1.185487908082236141e-01,-5.883566356165890326e-02,-1.075873616974287322e-01
2.199999999999999872e-02,-9.183028669355793039e-02,1.030079002263955233e-03,-7.723547943258621262e-02
2.299999999999999961e-02,-1.490629747291570789e-04,1.375652016442846515e-01,-5.394561187425855886e-02
2.400000000000000050e-02,1.898085271905338156e-01,2.838427330416106176e-01,9.167641687810375306e-03
2.500000000000000139e-02,3.772796288568577294e-01,3.623672105960075718e-01,1.175115778670751121e-01
2.599999999999999881e-02,4.393009202209606223e-01,3.300392822911106250e-01,2.087387442325599474e-01
2.699999999999999969e-02,4.092977524737439476e-01,1.426666052032150300e-01,3.024559723525177546e-01
2.800000000000000058e-02,2.136594092571498793e-01,-6.382192435230168992e-02,2.474827398999045192e-01
2.900000000000000147e-02,-7.738614708454093216e-02,-2.243452695196500313e-01,9.167403184286129769e-02
2.999999999999999889e-02,-2.780919651749797494e-01,-3.024267771841346875e-01,-4.081204966353647184e-02
3.099999999999999978e-02,-3.769882795556674382e-01,-2.719206525843262945e-01,-1.625118428531772130e-01
3.200000000000000067e-02,-3.441164758950925329e-01,-1.797285059530099594e-01,-2.222119241862640093e-01
3.300000000000000155e-02,-2.309329690662850487e-01,-7.911969637519976339e-02,-2.018316376489312780e-01
3.400000000000000244e-02,-1.008798750222062723e-01,-1.397984984875760665e-02,-1.294561874343652663e-01
3.500000000000000333e-02,-3.713210068425210758e-02,-3.269015769624978446e-02,-6.333187100780549028e-02
3.599999999999999728e-02,-4.849381578840597506e-02,-1.296689875874146303e-02,-4.772594202575616146e-02
3.699999999999999817e-02,-4.376059517976815111e-02,4.638223006630209921e-02,-2.869028464327495059e-02
3.799999999999999906e-02,8.651566579776304514e-03,1.150380097489060172e-01,-3.321787802605573325e-02
3.899999999999999994e-02,1.665574967426178554e-01,2.105290180311703285e-01,1.028780776048423759e-02
4.000000000000000083e-02,3.063614762080193454e-01,3.464463181007540471e-01,6.751680408975183068e-02
4.100000000000000172e-02,4.186317386532917295e-01,3.058304707069363082e-01,1.670767927976904987e-01
4.200000000000000261e-02,3.902514948046298393e-01,1.473122735663602301e-01,2.570945701423468788e-01
4.299999999999999656e-02,2.339684064214686554e-01,-4.517156423025953105e-02,2.386003746671823689e-01
4.399999999999999745e-02,-2.592590431392856332e-02,-2.355620880755065205e-01,1.882518778399233095e-01
4.499999999999999833e-02,-2.747577944611735989e-01,-3.589535740294349520e-01,2.002486768492831026e-02
4.599999999999999922e-02,-4.365966018636365242e-01,-3.226322040623854637e-01,-1.335271261686917510e-01
4.700000000000000011e-02,-3.927331430238548138e-01,-1.897278059411856010e-01,-2.317401900365639034e-01
4.800000000000000100e-02,-2.480485308485339824e-01,-8.335281486108139792e-02,-2.139828183407697371e-01
4.900000000000000189e-02,-1.376128394316994963e-01,-4.530182946176249115e-03,-1.776773200742320369e-01
5.000000000000000278e-02,-8.098326596443002068e-03,6.000195187867101571e-02,-1.127467362745839252e-01
5.099999999999999672e-02,1.426527753082378926e-02,3.220207938444510920e-02,-1.519651139068719375e-02
5.199999999999999761e-02,3.984550400402929460e-02,4.893111054037293378e-02,1.166395838952183524e-02
5.299999999999999850e-02,5.179444011807417259e-02,9.442165015213865864e-02,-1.029073550094365685e-02
5.399999999999999939e-02,9.594916607547936127e-02,2.116024494209037821e-01,-7.444983419830338532e-03
5.500000000000000028e-02,2.696357551127230301e-01,2.820531316679749101e-01,5.051098199376673203e-02
5.600000000000000117e-02,3.670370504969437953e-01,2.633852372641259931e-01,1.377843284723162531e-01
5.700000000000000205e-02,3.825822430674192254e-01,1.425533861915411760e-01,2.117167963543643006e-01
5.800000000000000294e-02,2.467630740388606636e-01,-5.408113203243641864e-02,2.450869313618665724e-01
5.899999999999999689e-02,3.365004338287755879e-03,-2.475211436360611472e-01,1.925951168876092467e-01
5.999999999999999778e-02,-2.002066288191381715e-01,-3.706974646824506836e-01,7.571518816685532394e-02
6.099999999999999867e-02,-3.877373151991571065e-01,-3.593879912127270204e-01,-1.036346890284494393e-01
6.199999999999999956e-02,-4.364734658530007860e-01,-2.271793730272964051e-01,-2.370865524857271589e-01
6.300000000000000044e-02,-3.432643525922849381e-01,-6.560284269176211436e-02,-2.865316386055755116e-01
6.400000000000000133e-02,-1.794603045008631159e-01,6.083815767231532529e-02,-2.386962489043734092e-01
6.500000000000000222e-02,1.273019398450989798e-02,1.113815029809822332e-01,-1.579957252122279887e-01
6.600000000000000311e-02,8.932846149117683321e-02,9.550573092885343562e-02,-4.835426879537350203e-02
6.700000000000000400e-02,8.551031620149281143e-02,8.232243866330393733e-02,2.980094591244785568e-02
6.800000000000000488e-02,7.388752190895060690e-02,1.175317799542075631e-01,5.825201148365390103e-02
6.900000000000000577e-02,9.988040992677325869e-02,1.791559619015942739e-01,4.327833636858836874e-02
7.000000000000000666e-02,1.878628306894997713e-01,2.327367616721062460e-01,6.526139071839962003e-02
7.099999999999999367e-02,2.735008593278530631e-01,2.303403529618728574e-01,9.277484542654401700e-02
7.199999999999999456e-02,3.160440878483087301e-01,1.599923743914846153e-01,1.542108336097766375e-01
7.299999999999999545e-02,2.798102317829226915e-01,-2.394300958233550047e-02,2.344591363735500089e-01
7.399999999999999634e-02,8.358269883081645424e-02,-2.455525856617098712e-01,1.929107586126937168e-01
7.499999999999999722e-02,-1.947672399769780904e-01,-3.546859190111087412e-01,8.171275213729445319e-02
7.599999999999999811e-02,-3.846952510144560633e-01,-3.953549988727379505e-01,-5.954340428407722124e-02
7.699999999999999900e-02,-4.752420368105944037e-01,-2.447788592139586439e-01,-1.787215001337455200e-01
7.799999999999999989e-02,-3.905810550086636912e-01,-6.589299993005132139e-02,-2.755749497134319381e-01
7.900000000000000078e-02,-2.216519387986250478e-01,3.184162741412247671e-02,-2.560084690007859987e-01
8.000000000000000167e-02,-7.669966501981483574e-03,1.666438105681746495e-01,-1.908514072684472929e-01
8.100000000000000255e-02,1.356911009599617579e-01,1.607858735550880824e-01,-6.536125101779481639e-02
8.200000000000000344e-02,1.821019773854685442e-01,1.269744006535866720e-01,5.684231902518096374e-02
8.300000000000000433e-02,1.732591363026733666e-01,1.121924964343355285e-01,9.413933702288658500e-02
8.400000000000000522e-02,1.452055258675438998e-01,1.451806252034191225e-01,6.829693211943352327e-02
8.500000000000000611e-02,1.806231536331279197e-01,2.050821968035744514e-01,6.326231317965720635e-02
8.599999999999999312e-02,2.353049177681389437e-01,2.021178494034843454e-01,7.834815826061343469e-02
8.699999999999999400e-02,2.842085794540386567e-01,1.361029434863537391e-01,1.047698685948184744e-01
8.799999999999999489e-02,2.690133619337079507e-01,-1.894263244830014098e-02,1.642313807663761949e-01
8.899999999999999578e-02,1.173875990801580282e-01,-2.170848910933989295e-01,2.056144188071200862e-01
8.999999999999999667e-02,-1.234704700062008026e-01,-3.470850417503330010e-01,1.473188223608339620e-01
9.099999999999999756e-02,-3.720592267495428374e-01,-3.890447007967466342e-01,7.239443966433192941e-03
9.199999999999999845e-02,-4.761002662754948433e-01,-3.054790584472740766e-01,-1.285109529712865628e-01
9.299999999999999933e-02,-4.498955055937448044e-01,-9.753678875571050733e-02,-2.737282848902629628e-01
9.400000000000000022e-02,-2.784387161006591227e-01,7.925792449137333828e-02,-2.914201083376102286e-01
9.500000000000000111e-02,-2.988805517408538517e-02,1.908591404080514919e-01,-2.489631903774177091e-01
9.600000000000000200e-02,1.487426151423002496e-01,2.149790015876495708e-01,-1.141599411002765380e-01
9.700000000000000289e-02,2.317252829017409088e-01,1.912771870847193301e-01,-1.388449601367362785e-02
9.800000000000000377e-02,2.263306561124755478e-01,1.283558627680893016e-01,9.466639669219512054e-02
9.900000000000000466e-02,1.994522899300478769e-01,1.159372787831109697e-01,1.284276077225821044e-01
1.000000000000000056e-01,1.576612403787144012e-01,1.418635234872984430e-01,1.217809087262208545e-01
1.010000000000000064e-01,1.934065713355038740e-01,1.507269276285847226e-01,1.151750748997060203e-01
1.019999999999999934e-01,2.025427829858594819e-01,9.542094080641237708e-02,9.119501582899253167e-02
1.029999999999999943e-01,2.289167596747538613e-01,-2.179672872690781651e-02,1.171756469449909965e-01
1.039999999999999952e-01,1.263729356073084731e-01,-2.005615228604462896e-01,1.386393981747934823e-01
1.049999999999999961e-01,-7.527769371097015050e-02,-3.374864117949571418e-01,1.412523825670261024e-01
1.059999999999999970e-01,-2.773273349458545978e-01,-3.801932813450339954e-01,3.113211139138061245e-02
1.069999999999999979e-01,-4.378918247397993180e-01,-3.060185962196764753e-01,-5.104788525728547882e-02
1.079999999999999988e-01,-4.773956960366816937e-01,-1.163717178086706577e-01,-2.007429950115302286e-01
1.089999999999999997e-01,-3.102371397242568718e-01,1.053835973319274949e-01,-3.123488565819770857e-01
1.100000000000000006e-01,-1.019493797090694764e-01,2.237060701538951535e-01,-2.751345758141213738e-01
1.110000000000000014e-01,1.542286255233714098e-01,2.467670311103695446e-01,-1.514477531890325579e-01
1.120000000000000023e-01,2.773932164685224966e-01,1.876928955276548072e-01,-1.510460208985336256e-02
1.130000000000000032e-01,3.104532908468883301e-01,1.404398968958482652e-01,9.396673805190304540e-02
1.140000000000000041e-01,2.282533202436237696e-01,7.730440737187678490e-02,1.851847797028335352e-01
1.150000000000000050e-01,1.606742723131647788e-01,7.971643269758393879e-02,1.696204758033400817e-01
1.160000000000000059e-01,1.221682578209864062e-01,8.503823308169325412e-02,1.239361105441811883e-01
1.170000000000000068e-01,1.304567474981323527e-01,8.257011164133915004e-02,8.539527480976985552e-02
1.179999999999999938e-01,1.487797974033129023e-01,-1.487107241733254780e-02,8.429046358503208825e-02
1.189999999999999947e-01,9.139732785069373810e-02,-1.839212006684677880e-01,1.132242119522132440e-01
1.199999999999999956e-01,-3.756627491574076466e-02,-2.951807260558195756e-01,1.298680180265461559e-01
1.209999999999999964e-01,-2.401895873433679551e-01,-3.584988868631495684e-01,5.493883105403633837e-02
1.219999999999999973e-01,-3.981982430363490422e-01,-3.033211610804278369e-01,-3.544254754289220821e-02
1.229999999999999982e-01,-4.734323136750110961e-01,-1.183511340189412619e-01,-1.301496406359152758e-01
1.239999999999999991e-01,-3.551004376073021440e-01,8.690533459358315560e-02,-2.561484820361255021e-01
1.250000000000000000e-01,-1.281197580527392299e-01,2.306086281522272130e-01,-2.642510784469043750e-01
1.260000000000000009e-01,9.658045831830087968e-02,2.968473077162336882e-01,-2.343263095819785868e-01
1.270000000000000018e-01,3.374092173448174359e-01,2.550052686170387606e-01,-8.190259695307100518e-02
1.280000000000000027e-01,3.403564224590205356e-01,1.327656708573179412e-01,9.789235628248990628e-02
1.290000000000000036e-01,3.039413055183327050e-01,6.885359656834433295e-02,2.034306506098428335e-01
1.300000000000000044e-01,1.634805915490379069e-01,2.841423530064529981e-02,2.378009733473739062e-01
1.310000000000000053e-01,1.081324534081953420e-01,4.670109649724783069e-02,1.852792796994039703e-01
1.320000000000000062e-01,6.032823884916758972e-02,2.773215851177313410e-02,1.034043585588136083e-01
1.330000000000000071e-01,7.200551946836579453e-02,-2.966269478636912593e-02,7.928316350262147594e-02
1.340000000000000080e-01,3.828648133116650809e-02,-1.523580959787633193e-01,6.138996334372460312e-02
1.350000000000000089e-01,-3.140199705879755110e-02,-2.722419026304883638e-01,6.858235117470588837e-02
1.360000000000000098e-01,-1.635364298037443320e-01,-3.380004480394793176e-01,2.802732420903201668e-02
1.370000000000000107e-01,-3.307277517757369334e-01,-2.949445424705825491e-01,-2.417423268238655040e-02
1.380000000000000115e-01,-4.414662381140287972e-01,-1.399066040234499542e-01,-1.123354833535627900e-01
1.390000000000000124e-01,-3.695714379320026444e-01,8.147218462601160671e-02,-2.102997057461633845e-01
1.400000000000000133e-01,-2.045932825688318024e-01,2.623354861019812079e-01,-2.541313051352060426e-01
1.409999999999999865e-01,7.712369690285306167e-02,3.407192444851099844e-01,-2.252693937865953844e-01
1.419999999999999873e-01,2.997167657338538627e-01,2.907561176129603853e-01,-1.504661991138873389e-01
1.429999999999999882e-01,4.039787239593940482e-01,1.821619619102101961e-01,3.827845741175800714e-03
1.439999999999999891e-01,3.794182628529767509e-01,5.408492529045846181e-02,1.640005298120988109e-01
1.449999999999999900e-01,2.438202762893736109e-01,-2.322502070271920127e-02,2.491077893262693133e-01
1.459999999999999909e-01,1.046962116944758076e-01,-1.826626812212922210e-02,2.125149632645832176e-01
1.469999999999999918e-01,-1.308949789728466352e-02,-2.840357408624953617e-02,1.340222830503296769e-01
1.479999999999999927e-01,-1.125333009845658205e-02,-7.049795253012956786e-02,8.666967894354289659e-02
1.489999999999999936e-01,-1.467936056261765800e-02,-1.312543860852397881e-01,6.116978366458864468e-03
1.499999999999999944e-01,-4.733205263715262873e-02,-2.479181227321556602e-01,2.504056810904662506e-02
1.509999999999999953e-01,-1.612198089971607629e-01,-2.822493248363551199e-01,2.298796599015084235e-02
1.519999999999999962e-01,-3.070887506691386548e-01,-2.825755496978111792e-01,-3.262636646949760438e-02
1.529999999999999971e-01,-3.949425799869504816e-01,-1.640331139689520379e-01,-7.482873635169685900e-02
1.539999999999999980e-01,-3.688752030870912635e-01,8.931979665551435799e-02,-1.485476914491750400e-01
1.549999999999999989e-01,-2.210643087602618129e-01,2.705104228143971334e-01,-2.293311380658605014e-01
1.559999999999999998e-01,2.282030142476956097e-02,3.602993688388557714e-01,-2.605237465497173277e-01
1.570000000000000007e-01,2.609140910971305960e-01,3.322598265735787204e-01,-1.935864451140363873e-01
1.580000000000000016e-01,4.119392617642252397e-01,2.050181972774653416e-01,-4.124715446871900226e-02
1.590000000000000024e-01,4.325742401181407182e-01,7.572081279516126862e-02,1.134833232370514727e-01
1.600000000000000033e-01,3.068423975979786555e-01,-5.260764072678453251e-02,2.235179612916041725e-01
1.610000000000000042e-01,1.196877789603460474e-01,-9.903078821848827762e-02,2.761789424724676589e-01
1.620000000000000051e-01,-2.069442151985833797e-02,-8.492526380004150610e-02,2.167200652743329625e-01
1.630000000000000060e-01,-9.504115574568658409e-02,-5.704945546352156033e-02,1.058873928382135371e-01
1.640000000000000069e-01,-7.914239040061572805e-02,-1.522122658166195908e-01,-1.430428129295696410e-03
1.650000000000000078e-01,-6.971333283093467115e-02,-2.187338890121803547e-01,-3.120288137650306659e-02
1.660000000000000087e-01,-1.273175226592698772e-01,-2.544590318780083904e-01,-6.591432140647704441e-02
1.670000000000000095e-01,-2.251541713936125177e-01,-2.544815113869152712e-01,-3.697021001803336288e-02
1.680000000000000104e-01,-3.250037971784298096e-01,-1.415162189259678294e-01,-5.121401762850610190e-02
1.690000000000000113e-01,-3.329229081563402914e-01,5.284740672409295181e-02,-1.158409250849024713e-01
1.700000000000000122e-01,-2.507010630059742784e-01,2.325526998972846926e-01,-1.950623766962096828e-01
1.710000000000000131e-01,-2.149640340570171254e-02,3.795374203523574352e-01,-2.144114952343995351e-01
1.719999999999999862e-01,2.348043976031531921e-01,3.497433151848489130e-01,-1.813479419335986831e-01
1.729999999999999871e-01,4.274368056382761849e-01,2.491112542589294376e-01,-8.679272688781669576e-02
1.739999999999999880e-01,4.760883263430699119e-01,6.669750564795350056e-02,7.470351582781774302e-02
1.749999999999999889e-01,3.705020220175267998e-01,-7.821043798831361915e-02,1.914910928548639313e-01
1.759999999999999898e-01,1.564605376717700669e-01,-1.250472135303818400e-01,2.752836302244077715e-01
1.769999999999999907e-01,-2.266263155650267980e-02,-1.314769218008439988e-01,2.541010181294969805e-01
1.779999999999999916e-01,-1.304331029928200714e-01,-1.126692075076599769e-01,1.747226556327576841e-01
1.789999999999999925e-01,-1.772799812494318672e-01,-1.256344074092018426e-01,5.652737492202044439e-02
1.799999999999999933e-01,-1.431634178253453626e-01,-1.574594520857007796e-01,-3.413676830863071610e-02
1.809999999999999942e-01,-1.134373346856460407e-01,-2.513108788832179030e-01,-5.769238975692638632e-02
1.819999999999999951e-01,-1.438408075065426284e-01,-1.877978986175560805e-01,-7.118197800599838920e-02
1.829999999999999960e-01,-2.480413485847589028e-01,-9.844699517813275402e-02,-8.465122566284467853e-02
1.839999999999999969e-01,-3.205034638323845941e-01,7.449204962736838409e-02,-1.117909031917181245e-01
1.849999999999999978e-01,-2.517163300718498475e-01,2.508857070348548546e-01,-1.161302158092998166e-01
1.859999999999999987e-01,-7.196991768733736194e-02,3.390455548544970554e-01,-1.621250363520243820e-01
1.869999999999999996e-01,1.844613730093987436e-01,3.828634402379320067e-01,-1.972898029143393128e-01
1.880000000000000004e-01,3.896436875118455823e-01,2.680672574607750325e-01,-1.290221426837494800e-01
1.890000000000000013e-01,4.626327899258936283e-01,7.890423167974494612e-02,1.932301934539802299e-02
1.900000000000000022e-01,4.161396455409352990e-01,-1.203761194896778713e-01,1.615576821757920556e-01
1.910000000000000031e-01,2.269227140475119364e-01,-1.766700617321926847e-01,2.662469387759175410e-01
1.920000000000000040e-01,2.510002818100470615e-04,-1.847938054965287125e-01,3.035780755856068436e-01
1.930000000000000049e-01,-1.547459517254275996e-01,-1.395674761831277588e-01,2.026337608383920463e-01
1.940000000000000058e-01,-2.198226446162960535e-01,-1.121139028069483984e-01,9.667377754890942032e-02
1.950000000000000067e-01,-2.095871852748524833e-01,-1.364654123580547052e-01,-3.711142734932879050e-02
1.960000000000000075e-01,-1.791592546778104922e-01,-1.432448016853968553e-01,-1.187960568777060300e-01
1.970000000000000084e-01,-1.528294203882062940e-01,-1.680246581451372845e-01,-1.380109782094883497e-01
1.980000000000000093e-01,-1.979074997487405840e-01,-8.322971612787585793e-02,-1.057509760216577971e-01
1.990000000000000102e-01,-2.577226347757168301e-01,3.947989425900522154e-02,-7.292616269800358819e-02
2.000000000000000111e-01,-1.977864197160597581e-01,2.151773619932352555e-01,-1.048101700100258216e-01
2.010000000000000120e-01,-7.723235531606881255e-02,3.423972478778798401e-01,-9.802074034244102896e-02
2.020000000000000129e-01,1.277870234682344508e-01,3.771912935755389884e-01,-1.484613587572645999e-01
2.030000000000000138e-01,3.495452710784659467e-01,2.620382440659408951e-01,-1.312940681725810466e-01
2.039999999999999869e-01,4.795299792641327108e-01,7.912755687374482816e-02,-5.592766521527384183e-02
2.049999999999999878e-01,4.518356251034648663e-01,-1.264098285178752445e-01,9.155630250845152307e-02
2.059999999999999887e-01,2.781980507290362503e-01,-2.390147776148117409e-01,2.466268536157612823e-01
2.069999999999999896e-01,1.646520531442041040e-03,-2.602144394794650983e-01,2.784619552928280783e-01
2.079999999999999905e-01,-1.944532857249392788e-01,-1.922171164367205143e-01,2.412317096292299901e-01
2.089999999999999913e-01,-2.586277090585398231e-01,-1.321577024905479791e-01,1.261694579400658434e-01
2.099999999999999922e-01,-2.653843205945626837e-01,-1.033471561025535307e-01,-4.521862858936218782e-03
2.109999999999999931e-01,-1.887761222822269269e-01,-8.882836935754161167e-02,-1.173672602857201708e-01
2.119999999999999940e-01,-1.355340500403947324e-01,-1.071052336518598103e-01,-1.884489100206103995e-01
2.129999999999999949e-01,-1.320262658127627220e-01,-8.091847874507727967e-02,-1.408022459938559623e-01
2.139999999999999958e-01,-1.757351353224802515e-01,5.489995959588831603e-02,-1.181474025793288751e-01
2.149999999999999967e-01,-1.248144696740935838e-01,2.077988123519686758e-01,-7.515485819658027089e-02
2.159999999999999976e-01,-8.126528828855700270e-02,3.468472373501247930e-01,-7.292198054858499423e-02
2.169999999999999984e-01,7.671776279234711338e-02,3.957881788802364853e-01,-1.166220121672367077e-01
2.179999999999999993e-01,3.061298185156869356e-01,2.590419386299852578e-01,-1.036880332780216601e-01
2.190000000000000002e-01,4.485183305990935176e-01,8.047274846194686637e-02,-5.970170493941882872e-02
2.200000000000000011e-01,4.699751807375044943e-01,-1.295329323542598887e-01,4.834872392158723331e-02
2.210000000000000020e-01,3.031061335596835216e-01,-2.405368569800542811e-01,1.630278088478308296e-01
2.220000000000000029e-01,1.060988927309984425e-01,-2.901252309136547747e-01,2.545240720711005045e-01
2.230000000000000038e-01,-1.551902652623400047e-01,-2.235866854594490138e-01,2.786798163809889317e-01
2.240000000000000047e-01,-3.227232861433936284e-01,-1.436424605911437447e-01,1.953264918502834735e-01
2.250000000000000056e-01,-3.419131176981086151e-01,-7.202951720594909235e-02,3.475460309854525032e-02
2.260000000000000064e-01,-2.481470827764150067e-01,-5.129028876931989583e-02,-1.088556649105642954e-01
2.270000000000000073e-01,-1.498335799664472223e-01,-5.788475465283894617e-02,-1.519780037250526572e-01
2.280000000000000082e-01,-7.521682200909041160e-02,-2.774979641208289230e-02,-2.173267723223324122e-01
2.290000000000000091e-01,-6.394451063275785607e-02,5.017222522856990691e-02,-1.515946093751687207e-01
2.300000000000000100e-01,-8.104291476232700075e-02,2.085600600244487401e-01,-9.926169012618397958e-02
2.310000000000000109e-01,-5.009532248882916927e-02,3.176889805339410677e-01,-6.993860716072330952e-02
2.320000000000000118e-01,6.798447758753191350e-02,3.523272441807802635e-01,-6.008701669360830971e-02
2.330000000000000127e-01,2.043137052296044587e-01,2.542337410849167534e-01,-9.048673461891738878e-02
2.340000000000000135e-01,3.944825205103569266e-01,8.759051203257242624e-02,-4.881287244837689832e-02
2.349999999999999867e-01,4.127754668632536150e-01,-9.237506219274814467e-02,2.584465995723792334e-02
2.359999999999999876e-01,3.706385331030717101e-01,-2.844782057504877115e-01,1.443912880504779894e-01
2.369999999999999885e-01,1.582561695526018553e-01,-3.435275321946399396e-01,2.094934611434941529e-01
2.379999999999999893e-01,-1.475005091952526770e-01,-2.582881681835306198e-01,2.848912205008891640e-01
2.389999999999999902e-01,-3.242493428826558888e-01,-1.741454313229143791e-01,2.195483245265627548e-01
2.399999999999999911e-01,-3.992183715463390459e-01,-4.523666272750041101e-02,1.157828824607760460e-01
2.409999999999999920e-01,-3.451406431969838984e-01,-5.782870807052258207e-03,-5.029422780249830777e-02
2.419999999999999929e-01,-2.017105313575621728e-01,-2.934245184146228361e-04,-1.802007463708647228e-01
2.429999999999999938e-01,-5.797545999090666924e-02,2.163964838976362853e-02,-2.194028586809178283e-01
2.439999999999999947e-01,4.557989991476334331e-03,4.397110872633161471e-02,-1.940660736446131185e-01
2.449999999999999956e-01,-1.306976502637096282e-03,1.463477375548591641e-01,-1.421303072908283449e-01
2.459999999999999964e-01,-1.100401752111877102e-02,2.728770402423809083e-01,-8.368128124336361717e-02
2.469999999999999973e-01,2.299043718447395593e-02,3.261381429254870401e-01,-1.914167962270981599e-02
2.479999999999999982e-01,1.834629461240313009e-01,2.545366915842996458e-01,-4.759816694451497743e-02
2.489999999999999991e-01,3.513910358368341202e-01,9.024749790091099455e-02,-2.404094001739158579e-03
2.500000000000000000e-01,4.052479573784804612e-01,-1.196552125822916701e-01,1.461257460328292852e-02
2.510000000000000009e-01,3.767598200358221461e-01,-3.053855496913691625e-01,7.751382671082027165e-02
2.520000000000000018e-01,1.704579507629254698e-01,-3.380209475351031445e-01,1.893862842921263112e-01
2.530000000000000027e-01,-1.057276510654856505e-01,-3.393757251349728832e-01,2.469925819511800680e-01
2.540000000000000036e-01,-3.022267277115752160e-01,-1.745031207782918869e-01,2.290901982868071562e-01
2.550000000000000044e-01,-4.436562110272768700e-01,-3.010410708916620715e-02,1.412391806415993212e-01
2.560000000000000053e-01,-3.966065630054885216e-01,2.378879392833186876e-02,-2.117488671645405968e-02
2.570000000000000062e-01,-2.688515645727389547e-01,6.633197342199315116e-02,-1.357502081901490187e-01
2.580000000000000071e-01,-8.862104965539650825e-02,4.542840166109191058e-02,-2.675851741892952274e-01
2.590000000000000080e-01,3.772665633829107301e-02,7.697580538737165690e-02,-2.379324229901406129e-01
2.600000000000000089e-01,4.608590394751939379e-02,1.400805851914652678e-01,-1.856183266094463269e-01
2.610000000000000098e-01,6.182122577916715489e-02,2.283145199811241199e-01,-6.669963961881532344e-02
2.620000000000000107e-01,6.224185898932222544e-02,2.619814356514463816e-01,1.004946197625079286e-02
2.630000000000000115e-01,1.314117818480119160e-01,2.318275947654565572e-01,3.536754260380741560e-02
2.640000000000000124e-01,2.635755473217630818e-01,8.742529900538226206e-02,8.882885735560401628e-05
2.650000000000000133e-01,3.686864385101786823e-01,-8.936615152024353359e-02,2.951411372131775707e-02
2.660000000000000142e-01,3.503300755240267850e-01,-2.969288123770698617e-01,8.464490559041412676e-02
2.670000000000000151e-01,2.022583085985053819e-01,-3.754110294107102508e-01,1.227341038656938749e-01
2.680000000000000160e-01,-3.567495351981469359e-02,-3.330168160817001954e-01,2.174098565883823275e-01
2.690000000000000169e-01,-2.805759170146055470e-01,-2.039619899527957414e-01,2.508127459415833149e-01
2.700000000000000178e-01,-4.471393909806768985e-01,-3.459849907080470022e-02,1.669115871468355716e-01
2.710000000000000187e-01,-4.570338255624931678e-01,8.866236317942208234e-02,6.703377591578123240e-02
2.720000000000000195e-01,-3.200105778994298822e-01,1.216154876778124672e-01,-1.236337773938766538e-01
2.730000000000000204e-01,-1.508138332505337409e-01,1.046828478214767294e-01,-2.369908864513503299e-01
2.740000000000000213e-01,3.716940844830842611e-02,1.024678857982347646e-01,-2.791760339329067975e-01
2.750000000000000222e-01,1.329996370281381068e-01,1.197802604144717203e-01,-2.241924327382874005e-01
2.760000000000000231e-01,1.416178269648024624e-01,1.876834488318984973e-01,-1.385164439984741536e-01
2.770000000000000240e-01,1.127808942774785328e-01,2.537879778197622560e-01,-1.098025396518460990e-02
2.780000000000000249e-01,1.329784523263516094e-01,2.173814247778236008e-01,5.659494801047544599e-02
2.790000000000000258e-01,2.135730815867623589e-01,1.057616471201137942e-01,6.150899332410789122e-02
2.800000000000000266e-01,2.919120600378243280e-01,-8.108535564379269756e-02,6.346530201370093049e-02
2.810000000000000275e-01,2.799321524600748012e-01,-2.580698223937176183e-01,5.915724675495897394e-02
2.819999999999999729e-01,2.066444730576950106e-01,-3.705382893819197943e-01,1.076961177084246046e-01
2.829999999999999738e-01,3.239566878322108767e-02,-3.597338573231267378e-01,1.695039110234745905e-01
2.839999999999999747e-01,-2.283261677382756594e-01,-2.129443666249054845e-01,1.874126808240109965e-01
2.849999999999999756e-01,-4.195543006769766881e-01,-2.459283713016871889e-02,1.684938555648319569e-01
2.859999999999999765e-01,-4.826635363468917417e-01,1.159173519581001982e-01,9.294861008322045925e-02
2.869999999999999774e-01,-3.834429752267118352e-01,1.868312201722519827e-01,-7.288426411205967126e-02
2.879999999999999782e-01,-1.780110705310926356e-01,1.646124394718689321e-01,-1.745478529412044510e-01
2.889999999999999791e-01,1.741529254291208223e-02,1.270854571543229006e-01,-2.985384639239652693e-01
2.899999999999999800e-01,1.555780207598144449e-01,1.218080666409211144e-01,-2.674655385245751638e-01
2.909999999999999809e-01,2.287576851005190814e-01,1.257346261648254748e-01,-1.888783196284878063e-01
2.919999999999999818e-01,1.910172281424443175e-01,1.448851736208760232e-01,-6.066696246148788746e-02
2.929999999999999827e-01,1.487653904320538900e-01,1.960714902200618726e-01,4.583073350053982337e-02
2.939999999999999836e-01,1.612295725844316296e-01,1.127285175878215973e-01,1.044396707972342631e-01
2.949999999999999845e-01,2.156968009910625317e-01,-7.934397360130032717e-02,1.340450790851331619e-01
2.959999999999999853e-01,2.513746794582117916e-01,-2.620243045740384691e-01,8.587458968004922644e-02
2.969999999999999862e-01,1.881701646814111506e-01,-3.863447773022963272e-01,9.265247738843945813e-02
2.979999999999999871e-01,2.442218707169103997e-02,-3.711842714132556065e-01,1.136918430244159006e-01
2.989999999999999880e-01,-1.839668817332845707e-01,-2.369725187492640883e-01,1.542933525633681802e-01
2.999999999999999889e-01,-3.912197686200432067e-01,-5.409085573213533865e-02,1.591783955565626851e-01
3.009999999999999898e-01,-4.927245126341477377e-01,1.098891150845753839e-01,8.600657853998003310e-02
3.019999999999999907e-01,-4.367300828163365178e-01,2.221817063762503985e-01,-1.630523808790402965e-03
3.029999999999999916e-01,-2.140616039303246398e-01,2.219976139658683123e-01,-1.454393528948775827e-01
3.039999999999999925e-01,1.845094285997776404e-02,1.594695365280695831e-01,-2.554203622474449653e-01
3.049999999999999933e-01,2.007305773444646446e-01,1.176437348316672488e-01,-2.790184489766525666e-01
3.059999999999999942e-01,2.499046078760314982e-01,1.292795130707863893e-01,-2.177531797144372228e-01
3.069999999999999951e-01,2.474905861352092173e-01,1.478225251408081531e-01,-1.100900963503605723e-01
3.079999999999999960e-01,1.834837937463872637e-01,9.925468455687432023e-02,4.607857312106714009e-02
3.089999999999999969e-01,1.679536261419038168e-01,6.535086627490942213e-02,1.322165006615961258e-01
3.099999999999999978e-01,1.639513641494831642e-01,-8.096068691533439554e-02,1.611760133179518939e-01
3.109999999999999987e-01,1.781974726569917344e-01,-2.480693714561357788e-01,1.323349437084344327e-01
3.119999999999999996e-01,1.661028053242193658e-01,-3.713859240442882181e-01,9.892074756433168192e-02
3.130000000000000004e-01,8.245326866405415511e-02,-3.532791402503243083e-01,9.491501774108174194e-02
3.140000000000000013e-01,-1.163093989965441749e-01,-2.633416675468226997e-01,1.030218123289306648e-01
3.150000000000000022e-01,-3.295068537010494292e-01,-5.726744318441191056e-02,1.220555024753675610e-01
3.160000000000000031e-01,-4.719599737671603124e-01,1.320391377473471295e-01,1.136463567222812804e-01
3.170000000000000040e-01,-4.444588938723730842e-01,2.609727969138058712e-01,4.776405146604461444e-02
3.180000000000000049e-01,-3.077560941213417500e-01,2.664321355921163703e-01,-7.402517945231470997e-02
3.190000000000000058e-01,-3.956371812043140562e-02,2.173440139548320771e-01,-2.146075741399050829e-01
3.200000000000000067e-01,1.828702019849754723e-01,1.220264487498836647e-01,-2.821254160561219027e-01
3.210000000000000075e-01,3.078072650047796732e-01,6.094907506860270524e-02,-2.719762817485355533e-01
3.220000000000000084e-01,3.204042356611890296e-01,4.703265221788158201e-02,-1.435053845284392504e-01
3.230000000000000093e-01,2.498982145657109577e-01,5.461563890235442836e-02,-2.275858062639036020e-02
3.240000000000000102e-01,1.103639259979768139e-01,3.807647438057559092e-02,1.145559072129419820e-01
3.250000000000000111e-01,7.735592342243037545e-02,-8.869187671154016295e-02,1.528879360320236080e-01
3.260000000000000120e-01,9.589612468790285893e-02,-2.230277863829643881e-01,1.484258053013202683e-01
3.270000000000000129e-01,1.146606596830897218e-01,-3.506848744868654166e-01,1.406814158142992155e-01
3.280000000000000138e-01,4.786412002857606818e-02,-3.540465288170125957e-01,9.619329006173510388e-02
3.290000000000000147e-01,-9.699421925546972134e-02,-2.634176244368107711e-01,8.758675414367210477e-02
3.300000000000000155e-01,-2.953170207506240486e-01,-7.357715454007525413e-02,9.946073300179038290e-02
3.310000000000000164e-01,-4.318219986859823667e-01,1.674551234161621716e-01,8.990160459439046348e-02
3.320000000000000173e-01,-4.429363751861453147e-01,2.959816672631094270e-01,2.565323767827894577e-02
3.330000000000000182e-01,-3.174660098144685416e-01,3.119083368532185041e-01,-1.862863890327007971e-02
3.340000000000000191e-01,-3.959785625344754145e-02,2.290687940828833868e-01,-1.738118469729199866e-01
3.350000000000000200e-01,1.809795753687389597e-01,1.145425418586017430e-01,-2.607706441525339813e-01
3.360000000000000209e-01,3.385514235853251952e-01,6.954310630005713922e-02,-2.975318292473752013e-01
3.370000000000000218e-01,3.914726454855873561e-01,2.831497524371750368e-02,-1.910822265833742040e-01
3.380000000000000226e-01,2.958074539237240952e-01,2.191313989415702781e-02,-7.626452897492642935e-02
3.390000000000000235e-01,1.646726227415103438e-01,9.053743051125892963e-03,8.361853081679482269e-02
3.400000000000000244e-01,7.915413430282969287e-02,-6.152914824800771038e-02,1.815230464977170555e-01
3.410000000000000253e-01,5.295506287872183554e-02,-1.884941815495336237e-01,2.125014829160696561e-01
3.420000000000000262e-01,5.507223894175772988e-02,-3.019808907378150331e-01,1.721515750722048821e-01
3.430000000000000271e-01,2.936807914958197707e-02,-3.359964991313308946e-01,9.145029999705037160e-02
3.439999999999999725e-01,-8.347117548991503377e-02,-2.564463500730672640e-01,4.938677929033703090e-02
3.449999999999999734e-01,-2.053160253549711767e-01,-6.758412408368624780e-02,3.839585754507076482e-02
3.459999999999999742e-01,-3.473840896993811711e-01,1.495305714815731435e-01,6.159014500417981514e-02
3.469999999999999751e-01,-4.147489338124814018e-01,3.059314618474376357e-01,4.316878476385344054e-02
3.479999999999999760e-01,-3.386348387638452029e-01,3.588171782335987103e-01,-2.083868437840054322e-02
3.489999999999999769e-01,-1.364460985958956540e-01,2.627238211583965977e-01,-1.324848532567146908e-01
3.499999999999999778e-01,1.548386186593667113e-01,1.450043862718907728e-01,-2.052152988331006622e-01
3.509999999999999787e-01,3.280912294292918641e-01,2.596109991377658355e-02,-2.611899514937564559e-01
3.519999999999999796e-01,4.331607622871388452e-01,-5.576508319816027986e-02,-2.109052184807607699e-01
3.529999999999999805e-01,3.662075926302464368e-01,-4.545299904461325841e-02,-1.121881275892524510e-01
3.539999999999999813e-01,2.226716168668756712e-01,-5.611215132697908864e-02,5.139116248416840393e-02
3.549999999999999822e-01,6.106704930851472590e-02,-7.009602081993847322e-02,1.820271069562010846e-01
3.559999999999999831e-01,-1.839966713034828574e-02,-1.436358367190620211e-01,2.746296164822346064e-01
3.569999999999999840e-01,-7.522703332280217259e-02,-2.426406787161720646e-01,2.397759133928950570e-01
3.579999999999999849e-01,-5.129237075467412560e-02,-2.942574627515691099e-01,1.783527072033694594e-01
3.589999999999999858e-01,-8.808282544564022265e-02,-2.424902009082143262e-01,6.539377662747521136e-02
3.599999999999999867e-01,-1.800867657836568991e-01,-9.360893536130221460e-02,2.208643839615674273e-02
3.609999999999999876e-01,-2.896234446412282448e-01,1.413922541782502706e-01,-2.284783021625125601e-02
3.619999999999999885e-01,-3.964557314839520230e-01,3.125224238368680130e-01,1.910940432729168331e-03
3.629999999999999893e-01,-3.460234204311534167e-01,3.393431024587661438e-01,-2.136933365276263638e-02
3.639999999999999902e-01,-1.686680935161822825e-01,3.027590133336879874e-01,-8.873940169937322153e-02
3.649999999999999911e-01,7.715241637114945983e-02,1.831582920542945969e-01,-1.482404262174660259e-01
3.659999999999999920e-01,3.130342949224593219e-01,9.615463133953726024e-03,-2.186479323711630340e-01
3.669999999999999929e-01,4.217606890482137882e-01,-7.037807331769727059e-02,-2.228110035762869423e-01
3.679999999999999938e-01,4.121404824177297699e-01,-1.310111997440140397e-01,-1.821590755200875877e-01
3.689999999999999947e-01,2.738286865967206052e-01,-1.085377504365636347e-01,-1.648220220585004323e-02
3.699999999999999956e-01,9.738468800875879627e-02,-8.896629269047999500e-02,1.383056515481662918e-01
3.709999999999999964e-01,-5.281940025907331387e-02,-1.458075678659084273e-01,2.268786960870469993e-01
3.719999999999999973e-01,-9.635531961688402480e-02,-2.115178057690133839e-01,2.643626029718979531e-01
3.729999999999999982e-01,-9.647674776310528888e-02,-2.403499723465093163e-01,2.209354079528885462e-01
3.739999999999999991e-01,-8.624567792655826737e-02,-2.203288930918665400e-01,8.676230942678371527e-02
3.750000000000000000e-01,-1.480124514806114289e-01,-9.350005450499160320e-02,2.365252796353409931e-02
3.760000000000000009e-01,-2.342583226839190513e-01,1.271701217782250370e-01,-5.254618127293306934e-02
3.770000000000000018e-01,-3.367363225213303446e-01,2.775930146717391911e-01,-5.294780275336064684e-02
3.780000000000000027e-01,-3.352626668843141089e-01,3.765313350263648773e-01,-7.011554833016418742e-02
3.790000000000000036e-01,-1.986988184790815792e-01,3.377913264354801548e-01,-8.707080888818791164e-02
3.800000000000000044e-01,2.946796554718351252e-02,1.786090193292913519e-01,-1.198094842634215146e-01
3.810000000000000053e-01,2.842312093740172463e-01,-2.056075510389780443e-03,-1.860621197893785328e-01
3.820000000000000062e-01,4.371924785767231092e-01,-1.010877483942814042e-01,-2.124053343618131362e-01
3.830000000000000071e-01,4.533349001259120437e-01,-1.648468744186655510e-01,-1.875932751033962675e-01
3.840000000000000080e-01,3.334558747590828376e-01,-1.345103974453760454e-01,-4.905407153561090750e-02
3.850000000000000089e-01,1.522561375004568562e-01,-1.214835090829289171e-01,7.833266952500292368e-02
3.860000000000000098e-01,-7.940678337147381860e-02,-1.372758128949264078e-01,2.343733215201243836e-01
3.870000000000000107e-01,-1.831665985151289533e-01,-1.682612201522545869e-01,2.732948781597742682e-01
3.880000000000000115e-01,-1.887704236183090911e-01,-1.885780622854554833e-01,2.537279407491241923e-01
3.890000000000000124e-01,-1.674843051335979660e-01,-2.065805198221602468e-01,1.426036770434530310e-01
3.900000000000000133e-01,-1.374817987767997796e-01,-7.375911516789118716e-02,1.944653206988614796e-02
3.910000000000000142e-01,-1.610027815652785299e-01,1.403662081640409398e-01,-5.721025243981511105e-02
3.920000000000000151e-01,-2.339696051576465596e-01,2.872475077177129021e-01,-9.350754547969776509e-02
3.930000000000000160e-01,-2.639622611120677753e-01,3.646398871364851524e-01,-7.644922650868742064e-02
3.940000000000000169e-01,-2.257694033346617501e-01,3.604409014569232017e-01,-1.084690946044953169e-01
3.950000000000000178e-01,-1.086475212417374950e-02,1.846473165173443398e-01,-7.743422343272325648e-02
3.960000000000000187e-01,2.086810747444673153e-01,3.121963970986317560e-02,-1.409227165684819316e-01
3.970000000000000195e-01,4.177042925842804899e-01,-1.519274295618289472e-01,-1.639131226108077044e-01
3.980000000000000204e-01,4.969489135315001693e-01,-2.169809247279328168e-01,-1.497845719875629256e-01
3.990000000000000213e-01,3.992715174555683255e-01,-2.044409797205465340e-01,-9.747141796538293101e-02
4.000000000000000222e-01,1.511466138735587383e-01,-1.339858693235423115e-01,3.638238873326007233e-02
4.010000000000000231e-01,-5.697925650282675836e-02,-1.182909097883880767e-01,1.585696531043102042e-01
4.020000000000000240e-01,-2.130352787120548819e-01,-1.099322227591041506e-01,2.554278926782828085e-01
4.030000000000000249e-01,-2.602075398146093121e-01,-1.482262306653666095e-01,2.926735678001543550e-01
4.040000000000000258e-01,-2.348682993670845320e-01,-1.462949946391423894e-01,2.033124616354128888e-01
4.050000000000000266e-01,-1.906505628088736304e-01,-6.421723950087292188e-02,7.483710362420820106e-02
4.060000000000000275e-01,-1.491138389545657861e-01,8.211758560273187124e-02,-3.151682682262618718e-02
4.069999999999999729e-01,-1.866146450513581634e-01,2.578211163586066057e-01,-1.363220059144568952e-01
4.079999999999999738e-01,-2.047845235602950564e-01,3.861233688194476432e-01,-1.224147123857279168e-01
4.089999999999999747e-01,-1.795846461479863876e-01,3.617737143860140225e-01,-9.382346280175729580e-02
4.099999999999999756e-01,-4.850881726587077947e-02,2.138072485465741801e-01,-8.187073754454046726e-02
4.109999999999999765e-01,1.602209080702697852e-01,2.162747387794081155e-02,-1.101790207729554799e-01
4.119999999999999774e-01,3.589288346962047349e-01,-1.716008888883512606e-01,-1.083436652045124682e-01
4.129999999999999782e-01,4.944131748353443601e-01,-2.699396547571535909e-01,-1.343497829111991448e-01
4.139999999999999791e-01,4.186996923786454605e-01,-2.513642431270683986e-01,-1.134787019076390902e-01
4.149999999999999800e-01,2.321514794729644948e-01,-1.983160906118494049e-01,-1.834597128007525789e-04
4.159999999999999809e-01,-2.501502215322063197e-02,-1.225457140239567255e-01,1.150496872872330822e-01
4.169999999999999818e-01,-2.244713532043992876e-01,-8.781197902905177322e-02,2.283800130464871403e-01
4.179999999999999827e-01,-3.058455482995948715e-01,-1.073164155518033097e-01,2.871395864667754538e-01
4.189999999999999836e-01,-2.824629350664948912e-01,-6.289786205184676182e-02,2.661858788509239293e-01
4.199999999999999845e-01,-2.006026449843405779e-01,-1.722832852509456614e-02,8.735055162868822498e-02
4.209999999999999853e-01,-1.413621605817304283e-01,1.002269285392476256e-01,-1.767857250805045244e-02
4.219999999999999862e-01,-1.175888596266847358e-01,2.415075605736470288e-01,-1.208434734969415364e-01
4.229999999999999871e-01,-1.274149802839106560e-01,3.506177181203647408e-01,-1.888324181750408171e-01
4.239999999999999880e-01,-1.189630530061236979e-01,3.267124097109015413e-01,-1.539251472537743748e-01
4.249999999999999889e-01,-1.715128857449370672e-02,2.311053081021307576e-01,-1.033249035868498561e-01
4.259999999999999898e-01,1.220698811929015887e-01,1.018800582676053328e-02,-1.000702699554497921e-01
4.269999999999999907e-01,3.306102634837773668e-01,-1.646898780193023215e-01,-6.915409259169474909e-02
4.279999999999999916e-01,4.593474490954425060e-01,-2.677409687672266947e-01,-8.598228467543400644e-02
4.289999999999999925e-01,4.574730294826925281e-01,-3.015729963913493794e-01,-8.871114857719651636e-02
4.299999999999999933e-01,2.637219048278450773e-01,-2.224156951524859094e-01,-3.615926482137914871e-02
4.309999999999999942e-01,4.905555379620316070e-02,-1.098543027973127445e-01,7.272987330788539817e-02
4.319999999999999951e-01,-2.097197257495254930e-01,-3.654359277489296898e-02,1.884865797034586121e-01
4.329999999999999960e-01,-3.243762012565669095e-01,-3.592516389478398343e-03,2.666421566130179333e-01
4.339999999999999969e-01,-3.299850999370358418e-01,-1.983352238196146519e-02,2.704482960189421026e-01
4.349999999999999978e-01,-2.603813327415760992e-01,2.878788560621992152e-03,1.849230502885627625e-01
4.359999999999999987e-01,-1.464407900688026731e-01,8.686827687566670009e-02,2.720044898441792772e-02
4.369999999999999996e-01,-8.427463875254667669e-02,2.157250085133457784e-01,-1.155953443751241844e-01
4.380000000000000004e-01,-3.629941446195077831e-02,2.908482884714131966e-01,-2.254346743649937035e-01
4.390000000000000013e-01,-8.457859025880357096e-02,3.406259399876719884e-01,-2.318609566917008424e-01
4.400000000000000022e-01,-3.334014857648529701e-02,2.297996753171021866e-01,-1.586623591333412853e-01
4.410000000000000031e-01,8.512598798340266504e-02,2.660471519251208020e-02,-1.081838068578499235e-01
4.420000000000000040e-01,2.794754881686810077e-01,-1.975269651415094141e-01,-3.202338541131865418e-02
4.430000000000000049e-01,4.201836713318584104e-01,-3.482356996107864866e-01,-3.389302478333517527e-02
4.440000000000000058e-01,4.257795661278122035e-01,-3.294283323535285302e-01,-4.411200793582416291e-02
4.450000000000000067e-01,3.159885672012655022e-01,-2.544492750915645085e-01,-4.347300603197306462e-02
4.460000000000000075e-01,5.627277003260697241e-02,-1.377569947605730150e-01,2.888332078222945881e-02
4.470000000000000084e-01,-1.876976596947645681e-01,-1.923783008306011524e-02,1.218538755953933878e-01
4.480000000000000093e-01,-3.497670961129061284e-01,3.029563595511703192e-02,2.237029819495374716e-01
4.490000000000000102e-01,-4.432763715420166561e-01,4.614644364772404334e-02,2.563804808476955466e-01
4.500000000000000111e-01,-3.285915544965094526e-01,2.945430080762735311e-02,2.242969503788921903e-01
4.510000000000000120e-01,-1.959060238348435679e-01,7.802588081840758361e-02,6.266701367688205793e-02
4.520000000000000129e-01,-3.449071825917215950e-02,1.577598585839203593e-01,-5.589466134059932478e-02
4.530000000000000138e-01,5.693799468018936362e-03,2.900050985538731307e-01,-2.049137368078613464e-01
4.540000000000000147e-01,1.369647548126354947e-02,3.171957024526759206e-01,-2.463102475534270086e-01
4.550000000000000155e-01,1.773317946741484463e-02,1.999554784577695921e-01,-2.090803541013490363e-01
4.560000000000000164e-01,8.239199346323758388e-02,1.979081828739970642e-02,-1.510081267339433153e-01
4.570000000000000173e-01,2.002347720948556287e-01,-1.861304605641164178e-01,-3.842893390329701897e-02
4.580000000000000182e-01,3.392028013609811321e-01,-3.338823638044825515e-01,4.878751882968005750e-03
4.590000000000000191e-01,3.804809677878420171e-01,-3.658949533516288044e-01,-3.975715919486246148e-03
4.600000000000000200e-01,3.186969145008256565e-01,-2.818796928816458269e-01,-2.391472730722153314e-02
4.610000000000000209e-01,1.264606804407245044e-01,-1.269666018243762462e-01,4.784648674648935007e-02
4.620000000000000218e-01,-1.602050250438120660e-01,-2.281302862065435772e-03,7.372675219294598514e-02
4.630000000000000226e-01,-3.648568036820713512e-01,8.755969830005377874e-02,1.827696969995265541e-01
4.640000000000000235e-01,-4.316771510908137266e-01,1.078623416421028991e-01,2.492376582597347623e-01
4.650000000000000244e-01,-3.908095461305622909e-01,1.012695934734355319e-01,2.271360148006750512e-01
4.660000000000000253e-01,-2.306493767492765745e-01,1.196388037608432375e-01,1.541831218047036989e-01
4.670000000000000262e-01,-4.331731864535343784e-02,1.723885703421696447e-01,1.532076107302771627e-02
4.680000000000000271e-01,6.820205095817843954e-02,2.418649111859198786e-01,-1.619980122275793410e-01
4.689999999999999725e-01,8.394216251877228974e-02,2.681007726833586902e-01,-2.519637413052241426e-01
4.699999999999999734e-01,7.914394506290504949e-02,2.073425125309625860e-01,-2.740380699755535776e-01
4.709999999999999742e-01,9.500320992382370322e-02,2.966181443522834110e-02,-1.932415028708101279e-01
4.719999999999999751e-01,1.478281314474573505e-01,-1.424151813005932188e-01,-4.325283421530702610e-02
4.729999999999999760e-01,2.899163021068986157e-01,-3.152750134011964023e-01,-1.465550240381963132e-02
4.739999999999999769e-01,3.436852230275519449e-01,-3.873269559417819030e-01,3.797607950676418209e-02
4.749999999999999778e-01,3.291301146624854845e-01,-3.261775942976449238e-01,4.818461011725207188e-02
4.759999999999999787e-01,1.765725338215734797e-01,-1.528676686996225664e-01,1.974903142217439636e-02
4.769999999999999796e-01,-9.159546547960650820e-02,3.656600399711295440e-02,6.686462454347202877e-02
4.779999999999999805e-01,-3.214987596703591244e-01,1.188018484421230619e-01,1.348525887948748281e-01
4.789999999999999813e-01,-4.032078242915915212e-01,1.210443312057069565e-01,2.056434594651010139e-01
4.799999999999999822e-01,-4.262870396175975629e-01,1.085256655821840582e-01,2.092712077978194363e-01
4.809999999999999831e-01,-2.814751473460756492e-01,1.189462951903905163e-01,1.495163805963434234e-01
4.819999999999999840e-01,-1.007459791754337780e-01,1.241143828060456283e-01,3.019418700792430091e-02
4.829999999999999849e-01,7.217560307415579746e-02,1.987025646060282258e-01,-1.102752717535323279e-01
4.839999999999999858e-01,1.741028653426122952e-01,2.355713734899149148e-01,-2.475865550067551102e-01
4.849999999999999867e-01,1.718394260067586665e-01,2.015686157407854950e-01,-2.828074147958636320e-01
4.859999999999999876e-01,1.098556849471809399e-01,4.808711731561937652e-02,-2.289882975250354114e-01
4.869999999999999885e-01,1.697572271764578866e-01,-1.518138723636072718e-01,-1.059055608906380036e-01
4.879999999999999893e-01,1.904744311946861002e-01,-3.355664820269532722e-01,-7.819292538134377593e-03
4.889999999999999902e-01,2.546293222013469304e-01,-3.970650746784915031e-01,7.675211421943875512e-02
4.899999999999999911e-01,3.035586630032411359e-01,-3.251463782082221754e-01,1.178257775921619233e-01
4.909999999999999920e-01,1.781917958481128994e-01,-1.827985624242971785e-01,8.136143011503374489e-02
4.919999999999999929e-01,-3.660215826045885856e-02,2.921465344354136177e-03,7.666144283557783934e-02
4.929999999999999938e-01,-2.824924470262682452e-01,1.613977616782295565e-01,1.104958484494748677e-01
4.939999999999999947e-01,-4.557368464858551627e-01,2.167958527229547905e-01,1.761453098920096050e-01
4.949999999999999956e-01,-4.708581282192610407e-01,1.788105104389560163e-01,1.909804075577974380e-01
4.959999999999999964e-01,-3.435190137685685818e-01,1.270905413870684619e-01,1.632621315657324379e-01
4.969999999999999973e-01,-1.385623082477356049e-01,1.134479189036286112e-01,6.514797557573454023e-02
4.979999999999999982e-01,8.506199019219241875e-02,1.469945852602569936e-01,-8.926895500374208703e-02
4.989999999999999991e-01,2.257300166393728380e-01,1.644779627840824432e-01,-2.000229339857516053e-01
5.000000000000000000e-01,2.150249438659083412e-01,1.570282759969017505e-01,-2.740235777977329534e-01
5.010000000000000009e-01,1.944445400737462026e-01,2.265479364532620166e-02,-2.748472329531250202e-01
5.020000000000000018e-01,1.532513449316784959e-01,-1.139721733381371394e-01,-1.856435681043221431e-01
5.030000000000000027e-01,1.542927301340210611e-01,-2.911001210077939771e-01,-5.952232722976278506e-02
5.040000000000000036e-01,1.881063053044640943e-01,-3.867932011582021490e-01,5.262472291404018954e-02
5.050000000000000044e-01,2.302843225472485655e-01,-3.445506474341398229e-01,1.205935220340396130e-01
5.060000000000000053e-01,1.375619151205270674e-01,-1.749100526491933205e-01,1.328161704601570070e-01
5.070000000000000062e-01,7.968886370228781338e-03,2.335163325769706172e-02,8.810581555622780392e-02
5.080000000000000071e-01,-2.132645311253689724e-01,1.885384183055339447e-01,9.238719046034424287e-02
5.090000000000000080e-01,-4.136208776666497333e-01,2.822666764932883487e-01,9.083166320612810762e-02
5.100000000000000089e-01,-4.832108335412912403e-01,2.206759684258875476e-01,1.460595334705626080e-01
5.110000000000000098e-01,-3.862227458553263437e-01,1.550896403390446265e-01,1.707530884059248188e-01
5.120000000000000107e-01,-1.826410539753071105e-01,1.205615293828557338e-01,9.592502644867473283e-02
5.130000000000000115e-01,5.594836980770336032e-02,6.326370236327533148e-02,-3.036368062613520671e-02
5.140000000000000124e-01,2.498297054734092693e-01,1.127888191735099271e-01,-1.647268072494166846e-01
5.150000000000000133e-01,3.173505727299926193e-01,9.513187432150514711e-02,-2.444579106263909396e-01
5.160000000000000142e-01,2.469795914617549659e-01,1.543422813006323224e-02,-2.588422590430100034e-01
5.170000000000000151e-01,1.781776884999644872e-01,-1.435072637908768600e-01,-2.258108079613484476e-01
5.180000000000000160e-01,1.109558973089437434e-01,-2.484094493023389361e-01,-1.141730917749848723e-01
5.190000000000000169e-01,1.253893280131573307e-01,-3.698981609174579743e-01,5.356512607394652015e-02
5.200000000000000178e-01,1.290246384517805545e-01,-3.232364149986516888e-01,1.375944880985231489e-01
5.210000000000000187e-01,1.303017726406358046e-01,-2.207373698700879905e-01,1.779644469753105251e-01
5.220000000000000195e-01,1.618188077242777370e-02,3.968016839690029912e-02,1.509376218090518473e-01
5.230000000000000204e-01,-1.577905684092595073e-01,2.047394137875623854e-01,6.561112177115509259e-02
5.240000000000000213e-01,-3.503209821417247460e-01,2.908806751814639324e-01,9.955005540286544774e-02
5.250000000000000222e-01,-4.604947954751844597e-01,2.626356972172495530e-01,1.047431478361555146e-01
5.260000000000000231e-01,-4.249911505679298540e-01,1.791619169613550833e-01,9.459512868970121335e-02
5.270000000000000240e-01,-2.217318211673971751e-01,1.037860955378217681e-01,9.210882986695788366e-02
5.280000000000000249e-01,4.502872926016920907e-02,5.248936043086296216e-02,3.572282814854366162e-02
5.290000000000000258e-01,2.792149491411725637e-01,6.751461525990701262e-02,-1.146092947479735585e-01
5.300000000000000266e-01,3.486903447508337694e-01,2.837680945839609128e-02,-2.378891053000896927e-01
5.310000000000000275e-01,3.385080552902244855e-01,2.029379387736956683e-02,-2.707264496041264512e-01
5.320000000000000284e-01,2.283838386514145113e-01,-7.720010693896241227e-02,-2.428335336412540402e-01
5.330000000000000293e-01,1.150851868820012142e-01,-2.534769454773317943e-01,-1.347863197984021932e-01
5.340000000000000302e-01,8.299458297667844375e-02,-3.454883843342330119e-01,1.409980381404286366e-02
5.350000000000000311e-01,6.426069209376111813e-02,-3.181563462820063970e-01,1.328558425914088958e-01
5.360000000000000320e-01,9.889964961414461631e-02,-1.911398702839539887e-01,2.093839932562372719e-01
5.370000000000000329e-01,1.088492241001429162e-02,-7.638899501950664403e-03,2.015060181065676526e-01
5.380000000000000338e-01,-1.348580717344018132e-01,1.954346572695379869e-01,1.416343194119543680e-01
5.390000000000000346e-01,-2.988155815432108064e-01,3.168945959136888479e-01,7.926496336554800237e-02
5.400000000000000355e-01,-4.319514607336304435e-01,3.232825926979935871e-01,5.189766972608098744e-02
5.410000000000000364e-01,-4.120553707215058870e-01,2.109783865769199462e-01,5.119563221440193851e-02
5.420000000000000373e-01,-2.673252228139232356e-01,1.038932598070448077e-01,5.640856270542686512e-02
5.430000000000000382e-01,-2.711876407276038112e-02,2.204875457559251142e-02,2.946278871489715900e-02
5.440000000000000391e-01,1.880762940061271593e-01,-6.557096045242463526e-03,-6.188057001279113206e-02
5.450000000000000400e-01,3.708670381454491904e-01,-1.779708414902583455e-02,-1.622978567932152616e-01
5.460000000000000409e-01,4.083425466443612595e-01,-3.793017633202973998e-02,-2.433763802609440197e-01
5.470000000000000417e-01,2.894516609386655337e-01,-1.020963603063593239e-01,-2.651002347149211680e-01
5.480000000000000426e-01,1.709901825111706797e-01,-2.124913722363983848e-01,-1.918537496412740517e-01
5.490000000000000435e-01,2.638309940370043433e-02,-2.878016497520776706e-01,-5.281994891334172021e-02
5.500000000000000444e-01,-3.312457230038730240e-03,-3.066040077639725081e-01,1.008938858057430304e-01
5.510000000000000453e-01,-3.565981250092738371e-03,-1.788982237620315718e-01,2.081184076227942659e-01
5.520000000000000462e-01,-2.398955137725855818e-03,2.111221757700283089e-03,2.051159551613566945e-01
5.530000000000000471e-01,-9.674706159865111010e-02,2.082496374011477691e-01,1.850916737090400888e-01
5.540000000000000480e-01,-2.291301201908687857e-01,3.184454333736323473e-01,9.541251053542630645e-02
5.550000000000000488e-01,-3.522766485359573596e-01,3.655472785990343532e-01,4.057553413053859026e-02
5.560000000000000497e-01,-3.881102114390603264e-01,2.442102138898298858e-01,2.891315951013519181e-02
5.570000000000000506e-01,-3.189883343016159944e-01,9.673244006117000249e-02,1.791265292476507467e-02
5.580000000000000515e-01,-6.800107347990876072e-02,1.031970898173490032e-02,1.853426744721628841e-02
5.590000000000000524e-01,1.847479681687863584e-01,-7.166430780615601348e-02,-4.163465500325374408e-02
5.600000000000000533e-01,3.868640056930877091e-01,-1.061154481352734463e-01,-1.114321292617196230e-01
5.610000000000000542e-01,4.519611412019879371e-01,-6.344816788309776134e-02,-2.165201963075858993e-01
5.620000000000000551e-01,3.742383749234680090e-01,-1.065090923660557548e-01,-2.615396558848651631e-01
5.629999999999999449e-01,1.782754781998003579e-01,-1.727541583273241588e-01,-2.015661699424022846e-01
5.639999999999999458e-01,2.402457630140452868e-02,-2.527695906595145980e-01,-1.052680586669702684e-01
5.649999999999999467e-01,-7.670227119745537392e-02,-2.925733324489782072e-01,6.927942661775442212e-02
5.659999999999999476e-01,-7.512547644055593554e-02,-1.780727009160628094e-01,1.990929445084382021e-01
5.669999999999999485e-01,-5.752491587124100580e-02,5.066440724484468257e-03,2.828488889683744567e-01
5.679999999999999494e-01,-7.412470451940576799e-02,1.743741527493031795e-01,2.240632548005407343e-01
5.689999999999999503e-01,-1.726366344625848148e-01,3.543390057138437466e-01,1.330524384523798509e-01
5.699999999999999512e-01,-3.183184295954051835e-01,3.569088237245593986e-01,5.528628842903933471e-02
5.709999999999999520e-01,-3.602346847051288714e-01,2.892723525876057522e-01,-2.487054848829032064e-02
5.719999999999999529e-01,-3.049365214924665279e-01,1.202198938711432075e-01,-4.013044166504892152e-02
5.729999999999999538e-01,-1.192186827029805690e-01,-3.402754032795873851e-02,-2.325390020506137162e-02
5.739999999999999547e-01,1.477555099901826374e-01,-1.379943773899533765e-01,-4.153865914056908970e-02
5.749999999999999556e-01,3.548453179524175827e-01,-1.414812012669979246e-01,-7.559592134088882753e-02
5.759999999999999565e-01,4.701357460031981295e-01,-1.245164785406287500e-01,-1.551612104901245182e-01
5.769999999999999574e-01,4.143381311792498356e-01,-1.082904613445734021e-01,-2.247636557366523014e-01
5.779999999999999583e-01,2.576995425122967087e-01,-1.548956144736991225e-01,-2.337915434774917034e-01
5.789999999999999591e-01,6.645031955425535763e-02,-1.840723469475988028e-01,-1.337477212474370292e-01
5.799999999999999600e-01,-1.079375595007153604e-01,-2.431525838203006384e-01,1.015080239017547223e-02
5.809999999999999609e-01,-1.306100270574901134e-01,-1.804620257101907099e-01,1.412551384260402332e-01
5.819999999999999618e-01,-1.315751457982443362e-01,-5.922317605970610355e-03,2.397886017596593811e-01
5.829999999999999627e-01,-1.079963599940547692e-01,1.852313054254262348e-01,2.657520624305267365e-01
5.839999999999999636e-01,-1.445821866973275860e-01,3.396669902042280254e-01,2.032715923554558879e-01
5.849999999999999645e-01,-2.359940506347573963e-01,4.067178182843206868e-01,9.373691458959149125e-02
5.859999999999999654e-01,-2.860337005670967048e-01,3.024226331463100159e-01,-1.634125841101405352e-02
5.869999999999999662e-01,-2.953796055115582297e-01,1.262076073585905456e-01,-4.673461215929920060e-02
5.879999999999999671e-01,-1.440030354555960068e-01,-4.044322383992722536e-02,-5.586806701933936387e-02
5.889999999999999680e-01,1.089994037444970004e-01,-1.597184478094308691e-01,-7.280963988743564819e-02
5.899999999999999689e-01,3.197893666357684017e-01,-1.886220494793880709e-01,-8.479519490941841986e-02
5.909999999999999698e-01,4.731731662425169294e-01,-1.428127425114358584e-01,-9.890347329805196375e-02
5.919999999999999707e-01,4.563213501670899674e-01,-1.348509064506134281e-01,-1.251069125040908669e-01
5.929999999999999716e-01,2.840445059566855113e-01,-1.039252185732471856e-01,-1.888157384469645594e-01
5.939999999999999725e-01,6.779999147661615322e-02,-1.469509027438880289e-01,-1.663950308047087157e-01
5.949999999999999734e-01,-1.017202671938685493e-01,-1.699099175153332975e-01,-4.547868399396341743e-02
5.959999999999999742e-01,-2.247876326830042515e-01,-1.316816735968495966e-01,9.287876912570768029e-02
5.969999999999999751e-01,-2.091870500162029689e-01,-2.588861953163107757e-02,1.926237090776881100e-01
5.979999999999999760e-01,-1.694430262056477177e-01,1.346658669489692872e-01,2.762034793091250884e-01
5.989999999999999769e-01,-1.550034067299007334e-01,3.268730667857174255e-01,2.552656743892319779e-01
5.999999999999999778e-01,-1.874031101411453015e-01,3.846631617015736637e-01,1.561914804531050194e-01
6.009999999999999787e-01,-2.350674703232069895e-01,3.257706539574329874e-01,2.398228065771344786e-02
6.019999999999999796e-01,-2.279530753561126721e-01,1.436695210852582949e-01,-8.582534599256906593e-02
6.029999999999999805e-01,-1.330387564269223111e-01,-6.078965280065754678e-02,-1.334893898004045620e-01
6.039999999999999813e-01,3.075626441496913388e-02,-2.080614551777475729e-01,-1.121697431570368164e-01
6.049999999999999822e-01,2.641037121454833936e-01,-2.283654061075123809e-01,-9.714624253643849849e-02
6.059999999999999831e-01,4.519448899547208742e-01,-1.965662121655976646e-01,-9.345697274246644870e-02
6.069999999999999840e-01,4.765761279660932770e-01,-1.483267003749502433e-01,-1.235312359041129959e-01
6.079999999999999849e-01,3.572960165640692298e-01,-1.046625328170178171e-01,-1.587871021983407738e-01
6.089999999999999858e-01,1.351243313324756168e-01,-1.054744579157414763e-01,-1.573676908601188140e-01
6.099999999999999867e-01,-1.027139061459106661e-01,-1.260702216761747096e-01,-7.117916754129825774e-02
6.109999999999999876e-01,-2.388970961203547849e-01,-8.942168035115927172e-02,4.831530971231665084e-02
6.119999999999999885e-01,-3.157639055095490255e-01,2.831700171752246642e-02,2.158340912036009474e-01
6.129999999999999893e-01,-2.364177897741885637e-01,1.337390859093444406e-01,2.981508158889677462e-01
6.139999999999999902e-01,-1.733173458240608034e-01,3.024010164719908023e-01,2.770150421885286263e-01
6.149999999999999911e-01,-1.020550299578589365e-01,3.708466112215688115e-01,2.041748022549622343e-01
6.159999999999999920e-01,-1.635179068078010944e-01,3.075514956710488357e-01,6.405810290364663540e-02
6.169999999999999929e-01,-1.935567773198552388e-01,1.826192131838158261e-01,-8.278533729887779802e-02
6.179999999999999938e-01,-1.238056578338091324e-01,-4.513260142780110146e-02,-1.349748092869400284e-01
6.189999999999999947e-01,8.150949121604711758e-03,-1.976740097305865473e-01,-1.710849591900926725e-01
6.199999999999999956e-01,2.558480687140964882e-01,-2.873736665093870601e-01,-1.069050268423063360e-01
6.209999999999999964e-01,3.930048613267997926e-01,-2.519805477090633627e-01,-1.152009983015033073e-01
6.219999999999999973e-01,4.549096273257370870e-01,-1.708255166158985094e-01,-7.802056853241977341e-02
6.229999999999999982e-01,3.714675786268931690e-01,-1.016966227385491944e-01,-1.224128386138145230e-01
6.239999999999999991e-01,1.669695937644256889e-01,-7.252315918453428045e-02,-1.014207445590097068e-01
6.250000000000000000e-01,-7.072095694023071422e-02,-7.108779429545272754e-02,-9.560945313884366970e-02
6.260000000000000009e-01,-2.495611651557992083e-01,-6.216883306968642303e-02,3.688521466391823933e-02
6.270000000000000018e-01,-3.635787753951672530e-01,4.990696995224947786e-03,1.317292600501336619e-01
6.280000000000000027e-01,-3.082587190637757768e-01,1.579548398747552540e-01,2.498908868620975943e-01
6.290000000000000036e-01,-1.794449632345294088e-01,2.876086976550684682e-01,2.863921420641212245e-01
6.300000000000000044e-01,-1.221610077209909218e-01,3.461134433607289673e-01,2.363279528323420364e-01
6.310000000000000053e-01,-9.354303292458517050e-02,2.965795124400088523e-01,1.183979125898796392e-01
6.320000000000000062e-01,-8.110319135594157292e-02,1.461709193239040527e-01,-1.398271315221905585e-02
6.330000000000000071e-01,-8.932266733075383547e-02,-5.781343558765336677e-02,-1.746606265333287000e-01
6.340000000000000080e-01,2.729499803595205817e-02,-2.442202075238563974e-01,-1.850499377627729536e-01
6.350000000000000089e-01,1.667746660687327576e-01,-3.231963738585714729e-01,-1.743534865852111870e-01
6.360000000000000098e-01,3.526015964231561939e-01,-3.215420095207044415e-01,-1.350271930686671173e-01
6.370000000000000107e-01,4.697345412920163055e-01,-1.937157511059405812e-01,-8.339668426422869318e-02
6.380000000000000115e-01,3.945222885476812880e-01,-7.686357232350080060e-02,-6.769789534488901417e-02
6.390000000000000124e-01,2.445045082719507490e-01,-3.137870856512336992e-02,-8.277817336954505778e-02
6.400000000000000133e-01,-4.802996450878005419e-02,-7.630211846582168542e-03,-7.040774417988578116e-02
6.410000000000000142e-01,-2.728998776742471710e-01,-3.091505316394127512e-03,-7.595516021720034698e-03
6.420000000000000151e-01,-3.703319306189057913e-01,3.924186831441250911e-02,8.521974842315870047e-02
6.430000000000000160e-01,-3.565307660839137083e-01,1.259025128119891090e-01,2.023549909973638150e-01
6.440000000000000169e-01,-2.669267616421516220e-01,2.222922015203043222e-01,2.621855764721863213e-01
6.450000000000000178e-01,-1.238884523577759439e-01,3.046329976599711498e-01,2.539711073765125726e-01
6.460000000000000187e-01,-2.844743512628073248e-02,2.827279582237255950e-01,1.580483116567746593e-01
6.470000000000000195e-01,-4.200225209899660639e-02,1.841200620079657402e-01,-2.537097501194481844e-04
6.480000000000000204e-01,-3.642726478032098925e-02,-2.981911529260682786e-02,-1.283167927031220734e-01
6.490000000000000213e-01,8.657999144324536253e-03,-1.966490323654966621e-01,-1.979998912725448590e-01
6.500000000000000222e-01,1.397868633506347269e-01,-3.478586013423606293e-01,-2.306412681434244494e-01
6.510000000000000231e-01,2.622761467281664594e-01,-3.388127793552955791e-01,-1.763888109697399065e-01
6.520000000000000240e-01,3.885761196736494116e-01,-2.378243668137513533e-01,-9.046628155447596076e-02
6.530000000000000249e-01,4.186393515662675258e-01,-8.017532673277208422e-02,-4.295994190610726016e-02
6.540000000000000258e-01,2.861993310426059201e-01,7.340737439280900674e-03,-2.384190351243415523e-02
6.550000000000000266e-01,1.381519519465904816e-02,5.266644142634138021e-02,-2.092158111230883397e-02
6.560000000000000275e-01,-2.214294300126591342e-01,6.705313183112875108e-02,-1.045721720917295629e-02
6.570000000000000284e-01,-3.878462198469866395e-01,6.427746528522050584e-02,2.982825758417673515e-02
6.580000000000000293e-01,-4.389063688513879513e-01,1.129432813567802646e-01,1.296682913411844051e-01
6.590000000000000302e-01,-3.105683798062204848e-01,2.022643269932219434e-01,2.203352803298928020e-01
6.600000000000000311e-01,-1.464372603528279193e-01,2.673814912259970256e-01,2.597821058154574647e-01
6.610000000000000320e-01,-1.617311708380995972e-02,2.746439195440643632e-01,2.144419321545315560e-01
6.620000000000000329e-01,4.142061490420303332e-02,1.771968458006988600e-01,3.391507776149906006e-02
6.630000000000000338e-01,6.634671436350488005e-02,-3.769969853788120856e-02,-9.962349000979239810e-02
6.640000000000000346e-01,5.588726040933896660e-02,-2.170898536796109779e-01,-2.235767784922848833e-01
6.650000000000000355e-01,1.153260161989254212e-01,-3.463326701959322795e-01,-2.443184715407993590e-01
6.660000000000000364e-01,2.384135752347246728e-01,-3.572329601036631774e-01,-2.538370761199039705e-01
6.670000000000000373e-01,3.309802496321308518e-01,-2.793692124339806071e-01,-1.326374740514358330e-01
6.680000000000000382e-01,3.811311006292215642e-01,-1.006891121940111655e-01,-3.226318849389998855e-02
6.690000000000000391e-01,2.989895436716547006e-01,5.621031002838374618e-02,5.531411540212314952e-03
6.700000000000000400e-01,7.215084323542160505e-02,1.117415940119938222e-01,3.987646514348766776e-03
6.710000000000000409e-01,-2.062746911083182255e-01,1.083328196362177420e-01,3.423060308277894870e-03
6.720000000000000417e-01,-4.220083155692533894e-01,1.077887931565917473e-01,4.628686983493187496e-02
6.730000000000000426e-01,-4.693928534928427654e-01,1.376673154766419327e-01,1.084443087453283439e-01
6.740000000000000435e-01,-3.812963489186029786e-01,1.697529913312604000e-01,1.666661122499093761e-01
6.750000000000000444e-01,-2.044415814879537996e-01,2.236941486648536259e-01,2.347083074455171281e-01
6.760000000000000453e-01,-1.432536936087490907e-02,2.403713246409322213e-01,1.880759879853380334e-01
6.770000000000000462e-01,8.571557052212558370e-02,1.666270589972519423e-01,1.036528401720258757e-01
6.780000000000000471e-01,1.145748052425035607e-01,4.212943207602669674e-03,-3.248476883002600346e-02
6.790000000000000480e-01,1.248941105754690778e-01,-1.987870321013659181e-01,-2.097819104675736346e-01
6.800000000000000488e-01,1.228350880632159137e-01,-3.614338664464717410e-01,-2.718513852426002186e-01
6.810000000000000497e-01,1.762330131601856642e-01,-3.882457836789723338e-01,-2.387649760444195413e-01
6.820000000000000506e-01,2.658100528469733992e-01,-2.812492357258803422e-01,-1.779120490334237525e-01
6.830000000000000515e-01,3.294553933789245437e-01,-1.258261566428957867e-01,-7.810901122506976046e-02
6.840000000000000524e-01,2.698172236695944859e-01,6.187007825676067024e-02,4.122410291630675128e-02
6.850000000000000533e-01,1.011576129515850547e-01,1.518170755348636769e-01,5.292007921346461585e-02
6.860000000000000542e-01,-1.438253090294477898e-01,1.869648655867579279e-01,7.354294758040218205e-02
6.870000000000000551e-01,-3.948792978418071975e-01,1.618122150183455565e-01,4.960081993463463790e-02
6.879999999999999449e-01,-4.656525408440527203e-01,1.428493804195574424e-01,8.013980738712067620e-02
6.889999999999999458e-01,-4.398057340857447484e-01,1.265812024378862033e-01,1.247661747786673880e-01
6.899999999999999467e-01,-2.659137820365623517e-01,1.945365996739379100e-01,1.936084751552968608e-01
6.909999999999999476e-01,-4.175485631848884632e-02,1.990069321760344068e-01,2.000938025863075453e-01
6.919999999999999485e-01,1.307999325610703090e-01,1.245154167768187936e-01,1.370301187004010490e-01
6.929999999999999494e-01,2.110004252964808313e-01,-2.369381243772689452e-02,7.228809511887702467e-03
6.939999999999999503e-01,1.797918036616600879e-01,-2.020325611238371621e-01,-1.580568110806778448e-01
6.949999999999999512e-01,1.520407521520500127e-01,-3.400009408099001207e-01,-2.415999211502150579e-01
6.959999999999999520e-01,1.355095399388992483e-01,-3.698269082440011069e-01,-2.945510942770285800e-01
6.969999999999999529e-01,1.883028173665535765e-01,-3.062384416497394013e-01,-2.258033085302706966e-01
6.979999999999999538e-01,2.556233460934440038e-01,-1.357884825364011339e-01,-1.003072847491843916e-01
6.989999999999999547e-01,2.499569399394881153e-01,5.429508575364776213e-02,2.482190860880775785e-02
6.999999999999999556e-01,1.146418227738107143e-01,2.040826584607436933e-01,5.750593612500969065e-02
7.009999999999999565e-01,-9.959405363265877442e-02,2.227481501737461345e-01,9.958947964223793803e-02
7.019999999999999574e-01,-3.359580640487329628e-01,1.875901378946459586e-01,8.773178357617841816e-02
7.029999999999999583e-01,-4.514635289178856037e-01,1.185651297130750903e-01,7.893639540199781646e-02
7.039999999999999591e-01,-4.494203651788722387e-01,1.174227224819479332e-01,8.890402590941597072e-02
7.049999999999999600e-01,-3.225452916282744997e-01,1.568608157489307653e-01,1.388926683342100177e-01
7.059999999999999609e-01,-1.034562172365620092e-01,1.382931166399048173e-01,1.580090015729292974e-01
7.069999999999999618e-01,1.314028452533924363e-01,1.200694458089561073e-01,1.405315774950590957e-01
7.079999999999999627e-01,2.594471542627062588e-01,-3.197892052552884362e-02,5.662348850014074786e-02
7.089999999999999636e-01,2.709475663899182374e-01,-1.890561776522867721e-01,-6.547800977913173504e-02
7.099999999999999645e-01,1.862555088375516810e-01,-3.264086406739455937e-01,-2.016363365094311355e-01
7.109999999999999654e-01,1.659297471224130960e-01,-3.754868566101831617e-01,-2.879110460460726495e-01
7.119999999999999662e-01,1.623021864422871663e-01,-3.211235292533142771e-01,-2.767164295441453814e-01
7.129999999999999671e-01,1.774908021172429684e-01,-1.270240856402947427e-01,-1.378189343522454313e-01
7.139999999999999680e-01,1.930413963734862459e-01,6.965815840945133175e-02,-1.378346516295648506e-02
7.149999999999999689e-01,1.431651412168899185e-01,2.190371552170355396e-01,6.386488421078920230e-02
7.159999999999999698e-01,-4.744214993017378118e-02,2.936995380653058541e-01,1.318311910153229793e-01
7.169999999999999707e-01,-2.748537199576646661e-01,2.493306638999546188e-01,1.090943188068931036e-01
7.179999999999999716e-01,-4.232426106003828181e-01,1.440254354712929008e-01,9.394143030262662453e-02
7.189999999999999725e-01,-4.733710928543915508e-01,1.035728467053609048e-01,1.021452807915932681e-01
7.199999999999999734e-01,-3.819266992541174299e-01,7.036813406589534359e-02,1.073123580164258017e-01
7.209999999999999742e-01,-1.212670515621346590e-01,1.003934644249372954e-01,1.185728880372593358e-01
7.219999999999999751e-01,1.100389142748629118e-01,6.136515073397538073e-02,1.209524250706112830e-01
7.229999999999999760e-01,2.839433315353043219e-01,-2.297423352950711539e-02,7.344046278645764703e-02
7.239999999999999769e-01,3.291943933505694364e-01,-1.523606829062930657e-01,-5.565493792325535566e-02
7.249999999999999778e-01,2.545067099180256531e-01,-3.145055160563076102e-01,-1.687061800578292803e-01
7.259999999999999787e-01,1.628714299589087144e-01,-3.483177600605381619e-01,-2.545077443703575582e-01
7.269999999999999796e-01,9.593255002770878503e-02,-2.993711428225719895e-01,-2.853253311105670154e-01
7.279999999999999805e-01,1.000209183655315914e-01,-1.373763562171970154e-01,-2.288822864562173320e-01
7.289999999999999813e-01,1.438683080279589965e-01,5.247707957652988919e-02,-9.422946414364974377e-02
7.299999999999999822e-01,9.685043056442899090e-02,2.279211123264038297e-01,4.660444673425066797e-02
7.309999999999999831e-01,-4.914263968799752191e-02,3.308461834437588789e-01,1.704928854323547460e-01
7.319999999999999840e-01,-2.097408004282305116e-01,2.836505183271476049e-01,1.772378567828969409e-01
7.329999999999999849e-01,-3.794306844350650576e-01,1.704062074033901308e-01,1.613632722465728753e-01
7.339999999999999858e-01,-4.643352581825992975e-01,6.597515957230323802e-02,1.220527668727457021e-01
7.349999999999999867e-01,-3.736353225716630422e-01,1.225825736669704062e-02,5.367359831525827379e-02
7.359999999999999876e-01,-1.816579795558888322e-01,1.175469609131406766e-02,6.516841578886437003e-02
7.369999999999999885e-01,9.385436792997776945e-02,2.164380311148680555e-02,6.752713657537642855e-02
7.379999999999999893e-01,3.037655869486923232e-01,-5.124688194386477214e-02,4.386496515640074534e-02
7.389999999999999902e-01,3.929011969074811539e-01,-1.511290960155472207e-01,-1.441476039973433980e-02
7.399999999999999911e-01,3.167172683967579006e-01,-2.725407779196062363e-01,-1.244268138089829334e-01
7.409999999999999920e-01,2.204302089253779851e-01,-3.354744595494018600e-01,-2.128287468194058341e-01
7.419999999999999929e-01,8.459518665018209149e-02,-2.959380592807142052e-01,-2.546802361000535253e-01
7.429999999999999938e-01,8.001014880381726591e-02,-1.607653615157970117e-01,-2.695996967554984969e-01
7.439999999999999947e-01,5.715657202456054381e-02,6.216046621503742292e-02,-1.301671897132068711e-01
7.449999999999999956e-01,5.689620498287301792e-02,2.159817005854248184e-01,1.026529357854481968e-02
7.459999999999999964e-01,-4.589518816131948203e-02,3.193113567130799191e-01,1.941442779406795105e-01
7.469999999999999973e-01,-1.601457283900856454e-01,3.079657627750785887e-01,2.237743760049111241e-01
7.479999999999999982e-01,-3.137612899455325954e-01,1.999149566551611523e-01,1.956415414668187802e-01
7.489999999999999991e-01,-4.079686053240935695e-01,6.346140814929505936e-02,1.267861571315871960e-01
7.500000000000000000e-01,-3.936093541468249635e-01,9.709377589088604224e-03,9.844727295588716343e-02
7.510000000000000009e-01,-2.196744641270743092e-01,-3.860824042128135902e-02,2.622573902233038198e-02
7.520000000000000018e-01,3.753942489017341594e-02,-5.473451381409405458e-02,2.035570403290640554e-02
7.530000000000000027e-01,2.789426111710136547e-01,-6.369251419961706462e-02,2.053359571966078059e-02
7.540000000000000036e-01,4.221572603380565059e-01,-1.267125313464080305e-01,9.060561515647169023e-03
7.550000000000000044e-01,4.002682683664862129e-01,-1.965698486501143427e-01,-5.480832470008243501e-02
7.560000000000000053e-01,2.685416901643397636e-01,-2.872553471563719651e-01,-1.660241450913306216e-01
7.570000000000000062e-01,1.110286183259434761e-01,-2.623294189495034567e-01,-2.581026643161730694e-01
7.580000000000000071e-01,1.050765403527138082e-04,-1.537998406803117168e-01,-2.663322368670271167e-01
7.590000000000000080e-01,-2.266619823231850669e-02,6.250693059748629876e-02,-1.706944332901965955e-01
7.600000000000000089e-01,-3.748654348706546846e-02,2.591188857922585576e-01,-4.158253194890976917e-02
7.610000000000000098e-01,-5.553789891437330845e-02,3.686911966644214056e-01,1.290304900861886928e-01
7.620000000000000107e-01,-1.295553704612362189e-01,3.352717728613135439e-01,2.116318787937788715e-01
7.630000000000000115e-01,-2.655355526316283132e-01,1.996573492187828647e-01,2.256335918943174479e-01
7.640000000000000124e-01,-3.612725237570917347e-01,6.489734688616280445e-02,1.812281801822358540e-01
7.650000000000000133e-01,-3.841563029617323655e-01,-7.235346866508400587e-02,9.106316654604960925e-02
7.660000000000000142e-01,-2.397349875487859439e-01,-9.744269770250557627e-02,3.980401429333324526e-02
7.670000000000000151e-01,-1.196457421411636218e-02,-1.020485055234319482e-01,6.493443019012765105e-03
7.680000000000000160e-01,2.602505373646962772e-01,-8.682831525834257269e-02,5.334292914524736348e-03
7.690000000000000169e-01,4.201528171805756218e-01,-1.246694220108140044e-01,-1.160547290293216863e-02
7.700000000000000178e-01,4.544563161291672038e-01,-2.040476855362197972e-01,-4.220734917516064111e-02
7.710000000000000187e-01,3.228789415823225539e-01,-2.426380572706551553e-01,-1.244443633748361228e-01
7.720000000000000195e-01,1.479423485574193620e-01,-2.514519857023400085e-01,-1.917753134996758868e-01
7.730000000000000204e-01,-8.982212067392905328e-03,-1.207000208540894570e-01,-2.490940931726314533e-01
7.740000000000000213e-01,-9.370464146352863732e-02,5.305781486426220522e-02,-2.086464988180193325e-01
7.750000000000000222e-01,-1.003815736062001335e-01,2.252907241983992115e-01,-8.498337217624732376e-02
7.760000000000000231e-01,-1.055743281582636611e-01,3.510291966088016080e-01,8.884805797988673537e-02
7.770000000000000240e-01,-1.273225962831709968e-01,3.711411542526946716e-01,2.360666126625551586e-01
7.780000000000000249e-01,-1.883789185285562051e-01,2.624185284190714285e-01,2.738496562917955290e-01
7.790000000000000258e-01,-3.038273472891184768e-01,7.452081475927532783e-02,2.240881911248829850e-01
7.800000000000000266e-01,-3.432288970966961283e-01,-7.911440203383708625e-02,1.344112029182688017e-01
7.810000000000000275e-01,-2.750604751819242799e-01,-1.541737854662232621e-01,2.521692225095029799e-02
7.820000000000000284e-01,-4.928991643041363141e-02,-1.375847367953099976e-01,-1.592744809673810394e-02
7.830000000000000293e-01,2.139085714922255577e-01,-1.202426413545866629e-01,-4.924343400497793038e-02
7.840000000000000302e-01,4.147011067934491257e-01,-1.232751813394846324e-01,-4.414788669068830246e-02
7.850000000000000311e-01,4.547698494373896838e-01,-1.362159661453830606e-01,-6.918844498266729648e-02
7.860000000000000320e-01,4.002948026497188949e-01,-2.016200139385590506e-01,-7.696088102428956523e-02
7.870000000000000329e-01,2.120724356516747733e-01,-1.925848895489077617e-01,-1.741965151838357762e-01
7.880000000000000338e-01,2.217680794352378665e-03,-1.089213414617504760e-01,-2.164777949918068600e-01
7.890000000000000346e-01,-1.249337995303358984e-01,3.348044232229298311e-02,-2.016980647503318902e-01
7.900000000000000355e-01,-1.849044026117884210e-01,2.160575225266682942e-01,-1.038790675759680843e-01
7.910000000000000364e-01,-1.685457398253930594e-01,3.743469325174689777e-01,1.150542283023153062e-02
7.920000000000000373e-01,-1.368989765072828046e-01,3.707932939566694897e-01,1.632679390200792446e-01
7.930000000000000382e-01,-1.728551694743998002e-01,2.718794957473993357e-01,2.625438977119942674e-01
7.940000000000000391e-01,-2.429315783719145083e-01,8.618924941683842045e-02,2.440340521242350402e-01
7.950000000000000400e-01,-2.668702973925978772e-01,-1.036749271188012606e-01,1.951904303306376265e-01
7.960000000000000409e-01,-2.418049147071323901e-01,-2.032566439351943532e-01,8.224471323949184010e-02
7.970000000000000417e-01,-8.500706107500785591e-02,-2.018814112797502058e-01,-2.809764973661665194e-02
7.980000000000000426e-01,1.445626962329554233e-01,-1.670553599108913490e-01,-8.936996435680344408e-02
7.990000000000000435e-01,3.672118348602412263e-01,-1.232832989369771343e-01,-9.450140009245994177e-02
8.000000000000000444e-01,4.953677810626566647e-01,-1.301569654626602013e-01,-9.281226655059611474e-02
8.010000000000000453e-01,4.352518389863365700e-01,-1.263353851856331977e-01,-8.897204512255944830e-02
8.020000000000000462e-01,2.208355088005775624e-01,-1.278570799686683246e-01,-1.235907177080007580e-01
8.030000000000000471e-01,1.319824732419289104e-02,-8.858362962903795768e-02,-1.685018303470042778e-01
8.040000000000000480e-01,-1.774117317659004989e-01,4.390714764097577300e-02,-1.743881227729545125e-01
8.050000000000000488e-01,-2.269640108949530777e-01,1.990992195899907724e-01,-1.288462664952853276e-01
8.060000000000000497e-01,-2.327316285795986706e-01,3.379057022632296903e-01,-2.840459922999653830e-02
8.070000000000000506e-01,-1.544667846416564738e-01,3.704971677449342971e-01,1.057107181246230848e-01
8.080000000000000515e-01,-1.484120605784687574e-01,3.003600824225742261e-01,2.373343517402472791e-01
8.090000000000000524e-01,-1.799539732121298585e-01,8.527321449449243307e-02,3.139551377935465570e-01
8.100000000000000533e-01,-1.993928027043776474e-01,-1.284446993044973673e-01,2.356418798256091351e-01
8.110000000000000542e-01,-1.833040502423372298e-01,-2.544850496464229894e-01,1.243913412993809947e-01
8.120000000000000551e-01,-9.694330005271920014e-02,-2.677652183619402826e-01,-1.544808095241269157e-02
8.129999999999999449e-01,1.017734750697373985e-01,-1.962148217917362436e-01,-1.081866778307725013e-01
8.139999999999999458e-01,3.153935216282299225e-01,-1.271315877407198092e-01,-1.181417773875989008e-01
8.149999999999999467e-01,4.386245604193023673e-01,-7.783188385679949695e-02,-1.303765075936625106e-01
8.159999999999999476e-01,4.673617297814602334e-01,-8.602455420919957740e-02,-9.180258668703593361e-02
8.169999999999999485e-01,3.124880000704755023e-01,-9.211820248286833879e-02,-8.869292731807980334e-02
8.179999999999999494e-01,7.654805097889995358e-02,-5.569903093779535186e-02,-1.039439568776909933e-01
8.189999999999999503e-01,-1.780244847191690405e-01,1.410616494893363916e-02,-1.411095791467185667e-01
8.199999999999999512e-01,-3.006305034241121277e-01,1.740433305685311072e-01,-1.396962737170678870e-01
8.209999999999999520e-01,-2.981707655530503320e-01,3.107693901871232400e-01,-4.759519958957943858e-02
8.219999999999999529e-01,-2.286959719858630835e-01,3.573496968135936314e-01,7.469812151059100624e-02
8.229999999999999538e-01,-1.596222080749110372e-01,2.938378884980460404e-01,1.950050090469578612e-01
8.239999999999999547e-01,-1.292988095754551703e-01,8.074275002089256748e-02,2.949308886623019932e-01
8.249999999999999556e-01,-1.255499150573736455e-01,-1.217323119449485319e-01,2.708104436392043124e-01
8.259999999999999565e-01,-1.529630113100967082e-01,-2.600026272449424969e-01,2.020722226888146678e-01
8.269999999999999574e-01,-7.542916578422899365e-02,-3.101104934584626438e-01,2.899553210034097953e-02
8.279999999999999583e-01,4.202294393911192028e-02,-2.602646188979072517e-01,-9.527032985716747671e-02
8.289999999999999591e-01,2.506200262529067468e-01,-1.761657755281249016e-01,-1.684381057095330203e-01
8.299999999999999600e-01,4.245295254947719643e-01,-9.301072922228140194e-02,-1.641268263506283076e-01
8.309999999999999609e-01,4.400032197544132551e-01,-4.144386253460918129e-02,-1.243614473433574535e-01
8.319999999999999618e-01,3.464825587970266629e-01,-2.825597211749645774e-02,-7.526138804476245614e-02
8.329999999999999627e-01,1.025225103625990314e-01,-3.982436063053922115e-02,-9.206520558772318674e-02
8.339999999999999636e-01,-1.495902756166988812e-01,3.827031481019744358e-02,-8.308369617509912819e-02
8.349999999999999645e-01,-3.187336605073445295e-01,1.599324981061167883e-01,-8.950307573599781963e-02
8.359999999999999654e-01,-3.749990397598548242e-01,2.783369585723437512e-01,-6.020324351643140809e-02
8.369999999999999662e-01,-3.253170344703691930e-01,3.556380324593988451e-01,4.826506738636857780e-02
8.379999999999999671e-01,-1.897448158166925025e-01,2.741244311471606743e-01,1.495299651075897573e-01
8.389999999999999680e-01,-9.896162508370300037e-02,1.146659315456451667e-01,2.563876922455263219e-01
8.399999999999999689e-01,-7.047933714679266437e-02,-1.039044131492360551e-01,2.654425978459159507e-01
8.409999999999999698e-01,-6.719901711383274856e-02,-3.051672186013362764e-01,2.358115456851590241e-01
8.419999999999999707e-01,-4.426367298301243230e-02,-3.376763242592155656e-01,9.832514263441537172e-02
8.429999999999999716e-01,3.238439480384009556e-02,-2.501502216896254738e-01,-5.620391241638288127e-02
8.439999999999999725e-01,1.826690865400644181e-01,-1.637200468350847593e-01,-1.643456823081832219e-01
8.449999999999999734e-01,3.761238692550233909e-01,-5.773353883743084086e-02,-2.050855571648156073e-01
8.459999999999999742e-01,4.466892429530027187e-01,3.755409318092214205e-02,-1.873647310623711149e-01
8.469999999999999751e-01,4.129011968449129433e-01,3.324363889761943608e-02,-1.174046627075421151e-01
8.479999999999999760e-01,1.660833144793317784e-01,2.438661000437277945e-02,-6.109620557159212151e-02
8.489999999999999769e-01,-9.508670981910714859e-02,6.295560259485181998e-02,-1.329959985375151095e-02
8.499999999999999778e-01,-3.267355359315555208e-01,1.465384976256070559e-01,-5.096421625264278832e-02
8.509999999999999787e-01,-4.058983809630057338e-01,2.461418593586761905e-01,-4.160817855593947068e-02
8.519999999999999796e-01,-3.662144757821998997e-01,3.119139013769695046e-01,-1.307667872283303952e-02
8.529999999999999805e-01,-2.280312987963737381e-01,2.705965765626398012e-01,1.089494931897399960e-01
8.539999999999999813e-01,-5.059770193810354810e-02,1.047260704806889792e-01,1.944473252087604020e-01
8.549999999999999822e-01,-1.235537312370680631e-02,-7.660452983541839178e-02,2.476055052833305292e-01
8.559999999999999831e-01,1.208138336661531038e-02,-3.008279187538422939e-01,2.415530675556447626e-01
8.569999999999999840e-01,7.541295270605873156e-04,-3.650100025994559294e-01,1.460316071507206104e-01
8.579999999999999849e-01,3.878162375905052500e-02,-3.239481799341621393e-01,-8.328241203107995816e-03
8.589999999999999858e-01,1.483225498416593791e-01,-1.872710291623020940e-01,-1.296986130905704859e-01
8.599999999999999867e-01,2.759975204197391285e-01,-5.958730067334044866e-02,-2.035537313495163758e-01
8.609999999999999876e-01,3.848711613237678075e-01,5.266860759755266630e-02,-2.343761170972398222e-01
8.619999999999999885e-01,3.870091779227372575e-01,9.171593098911469399e-02,-1.552385633240925267e-01
8.629999999999999893e-01,2.185097795490421047e-01,9.296797662895968373e-02,-7.766922542581131128e-02
8.639999999999999902e-01,-3.733108106040190083e-02,7.455786631051213031e-02,-5.893120053149016047e-02
8.649999999999999911e-01,-2.988928893445177426e-01,1.448112369850155512e-01,-2.485660157032785686e-02
8.659999999999999920e-01,-4.304616420298978396e-01,2.012210138863333997e-01,-1.364050214869428658e-02
8.669999999999999929e-01,-4.217306032580510067e-01,2.869232891948089725e-01,1.384218584862498963e-02
8.679999999999999938e-01,-2.739442382982382185e-01,2.387016600909674657e-01,5.867736191157404274e-02
8.689999999999999947e-01,-1.041439221911119040e-01,9.986336020547299797e-02,1.407117026360786005e-01
8.699999999999999956e-01,5.064128621753986176e-03,-6.923350591065174919e-02,2.418526185032291165e-01
8.709999999999999964e-01,7.075337729448792634e-02,-2.567668585726705088e-01,2.517367947547351492e-01
8.719999999999999973e-01,6.655594452539655148e-02,-3.929986053216014685e-01,1.809320535723165368e-01
8.729999999999999982e-01,6.991525646547729067e-02,-3.737722611132833772e-01,3.770817500560619262e-02
8.739999999999999991e-01,1.412917342440713486e-01,-2.155461785095676708e-01,-1.279397068037032015e-01
8.750000000000000000e-01,2.558483197861163294e-01,-1.479822541819914190e-02,-2.359022214167745823e-01
8.760000000000000009e-01,3.373681068857482535e-01,8.557063634637973593e-02,-2.686763941591209237e-01
8.770000000000000018e-01,3.217525045673895190e-01,1.516655802793551444e-01,-1.985453392925623506e-01
8.780000000000000027e-01,2.309852468879459997e-01,1.425291353215675239e-01,-1.335629082796928047e-01
8.790000000000000036e-01,3.577795884368635115e-03,1.019409823133414772e-01,-3.425864542094011339e-02
8.800000000000000044e-01,-2.383411794315267729e-01,1.423962672818350206e-01,1.693750696910092945e-02
8.810000000000000053e-01,-4.121768833025327705e-01,1.779022451587486398e-01,5.110282912292380547e-02
8.820000000000000062e-01,-4.638915806581461188e-01,2.147541294008142032e-01,3.558843171604205574e-02
8.830000000000000071e-01,-3.544584504985771045e-01,2.143957879563574143e-01,2.997645781552259192e-02
8.840000000000000080e-01,-1.620559532508991096e-01,1.101001239473064497e-01,1.001799538979297050e-01
8.850000000000000089e-01,2.396556975556217439e-02,-7.102256793042288630e-02,1.533833416308653386e-01
8.860000000000000098e-01,1.222947831020815002e-01,-2.503383935218854717e-01,2.296227227931319781e-01
8.870000000000000107e-01,1.578638257610469053e-01,-3.734667848346806540e-01,1.860987101352432338e-01
8.880000000000000115e-01,1.343962071665990854e-01,-3.678373489302510513e-01,1.183177406627765327e-01
8.890000000000000124e-01,1.424930513951982725e-01,-2.456534730204966155e-01,-4.527184515315716556e-02
8.900000000000000133e-01,1.893408655584305489e-01,-3.506711247149264798e-02,-1.838961979635166666e-01
8.910000000000000142e-01,2.566774904980645422e-01,9.635260360732240958e-02,-2.826462004588210508e-01
8.920000000000000151e-01,3.027606619948766675e-01,1.904551911520443175e-01,-2.547231626373130942e-01
8.930000000000000160e-01,2.243758894496468148e-01,1.643004619816848255e-01,-1.765554398846611028e-01
8.940000000000000169e-01,5.478507379306416653e-02,1.659282223652741861e-01,-3.639907685260994341e-02
8.950000000000000178e-01,-2.143085734859352387e-01,9.979591888925697096e-02,5.372005161278833180e-02
8.960000000000000187e-01,-4.236641767430551764e-01,1.310736212945344537e-01,6.251606300941971173e-02
8.970000000000000195e-01,-5.029252296368401653e-01,1.496649495549018383e-01,9.554303469441249863e-02
8.980000000000000204e-01,-3.903394224578868865e-01,1.728087381834462199e-01,4.317369567659883056e-02
8.990000000000000213e-01,-2.005201867365874469e-01,9.420545778127950576e-02,7.032791853082108469e-02
9.000000000000000222e-01,3.062598166816016439e-03,-7.162241664013556386e-02,1.297325087799293120e-01
9.010000000000000231e-01,1.865109183506900303e-01,-2.519861283235976246e-01,1.577498116283596041e-01
9.020000000000000240e-01,2.279393623131920343e-01,-3.459534233433797512e-01,1.641905046117608791e-01
9.030000000000000249e-01,1.901136737009507804e-01,-3.637285513081273125e-01,1.054840242509123144e-01
9.040000000000000258e-01,1.635764057440720620e-01,-2.445690715934802362e-01,-4.643574692990945258e-04
9.050000000000000266e-01,1.792435391832590541e-01,-7.210055896554552757e-02,-1.345209296909378183e-01
9.060000000000000275e-01,1.971746954900150950e-01,1.235825704275343995e-01,-2.707105173877794035e-01
9.070000000000000284e-01,2.348845794400513665e-01,2.352211914255334380e-01,-3.050836161442135874e-01
9.080000000000000293e-01,2.170000678840511010e-01,2.427877530028776654e-01,-2.162377305903371294e-01
9.090000000000000302e-01,8.019133754519652824e-02,1.902337665209492823e-01,-7.035421626001482631e-02
9.100000000000000311e-01,-1.508006043091003612e-01,1.409537951982449966e-01,2.527704986274477081e-02
9.110000000000000320e-01,-3.785560884037201812e-01,1.040176380710419457e-01,1.038133984130458209e-01
9.120000000000000329e-01,-4.830990559711211829e-01,1.139819581917946856e-01,1.356873890037038344e-01
9.130000000000000338e-01,-4.550486420871592275e-01,1.193510973995728780e-01,1.124350337779110032e-01
9.140000000000000346e-01,-2.565703967222926485e-01,5.579049272693444722e-02,1.054887904024528061e-01
9.150000000000000355e-01,-6.617755926193719281e-03,-3.584888306373418265e-02,9.922086601295813935e-02
9.160000000000000364e-01,1.975989289346038458e-01,-2.235814079050818526e-01,1.282689799383940621e-01
9.170000000000000373e-01,2.928833172959062203e-01,-3.339323989462232301e-01,1.407067803962451791e-01
9.180000000000000382e-01,2.645588485793565758e-01,-3.535082730275360130e-01,1.289723398949662314e-01
9.190000000000000391e-01,2.043244823200694171e-01,-2.695741891161469450e-01,2.170515862893201975e-02
9.200000000000000400e-01,1.529516680555311758e-01,-7.609481377213021813e-02,-1.030468485016558661e-01
9.210000000000000409e-01,1.464590293468412685e-01,1.401580878801764740e-01,-2.428576753154850776e-01
9.220000000000000417e-01,1.497081880857487057e-01,2.668667686944516948e-01,-2.763420399601060895e-01
9.230000000000000426e-01,1.847476699173453141e-01,3.085988225349280412e-01,-2.582412697354087849e-01
9.240000000000000435e-01,6.464490338361471300e-02,2.309704840711842566e-01,-1.569629321522839904e-01
9.250000000000000444e-01,-9.452730830200913037e-02,1.309248290187268460e-01,-1.569128945319642372e-03
9.260000000000000453e-01,-3.039203418989285810e-01,5.974646785826232681e-02,1.003970799666666358e-01
9.270000000000000462e-01,-4.232328579517888323e-01,6.474850749408103678e-02,1.771671468734096477e-01
9.280000000000000471e-01,-4.461817344942836105e-01,4.174605657920180818e-02,1.579199893859696002e-01
9.290000000000000480e-01,-3.005811833292342805e-01,2.909241018449934199e-02,1.236102579056235634e-01
9.300000000000000488e-01,-5.240336188364033004e-02,-6.496591484381322723e-02,8.706268332457742232e-02
9.310000000000000497e-01,1.846071097393877369e-01,-1.947545776114380789e-01,1.180111463877806105e-01
9.320000000000000506e-01,3.239499628519595387e-01,-3.145186518882716054e-01,1.317581741422074182e-01
9.330000000000000515e-01,3.486472885984626680e-01,-3.457172593271749528e-01,9.105651695720869132e-02
9.340000000000000524e-01,2.773428821025044622e-01,-2.476186708575576489e-01,7.221311151379179727e-02
9.350000000000000533e-01,1.623814187958662891e-01,-8.814107716841110274e-02,-3.788811885343259384e-02
9.360000000000000542e-01,9.436940780157680730e-02,1.669700715293590265e-01,-1.540032781618870805e-01
9.370000000000000551e-01,8.306304720832125010e-02,2.817823820910402288e-01,-2.708899409631534416e-01
9.379999999999999449e-01,8.401886643616249262e-02,3.003417081044476578e-01,-2.782574344191343640e-01
9.389999999999999458e-01,6.166565369499275168e-02,2.513396429589767611e-01,-2.058772580837043287e-01
9.399999999999999467e-01,-6.537219102684370398e-02,1.387685522594112875e-01,-7.690166921095685504e-02
9.409999999999999476e-01,-2.409607844857845904e-01,6.665248760674440109e-02,6.495904937410248992e-02
9.419999999999999485e-01,-3.910406374346493408e-01,-4.480350666051226456e-03,2.087334102900715027e-01
9.429999999999999494e-01,-4.356162368903099824e-01,-5.025787983169148834e-03,2.000437534335426093e-01
9.439999999999999503e-01,-3.618065463736707676e-01,-1.253341179877682024e-02,1.470850673908952466e-01
9.449999999999999512e-01,-1.238864261629046698e-01,-7.375531627827580650e-02,9.664477167225786480e-02
9.459999999999999520e-01,1.340949979933848402e-01,-1.924182700966911019e-01,7.627444748644335304e-02
9.469999999999999529e-01,3.275093713894058345e-01,-2.803353080630655025e-01,6.206832185908057326e-02
9.479999999999999538e-01,3.993919049247200426e-01,-3.172604137729925777e-01,4.785702494447565541e-02
9.489999999999999547e-01,3.266728234441356737e-01,-2.366673991500586050e-01,3.378955249279935041e-02
9.499999999999999556e-01,1.861428463834470248e-01,-1.141017112568546849e-01,-1.623019038082431156e-02
9.509999999999999565e-01,8.305129396847776846e-02,1.286930445002839041e-01,-1.288385318639382882e-01
9.519999999999999574e-01,1.289178841658821482e-02,2.946827240161795092e-01,-2.147778508238232242e-01
9.529999999999999583e-01,-2.826984630081974276e-03,3.648010579015053545e-01,-2.812116318777662105e-01
9.539999999999999591e-01,-1.378370822971159825e-03,2.922623836332872149e-01,-2.225653398970916241e-01
9.549999999999999600e-01,-7.669984436228313718e-02,1.747335148750372158e-01,-7.991729346177114945e-02
9.559999999999999609e-01,-1.572790868764038785e-01,1.270586552892906569e-02,3.886563972752309082e-02
9.569999999999999618e-01,-3.569453347766051166e-01,-4.806004462353818257e-02,1.822779573986221535e-01
9.579999999999999627e-01,-4.006335274030188298e-01,-4.048405602191362807e-02,2.372034656381997730e-01
9.589999999999999636e-01,-3.496713124668575090e-01,-7.094072671083004322e-02,2.149899279181971823e-01
9.599999999999999645e-01,-1.898083200874102483e-01,-1.038392899513878170e-01,1.541695963304329786e-01
9.609999999999999654e-01,8.972880930646440212e-02,-1.451863301978348064e-01,6.188747544390172522e-02
9.619999999999999662e-01,3.276948362612504551e-01,-2.465348739626731789e-01,2.246189868719734167e-02
9.629999999999999671e-01,3.998558310904840596e-01,-2.719494192109591646e-01,3.288260823905769792e-02
9.639999999999999680e-01,4.037263739053865153e-01,-2.471817245619069570e-01,2.384707551134711973e-02
9.649999999999999689e-01,2.455630296463851558e-01,-9.671878702511442494e-02,1.178889639266186146e-02
9.659999999999999698e-01,1.076285558064891124e-01,1.263395762244768628e-01,-6.996102356129478561e-02
9.669999999999999707e-01,-2.083766391654617509e-02,2.916623973661912617e-01,-1.768490490388414937e-01
9.679999999999999716e-01,-9.706745503722336021e-02,3.634869711128418945e-01,-2.490119710859116098e-01
9.689999999999999725e-01,-7.722826148580923256e-02,3.446553491049598739e-01,-2.277576412357759650e-01
9.699999999999999734e-01,-7.250760386672280844e-02,1.951897124102627001e-01,-1.610470660798274389e-01
9.709999999999999742e-01,-1.515954220440885458e-01,4.653226149983677451e-02,-3.768947176473769201e-02
9.719999999999999751e-01,-2.628499682776138102e-01,-9.741256622846936053e-02,1.139326332946343362e-01
9.729999999999999760e-01,-3.457077409616829411e-01,-1.198406862240351811e-01,2.639040993605319962e-01
9.739999999999999769e-01,-3.408491241443522002e-01,-1.279414571405683432e-01,2.670733439521789099e-01
9.749999999999999778e-01,-1.915943487952824764e-01,-1.080945964135615195e-01,1.925764450886005841e-01
9.759999999999999787e-01,4.918636253458010671e-02,-1.289367716012956300e-01,7.708107289291185604e-02
9.769999999999999796e-01,2.882985033824009835e-01,-2.030562141618996452e-01,1.384061681355070253e-02
9.779999999999999805e-01,4.675414265141318304e-01,-2.551353973355095506e-01,-2.779708605062532201e-02
9.789999999999999813e-01,4.603877271099018897e-01,-1.890906666499664879e-01,-1.147868640586370212e-02
9.799999999999999822e-01,3.079472909509138323e-01,-7.429281073611887498e-02,-3.624820444308837070e-02
9.809999999999999831e-01,1.129161747194227933e-01,1.048681433412568670e-01,-5.794754828259064683e-02
9.819999999999999840e-01,-4.464980953689176579e-02,2.759447297706689728e-01,-1.193686694480070865e-01
9.829999999999999849e-01,-1.506052537278862735e-01,3.950999954470552633e-01,-1.860986597787441799e-01
9.839999999999999858e-01,-1.611456260623561620e-01,3.659715457155175433e-01,-2.227100284938784702e-01
9.849999999999999867e-01,-1.277696884190851478e-01,2.102346513776464643e-01,-1.998613720445515107e-01
9.859999999999999876e-01,-1.263846524369537927e-01,3.664569979692395424e-02,-7.353964799538731389e-02
9.869999999999999885e-01,-1.986917473451692007e-01,-1.184978732148329744e-01,8.509284167288451439e-02
9.879999999999999893e-01,-2.812443331610688935e-01,-2.077200796746096201e-01,2.197785162029371187e-01
9.889999999999999902e-01,-3.007621260610959801e-01,-1.945285765220211571e-01,3.003112026846813665e-01
9.899999999999999911e-01,-2.294548542291917625e-01,-1.288971358335286588e-01,2.326049380466840288e-01
9.909999999999999920e-01,2.971218206956901045e-02,-1.196231701794386176e-01,1.381776069498875936e-01
9.919999999999999929e-01,2.447709694860477625e-01,-1.375487586923386518e-01,-1.683731845341458668e-03
9.929999999999999938e-01,4.269121031129338717e-01,-1.745110384875242227e-01,-2.189438373533547991e-02
9.939999999999999947e-01,4.503043880709058921e-01,-1.811442793909039395e-01,-8.858135457729315876e-02
9.949999999999999956e-01,3.484286713430682636e-01,-7.838423015912342195e-02,-6.608190424315307787e-02
9.959999999999999964e-01,1.359694189144981247e-01,9.746978742565073905e-02,-5.265393155359970184e-02
9.969999999999999973e-01,-5.176889871548152194e-02,2.664595012075193226e-01,-8.974862371601256827e-02
9.979999999999999982e-01,-1.918378330945252896e-01,3.894193638269009550e-01,-1.217700773509635265e-01
9.989999999999999991e-01,-2.144505562034112189e-01,3.578816114936342330e-01,-2.001606737827464066e-01
1.000000000000000000e+00,-1.665452982794556058e-01,2.015848800439496991e-01,-1.746738334162011852e-01
1.000999999999999890e+00,-1.388761935517928425e-01,-2.439225605478172101e-03,-1.105657236198584192e-01
1.002000000000000002e+00,-1.817656431659339378e-01,-1.824160989484925888e-01,2.050630615814513433e-02
1.002999999999999892e+00,-1.957607966832556334e-01,-2.103809120057660853e-01,1.740089188973006906e-01
1.004000000000000004e+00,-2.560596649929516855e-01,-2.233875169353554402e-01,2.734251029671979083e-01
1.004999999999999893e+00,-1.954788645490074805e-01,-1.504106403182246532e-01,2.832883100127117082e-01
1.006000000000000005e+00,-2.435634896550653572e-02,-1.023808640110916018e-01,2.067050730246234591e-01
1.006999999999999895e+00,1.877806176660982151e-01,-1.082526540139751997e-01,4.189982132702809586e-02
1.008000000000000007e+00,3.997073485226462775e-01,-1.288360638678416603e-01,-3.864623400806362769e-02
1.008999999999999897e+00,4.869422162862908077e-01,-1.459135561777195889e-01,-1.225252146047750151e-01
1.010000000000000009e+00,4.080401382562933721e-01,-4.003611316197325243e-02,-1.254750212408438370e-01
1.010999999999999899e+00,2.245674689947510239e-01,1.027544929281681563e-01,-1.090013956692556796e-01
1.012000000000000011e+00,-2.543367866213444919e-02,2.703426785293439050e-01,-6.337256923653966645e-02
1.012999999999999901e+00,-2.109703906624768310e-01,3.444450791014087576e-01,-1.037681208405443894e-01
1.014000000000000012e+00,-2.854870405678536782e-01,3.621449988728204228e-01,-1.608158627202897484e-01
1.014999999999999902e+00,-2.575819082609030475e-01,2.462070959894843147e-01,-1.650693208065456274e-01
1.016000000000000014e+00,-1.702336042048925024e-01,3.118062345684530223e-02,-1.407183253057098515e-01
1.016999999999999904e+00,-1.426042576647307270e-01,-1.843599257865124186e-01,-1.790289310362436909e-02
1.018000000000000016e+00,-1.565519024963155925e-01,-2.531570448575214405e-01,1.566108958966770937e-01
1.018999999999999906e+00,-1.722586373405641247e-01,-2.830231659005283396e-01,2.563351556255057395e-01
1.020000000000000018e+00,-1.568793255787021557e-01,-1.846795891011544510e-01,2.887734412851029608e-01
1.020999999999999908e+00,-5.313669544680402201e-02,-1.065919261615005109e-01,2.237287987002408163e-01
1.022000000000000020e+00,1.445564495690401241e-01,-7.292892467158858250e-02,1.164143823467334027e-01
1.022999999999999909e+00,3.228175046453147790e-01,-1.053753383433751190e-01,-2.460707324433227677e-02
1.024000000000000021e+00,4.738902486101078670e-01,-6.931227301568904098e-02,-1.273560852831577550e-01
1.024999999999999911e+00,4.473238629543598854e-01,-2.467769785498283644e-02,-1.393296170645599297e-01
1.026000000000000023e+00,2.620817460329821214e-01,5.844014536627140793e-02,-1.381916659809524772e-01
1.026999999999999913e+00,-3.065676644476498895e-03,2.211581886394355101e-01,-1.244200931801838217e-01
1.028000000000000025e+00,-2.236637409284654154e-01,3.312620764025166475e-01,-7.983094392619285995e-02
1.028999999999999915e+00,-3.165984821905440949e-01,3.233384574708800252e-01,-9.774854690438729288e-02
1.030000000000000027e+00,-3.136755151767778860e-01,2.190175064463489030e-01,-1.221063866949768650e-01
1.030999999999999917e+00,-2.178295382240321432e-01,1.797183365897225479e-02,-1.097033445705700855e-01
1.032000000000000028e+00,-1.387655653368139175e-01,-1.725256022818165702e-01,-5.831022559248594944e-02
1.032999999999999918e+00,-1.026584432458069462e-01,-2.972387690899507828e-01,7.095346091135279476e-02
1.034000000000000030e+00,-1.015889654341921439e-01,-3.117160153740153317e-01,1.905727386390654865e-01
1.034999999999999920e+00,-1.087106428393032342e-01,-2.355416184121141010e-01,2.815930827165649131e-01
1.036000000000000032e+00,-4.758813983417047727e-02,-1.250010837798513630e-01,2.792877455739335435e-01
1.036999999999999922e+00,1.127927314733178504e-01,-4.129843683583150904e-02,1.802217118640636884e-01
1.038000000000000034e+00,2.999493357711278674e-01,6.547184116057881351e-03,8.307735112719656645e-03
1.038999999999999924e+00,4.316409371049750865e-01,3.308690104388910258e-03,-1.201597027909842436e-01
1.040000000000000036e+00,4.225199680575001393e-01,-4.219305113659548370e-03,-2.131284518470024369e-01
1.040999999999999925e+00,2.904077536716510588e-01,6.954059475957775904e-02,-1.943676667399428237e-01
1.042000000000000037e+00,6.248722098553084053e-02,2.103292001678885859e-01,-1.284691953934442021e-01
1.042999999999999927e+00,-2.079335968015664782e-01,3.089861683043171880e-01,-1.028305076990956579e-01
1.044000000000000039e+00,-3.521587730377188086e-01,3.314753538679579004e-01,-6.629638384349101354e-02
1.044999999999999929e+00,-3.704595091960097286e-01,2.363733065138942935e-01,-5.444656045269390815e-02
1.046000000000000041e+00,-3.031295118561341817e-01,5.841716972520630269e-02,-8.063472632680961094e-02
1.046999999999999931e+00,-1.771106595359209779e-01,-1.454956914728962047e-01,-4.915693964498481922e-02
1.048000000000000043e+00,-8.923767560758509576e-02,-3.164110716892631903e-01,5.009504940213561214e-02
1.048999999999999932e+00,-2.859837671760267347e-02,-3.252599373837763430e-01,1.454795745913499139e-01
1.050000000000000044e+00,-1.884115593502509386e-02,-2.800358091036435071e-01,2.375872175931249830e-01
1.050999999999999934e+00,-2.555185063829033473e-02,-1.449058380421483216e-01,2.759658780679433709e-01
1.052000000000000046e+00,7.790048486394740568e-02,-8.790458709313770172e-03,2.240010398108628065e-01
1.052999999999999936e+00,2.073516214655747869e-01,5.141358647563932377e-02,6.683633999292647176e-02
1.054000000000000048e+00,3.869246485836218552e-01,6.506271429255280903e-02,-8.900657268368131203e-02
1.054999999999999938e+00,4.178746048243518474e-01,7.364445228007247823e-02,-1.970431013718838553e-01
1.056000000000000050e+00,3.496116726065575109e-01,7.717209600590416163e-02,-2.258865804981524672e-01
1.056999999999999940e+00,1.045608759794290493e-01,1.500701766892209854e-01,-1.826737981818516432e-01
1.058000000000000052e+00,-1.570753704876332035e-01,2.561630803520401622e-01,-9.781009359746936638e-02
1.058999999999999941e+00,-3.482462207136469146e-01,2.871969084993957755e-01,-5.656321642545377587e-02
1.060000000000000053e+00,-4.185325005411503207e-01,2.255293339416915566e-01,-3.879738970893534256e-02
1.060999999999999943e+00,-3.603609120315036662e-01,4.298225953241013170e-02,-3.108076535959865966e-02
1.062000000000000055e+00,-2.296302960287412431e-01,-1.402978851251316661e-01,-3.257722390213708963e-02
1.062999999999999945e+00,-6.418724421925474377e-02,-3.325612398497450606e-01,2.529198479114117687e-02
1.064000000000000057e+00,4.306928286786994992e-02,-3.988164383996162243e-01,9.125638422703044594e-02
1.064999999999999947e+00,2.972855683714248701e-02,-3.093848859303902632e-01,2.114614588299764952e-01
1.066000000000000059e+00,3.485080470386769935e-02,-1.680578682779153010e-01,2.485821951368318850e-01
1.066999999999999948e+00,6.261406603889521638e-02,3.942001915278740484e-03,2.372767456592893287e-01
1.068000000000000060e+00,1.916139549437201606e-01,8.488246744507302322e-02,1.219912300678405448e-01
1.068999999999999950e+00,3.078421741489248964e-01,1.135277509108678917e-01,5.738495110826584812e-04
1.070000000000000062e+00,3.742267444613918137e-01,1.168016311464161183e-01,-1.891597712244106888e-01
1.070999999999999952e+00,3.446981137925257399e-01,1.023709449894005669e-01,-2.317684032788433768e-01
1.072000000000000064e+00,1.579958130165355079e-01,1.204055441501657026e-01,-2.297562830051822769e-01
1.072999999999999954e+00,-7.617145386850630862e-02,2.099431667388831080e-01,-1.569178450408652281e-01
1.074000000000000066e+00,-3.525798415066643265e-01,2.627535380980821622e-01,-7.884085809253706112e-02
1.074999999999999956e+00,-4.535345180381346597e-01,2.053766398118782310e-01,-5.206863276173903134e-03
1.076000000000000068e+00,-4.048972116561732060e-01,5.975020090577112808e-02,1.053874037439367535e-02
1.076999999999999957e+00,-2.425984333809026450e-01,-1.373933970013108963e-01,9.090728883888522446e-03
1.078000000000000069e+00,-8.048115229073185550e-02,-3.238565113213180968e-01,-6.533296079768588505e-03
1.078999999999999959e+00,6.912394492753035080e-02,-3.877321150252175941e-01,7.588997179375102375e-02
1.080000000000000071e+00,9.375049064867715942e-02,-3.241921894670831694e-01,1.332332331271741666e-01
1.080999999999999961e+00,1.004878530382767032e-01,-1.496138152086492201e-01,2.075926436970546574e-01
1.082000000000000073e+00,1.031338444726196818e-01,7.755050581619564454e-03,2.455927810576281345e-01
1.082999999999999963e+00,1.343126430549435590e-01,1.199376735956969725e-01,1.728670983237966530e-01
1.084000000000000075e+00,2.334927829927099519e-01,1.645006011617609620e-01,2.283135948957007444e-02
1.084999999999999964e+00,3.231492127375566459e-01,1.642186000338405893e-01,-1.219391489243340787e-01
1.086000000000000076e+00,3.183127645881036472e-01,1.145312425094978520e-01,-2.264690778427531359e-01
1.086999999999999966e+00,1.823319548648478228e-01,1.315947719866475685e-01,-2.545030169425443467e-01
1.088000000000000078e+00,-1.905698211260701061e-02,1.590535018376492138e-01,-1.958174218588422943e-01
1.088999999999999968e+00,-2.789953940903340812e-01,1.834429344162092912e-01,-1.161828565380287337e-01
1.090000000000000080e+00,-4.431190338675233265e-01,1.654104405802566402e-01,1.580894634572112614e-02
1.090999999999999970e+00,-4.567022510723834916e-01,6.213684910848522869e-02,4.894689575917078594e-02
1.092000000000000082e+00,-3.044707015855688259e-01,-1.172014734179379764e-01,6.823634057032017253e-02
1.092999999999999972e+00,-9.950667716738827162e-02,-3.057527284781837440e-01,3.237995766070676101e-02
1.094000000000000083e+00,7.654698626083271396e-02,-3.679763191196893102e-01,6.214485222090030542e-02
1.094999999999999973e+00,1.801316470900500011e-01,-3.499977593503787454e-01,1.234870194635998841e-01
1.096000000000000085e+00,1.724849236995837365e-01,-1.974267559754370183e-01,1.501558386809118129e-01
1.096999999999999975e+00,1.351795813886165210e-01,2.173711157138001268e-02,2.136122981212152938e-01
1.098000000000000087e+00,1.367399436772842869e-01,1.671945325772818680e-01,1.815505048020346068e-01
1.098999999999999977e+00,1.919233586143019310e-01,2.348128459108235200e-01,1.053839819995132515e-01
1.100000000000000089e+00,2.426770863210377660e-01,2.071044392384169819e-01,-5.723019338171163317e-02
1.100999999999999979e+00,2.770287873066279993e-01,1.386237851382606245e-01,-2.101750367699686539e-01
1.102000000000000091e+00,1.573105570601856518e-01,1.396662756790190141e-01,-3.037337755582067422e-01
1.102999999999999980e+00,-1.029886987540268133e-02,1.554446142674304754e-01,-2.756609747527410392e-01
1.104000000000000092e+00,-2.291291496207960576e-01,1.105569504324878244e-01,-1.477793128969540626e-01
1.104999999999999982e+00,-4.328497662020933112e-01,1.176912276562707416e-01,-2.346970063856660890e-02
1.106000000000000094e+00,-4.967469352486468259e-01,4.747644819409254507e-02,4.826754732165041556e-02
1.106999999999999984e+00,-3.586899547416897427e-01,-1.329792996034067365e-01,8.374942403990399964e-02
1.108000000000000096e+00,-1.617260226515944976e-01,-2.781224595237870578e-01,1.010463203445829544e-01
1.108999999999999986e+00,6.380681379168064160e-02,-3.479667460671624912e-01,7.152534763848492072e-02
1.110000000000000098e+00,2.343232561707384309e-01,-3.585214714642176448e-01,7.533354151650754893e-02
1.110999999999999988e+00,2.739798488709583868e-01,-2.353974708915391179e-01,1.265609823394631128e-01
1.112000000000000099e+00,2.123881543289893037e-01,7.988963868031304788e-03,1.746041305138752997e-01
1.112999999999999989e+00,1.468499336324514681e-01,1.769196825394294681e-01,1.494304931567051742e-01
1.114000000000000101e+00,1.662773521407124033e-01,2.826366759315209753e-01,9.081577302119164807e-02
1.114999999999999991e+00,1.933700735805229387e-01,2.512419386869898519e-01,-4.290826326764780180e-02
1.116000000000000103e+00,1.984562751930673830e-01,1.463815076243806801e-01,-1.649426938304732193e-01
1.116999999999999993e+00,1.816303280011842824e-01,1.149770552833558890e-01,-2.647354483321133212e-01
1.118000000000000105e+00,2.629990455699589280e-02,8.117008422892448005e-02,-2.561762580119661958e-01
1.118999999999999995e+00,-1.785250863374578945e-01,8.000193047524419010e-02,-2.101898740960641554e-01
1.120000000000000107e+00,-3.781309623506621809e-01,8.397286860383006146e-02,-7.539437932765435946e-02
1.120999999999999996e+00,-4.754867356624971619e-01,2.248220458612141745e-02,4.214965192359371865e-02
1.122000000000000108e+00,-4.208940448651744548e-01,-1.025663141102966525e-01,1.329638185767089975e-01
1.122999999999999998e+00,-2.215970571795221888e-01,-2.529791861759483340e-01,1.234835058203006403e-01
1.124000000000000110e+00,4.493373870607719062e-02,-3.587790906898579713e-01,1.135815682162396728e-01
1.125000000000000000e+00,2.231908682494319895e-01,-3.475539617834491612e-01,1.084495498410467940e-01
1.125999999999999890e+00,2.900367464615542512e-01,-1.914975543690178861e-01,1.070610685376309767e-01
1.127000000000000002e+00,2.736961019580388399e-01,2.450081008712536729e-02,1.222487783272438039e-01
1.127999999999999892e+00,2.205572565894245440e-01,1.917292866927546857e-01,1.249806811636965942e-01
1.129000000000000004e+00,1.283077941258839172e-01,2.871629305059458792e-01,1.105799144728695227e-01
1.129999999999999893e+00,1.179358969070290614e-01,2.882797106267461773e-01,1.235929461134914129e-02
1.131000000000000005e+00,1.134651322272963309e-01,2.120855220500679206e-01,-1.209891240651027877e-01
1.131999999999999895e+00,1.209546408893671238e-01,1.005721016325313993e-01,-2.608468845904101108e-01
1.133000000000000007e+00,2.896530903561375658e-02,4.357446743457711602e-02,-2.760148914818920662e-01
1.133999999999999897e+00,-1.516145396738363960e-01,2.716818744486174456e-02,-2.615695202702124078e-01
1.135000000000000009e+00,-3.309453673357506398e-01,2.552321152210275390e-02,-1.330623969770780013e-01
1.135999999999999899e+00,-4.625027197811463764e-01,6.508806625291598674e-03,4.968200975589086819e-03
1.137000000000000011e+00,-4.478945402086415006e-01,-8.425320050759975421e-02,1.305635288353682588e-01
1.137999999999999901e+00,-2.684781980365236187e-01,-2.050609361934505326e-01,1.924837403404051350e-01
1.139000000000000012e+00,-1.538394525571016788e-02,-3.219123879371746932e-01,1.773219643839032411e-01
1.139999999999999902e+00,2.364036040977797182e-01,-3.224522932852347812e-01,8.478312063247252228e-02
1.141000000000000014e+00,3.743212484185688971e-01,-1.905343485021728234e-01,9.638111015888185806e-02
1.141999999999999904e+00,3.682416877937724764e-01,-2.514505275648898364e-02,6.363106050690328641e-02
1.143000000000000016e+00,2.650561775207717075e-01,1.791047778740829932e-01,8.262146734502701095e-02
1.143999999999999906e+00,1.538520316564359336e-01,3.305471749117930291e-01,1.028778693095441510e-01
1.145000000000000018e+00,6.858178111086250806e-02,3.350987075549576311e-01,3.789704707446307080e-02
1.145999999999999908e+00,6.229834298704201023e-02,2.356054588958667317e-01,-5.838031515053376808e-02
1.147000000000000020e+00,2.802615727892682554e-02,1.079983549091679262e-01,-1.846540119634024202e-01
1.147999999999999909e+00,2.553790750317741151e-02,-7.843867845192970326e-03,-2.990794081264703252e-01
1.149000000000000021e+00,-8.679959981695560545e-02,-3.499181077396085193e-02,-2.429319118427141488e-01
1.149999999999999911e+00,-2.733600687735256440e-01,-4.616990103668880407e-02,-1.864770362917083923e-01
1.151000000000000023e+00,-4.112758029692970552e-01,-3.800245146355945430e-02,-5.798370074343071889e-02
1.151999999999999913e+00,-4.213816176447207074e-01,-8.574107480878748189e-02,8.663522356637277932e-02
1.153000000000000025e+00,-2.916183250586518172e-01,-1.973919530888341711e-01,1.981027203103296885e-01
1.153999999999999915e+00,-4.689820391288299084e-02,-2.785200415679355834e-01,1.990817436765637272e-01
1.155000000000000027e+00,2.103004674518982875e-01,-2.934450305194432063e-01,1.689908245310728363e-01
1.155999999999999917e+00,3.846695271286607598e-01,-2.064652576326208855e-01,8.321397303428847148e-02
1.157000000000000028e+00,4.256072555893326559e-01,-2.568698878743237018e-02,5.845065935765846044e-02
1.157999999999999918e+00,3.200266457952164467e-01,1.958235824409697290e-01,5.937759913545923030e-02
1.159000000000000030e+00,1.874241314532411051e-01,3.216311760831569999e-01,4.610729951795165815e-02
1.159999999999999920e+00,3.003910159057347762e-02,3.643284228167056882e-01,3.483258054377263296e-02
1.161000000000000032e+00,-4.135955850539959483e-02,2.623347375884645394e-01,-3.171418069558751968e-02
1.161999999999999922e+00,-7.770295418213933950e-03,1.197226105828288617e-01,-1.188865500696414251e-01
1.163000000000000034e+00,-1.819839890401487442e-02,-3.361577675015109401e-02,-2.163951161202469220e-01
1.163999999999999924e+00,-7.335641539074948259e-02,-9.424503059203530320e-02,-2.654461701988585220e-01
1.165000000000000036e+00,-2.238181824311974433e-01,-1.131601715819561399e-01,-1.940327910838058056e-01
1.165999999999999925e+00,-3.467745954244509932e-01,-8.698012550810153842e-02,-8.299533903293238035e-02
1.167000000000000037e+00,-4.218917084711388266e-01,-1.248800162523736185e-01,7.967574602074432855e-02
1.167999999999999927e+00,-3.140061886091619625e-01,-1.551040096038104332e-01,1.984536361198870891e-01
1.169000000000000039e+00,-9.242092599749893167e-02,-2.442592421045514106e-01,2.588708622255397884e-01
1.169999999999999929e+00,1.406451814127078481e-01,-2.518011917979106062e-01,2.304821340977720734e-01
1.171000000000000041e+00,3.839339758748111509e-01,-1.975025008512324709e-01,1.273745504875760659e-01
1.171999999999999931e+00,4.544064129969271337e-01,-4.012676388413415757e-02,3.772990431994972110e-02
1.173000000000000043e+00,3.727463417231702270e-01,1.827150149141470725e-01,-2.844095460303709363e-04
1.173999999999999932e+00,2.126873318747560804e-01,3.281621710369243550e-01,9.600042974758400335e-03
1.175000000000000044e+00,4.173417942728722269e-02,3.717112232572701291e-01,-2.737181461374812996e-02
1.175999999999999934e+00,-5.374137013351221875e-02,2.787670777418639889e-01,-2.987459778638237515e-02
1.177000000000000046e+00,-1.183604068772257933e-01,1.292174825547586225e-01,-7.223983431938593713e-02
1.177999999999999936e+00,-1.103591636912444746e-01,-2.797352500938651496e-02,-1.651586424223029925e-01
1.179000000000000048e+00,-1.158817282122259207e-01,-1.233878642679881593e-01,-2.346753887002808181e-01
1.179999999999999938e+00,-1.889415419700395116e-01,-1.741606995266799240e-01,-2.461201319436276680e-01
1.181000000000000050e+00,-2.815854333675006371e-01,-1.089198891431062549e-01,-1.228267406405697815e-01
