time,acc_x,acc_y,acc_z
0.000000000000000000e+00,4.724644174261897200e-01,3.534955412037659728e-01,2.862184830082250553e-01
1.000000000000000021e-03,1.201733036896499435e-01,3.934222435088390729e-02,1.319928962254247884e-01
2.000000000000000042e-03,-3.482777680582007651e-01,-3.258437338921376658e-01,-1.601071357743711898e-01
3.000000000000000062e-03,-4.542479985576358126e-01,-3.519669637248239447e-01,-2.831199147677136430e-01
4.000000000000000083e-03,-1.220475729391003600e-01,-1.640862360661613298e-02,-1.421119073309149716e-01
5.000000000000000104e-03,3.150936836583959066e-01,3.186022133517198429e-01,1.431833665552127710e-01
6.000000000000000125e-03,4.665887833491776937e-01,3.375587630981354836e-01,2.841820782958613956e-01
7.000000000000000146e-03,1.290619834428883561e-01,2.075726205973415367e-02,1.639651944340940748e-01
8.000000000000000167e-03,-3.216809060866409054e-01,-3.296431148820755941e-01,-1.340664302825626819e-01
8.999999999999999320e-03,-4.841008644938320504e-01,-3.403540093695434643e-01,-2.892381505121714436e-01
1.000000000000000021e-02,-1.596509576766040328e-01,-1.602814483811266372e-02,-1.645588416703340773e-01
1.099999999999999936e-02,3.249835861423318040e-01,3.226032187767301496e-01,1.142772619111133148e-01
1.200000000000000025e-02,4.654534764908087041e-01,3.329159238722219638e-01,3.042896170321809368e-01
1.299999999999999940e-02,1.667561810658277910e-01,2.996447688342582325e-03,1.852745071912608732e-01
1.400000000000000029e-02,-3.414473062934663683e-01,-3.321445965109764420e-01,-8.868764296052963902e-02
1.499999999999999944e-02,-4.834612559082940852e-01,-3.363584479683676687e-01,-2.743210327649485136e-01
1.600000000000000033e-02,-1.643418828381656149e-01,7.021207466901304740e-03,-1.807701797482814121e-01
1.700000000000000122e-02,3.037288200821302575e-01,3.328261725006533833e-01,1.001326701020972265e-01
1.799999999999999864e-02,4.826478862298781980e-01,3.242025492090613858e-01,2.692533423710604112e-01
1.899999999999999953e-02,1.714906903156805940e-01,-5.842063064981545956e-03,1.974377510417598958e-01
2.000000000000000042e-02,-2.993205176645964416e-01,-3.483210401547756629e-01,-8.532928237575430896e-02
2.100000000000000130e-02,-4.851154152728854307e-01,-3.380298624575877597e-01,-2.856195576275509795e-01
2.199999999999999872e-02,-1.875541658610094531e-01,2.830935561554455762e-02,-2.113261628774222023e-01
2.299999999999999961e-02,2.720851951779037492e-01,3.367177988781227538e-01,6.560028441129282795e-02
2.400000000000000050e-02,4.829300086863909103e-01,3.061712475366825115e-01,2.648841197239251710e-01
2.500000000000000139e-02,2.092506063004407890e-01,-2.211356159952820172e-02,2.363109418451341537e-01
2.599999999999999881e-02,-2.919114321899026754e-01,-3.568869724332044968e-01,-5.873822096005388432e-02
2.699999999999999969e-02,-4.988421776055103618e-01,-3.344266396070976199e-01,-2.629122101965310487e-01
2.800000000000000058e-02,-1.826069219671667132e-01,2.354334130275511847e-02,-2.156413922456804633e-01
2.900000000000000147e-02,2.727085057316684935e-01,3.405640500676689886e-01,3.654151397828656056e-02
2.999999999999999889e-02,4.923263630741847030e-01,3.134895507024159644e-01,2.543780829398225030e-01
3.099999999999999978e-02,2.024393462839056967e-01,-4.234363134827584529e-03,2.306039535097514359e-01
3.200000000000000067e-02,-2.637035543181389108e-01,-3.494970675309580499e-01,-1.446269576443235533e-02
3.300000000000000155e-02,-4.844365026206934877e-01,-3.190210265012696222e-01,-2.601192989185595605e-01
3.400000000000000244e-02,-2.104317684992110249e-01,2.390672668619767474e-02,-2.365788450883307137e-01
3.500000000000000333e-02,2.715994339979282968e-01,3.365478867048481426e-01,7.927298444357647189e-03
3.599999999999999728e-02,4.735096217815100150e-01,3.353067906711867940e-01,2.301495642044693035e-01
3.699999999999999817e-02,2.209828307848266948e-01,-3.335099924487527900e-02,2.568855301328923368e-01
3.799999999999999906e-02,-2.798408891099612994e-01,-3.388751684864819702e-01,1.706971159413570027e-02
3.899999999999999994e-02,-4.856026229385295157e-01,-3.303443551195939798e-01,-2.291704431200343173e-01
4.000000000000000083e-02,-2.311168639561348992e-01,2.691295614541083098e-02,-2.609864278531304760e-01
4.100000000000000172e-02,2.425373866945728374e-01,3.547830656495390422e-01,-3.237805321504069050e-02
4.200000000000000261e-02,4.700515637641090594e-01,3.182190382451369759e-01,2.383069794406399711e-01
4.299999999999999656e-02,2.554373526727168886e-01,-3.709634084469410481e-02,2.549116181508576662e-01
4.399999999999999745e-02,-2.304396878567944729e-01,-3.484267538925702179e-01,3.406944473020907804e-02
4.499999999999999833e-02,-4.805630642817170228e-01,-3.116664371930012445e-01,-2.322523512101632714e-01
4.599999999999999922e-02,-2.538933804295981922e-01,4.371521698670369910e-02,-2.733626875140096057e-01
4.700000000000000011e-02,2.394655471635312449e-01,3.588775642905484564e-01,-6.368097064758110326e-02
4.800000000000000100e-02,4.877743577380354023e-01,3.140300913234142510e-01,2.052553051271332196e-01
4.900000000000000189e-02,2.670059085072081784e-01,-5.695979617603252887e-02,2.851621979950342278e-01
5.000000000000000278e-02,-2.189718295130204939e-01,-3.632137025504214023e-01,6.214317000573340438e-02
5.099999999999999672e-02,-4.751228039192399444e-01,-2.923359914830671036e-01,-2.213527156192785228e-01
5.199999999999999761e-02,-2.584792953391166215e-01,4.867694556756500118e-02,-2.851330711310688382e-01
5.299999999999999850e-02,2.069683670365618511e-01,3.579704135227683715e-01,-7.595313325838094765e-02
5.399999999999999939e-02,4.754619520533339694e-01,2.975193904815307544e-01,1.711886838516228637e-01
5.500000000000000028e-02,2.655373780504214354e-01,-6.578464716699007619e-02,2.908047066050178375e-01
5.600000000000000117e-02,-2.131280045816691671e-01,-3.673052236750365407e-01,9.796399181492848607e-02
5.700000000000000205e-02,-4.596953294907050180e-01,-3.122684009909647007e-01,-1.797995178286861673e-01
5.800000000000000294e-02,-2.968738038751068675e-01,7.070582153411281157e-02,-3.035128722464779938e-01
5.899999999999999689e-02,2.072516278374476606e-01,3.671595385594010885e-01,-1.112931520937432972e-01
5.999999999999999778e-02,4.797933464831331540e-01,2.915065086142564210e-01,1.709172999934869264e-01
6.099999999999999867e-02,3.024231294497550793e-01,-7.666303908242071141e-02,2.973826250353387990e-01
6.199999999999999956e-02,-1.751804758206297330e-01,-3.685169409800314599e-01,1.179929332440709522e-01
6.300000000000000044e-02,-4.892063262169754068e-01,-2.899601659933355169e-01,-1.540280490661149471e-01
6.400000000000000133e-02,-3.115998275068079248e-01,7.141036290393362740e-02,-2.997459531143102929e-01
6.500000000000000222e-02,1.827603343901752775e-01,3.580382686372561851e-01,-1.311363110141039734e-01
6.600000000000000311e-02,4.874549479634862625e-01,2.896124864185989911e-01,1.444358843674355408e-01
6.700000000000000400e-02,3.218840042777968424e-01,-5.962283303178877308e-02,2.842243158466223885e-01
6.800000000000000488e-02,-1.639405056784133952e-01,-3.480602604578769133e-01,1.401052277323617534e-01
6.900000000000000577e-02,-4.706793516552443268e-01,-3.028041807220566151e-01,-1.384574893543277785e-01
7.000000000000000666e-02,-3.236099094930078302e-01,7.361342198494383315e-02,-2.902754422364199338e-01
7.099999999999999367e-02,1.754748149839699123e-01,3.623362816205663584e-01,-1.501268241246603019e-01
7.199999999999999456e-02,4.695353632227591834e-01,2.742962794085243017e-01,1.058614000395502880e-01
7.299999999999999545e-02,3.276359293688594909e-01,-7.587457649240632318e-02,2.777337004831104128e-01
7.399999999999999634e-02,-1.460618062277457552e-01,-3.703387929597598549e-01,1.661768138535927586e-01
7.499999999999999722e-02,-4.602619918807771549e-01,-2.838629610344337584e-01,-1.000029819872626236e-01
7.599999999999999811e-02,-3.158361374790912834e-01,9.946995719564910576e-02,-2.780804114024361118e-01
7.699999999999999900e-02,1.342026594460347666e-01,3.750898534132174333e-01,-1.821608955956437736e-01
7.799999999999999989e-02,4.628335072472384848e-01,2.938428582089321339e-01,1.180580596142063177e-01
7.900000000000000078e-02,3.292737005617920043e-01,-7.754410640632615481e-02,2.874746911766938307e-01
8.000000000000000167e-02,-1.334398559874867551e-01,-3.759386097809790939e-01,1.990173633931600072e-01
8.100000000000000255e-02,-4.685041431631292719e-01,-2.756277682188509881e-01,-6.668189777826856457e-02
8.200000000000000344e-02,-3.289364153588664186e-01,9.906169783223434111e-02,-2.656011624507635949e-01
8.300000000000000433e-02,1.327233238807681293e-01,3.890127158335792701e-01,-2.135491274135249140e-01
8.400000000000000522e-02,4.589036678695007088e-01,2.727052892697355846e-01,7.781680919396373464e-02
8.500000000000000611e-02,3.494546515062013081e-01,-9.472412127143341187e-02,2.843084644631120872e-01
8.599999999999999312e-02,-1.174599766178876376e-01,-3.761919109663165450e-01,2.286559295924666946e-01
8.699999999999999400e-02,-4.572626162797046034e-01,-2.602509781996250604e-01,-5.608127002541342387e-02
8.799999999999999489e-02,-3.373069274076910817e-01,9.693283631356054697e-02,-2.771827177181846458e-01
8.899999999999999578e-02,1.078996513735445972e-01,3.811976820159294066e-01,-2.342125452770025540e-01
8.999999999999999667e-02,4.695123609415132737e-01,2.760833009462104193e-01,4.164613411124960807e-02
9.099999999999999756e-02,3.533226720787218111e-01,-1.041560516657107222e-01,2.788276695957777607e-01
9.199999999999999845e-02,-1.024340670353077049e-01,-3.606124998574066209e-01,2.353036849813719689e-01
9.299999999999999933e-02,-4.374296871392169272e-01,-2.467154133778386438e-01,-1.625852194884681162e-02
9.400000000000000022e-02,-3.640498763940575033e-01,1.242040092112296906e-01,-2.741043146394568364e-01
9.500000000000000111e-02,7.752051732037104625e-02,3.732319809627720475e-01,-2.402092750105195851e-01
9.600000000000000200e-02,4.535814481340647575e-01,2.492512279718771540e-01,8.368529520261097643e-03
9.700000000000000289e-02,3.679649967588726756e-01,-1.162040835464000499e-01,2.551969473961899770e-01
9.800000000000000377e-02,-7.108208687232853151e-02,-3.787050708817880085e-01,2.468256766421131343e-01
9.900000000000000466e-02,-4.512790981319041994e-01,-2.506632456070780335e-01,-1.298698072829258235e-04
1.000000000000000056e-01,-3.776189473689827159e-01,1.223490288024800809e-01,-2.481875767194206550e-01
1.010000000000000064e-01,6.453676601295263437e-02,3.883444835498685577e-01,-2.516877976769997804e-01
1.019999999999999934e-01,4.420132840599614865e-01,2.537227498392257141e-01,-3.366280274705803210e-02
1.029999999999999943e-01,3.745028425794180715e-01,-1.223805612121380143e-01,2.420293310962374767e-01
1.039999999999999952e-01,-6.418329702453398622e-02,-3.729376352517845827e-01,2.506842432689584399e-01
1.049999999999999961e-01,-4.530040245833121260e-01,-2.492409526005983367e-01,2.005143217304738643e-02
1.059999999999999970e-01,-3.642876450654892184e-01,1.370938686711610510e-01,-2.145852615336124869e-01
1.069999999999999979e-01,4.484873968286907930e-02,3.721937884489189829e-01,-2.597037619238530270e-01
1.079999999999999988e-01,4.418889070106830075e-01,2.436837344560018603e-01,-4.115932131127743310e-02
1.089999999999999997e-01,3.916804370053812989e-01,-1.289337950251371878e-01,2.169179557471795361e-01
1.100000000000000006e-01,-3.549748641090604701e-02,-3.745698139468319199e-01,2.739113551023642512e-01
1.110000000000000014e-01,-4.382893880814214271e-01,-2.296010835636996816e-01,7.350673727314874228e-02
1.120000000000000023e-01,-4.180379249282533682e-01,1.400499460716686517e-01,-2.158266959875653479e-01
1.130000000000000032e-01,4.941913689499480983e-02,3.858452266280379406e-01,-2.786985967319576263e-01
1.140000000000000041e-01,4.366367693646185932e-01,2.287678949948012685e-01,-7.352932224164394903e-02
1.150000000000000050e-01,4.073857523124793656e-01,-1.383803780907441883e-01,2.051776647076960225e-01
1.160000000000000059e-01,-2.234080479075207029e-02,-3.848964199704131839e-01,2.797943742560428104e-01
1.170000000000000068e-01,-4.098147948096677040e-01,-2.522758450401668684e-01,9.166954661695304873e-02
1.179999999999999938e-01,-4.030134263719584164e-01,1.527619548145044970e-01,-1.670483034692033797e-01
1.189999999999999947e-01,-5.841125643278877178e-03,3.754361930557731930e-01,-2.630920537808967841e-01
1.199999999999999956e-01,4.311689000262207694e-01,2.261976564404185042e-01,-9.984154719880275475e-02
1.209999999999999964e-01,4.275557114148036408e-01,-1.551148784496104716e-01,1.803816067516663679e-01
1.219999999999999973e-01,1.807441048848722545e-02,-3.836827785227407972e-01,2.823686566512035867e-01
1.229999999999999982e-01,-4.206252056050477917e-01,-2.533321332064185638e-01,1.283695777640029845e-01
1.239999999999999991e-01,-4.133457259212803270e-01,1.670689668542851003e-01,-1.750703356377099618e-01
1.250000000000000000e-01,-1.182313046874851684e-02,3.873550948326598964e-01,-3.026899866069826528e-01
1.260000000000000009e-01,4.083920703478044478e-01,2.236958265626515785e-01,-1.170920151253243557e-01
1.270000000000000018e-01,4.280348437458025290e-01,-1.568425482325029041e-01,1.503910025219639957e-01
1.280000000000000027e-01,2.319990504900859909e-02,-3.949995153770799461e-01,2.991640969784383208e-01
1.290000000000000036e-01,-3.926624089310212229e-01,-2.318200401675653000e-01,1.412668776833036488e-01
1.300000000000000044e-01,-4.299634234961239865e-01,1.530939694352052849e-01,-1.428217978603764093e-01
1.310000000000000053e-01,-3.255337515898724249e-02,3.833610311464895615e-01,-2.876105791892751840e-01
1.320000000000000062e-01,3.953444843680535281e-01,2.073542659861552229e-01,-1.620984198005755716e-01
1.330000000000000071e-01,4.385876115999131630e-01,-1.587724615072394485e-01,1.299493489267358748e-01
1.340000000000000080e-01,2.403804295454661441e-02,-3.850778256356942597e-01,2.967196011036172254e-01
1.350000000000000089e-01,-3.976186742518181272e-01,-2.001746170791379453e-01,1.752218992466394454e-01
1.360000000000000098e-01,-4.328651478391455920e-01,1.566750724097742131e-01,-1.133423172199849033e-01
1.370000000000000107e-01,-3.752183968620412952e-02,4.022105575754047480e-01,-2.948542668209492845e-01
1.380000000000000115e-01,3.668580343000043542e-01,2.211530023599291572e-01,-1.704241077057332132e-01
1.390000000000000124e-01,4.398781883444882190e-01,-1.674763049130293391e-01,8.261257338768876468e-02
1.400000000000000133e-01,5.473178956283708541e-02,-3.940444986924576676e-01,2.829744585640429633e-01
1.409999999999999865e-01,-3.898271596150541529e-01,-2.121515883697903393e-01,1.977819672817001662e-01
1.419999999999999873e-01,-4.540079503752680878e-01,1.877719832151250878e-01,-9.696242210881618473e-02
1.429999999999999882e-01,-6.784847453472571399e-02,3.816603329512294751e-01,-2.856247843680195242e-01
1.439999999999999891e-01,3.837197036546218243e-01,1.883398577801451146e-01,-1.945868525467656374e-01
1.449999999999999900e-01,4.569110610049436638e-01,-1.921647678195758380e-01,7.650384269415599903e-02
1.459999999999999909e-01,7.436865866456138230e-02,-3.886807961309373116e-01,2.904487797325561171e-01
1.469999999999999918e-01,-3.800774077544029073e-01,-1.977423943170266984e-01,2.190385389077059430e-01
1.479999999999999927e-01,-4.380309596296468322e-01,1.833487027842343464e-01,-6.449468868673768895e-02
1.489999999999999936e-01,-7.338978448795212273e-02,3.738678842397942792e-01,-2.732345473161607585e-01
1.499999999999999944e-01,3.577942443892103697e-01,1.916518350570871887e-01,-2.134575970747888130e-01
1.509999999999999953e-01,4.594885004506741866e-01,-1.818700773412937066e-01,4.876695353063097843e-02
1.519999999999999962e-01,9.110856488502527828e-02,-3.965885148419041606e-01,2.809033504787467606e-01
1.529999999999999971e-01,-3.746534462199712090e-01,-1.822551395382783768e-01,2.345101869677898576e-01
1.539999999999999980e-01,-4.490199046360499602e-01,1.928951294683375062e-01,-3.606290065995981786e-02
1.549999999999999989e-01,-9.981475466447384259e-02,3.946076814514731801e-01,-2.712429133539482340e-01
1.559999999999999998e-01,3.597385991013814510e-01,1.779254155406434779e-01,-2.411118485641815801e-01
1.570000000000000007e-01,4.644678087009634915e-01,-1.905194907005682281e-01,9.096529478497447294e-03
1.580000000000000016e-01,1.229524210491229064e-01,-3.769252085120841089e-01,2.488025828941253514e-01
1.590000000000000024e-01,-3.406299922604472119e-01,-1.923149626706674165e-01,2.400113494887585186e-01
1.600000000000000033e-01,-4.628236420719521460e-01,2.049307331235055984e-01,6.871081537173049335e-03
1.610000000000000042e-01,-1.240696818404079665e-01,3.749776010365813428e-01,-2.352696934520578931e-01
1.620000000000000051e-01,3.490020160926408654e-01,1.817460817269926365e-01,-2.542132316599889919e-01
1.630000000000000060e-01,4.653344714985250263e-01,-1.969881706213843786e-01,-1.617683721155839527e-02
1.640000000000000069e-01,1.277244658098625474e-01,-3.852914397918278389e-01,2.430467497648578501e-01
1.650000000000000078e-01,-3.188700914202723946e-01,-1.824877561734574993e-01,2.466057318815530752e-01
1.660000000000000087e-01,-4.655139665986995356e-01,1.978960771036737676e-01,2.853473412132978559e-02
1.670000000000000095e-01,-1.384452928859162268e-01,3.981823689165498448e-01,-2.401665657157986689e-01
1.680000000000000104e-01,3.271317171129116130e-01,1.781433136078569290e-01,-2.700786981108549423e-01
1.690000000000000113e-01,4.710302139812843625e-01,-2.187852523577146768e-01,-3.878448538642507298e-02
1.700000000000000122e-01,1.529895760348135292e-01,-4.009382415304565406e-01,2.117530682921830998e-01
1.710000000000000131e-01,-3.380199558325183706e-01,-1.881014972591792123e-01,2.938140292068734394e-01
1.719999999999999862e-01,-4.576117320187111925e-01,2.162703409154241030e-01,7.189069698836551836e-02
1.729999999999999871e-01,-1.592673495912271253e-01,3.873438724026935231e-01,-2.131300253457739380e-01
1.739999999999999880e-01,3.086289697520461783e-01,1.674622790232788705e-01,-2.864572450232689693e-01
1.749999999999999889e-01,4.749650423136567157e-01,-2.251792907800384824e-01,-7.471474245466827591e-02
1.759999999999999898e-01,1.637585183978732817e-01,-3.872937247008811368e-01,1.900010987791717065e-01
1.769999999999999907e-01,-2.947996253546910084e-01,-1.580435281009020254e-01,2.739750900054436777e-01
1.779999999999999916e-01,-4.717671530354622944e-01,2.212892069315804400e-01,8.357343355993432366e-02
1.789999999999999925e-01,-1.773529553485197752e-01,3.954863969927523426e-01,-1.995682359505528969e-01
1.799999999999999933e-01,3.027881539928944377e-01,1.698990067725093256e-01,-2.879765454772379996e-01
1.809999999999999942e-01,4.770756046545289175e-01,-2.415853383577329649e-01,-1.116394678461454792e-01
1.819999999999999951e-01,1.894677463997596345e-01,-3.826864241483987072e-01,1.640227272864875629e-01
1.829999999999999960e-01,-2.805362672414354330e-01,-1.339906421399902625e-01,2.794652223380175160e-01
1.839999999999999969e-01,-4.676662380210688807e-01,2.435374527496944608e-01,1.207399418331835950e-01
1.849999999999999978e-01,-1.832581720395475289e-01,3.740857190784036557e-01,-1.628246735534910339e-01
1.859999999999999987e-01,3.010069469419432986e-01,1.407371984173087509e-01,-2.867340254820404666e-01
1.869999999999999996e-01,4.896215889907602481e-01,-2.341446285038670527e-01,-1.272135900619517090e-01
1.880000000000000004e-01,2.005195683558866349e-01,-3.747595941002332953e-01,1.526710319628775403e-01
1.890000000000000013e-01,-2.711365750652066642e-01,-1.471257127017845112e-01,2.912551381697949804e-01
1.900000000000000022e-01,-4.851530182104031308e-01,2.392593554726808180e-01,1.313149896748167789e-01
1.910000000000000031e-01,-2.074249816799192125e-01,3.945965671081742010e-01,-1.447979986157968690e-01
1.920000000000000040e-01,2.696209319657155157e-01,1.403805227341930473e-01,-2.833790416228659792e-01
1.930000000000000049e-01,5.063020605541633801e-01,-2.359127984644324438e-01,-1.423137345163731360e-01
1.940000000000000058e-01,2.224799678494274735e-01,-3.827602703384601068e-01,1.454175381855776772e-01
1.950000000000000067e-01,-2.655040657972106977e-01,-1.375391849901385910e-01,2.715922096194244295e-01
1.960000000000000075e-01,-4.836871413111656914e-01,2.511148004758297914e-01,1.732262749177166661e-01
1.970000000000000084e-01,-2.219359660172828819e-01,3.746630056262116870e-01,-1.139402551518395312e-01
1.980000000000000093e-01,2.446165192629752294e-01,1.329297928003689566e-01,-2.912691739028293592e-01
1.990000000000000102e-01,4.778535685591747684e-01,-2.569213197367335444e-01,-1.885351907745821676e-01
2.000000000000000111e-01,2.402336037225678289e-01,-3.860988506277801546e-01,1.013290565337168769e-01
2.010000000000000120e-01,-2.459160291867809323e-01,-1.344017491786339835e-01,2.935427994850763334e-01
2.020000000000000129e-01,-4.828470729605803258e-01,2.539821045893107532e-01,1.993575892945053107e-01
2.030000000000000138e-01,-2.468131002958510734e-01,3.777837068299641499e-01,-7.661083950449722180e-02
2.039999999999999869e-01,2.363105359858377608e-01,1.261033083104820818e-01,-2.819272399906382343e-01
2.049999999999999878e-01,4.940192828816978854e-01,-2.540499619636522599e-01,-2.079989936176735721e-01
2.059999999999999887e-01,2.604020676158098069e-01,-3.834267340552334757e-01,8.463245363703029989e-02
2.069999999999999896e-01,-2.263890278118045607e-01,-9.367519180828479120e-02,2.781482471279719815e-01
2.079999999999999905e-01,-4.845558479083499903e-01,2.464920775556352639e-01,2.243838136680247342e-01
2.089999999999999913e-01,-2.788863338846728213e-01,3.857090978080608967e-01,-7.351763236014528802e-02
2.099999999999999922e-01,2.119475447855839190e-01,1.077833961047895556e-01,-2.685146090326308577e-01
2.109999999999999931e-01,4.687803750671395431e-01,-2.483754030753344277e-01,-2.160159432478681585e-01
2.119999999999999940e-01,2.812247877763505710e-01,-3.847379726933762845e-01,6.005777105866005189e-02
2.129999999999999949e-01,-1.896205428005728055e-01,-1.052299775319136682e-01,2.731393795431192317e-01
2.139999999999999958e-01,-4.819095132409956239e-01,2.563911586471148696e-01,2.271178200741409414e-01
2.149999999999999967e-01,-2.775133791154354435e-01,3.676299016468441150e-01,-3.805157009587831901e-02
2.159999999999999976e-01,1.874300866249656583e-01,1.222305652298483203e-01,-2.424913139705395237e-01
2.169999999999999984e-01,4.830147599608954900e-01,-2.629064932888268702e-01,-2.423833964476188318e-01
2.179999999999999993e-01,2.681423702349189919e-01,-3.732158410199918896e-01,1.056472790177883682e-02
2.190000000000000002e-01,-2.047939166866447058e-01,-9.797423198147767187e-02,2.422657327452719389e-01
2.200000000000000011e-01,-4.714418790245737956e-01,2.685379084980429876e-01,2.552940212068413595e-01
2.210000000000000020e-01,-2.953469566904999288e-01,3.484336815460341019e-01,-5.739183040413334269e-03
2.220000000000000029e-01,1.762041953903750180e-01,9.252341650763973302e-02,-2.523820172006107088e-01
2.230000000000000038e-01,4.796855661631250212e-01,-2.711349522040342186e-01,-2.506943486222547590e-01
2.240000000000000047e-01,3.030794478361611977e-01,-3.847394203751401398e-01,-4.232827964594548104e-03
2.250000000000000056e-01,-1.769062831905110211e-01,-9.158761704676569859e-02,2.283959921709705077e-01
2.260000000000000064e-01,-4.888285445477477675e-01,2.880686092903969597e-01,2.648444149893409705e-01
2.270000000000000073e-01,-3.178865306489390696e-01,3.728351549851656177e-01,2.955185077909737446e-02
2.280000000000000082e-01,1.684591927867797878e-01,1.050302396019381912e-01,-2.279040856423616146e-01
2.290000000000000091e-01,4.903165754025258782e-01,-2.838820450506690518e-01,-2.758653530282746402e-01
2.300000000000000100e-01,3.024825101512215730e-01,-3.561844564031408367e-01,-3.678472685687973753e-02
2.310000000000000109e-01,-1.635588927439404761e-01,-9.273577896446207058e-02,2.201372723127176245e-01
2.320000000000000118e-01,-4.852713967314034038e-01,3.042096915731002382e-01,2.880879837869659843e-01
2.330000000000000127e-01,-3.264930789625754559e-01,3.621392490356512561e-01,5.530506612749162137e-02
2.340000000000000135e-01,1.517216406555837727e-01,9.493992536853221309e-02,-2.113074230796419262e-01
2.349999999999999867e-01,4.741763633282207735e-01,-2.971270641633754761e-01,-2.737485365314660246e-01
2.359999999999999876e-01,3.373962144432495203e-01,-3.682733495716121186e-01,-8.483120643663827343e-02
2.369999999999999885e-01,-1.432595892578050756e-01,-6.643289985797785902e-02,2.052774771849121827e-01
2.379999999999999893e-01,-4.805944329069019583e-01,2.838012943860682702e-01,2.696304306245854709e-01
2.389999999999999902e-01,-3.350264313998337351e-01,3.502533695243349454e-01,7.758654957240229688e-02
2.399999999999999911e-01,1.179269705183516870e-01,7.968622538823071089e-02,-1.852290270102269487e-01
2.409999999999999920e-01,4.659563122569579385e-01,-2.837752644443123917e-01,-2.925856566781750434e-01
2.419999999999999929e-01,3.364329624737046331e-01,-3.696130628588709666e-01,-7.715953747010009800e-02
2.429999999999999938e-01,-1.125274287844219290e-01,-6.554352126447642035e-02,1.746145971801093821e-01
2.439999999999999947e-01,-4.627375203253695779e-01,2.723194201260405456e-01,2.895157069710221354e-01
2.449999999999999956e-01,-3.374299926063560329e-01,3.664325596781533023e-01,1.136343790537509696e-01
2.459999999999999964e-01,1.227323147601299957e-01,5.964166307575976406e-02,-1.748172997949052065e-01
2.469999999999999973e-01,4.763545156597409069e-01,-2.981429922783274677e-01,-2.903171003995522192e-01
2.479999999999999982e-01,3.536188448877748414e-01,-3.654338984865498352e-01,-1.212113492005245791e-01
2.489999999999999991e-01,-9.861263868468542193e-02,-5.462213977149794203e-02,1.589487543440753214e-01
2.500000000000000000e-01,-4.575726449964045428e-01,2.979384422558663537e-01,2.866543255863619466e-01
2.510000000000000009e-01,-3.514743538462450356e-01,3.571346816893317122e-01,1.382828157553795123e-01
2.520000000000000018e-01,8.762332684473590760e-02,5.395359513389885037e-02,-1.554717251436397163e-01
2.530000000000000027e-01,4.597266950939515318e-01,-3.180483557878135414e-01,-2.857101797741667393e-01
2.540000000000000036e-01,3.775837512817424302e-01,-3.601603479226961335e-01,-1.426462319580520388e-01
2.550000000000000044e-01,-8.897443375109255481e-02,-3.725277899030508127e-02,1.320690651836693985e-01
2.560000000000000053e-01,-4.604612281667590512e-01,3.169469815084213771e-01,2.850012313411864895e-01
2.570000000000000062e-01,-3.653224883170567150e-01,3.532818649457892812e-01,1.647380898608209465e-01
2.580000000000000071e-01,6.295352526041328445e-02,3.100516150172774599e-02,-1.124662646849069331e-01
2.590000000000000080e-01,4.416571120131008721e-01,-3.032412037158906948e-01,-2.711646641125919910e-01
2.600000000000000089e-01,3.940893836187164823e-01,-3.445105211407267221e-01,-1.841436160723213811e-01
2.610000000000000098e-01,-6.065159102047108786e-02,-4.100866141906003154e-02,1.013303224670870639e-01
2.620000000000000107e-01,-4.484071432648840116e-01,3.271576183633549961e-01,2.783805807796714271e-01
2.630000000000000115e-01,-3.803047362825029976e-01,3.643587081049018406e-01,1.928375959570907960e-01
2.640000000000000124e-01,5.415799882005782606e-02,3.791128827132142498e-02,-8.588216523262950930e-02
2.650000000000000133e-01,4.528305806121571409e-01,-3.133131002882026950e-01,-2.716386344542721654e-01
2.660000000000000142e-01,3.910370929704091725e-01,-3.504458799044384842e-01,-2.107988299877432137e-01
2.670000000000000151e-01,-4.297776724120738745e-02,-3.081239253245941084e-02,9.172059423262343691e-02
2.680000000000000160e-01,-4.222110895182328849e-01,3.285966430314390951e-01,2.934687642178366307e-01
2.690000000000000169e-01,-3.961211558380143272e-01,3.481242180461235347e-01,2.042053993964931813e-01
2.700000000000000178e-01,3.387763255817003577e-02,4.700360040901245540e-02,-5.718308977490980938e-02
2.710000000000000187e-01,4.409419270194022134e-01,-3.191525190501066089e-01,-2.882880763847986971e-01
2.720000000000000195e-01,3.857564921088380561e-01,-3.507954758525664851e-01,-2.090342352506237844e-01
2.730000000000000204e-01,-1.157976973944262189e-02,-2.254228441224076507e-02,5.263489873128150698e-02
2.740000000000000213e-01,-4.218605196242818933e-01,3.195137012865639226e-01,2.587465361821381649e-01
2.750000000000000222e-01,-4.171263143057802880e-01,3.479614585342383215e-01,2.305458909613153362e-01
2.760000000000000231e-01,9.412506947626414142e-03,2.575460179941602146e-02,-4.042927156667278782e-02
2.770000000000000240e-01,4.186567146253903915e-01,-3.400285100190302834e-01,-2.760039255298712413e-01
2.780000000000000249e-01,4.147312193737524577e-01,-3.423519126725276807e-01,-2.380086605603994321e-01
2.790000000000000258e-01,-1.822005256662467126e-02,-4.949783331768088180e-04,1.952893682449534374e-02
2.800000000000000266e-01,-4.073982578941781063e-01,3.207318391280868930e-01,2.641080881019033932e-01
2.810000000000000275e-01,-4.097685398959941550e-01,3.284337507930562006e-01,2.573853780789228662e-01
2.819999999999999729e-01,-5.549216774639216532e-03,7.252809427270204279e-03,-7.919199517932025423e-03
2.829999999999999738e-01,4.206688966143360409e-01,-3.477578713225349394e-01,-2.562019123188338243e-01
2.839999999999999747e-01,4.201786169839458185e-01,-3.360711801544092880e-01,-2.540122859712292125e-01
2.849999999999999756e-01,2.475779246395764382e-02,4.107785739113779810e-03,-3.499648836513363954e-03
2.859999999999999765e-01,-4.053679975227011956e-01,3.358021059062095137e-01,2.340481870816412402e-01
2.869999999999999774e-01,-4.123049847217132302e-01,3.404446477434534546e-01,2.775663012897736648e-01
2.879999999999999782e-01,-2.229151806903912833e-02,1.693342328548312972e-02,3.495001025723998983e-02
2.889999999999999791e-01,4.141167118357699239e-01,-3.489839492722495717e-01,-2.389643211430964864e-01
2.899999999999999800e-01,4.274211476642406082e-01,-3.227172788361112876e-01,-2.652039790557099708e-01
2.909999999999999809e-01,1.862346809344456178e-02,2.785842232728831178e-03,-3.848283596989390126e-02
2.919999999999999818e-01,-3.983061255751946805e-01,3.359474837689728210e-01,2.275400888294118185e-01
2.929999999999999827e-01,-4.274924499806093681e-01,3.329527930577709793e-01,2.613626576717041905e-01
2.939999999999999836e-01,-5.966979650085987852e-02,-1.443739768280124895e-02,6.247090396615510854e-02
2.949999999999999845e-01,4.050432337730979770e-01,-3.457430610191874476e-01,-2.136357858059699799e-01
2.959999999999999853e-01,4.503933129320439321e-01,-3.261566250521988897e-01,-2.903799558689160176e-01
2.969999999999999862e-01,5.639988974498050256e-02,-7.272400466036485489e-03,-6.721353967691874598e-02
2.979999999999999871e-01,-3.958381167586148552e-01,3.353194434956433545e-01,2.155627540058825953e-01
2.989999999999999880e-01,-4.415445356159037882e-01,3.331653697228194599e-01,2.933183164084623984e-01
2.999999999999999889e-01,-6.884029630706077485e-02,-2.096258934200639912e-02,7.870172888484250340e-02
3.009999999999999898e-01,3.988887922077012926e-01,-3.366252096517169945e-01,-1.904691926200524910e-01
3.019999999999999907e-01,4.542116978550126971e-01,-3.338027356905810539e-01,-2.938422008557083354e-01
3.029999999999999916e-01,6.192384032226286306e-02,1.309782285305123757e-02,-1.028248309114744297e-01
3.039999999999999925e-01,-3.705590959050588107e-01,3.423000250968352143e-01,1.700380989316152558e-01
3.049999999999999933e-01,-4.491657961395718601e-01,3.253800734632461000e-01,2.886049242225400824e-01
3.059999999999999942e-01,-8.463147954597430300e-02,-2.180477789359396359e-02,1.206518796087820700e-01
3.069999999999999951e-01,3.616182675244833389e-01,-3.451574566559894586e-01,-1.798577049318706156e-01
3.079999999999999960e-01,4.497700628762980046e-01,-3.132853603575955770e-01,-2.959152509201314896e-01
3.089999999999999969e-01,1.056084877020438961e-01,3.897216607532811433e-02,-1.268977622032296526e-01
3.099999999999999978e-01,-3.634446480814672031e-01,3.435994136574052060e-01,1.673574434952753431e-01
3.109999999999999987e-01,-4.505523833053018401e-01,3.194782635116875102e-01,2.895282385223209021e-01
3.119999999999999996e-01,-1.062167826169705120e-01,-4.235412177420561780e-02,1.307837173230158023e-01
3.130000000000000004e-01,3.605918577596838315e-01,-3.412311390007274903e-01,-1.540118375521984107e-01
3.140000000000000013e-01,4.592121372361014364e-01,-3.205205636516152423e-01,-2.870134911130001187e-01
3.150000000000000022e-01,1.257862406250945531e-01,3.280292356101352502e-02,-1.409896393565398254e-01
3.160000000000000031e-01,-3.533018796641026471e-01,3.691499778204180293e-01,1.362385760143465518e-01
3.170000000000000040e-01,-4.576620218560873421e-01,3.186900737630840585e-01,2.758219644383246294e-01
3.180000000000000049e-01,-1.064856293003518944e-01,-4.859613556654782118e-02,1.575196431491522053e-01
3.190000000000000058e-01,3.592985308003912026e-01,-3.393008590535794844e-01,-1.353330542058318320e-01
3.200000000000000067e-01,4.768859214014084524e-01,-3.191318013516877272e-01,-2.823969275372965049e-01
3.210000000000000075e-01,1.158513738613444199e-01,4.338867664453455175e-02,-1.682071555364066939e-01
3.220000000000000084e-01,-3.448392955223918976e-01,3.649829757695231547e-01,1.064408290461340001e-01
3.230000000000000093e-01,-4.774669539670630125e-01,3.107040756367747125e-01,2.966814831836254163e-01
3.240000000000000102e-01,-1.325044531479531162e-01,-4.345900143095616369e-02,1.921687041051607370e-01
3.250000000000000111e-01,3.372342340574002173e-01,-3.716823004763869509e-01,-8.585939821613312872e-02
3.260000000000000120e-01,4.703413942204107689e-01,-3.041825884495089061e-01,-2.719250728583658683e-01
3.270000000000000129e-01,1.448912069601004660e-01,6.274294718467490761e-02,-2.166150189792709624e-01
3.280000000000000138e-01,-3.288776644593364717e-01,3.569832771523741566e-01,7.671206702490848683e-02
3.290000000000000147e-01,-4.664311483836160455e-01,2.868118642692282227e-01,2.787186963550085661e-01
3.300000000000000155e-01,-1.543090855779955251e-01,-6.007558577583544529e-02,2.180468937984976485e-01
3.310000000000000164e-01,3.140390211730896275e-01,-3.723703670472170990e-01,-6.141342320718793518e-02
3.320000000000000173e-01,4.711998546424467915e-01,-3.111583586857437078e-01,-2.717361100327866930e-01
3.330000000000000182e-01,1.540219181073479437e-01,6.251726630845169663e-02,-2.182680796821176439e-01
3.340000000000000191e-01,-3.123081611031091609e-01,3.495305161194067756e-01,5.544920150585894159e-02
3.350000000000000200e-01,-4.943509620532123838e-01,2.915481697331522293e-01,2.718732080058773870e-01
3.360000000000000209e-01,-1.711040113647435690e-01,-6.827644343078419220e-02,2.372628039209420947e-01
3.370000000000000218e-01,3.234279687070814591e-01,-3.875182709555390903e-01,-3.380942165796486931e-02
3.380000000000000226e-01,4.820156125647160339e-01,-2.879515648581675857e-01,-2.534745576632648767e-01
3.390000000000000235e-01,1.940928343239463616e-01,7.872250599370084201e-02,-2.516497086628244895e-01
3.400000000000000244e-01,-3.061254988105281960e-01,3.643208857698652103e-01,2.880425313601708837e-02
3.410000000000000253e-01,-4.914413174806498974e-01,2.835018355916128496e-01,2.604222656401554148e-01
3.420000000000000262e-01,-1.839702727496058954e-01,-8.498729556125361739e-02,2.480631622643405254e-01
3.430000000000000271e-01,2.963932282662286588e-01,-3.671773906124936038e-01,-2.545535028886023940e-02
3.439999999999999725e-01,4.820042433355897771e-01,-2.758099571030275254e-01,-2.420130498060570345e-01
3.449999999999999734e-01,1.956707015771337599e-01,8.959194765727318543e-02,-2.426872444168101106e-01
3.459999999999999742e-01,-2.794535817312807091e-01,3.710962638033577510e-01,-1.169866764802795188e-02
3.469999999999999751e-01,-4.866738372666695733e-01,2.793389745866164953e-01,2.591189428861757071e-01
3.479999999999999760e-01,-2.136959637679418100e-01,-9.250665709467091602e-02,2.584181827434491319e-01
3.489999999999999769e-01,2.789023927849275108e-01,-3.647932121215269885e-01,1.072031504942063188e-02
3.499999999999999778e-01,4.803038270119528996e-01,-2.717454019840891966e-01,-2.312228568789741756e-01
3.509999999999999787e-01,2.129039230383025505e-01,1.025311792061482652e-01,-2.833808409135089024e-01
3.519999999999999796e-01,-2.552925097218258776e-01,3.683372508292656056e-01,-3.890516420840230138e-02
3.529999999999999805e-01,-4.774326038565835928e-01,2.732910575294529854e-01,2.317450307880047355e-01
3.539999999999999813e-01,-2.097599578592150571e-01,-9.453349208848192686e-02,2.625039899582579106e-01
3.549999999999999822e-01,2.515666573839938081e-01,-3.921238112850227164e-01,4.311615106960925425e-02
3.559999999999999831e-01,4.821476224553470358e-01,-2.757736098696767502e-01,-2.185807044501565932e-01
3.569999999999999840e-01,2.287180974885200391e-01,9.554963892007553583e-02,-2.817057494217324320e-01
3.579999999999999849e-01,-2.397869364334876408e-01,3.746475647842552048e-01,-6.389880415545817760e-02
3.589999999999999858e-01,-4.896049437554547135e-01,2.648897319926294958e-01,1.937111465982508107e-01
3.599999999999999867e-01,-2.492808906244727007e-01,-1.017469622019618047e-01,2.807492314251568422e-01
3.609999999999999876e-01,2.278967086598017722e-01,-3.721744341045505888e-01,8.388270855970607343e-02
3.619999999999999885e-01,4.749504865912375084e-01,-2.659131307354699048e-01,-1.984336359932355742e-01
3.629999999999999893e-01,2.545874011750340338e-01,1.083811047106077591e-01,-2.893950572379113684e-01
3.639999999999999902e-01,-2.376237376941309765e-01,3.874363463508304628e-01,-1.017753768119137175e-01
3.649999999999999911e-01,-4.807814391539911303e-01,2.726857716170036361e-01,1.887865704527103006e-01
3.659999999999999920e-01,-2.347506640734427774e-01,-1.158958287633140988e-01,2.949898433900551842e-01
3.669999999999999929e-01,2.173770908521047707e-01,-3.650224542892159807e-01,1.154624634205920486e-01
3.679999999999999938e-01,4.804389212928260044e-01,-2.877737548258199052e-01,-1.795560028693381494e-01
3.689999999999999947e-01,2.637067622749991735e-01,1.055584060235681132e-01,-2.889289628639674090e-01
3.699999999999999956e-01,-2.272473363338025076e-01,3.911162659934644403e-01,-1.259034296255622798e-01
3.709999999999999964e-01,-4.767161734726259592e-01,2.513843340596341736e-01,1.717296679571406193e-01
3.719999999999999973e-01,-2.804949581512601320e-01,-1.288917988513167967e-01,2.955516556235008307e-01
3.729999999999999982e-01,2.055309220865024766e-01,-3.778996072107257409e-01,1.448843756223058277e-01
3.739999999999999991e-01,4.693905103838546533e-01,-2.421470975168212858e-01,-1.633917570620056492e-01
3.750000000000000000e-01,2.907809693623441549e-01,1.343879932677524147e-01,-2.797750145262883903e-01
3.760000000000000009e-01,-2.003579407021687242e-01,3.835301710661410124e-01,-1.501235500183417670e-01
3.770000000000000018e-01,-4.981278281009710596e-01,2.639412146591263442e-01,1.415414349341633238e-01
3.780000000000000027e-01,-2.834193289289620443e-01,-1.376170345264186856e-01,2.858019356356926166e-01
3.790000000000000036e-01,1.993341933780458930e-01,-3.848958381944105889e-01,1.793809203167529842e-01
3.800000000000000044e-01,4.822190914434106301e-01,-2.476672718679010787e-01,-1.162932424702021600e-01
3.810000000000000053e-01,2.804142648367990431e-01,1.331966064907555702e-01,-2.843133960395286541e-01
3.820000000000000062e-01,-1.901194060483526460e-01,3.817207870648470225e-01,-1.670002514344010036e-01
3.830000000000000071e-01,-4.628659271957297205e-01,2.541397893701340394e-01,1.108492202455085146e-01
3.840000000000000080e-01,-3.136575086964099590e-01,-1.393388591474715998e-01,2.768866647616414767e-01
3.850000000000000089e-01,1.873897986903607371e-01,-3.784949897715546574e-01,1.791357067928453506e-01
3.860000000000000098e-01,4.650114807796751348e-01,-2.440136712270434549e-01,-9.462341124261117176e-02
3.870000000000000107e-01,3.106715083080541229e-01,1.503736307483983237e-01,-2.813880967756653417e-01
3.880000000000000115e-01,-1.639150881546421190e-01,3.774674106344386715e-01,-2.085308030830223813e-01
3.890000000000000124e-01,-4.823723275672003319e-01,2.310591596792890001e-01,8.486526920910733573e-02
3.900000000000000133e-01,-2.884262610369239255e-01,-1.449313716003598762e-01,2.778845078104500987e-01
3.910000000000000142e-01,1.664820879089658756e-01,-3.710123337770430130e-01,2.028053811446451360e-01
3.920000000000000151e-01,4.910146267410106513e-01,-2.234629577948753776e-01,-6.966906777582783372e-02
3.930000000000000160e-01,3.248096347978439713e-01,1.460540597803952345e-01,-2.674269874912899581e-01
3.940000000000000169e-01,-1.384603186074977177e-01,3.874113057554703921e-01,-2.227378703294690121e-01
3.950000000000000178e-01,-4.852045890515287452e-01,2.339236063791021447e-01,5.963059281879772022e-02
3.960000000000000187e-01,-3.212752054976812932e-01,-1.462747448106287984e-01,2.867975728041107231e-01
3.970000000000000195e-01,1.264290242400400166e-01,-4.003263542048554613e-01,2.257928878688302277e-01
3.980000000000000204e-01,4.797361541478373792e-01,-2.250304757202575834e-01,-3.656549047614471304e-02
3.990000000000000213e-01,3.448755159452154828e-01,1.665381837550320154e-01,-2.783342356381061089e-01
4.000000000000000222e-01,-1.231602772981868765e-01,3.585984094907347930e-01,-2.310373794694735861e-01
4.010000000000000231e-01,-4.697335640441536730e-01,2.300153228339971434e-01,3.027986340767717041e-02
4.020000000000000240e-01,-3.483915305358048498e-01,-1.584000173276469969e-01,2.565243499378366265e-01
4.030000000000000249e-01,1.057535600493670486e-01,-3.830726165367216995e-01,2.570177042783070021e-01
4.040000000000000258e-01,4.778329162563472177e-01,-2.168334872059111129e-01,-1.371738069620660749e-02
4.050000000000000266e-01,3.674775526686088756e-01,1.714727806261027443e-01,-2.415075031318263121e-01
4.060000000000000275e-01,-1.062634928664090150e-01,3.863864180986512076e-01,-2.572533930848411865e-01
4.069999999999999729e-01,-4.493524708497432241e-01,2.065905761516287353e-01,-7.063596771411466933e-03
4.079999999999999738e-01,-3.607767822428007420e-01,-1.535180037218870919e-01,2.413560325166543841e-01
4.089999999999999747e-01,9.771356980468680342e-02,-3.976394009028010879e-01,2.514143776014807208e-01
4.099999999999999756e-01,4.481167168397134914e-01,-2.159435921603680975e-01,1.050185747477780764e-03
4.109999999999999765e-01,3.705295549245059550e-01,1.641853433490357839e-01,-2.490223673957417672e-01
4.119999999999999774e-01,-9.677790770042477009e-02,3.877163081628345886e-01,-2.586463204052801834e-01
4.129999999999999782e-01,-4.551467716322122881e-01,2.170178796118807096e-01,-4.611527388673624522e-02
4.139999999999999791e-01,-3.676927910735768856e-01,-1.722877583531084167e-01,2.287567018455707035e-01
4.149999999999999800e-01,7.500693284309194186e-02,-3.913194206813984666e-01,2.656710838843193700e-01
4.159999999999999809e-01,4.469301309076515460e-01,-2.059363405066346742e-01,6.986328840177821742e-02
4.169999999999999818e-01,3.684199205083658057e-01,1.874779610327790003e-01,-2.169853279208115993e-01
4.179999999999999827e-01,-6.918175061492423672e-02,3.941854239758479928e-01,-2.656462928743986707e-01
4.189999999999999836e-01,-4.506391438459771415e-01,1.978398823689015429e-01,-6.453737845135276707e-02
4.199999999999999845e-01,-3.823316930937509239e-01,-1.742347758264700397e-01,2.063231771742639886e-01
4.209999999999999853e-01,5.916618099979686907e-02,-3.874977694912288828e-01,2.842745152794153851e-01
4.219999999999999862e-01,4.392727390631991913e-01,-1.999199861306173442e-01,6.204945566103885202e-02
4.229999999999999871e-01,3.829163159598895083e-01,1.975826967143926027e-01,-2.100842540575502126e-01
4.239999999999999880e-01,-3.932382774677655596e-02,3.906172819191016665e-01,-2.839720185494115090e-01
4.249999999999999889e-01,-4.305877126397512078e-01,2.016824991311497173e-01,-9.060335330374193197e-02
4.259999999999999898e-01,-3.763137047580887851e-01,-1.751508253617893585e-01,1.868003496471464242e-01
4.269999999999999907e-01,4.508560636105350683e-02,-3.587578981561697078e-01,2.825089722604426368e-01
4.279999999999999916e-01,4.353205577675285376e-01,-1.965497242287875812e-01,8.938348340172304340e-02
4.289999999999999925e-01,3.953128687994592050e-01,2.064149948414062408e-01,-1.801923542282691804e-01
4.299999999999999933e-01,-4.804943725941432375e-02,3.882536269958746233e-01,-2.801525204345836073e-01
4.309999999999999942e-01,-4.359789569931540876e-01,1.804232810831694345e-01,-1.106923969653295925e-01
4.319999999999999951e-01,-4.028514322729446762e-01,-1.865725687266929778e-01,1.629876179825067717e-01
4.329999999999999960e-01,1.476674412445475211e-02,-3.871386789891991809e-01,2.963439851952653914e-01
4.339999999999999969e-01,4.314618653402735315e-01,-1.820152532111272148e-01,1.217203153443173480e-01
4.349999999999999978e-01,4.201614762071222975e-01,2.080229626019361733e-01,-1.574522068330158897e-01
4.359999999999999987e-01,-2.731624269058440316e-02,3.842604685008892962e-01,-2.906109453491695360e-01
4.369999999999999996e-01,-4.180014616235232516e-01,1.945272863549257214e-01,-1.446445712302403819e-01
4.380000000000000004e-01,-4.336891809767729478e-01,-2.029801514826041209e-01,1.531399459971180821e-01
4.390000000000000013e-01,-4.485625542369088038e-03,-3.860557329606417731e-01,2.971618375675613155e-01
4.400000000000000022e-01,4.182520524801987549e-01,-1.759229199129969945e-01,1.550740046099081115e-01
4.410000000000000031e-01,4.202941105281113865e-01,1.990388317983624589e-01,-1.132294119772323943e-01
4.420000000000000040e-01,3.440589953385649047e-03,3.929815963703693904e-01,-2.823779481423718818e-01
4.430000000000000049e-01,-4.106325802749711817e-01,1.611055078486226255e-01,-1.815478589133807941e-01
4.440000000000000058e-01,-4.264006249276632854e-01,-2.092557026944802112e-01,1.230086582444835513e-01
4.450000000000000067e-01,-6.892091879608258989e-03,-3.796789439351357931e-01,2.948428474916157116e-01
4.460000000000000075e-01,4.058132465877215544e-01,-1.643174254754664332e-01,2.028441349114757097e-01
4.470000000000000084e-01,4.253223869302040772e-01,2.203141652821090091e-01,-1.000791953672655749e-01
4.480000000000000093e-01,4.602882293605219111e-02,3.868892535010068356e-01,-2.861152521716497366e-01
4.490000000000000102e-01,-4.121442007653760009e-01,1.623867903329214712e-01,-1.930366477318768148e-01
4.500000000000000111e-01,-4.372182387699544148e-01,-2.350142286169729089e-01,9.384888454689092885e-02
4.510000000000000120e-01,-3.791888851907332381e-02,-3.958668212262247965e-01,2.943695924992570379e-01
4.520000000000000129e-01,4.077635426407651975e-01,-1.581403903343670814e-01,2.064853121458724017e-01
4.530000000000000138e-01,4.193385308138588563e-01,2.159599104623912968e-01,-7.940457342241763472e-02
4.540000000000000147e-01,3.839577034786709892e-02,3.895320908717286312e-01,-2.770260717641971904e-01
4.550000000000000155e-01,-4.095675674386770049e-01,1.617832843280811450e-01,-2.026902022431052164e-01
4.560000000000000164e-01,-4.328150539288840304e-01,-2.344718662750537863e-01,5.458370151133203757e-02
4.570000000000000173e-01,-5.001931145664591238e-02,-3.797117315965267692e-01,2.621649590390823792e-01
4.580000000000000182e-01,3.819553955873641327e-01,-1.425277883607364571e-01,2.190155009661935714e-01
4.590000000000000191e-01,4.398291350218052065e-01,2.082518826405682644e-01,-5.143678693665458546e-02
4.600000000000000200e-01,5.938976717965414182e-02,3.869389234710834957e-01,-2.722766696817249810e-01
4.610000000000000209e-01,-3.728612194062747021e-01,1.511579315887278396e-01,-2.462678476746177902e-01
4.620000000000000218e-01,-4.578420532769876816e-01,-2.526784490862800103e-01,2.093348411206755189e-02
4.630000000000000226e-01,-7.623385202582522169e-02,-3.660598102933064202e-01,2.709992796259366177e-01
4.640000000000000235e-01,3.878304839622533917e-01,-1.481161690163503297e-01,2.428941443536259126e-01
4.650000000000000244e-01,4.574557483162776106e-01,2.343329876934879263e-01,-1.378583721249333413e-02
4.660000000000000253e-01,7.918382199660962961e-02,3.695286410982708825e-01,-2.561399462576999242e-01
4.670000000000000262e-01,-3.742265787082339479e-01,1.453552937072988549e-01,-2.442260984691576042e-01
4.680000000000000271e-01,-4.474812025270619165e-01,-2.414600281512204183e-01,5.522726310373989901e-03
4.689999999999999725e-01,-8.420603845970195400e-02,-3.892103485372237492e-01,2.445433589217809178e-01
4.699999999999999734e-01,3.574537482961425705e-01,-1.286253093548292148e-01,2.537708812595716457e-01
4.709999999999999742e-01,4.500322561477705374e-01,2.375647867747864017e-01,2.197934659108499722e-02
4.719999999999999751e-01,9.312423513003216524e-02,3.908985127933090609e-01,-2.505140572684072531e-01
4.729999999999999760e-01,-3.662876511675560165e-01,1.244012725795443086e-01,-2.685966163969865095e-01
4.739999999999999769e-01,-4.625087443266087117e-01,-2.585473142410477654e-01,-2.388514922052154682e-02
4.749999999999999778e-01,-9.857489281576142792e-02,-3.718890331545099959e-01,2.427457595167706872e-01
4.759999999999999787e-01,3.532009272964956592e-01,-1.234040670996207067e-01,2.817632578516351405e-01
4.769999999999999796e-01,4.739464159290018297e-01,2.599608960014661574e-01,3.338696545758879086e-02
4.779999999999999805e-01,1.111980021155990345e-01,3.820242898275283405e-01,-2.235886854068449003e-01
4.789999999999999813e-01,-3.510363058242650935e-01,1.239645685111792489e-01,-2.884911521252912503e-01
4.799999999999999822e-01,-4.632669695275291599e-01,-2.680532774031982313e-01,-5.688716919252567034e-02
4.809999999999999831e-01,-1.279619313477986242e-01,-3.715913770809127770e-01,2.222551880412756420e-01
4.819999999999999840e-01,3.421005435252807425e-01,-1.179739390148649425e-01,2.769493497773884427e-01
4.829999999999999849e-01,4.481683859283697724e-01,2.606855796922349922e-01,8.471654885477541974e-02
4.839999999999999858e-01,1.336116707369843226e-01,3.844098712884934099e-01,-2.081989469518041314e-01
4.849999999999999867e-01,-3.315135364910100080e-01,1.192516025497124266e-01,-2.902533798628478268e-01
4.859999999999999876e-01,-4.650583860388760038e-01,-2.746649784939900196e-01,-1.029731176696628003e-01
4.869999999999999885e-01,-1.269580291073199863e-01,-3.673370322693874090e-01,1.873141728646917359e-01
4.879999999999999893e-01,3.230025190038487426e-01,-8.354575652422627230e-02,2.835452357814425839e-01
4.889999999999999902e-01,4.839558401203488680e-01,2.655879113465542951e-01,9.188107142380498582e-02
4.899999999999999911e-01,1.503870008717506090e-01,3.808708530400494729e-01,-1.919912386515506553e-01
4.909999999999999920e-01,-3.117765885872301190e-01,1.197963802491710389e-01,-2.818101820346822772e-01
4.919999999999999929e-01,-4.819271035680482984e-01,-2.609345856730914126e-01,-1.142897799535467634e-01
4.929999999999999938e-01,-1.619430958878957105e-01,-3.763969580086172217e-01,1.668254997897936631e-01
4.939999999999999947e-01,3.264450401202540486e-01,-8.503249889350016077e-02,2.888689234282902363e-01
4.949999999999999956e-01,4.740949508002973989e-01,2.779455079022623565e-01,1.274430035891547519e-01
4.959999999999999964e-01,1.763928573629833518e-01,3.785833286759547334e-01,-1.431050994162250400e-01
4.969999999999999973e-01,-3.092924245830765417e-01,1.013057117757819453e-01,-3.130798237517996019e-01
4.979999999999999982e-01,-4.678830492044930289e-01,-2.803063971201087412e-01,-1.389281170637227392e-01
4.989999999999999991e-01,-1.842786100509295477e-01,-3.578410733208476913e-01,1.560434740398692344e-01
5.000000000000000000e-01,2.951418824229287696e-01,-1.149956028840480732e-01,2.910503316476812374e-01
5.010000000000000009e-01,4.703889079163885434e-01,2.796555007245859481e-01,1.471337335676964064e-01
5.020000000000000018e-01,1.881560597035628057e-01,3.729590879970871575e-01,-1.526045336022117116e-01
5.030000000000000027e-01,-3.035578770870044907e-01,8.762247184603660921e-02,-2.874842661687513901e-01
5.040000000000000036e-01,-4.807157180985861533e-01,-2.921514967255835482e-01,-1.740611518861970297e-01
5.050000000000000044e-01,-2.045760779012588126e-01,-3.904263964252828178e-01,1.307601116578626932e-01
5.060000000000000053e-01,2.839528515662513297e-01,-7.668722377377747146e-02,3.056134075807174222e-01
5.070000000000000062e-01,4.783768194341910251e-01,2.760368948973537795e-01,1.853883533356548985e-01
5.080000000000000071e-01,2.100630300491005964e-01,3.580617458485551019e-01,-9.873651654467327510e-02
5.090000000000000080e-01,-2.825644442405520484e-01,7.687851099165660118e-02,-2.758786030615525964e-01
5.100000000000000089e-01,-4.745636990414480727e-01,-3.049984710328988435e-01,-1.865847318733028226e-01
5.110000000000000098e-01,-2.053182369622970349e-01,-3.786742346037121343e-01,8.757801911778521908e-02
5.120000000000000107e-01,2.649279354796814090e-01,-6.959143311931391407e-02,2.820031702962940701e-01
5.130000000000000115e-01,4.837717414538391658e-01,2.904177315821709904e-01,2.152337563806673293e-01
5.140000000000000124e-01,2.237686393284185060e-01,3.652644227826754020e-01,-8.214350672218395655e-02
5.150000000000000133e-01,-2.425920154971809017e-01,6.363095317863456946e-02,-2.850875103926963083e-01
5.160000000000000142e-01,-4.731692745458406235e-01,-2.990533842074795667e-01,-2.114006069935042142e-01
5.170000000000000151e-01,-2.389899586673842058e-01,-3.555598410525480091e-01,3.872823812698655138e-02
5.180000000000000160e-01,2.630999443887954148e-01,-6.152330228777463245e-02,2.694986251122446497e-01
5.190000000000000169e-01,4.882917852871438980e-01,2.964585423908018269e-01,2.174541828937319454e-01
5.200000000000000178e-01,2.273397939496851206e-01,3.520112087368949538e-01,-4.831333914783944583e-02
5.210000000000000187e-01,-2.377184214045060806e-01,5.133657928560399208e-02,-2.667974883068408576e-01
5.220000000000000195e-01,-4.898255582518331597e-01,-2.947661981452402435e-01,-2.232100910712601916e-01
5.230000000000000204e-01,-2.479741377373723410e-01,-3.442250653443979513e-01,3.453858043253558302e-02
5.240000000000000213e-01,2.329980888831087171e-01,-4.988707045637985615e-02,2.576297339091390692e-01
5.250000000000000222e-01,4.887093818014055513e-01,3.086757012842673009e-01,2.485338150252178746e-01
5.260000000000000231e-01,2.590232605744885452e-01,3.513674070152772444e-01,-1.192631161673953465e-02
5.270000000000000240e-01,-2.241328644853974594e-01,5.952869241409646656e-02,-2.458793935883859527e-01
5.280000000000000249e-01,-4.836465666045984269e-01,-3.008186131284689702e-01,-2.567986991936361818e-01
5.290000000000000258e-01,-2.654976756026390383e-01,-3.586231980093815830e-01,-8.594822394210547813e-06
5.300000000000000266e-01,2.058339417767970081e-01,-4.964966552896826063e-02,2.352050921953157403e-01
5.310000000000000275e-01,4.830761535960087505e-01,3.046166211588238748e-01,2.471792953698476736e-01
5.320000000000000284e-01,2.874612514372275607e-01,3.579835034578175978e-01,1.461051586420517891e-02
5.330000000000000293e-01,-1.977522005328973265e-01,2.901810682798026952e-02,-2.465677437017504414e-01
5.340000000000000302e-01,-4.558576184464663839e-01,-2.969517052562407056e-01,-2.552161481070827076e-01
5.350000000000000311e-01,-2.888830139100225236e-01,-3.364184334293406353e-01,-3.654230438545044701e-02
5.360000000000000320e-01,1.856380415368009684e-01,-4.340647041594927064e-02,2.335270204974410346e-01
5.370000000000000329e-01,4.795817841387699509e-01,3.130567183992523650e-01,2.551874309430313126e-01
5.380000000000000338e-01,2.844427334196285573e-01,3.668981386143591594e-01,3.257065763540920034e-02
5.390000000000000346e-01,-1.988743542402296172e-01,3.743367124948571156e-02,-2.093725543781940479e-01
5.400000000000000355e-01,-4.708852017092898801e-01,-3.091873024163856454e-01,-2.566968945246166367e-01
5.410000000000000364e-01,-3.039382454265519562e-01,-3.633942266497616758e-01,-5.554457064177277525e-02
5.420000000000000373e-01,1.832361704364703914e-01,-2.505703399834703984e-02,2.093668536685662218e-01
5.430000000000000382e-01,4.621308658771668965e-01,3.193518391180477645e-01,2.798610860133346478e-01
5.440000000000000391e-01,2.977635071919182419e-01,3.571749813130908335e-01,6.866173309272634306e-02
5.450000000000000400e-01,-1.790547723169819694e-01,2.476724865718933632e-02,-2.186146551311337338e-01
5.460000000000000409e-01,-4.803432317790571338e-01,-3.307391564063861256e-01,-2.764283591910965954e-01
5.470000000000000417e-01,-3.088904304552123059e-01,-3.441779693908872950e-01,-8.172595925247434778e-02
5.480000000000000426e-01,1.430430115980727834e-01,-3.040143946635809682e-02,1.880699175602386641e-01
5.490000000000000435e-01,4.656311337389962834e-01,3.184371100543624822e-01,2.879107865074317374e-01
5.500000000000000444e-01,3.107881101146937608e-01,3.420821593655827830e-01,9.192252550077907591e-02
5.510000000000000453e-01,-1.543271864345314992e-01,1.222388525882110201e-02,-1.821040668259457929e-01
5.520000000000000462e-01,-4.680705095861290022e-01,-3.234071247153001427e-01,-2.905010092446661529e-01
5.530000000000000471e-01,-3.161750734069549984e-01,-3.428993593645474069e-01,-1.190076852825524001e-01
5.540000000000000480e-01,1.447287545149237298e-01,-1.401659571773400739e-02,1.881646182581760141e-01
5.550000000000000488e-01,4.811843871909600168e-01,3.289779471187857518e-01,2.775741616521196220e-01
5.560000000000000497e-01,3.429302284316603777e-01,3.425527946638898258e-01,1.353662036823364001e-01
5.570000000000000506e-01,-1.304043928844469680e-01,1.092977835205196160e-02,-1.594766923314491769e-01
5.580000000000000515e-01,-4.697714991702087173e-01,-3.486268310772694945e-01,-2.766531962380143761e-01
5.590000000000000524e-01,-3.414153174279891956e-01,-3.323473345076071728e-01,-1.474123017574903716e-01
5.600000000000000533e-01,1.126994516874155472e-01,2.747132136653698993e-03,1.425794442050522526e-01
5.610000000000000542e-01,4.663614548705838914e-01,3.473032639415271627e-01,3.015418379613463151e-01
5.620000000000000551e-01,3.458203591848162950e-01,3.332131197752879470e-01,1.535436259366100842e-01
5.629999999999999449e-01,-1.248665246865472422e-01,6.986801557168425929e-03,-1.510069037820307991e-01
5.639999999999999458e-01,-4.673804242966969058e-01,-3.247885603499465201e-01,-2.781780295223365562e-01
5.649999999999999467e-01,-3.525767066751864243e-01,-3.363844218031831201e-01,-1.627677130672649242e-01
5.659999999999999476e-01,1.154793971101311933e-01,8.520137534260237289e-03,1.184097365503320731e-01
5.669999999999999485e-01,4.543180003945806456e-01,3.231610756361645298e-01,2.978511893455375037e-01
5.679999999999999494e-01,3.603738269294377017e-01,3.312680762707886362e-01,1.851130779675063120e-01
5.689999999999999503e-01,-9.436937996116143146e-02,-6.826642313895603257e-04,-1.130074649564448558e-01
5.699999999999999512e-01,-4.718652442151545223e-01,-3.535271059996865639e-01,-2.900249760577998659e-01
5.709999999999999520e-01,-3.755347264886639835e-01,-3.358591844725803410e-01,-1.715414731897957068e-01
5.719999999999999529e-01,7.364610920275194150e-02,-1.184345647347610688e-03,8.495153310044482875e-02
5.729999999999999538e-01,4.577293607169538592e-01,3.453260935785396057e-01,2.845100655218939512e-01
5.739999999999999547e-01,3.834565438357826483e-01,3.291660909711605632e-01,1.943864294980098828e-01
5.749999999999999556e-01,-7.963828443918906375e-02,-1.373926382208527121e-02,-7.354538874188126796e-02
5.759999999999999565e-01,-4.512816158278492029e-01,-3.345853361029229034e-01,-2.860401815997862252e-01
5.769999999999999574e-01,-3.787197557470112219e-01,-3.246655083557736798e-01,-2.178722312766669389e-01
5.779999999999999583e-01,6.594491566297058793e-02,1.160547824519178421e-02,6.969703313735521599e-02
5.789999999999999591e-01,4.304915664650105223e-01,3.349008400201136659e-01,2.738797314857097098e-01
5.799999999999999600e-01,3.871142860450320078e-01,3.050189967321192408e-01,2.253571719154658093e-01
5.809999999999999609e-01,-6.459058819535133666e-02,-3.121418971927531275e-02,-4.272442690268345861e-02
5.819999999999999618e-01,-4.280239216085945930e-01,-3.409069279878347847e-01,-2.686876236824228825e-01
5.829999999999999627e-01,-3.945199242683712915e-01,-3.262159382344492764e-01,-2.232767410723375534e-01
5.839999999999999636e-01,4.394645846993259358e-02,4.098780982482400775e-02,1.774893315346658465e-02
5.849999999999999645e-01,4.376173434354670988e-01,3.545554929614659345e-01,2.615579671537643924e-01
5.859999999999999654e-01,3.903902879399749337e-01,3.023678812489432044e-01,2.422799374473958711e-01
5.869999999999999662e-01,-3.037320388248552702e-02,-4.601760221751093061e-02,-1.979737097786135602e-02
5.879999999999999671e-01,-4.376911157312394218e-01,-3.535164361891731111e-01,-2.671671856206510043e-01
5.889999999999999680e-01,-3.796665262496745630e-01,-3.128410758999914942e-01,-2.477770324351344089e-01
5.899999999999999689e-01,3.126640937419282451e-02,6.437601051995688051e-02,-1.590567532223735765e-03
5.909999999999999698e-01,4.279224418857978662e-01,3.629445790926348336e-01,2.507093932096445821e-01
5.919999999999999707e-01,3.987817501075652249e-01,3.105020964685994422e-01,2.506845194318300662e-01
5.929999999999999716e-01,-3.689682922023473921e-02,-5.310864235072778466e-02,1.088947300669711876e-02
5.939999999999999725e-01,-4.329251944776842942e-01,-3.765653187276871705e-01,-2.576732478274915139e-01
5.949999999999999734e-01,-4.122984277959122479e-01,-3.138248150173766349e-01,-2.497858879449891822e-01
5.959999999999999742e-01,8.366160869042800485e-03,3.454073513077841190e-02,-3.962531651708511848e-03
5.969999999999999751e-01,4.117099127543910053e-01,3.397927213604526320e-01,2.428867179521193020e-01
5.979999999999999760e-01,4.094258907691386562e-01,3.071363676811937338e-01,2.711108798980494394e-01
5.989999999999999769e-01,2.027951322186132867e-03,-4.648427994732236279e-02,5.932275113402128708e-02
5.999999999999999778e-01,-4.330576230086082834e-01,-3.541396908090331253e-01,-2.397810176722303399e-01
6.009999999999999787e-01,-4.071451710486979625e-01,-2.813122997172018414e-01,-2.645206572467188599e-01
6.019999999999999796e-01,-1.108372076539138398e-02,4.762305219500159031e-02,-5.735140553314796441e-02
6.029999999999999805e-01,4.175541104614404198e-01,3.605052145487538939e-01,2.117508115284405523e-01
6.039999999999999813e-01,4.154877954599557888e-01,3.012874674961406596e-01,2.771329749100080453e-01
6.049999999999999822e-01,8.189049068071819343e-03,-6.247463056563565958e-02,6.697759481421002026e-02
6.059999999999999831e-01,-4.150822121624253569e-01,-3.715245807593469118e-01,-2.163981868898496586e-01
6.069999999999999840e-01,-4.300648279834587417e-01,-2.942452029243870504e-01,-2.759287429472270792e-01
6.079999999999999849e-01,-3.353135949771306190e-02,6.781657852589999258e-02,-8.067526434422774007e-02
6.089999999999999858e-01,4.112006542750211713e-01,3.618209476213441467e-01,2.130441213098417663e-01
6.099999999999999867e-01,4.400677068113961754e-01,2.974932436578328621e-01,2.868391901828700186e-01
6.109999999999999876e-01,3.250339517217781110e-02,-7.851657075086308779e-02,9.027551773759805165e-02
6.119999999999999885e-01,-3.893043231810824345e-01,-3.666181860017984628e-01,-1.836931013448462602e-01
6.129999999999999893e-01,-4.228675953164305334e-01,-2.914868532519951927e-01,-2.835842528767856807e-01
6.139999999999999902e-01,-3.805319146204311914e-02,9.885638652837315521e-02,-1.068772494870172396e-01
6.149999999999999911e-01,3.939439898303213616e-01,3.623458667703816083e-01,1.651206233115743716e-01
6.159999999999999920e-01,4.457721023966108032e-01,2.844446572902152304e-01,2.938212940470243395e-01
6.169999999999999929e-01,5.484126869101537544e-02,-8.934191889202493242e-02,1.174730467797106270e-01
6.179999999999999938e-01,-3.861900212728240356e-01,-3.558665536366448223e-01,-1.646414406163564104e-01
6.189999999999999947e-01,-4.416340547571421249e-01,-2.702003795325323421e-01,-2.819799809858021811e-01
6.199999999999999956e-01,-6.716858079166655726e-02,8.893231822568624378e-02,-1.268106983916640618e-01
6.209999999999999964e-01,3.734656281988097959e-01,3.660481714611206749e-01,1.568584965887422356e-01
6.219999999999999973e-01,4.548673204789555613e-01,2.666420051205941055e-01,2.750918221133254460e-01
6.229999999999999982e-01,7.437937414083406473e-02,-9.364456878755579583e-02,1.507738409607197461e-01
6.239999999999999991e-01,-3.700955518354029916e-01,-3.660368682176569077e-01,-1.201639846766375808e-01
6.250000000000000000e-01,-4.585920851901012507e-01,-2.807171789493849712e-01,-2.950268212866808404e-01
6.260000000000000009e-01,-1.014303321358224486e-01,9.992206132988866452e-02,-1.690646279238194605e-01
6.270000000000000018e-01,3.715588474691800536e-01,3.848785800664312196e-01,1.289702376090162139e-01
6.280000000000000027e-01,4.584609742710623048e-01,2.793646029411137599e-01,2.915336956168578797e-01
6.290000000000000036e-01,1.003754431871648339e-01,-1.126976301844692802e-01,1.830484896235932690e-01
6.300000000000000044e-01,-3.502232527110961668e-01,-3.792128915742624673e-01,-1.089703124855625205e-01
6.310000000000000053e-01,-4.486962901731580411e-01,-2.824218970204184220e-01,-2.700360414699733980e-01
6.320000000000000062e-01,-1.037707422111991268e-01,9.137809906511851210e-02,-1.700809747213564427e-01
6.330000000000000071e-01,3.524286922376019260e-01,3.823701277649774743e-01,8.913768032525125340e-02
6.340000000000000080e-01,4.616729788777337307e-01,2.810100981163467515e-01,2.818151927782773236e-01
6.350000000000000089e-01,1.029154026913832870e-01,-1.029963537655754213e-01,1.964674148004361687e-01
6.360000000000000098e-01,-3.637726306466382287e-01,-3.808615135072205282e-01,-8.163414308669983410e-02
6.370000000000000107e-01,-4.736579618022422333e-01,-2.631308508865805029e-01,-2.813443532856121920e-01
6.380000000000000115e-01,-1.180035667611802619e-01,1.228519816379717716e-01,-2.034963578025047182e-01
6.390000000000000124e-01,3.506089345861171935e-01,3.551709745641682958e-01,5.362774843366122784e-02
6.400000000000000133e-01,4.449771758666766219e-01,2.546961023635117005e-01,2.769039407987734513e-01
6.410000000000000142e-01,1.307566868051871223e-01,-1.076485726475893967e-01,2.090891824082116157e-01
6.420000000000000151e-01,-3.530941790427119531e-01,-3.835757487782693875e-01,-3.560081110272442229e-02
6.430000000000000160e-01,-4.875505465417965811e-01,-2.612710610657796306e-01,-2.672743346370201056e-01
6.440000000000000169e-01,-1.441667971195885189e-01,1.107781014131195285e-01,-2.121333481235920249e-01
6.450000000000000178e-01,3.314944456027359432e-01,3.945499515161214887e-01,4.525565330670326680e-02
6.460000000000000187e-01,4.622154993769181375e-01,2.621090345593360404e-01,2.707332693475955065e-01
6.470000000000000195e-01,1.443514094402774672e-01,-1.127026493545899288e-01,2.186435843292829639e-01
6.480000000000000204e-01,-3.197875171321261090e-01,-3.818370040977682178e-01,-3.443370895677242555e-02
6.490000000000000213e-01,-4.642056358622519419e-01,-2.642619062487160386e-01,-2.672585162829949623e-01
6.500000000000000222e-01,-1.602892688749751327e-01,1.269677493077137065e-01,-2.372348404422086054e-01
6.510000000000000231e-01,3.062818509549339874e-01,3.743724997976964897e-01,1.459929458764329044e-02
6.520000000000000240e-01,4.723068418909556199e-01,2.396843796367277568e-01,2.417085689484365918e-01
6.530000000000000249e-01,1.510406515031135211e-01,-1.314573878434562582e-01,2.434685970900902774e-01
6.540000000000000258e-01,-3.130088489661828621e-01,-3.831267214220881456e-01,1.267420424610807023e-03
6.550000000000000266e-01,-4.642679824987607784e-01,-2.476730763691414594e-01,-2.419882210824936264e-01
6.560000000000000275e-01,-1.789978229311262603e-01,1.324860674495140500e-01,-2.674056647895112215e-01
6.570000000000000284e-01,2.811312442217881458e-01,3.891358365068253722e-01,-8.747934565085479022e-03
6.580000000000000293e-01,4.694184081953595711e-01,2.433572399576213741e-01,2.386600158798806159e-01
6.590000000000000302e-01,1.833364494777727227e-01,-1.412783644569239327e-01,2.551512247476698803e-01
6.600000000000000311e-01,-2.950612467857531285e-01,-3.862379646073944017e-01,4.670724623554271121e-02
6.610000000000000320e-01,-4.716198065346342005e-01,-2.412165038617006263e-01,-2.250938479865378095e-01
6.620000000000000329e-01,-2.012307950514731769e-01,1.439217946663691738e-01,-2.633145051661903158e-01
6.630000000000000338e-01,2.842204080869252247e-01,3.798945249667896040e-01,-6.180152604203559275e-02
6.640000000000000346e-01,4.727972112369069335e-01,2.450459016055342165e-01,2.133234781557232784e-01
6.650000000000000355e-01,2.084470676701568603e-01,-1.578665393852994869e-01,2.679454803438173771e-01
6.660000000000000364e-01,-2.613222962646524761e-01,-3.925153534995866056e-01,7.286708012711301530e-02
6.670000000000000373e-01,-4.863127784022193145e-01,-2.369816440925378576e-01,-2.234939294183469205e-01
6.680000000000000382e-01,-2.076311041381314337e-01,1.580683632957746165e-01,-2.578152124691842073e-01
6.690000000000000391e-01,2.594621433605804328e-01,3.907361648485064842e-01,-8.239771884949838310e-02
6.700000000000000400e-01,4.885794588033162134e-01,2.293518418543713799e-01,2.059832346995356389e-01
6.710000000000000409e-01,2.066204116042308359e-01,-1.713744473562832105e-01,2.881023356789364498e-01
6.720000000000000417e-01,-2.661867486820542750e-01,-3.878127038296152462e-01,8.488302146032507267e-02
6.730000000000000426e-01,-4.850232233924576808e-01,-2.400184138309179871e-01,-1.919004182782993173e-01
6.740000000000000435e-01,-2.105258822013357234e-01,1.524237075855318091e-01,-2.987040844958606667e-01
6.750000000000000444e-01,2.560587641548471294e-01,4.057578856745749918e-01,-9.842165337033795258e-02
6.760000000000000453e-01,4.777230479853827871e-01,2.327061178997694435e-01,1.760301341987398904e-01
6.770000000000000462e-01,2.417092143475421673e-01,-1.751932980791534589e-01,2.963591970718719715e-01
6.780000000000000471e-01,-2.510230638754734622e-01,-3.714383333696970046e-01,1.169669957020001705e-01
6.790000000000000480e-01,-4.989563183179179795e-01,-2.041064531683005057e-01,-1.644163808869354704e-01
6.800000000000000488e-01,-2.230428143054287715e-01,1.922737332921872766e-01,-2.879771133983451414e-01
6.810000000000000497e-01,2.403967718946342924e-01,3.761602994834533087e-01,-1.342318523476754288e-01
6.820000000000000506e-01,4.880582173248820266e-01,2.101744215764387580e-01,1.768218525125982710e-01
6.830000000000000515e-01,2.475622541218674977e-01,-1.593014468199061562e-01,2.869616107091573221e-01
6.840000000000000524e-01,-2.345657764106101051e-01,-3.938304157124203897e-01,1.343260568358955465e-01
6.850000000000000533e-01,-4.867072309363535410e-01,-2.199502008265172281e-01,-1.320000265785903626e-01
6.860000000000000542e-01,-2.788974211849253315e-01,1.791259003643178027e-01,-2.936246497339499717e-01
6.870000000000000551e-01,2.050667298162671404e-01,3.941739697719899294e-01,-1.586158614476964879e-01
6.879999999999999449e-01,4.898731257582932819e-01,2.106237186422439123e-01,1.119547463247137220e-01
6.889999999999999458e-01,2.642118513882411035e-01,-1.906688879620739852e-01,3.035347332140636567e-01
6.899999999999999467e-01,-2.111661006157214138e-01,-3.821379387520974502e-01,1.670208641838322461e-01
6.909999999999999476e-01,-4.810992518606839741e-01,-2.028064707843871273e-01,-1.001609694704990589e-01
6.919999999999999485e-01,-2.820034090192681253e-01,1.755076348712804601e-01,-2.702265112063456654e-01
6.929999999999999494e-01,2.182102486686225695e-01,3.831039270867979685e-01,-1.982444114066596597e-01
6.939999999999999503e-01,4.634768812293998397e-01,1.920494798542743409e-01,9.944213586188486997e-02
6.949999999999999512e-01,2.729724049751537929e-01,-2.070278146742155767e-01,2.906409422064289427e-01
6.959999999999999520e-01,-1.953367514025487195e-01,-3.938939556268515330e-01,1.857236066144076214e-01
6.969999999999999529e-01,-4.819084669758163519e-01,-2.028228103443890373e-01,-8.519168551792857813e-02
6.979999999999999538e-01,-2.798654969679940652e-01,1.813126763163204203e-01,-2.732944238856306329e-01
6.989999999999999547e-01,1.809649199625261717e-01,3.789519002521554714e-01,-2.033051238184716836e-01
6.999999999999999556e-01,4.550327392772663404e-01,1.960507703912690025e-01,7.779255889106992394e-02
7.009999999999999565e-01,2.944041852203473364e-01,-1.952202566679563656e-01,2.843108345457361907e-01
7.019999999999999574e-01,-1.754640040384016220e-01,-3.770128705836630068e-01,2.028517937695295537e-01
7.029999999999999583e-01,-4.755118506263452671e-01,-1.823077183779339694e-01,-5.198454335348737243e-02
7.039999999999999591e-01,-3.097137792891394015e-01,1.873508643625452497e-01,-2.696731346817842767e-01
7.049999999999999600e-01,1.769542294790117654e-01,3.911245684931721756e-01,-2.286562503449707517e-01
7.059999999999999609e-01,4.655663371766487479e-01,1.927819032361925145e-01,4.766813750453371967e-02
7.069999999999999618e-01,3.068751663441152688e-01,-1.978684614130039321e-01,2.789055999681054332e-01
7.079999999999999627e-01,-1.522127363266761735e-01,-3.795612244916546363e-01,2.286334466998581061e-01
7.089999999999999636e-01,-4.755678505301321191e-01,-1.729646184419645627e-01,-2.719975715297451649e-02
7.099999999999999645e-01,-3.268694950582561320e-01,2.136903935244987285e-01,-2.660035448253714740e-01
7.109999999999999654e-01,1.558689878928070094e-01,3.900653251253811127e-01,-2.381440533293268380e-01
7.119999999999999662e-01,4.886534687775511698e-01,1.698560876257382557e-01,7.780480934515505119e-03
7.129999999999999671e-01,3.217689159632947105e-01,-1.997296820818355023e-01,2.552368119974304239e-01
7.139999999999999680e-01,-1.346562791138641857e-01,-3.729592688661493849e-01,2.342119381537714484e-01
7.149999999999999689e-01,-4.735061383440825611e-01,-1.817310445956066001e-01,4.482234375192290302e-03
7.159999999999999698e-01,-3.326438683648412220e-01,2.171445540986245981e-01,-2.549929840093674849e-01
7.169999999999999707e-01,1.276463122288243324e-01,3.827921206966901635e-01,-2.619085880507225350e-01
7.179999999999999716e-01,4.695630966170821208e-01,1.836677656728301911e-01,-1.228046365971018419e-02
7.189999999999999725e-01,3.211843603921133439e-01,-2.132926911134335746e-01,2.512721681952526653e-01
7.199999999999999734e-01,-1.216792135196292091e-01,-3.933923137037337869e-01,2.620701003142520413e-01
7.209999999999999742e-01,-4.715434782226552990e-01,-1.621800360300442168e-01,3.563737263585769338e-02
7.219999999999999751e-01,-3.415833020096923911e-01,2.093231642776030299e-01,-2.366768612261213878e-01
7.229999999999999760e-01,1.006782843737676347e-01,3.845794127609734603e-01,-2.778456598409015932e-01
7.239999999999999769e-01,4.541520409300563443e-01,1.642499270099546382e-01,-4.560395270782118676e-02
7.249999999999999778e-01,3.652796803628916567e-01,-2.236456143872982416e-01,2.214182909360430940e-01
7.259999999999999787e-01,-1.126254473432010822e-01,-3.825273226781666369e-01,2.721987896723438438e-01
7.269999999999999796e-01,-4.588989647672967465e-01,-1.598845909341719829e-01,6.694145725206697428e-02
7.279999999999999805e-01,-3.675913821878467047e-01,2.024276114515825009e-01,-1.985031525350701431e-01
7.289999999999999813e-01,9.222975204689275175e-02,3.738066071193744677e-01,-2.920471468661078318e-01
7.299999999999999822e-01,4.524852837858092114e-01,1.381340423732510536e-01,-8.250294067972829826e-02
7.309999999999999831e-01,3.630162597491950471e-01,-2.432755392941093608e-01,2.119722666848684045e-01
7.319999999999999840e-01,-8.100158877785421097e-02,-3.708873187527190751e-01,2.921811391814260750e-01
7.329999999999999849e-01,-4.566059435981733028e-01,-1.531640587545488319e-01,1.143673405037068935e-01
7.339999999999999858e-01,-3.759678655557516791e-01,2.392145999744196561e-01,-1.836643055231212407e-01
7.349999999999999867e-01,9.945424650911895148e-02,3.826775201902147816e-01,-2.826622966511754265e-01
7.359999999999999876e-01,4.534458326633283853e-01,1.417213591422284980e-01,-9.840092511678899534e-02
7.369999999999999885e-01,3.699471533331083473e-01,-2.381699985375622386e-01,1.929181730825880181e-01
7.379999999999999893e-01,-7.220752945726453820e-02,-3.869031829725070315e-01,3.036781539195602120e-01
7.389999999999999902e-01,-4.346661894089141609e-01,-1.421367893019601647e-01,1.203888835682434960e-01
7.399999999999999911e-01,-3.896440578456571435e-01,2.334108030848500437e-01,-1.665991744074033498e-01
7.409999999999999920e-01,6.198518834952058271e-02,3.781566171243751495e-01,-2.963285465311416012e-01
7.419999999999999929e-01,4.333581616705628470e-01,1.279075541334823707e-01,-1.296099285228206333e-01
7.429999999999999938e-01,3.991384561357224081e-01,-2.484906254424872896e-01,1.620629899664509377e-01
7.439999999999999947e-01,-4.936179136717293997e-02,-3.761631230388418068e-01,2.804956469687540088e-01
7.449999999999999956e-01,-4.491466400842382689e-01,-1.427868231363479401e-01,1.391617534139468482e-01
7.459999999999999964e-01,-3.847868613524536574e-01,2.559571691686405859e-01,-1.335700166279975010e-01
7.469999999999999973e-01,2.703788996958022411e-02,3.727893523329579573e-01,-2.932103418951731433e-01
7.479999999999999982e-01,4.394416486947917977e-01,1.345969940148565303e-01,-1.495265644898252089e-01
7.489999999999999991e-01,4.101020103137228423e-01,-2.606084911838306706e-01,1.438229139327449890e-01
7.500000000000000000e-01,-3.397026189812944047e-02,-3.888138191231776397e-01,2.978086367796957679e-01
7.510000000000000009e-01,-4.303048917200909540e-01,-1.343907929156339665e-01,1.615945524223870722e-01
7.520000000000000018e-01,-3.991767478759713494e-01,2.485332170946751851e-01,-1.196050430676291881e-01
7.530000000000000027e-01,1.806623748982633462e-02,3.731555678616403915e-01,-2.783539770935613555e-01
7.540000000000000036e-01,4.316168890385308488e-01,1.252632369090103670e-01,-1.767086190498754761e-01
7.550000000000000044e-01,4.018246142350775374e-01,-2.716511338087067573e-01,9.994218074526968476e-02
7.560000000000000053e-01,-6.253543345637240479e-03,-3.853406495356000994e-01,2.907122751979158704e-01
7.570000000000000062e-01,-4.276613432743426313e-01,-1.068970937210186878e-01,1.957417597700232825e-01
7.580000000000000071e-01,-4.126939221253040913e-01,2.548360803637275684e-01,-9.182840709361893283e-02
7.590000000000000080e-01,-1.579560494196304704e-02,3.639732498378729364e-01,-2.896002908970819467e-01
7.600000000000000089e-01,4.149065156583812142e-01,1.116333278252093913e-01,-2.036371590686946176e-01
7.610000000000000098e-01,4.216134440197256694e-01,-2.697788818625500018e-01,7.968969742083341357e-02
7.620000000000000107e-01,1.911536378524309257e-02,-3.873107589968786679e-01,2.717780715580426221e-01
7.630000000000000115e-01,-4.002395815754380970e-01,-9.759856986747487972e-02,2.133524018090864893e-01
7.640000000000000124e-01,-4.189049986023362648e-01,2.829857051782745936e-01,-8.323064751284102447e-02
7.650000000000000133e-01,-1.232489424867489435e-02,3.684994776898041779e-01,-2.794784093451264662e-01
7.660000000000000142e-01,4.091662425101440514e-01,8.177269026020222986e-02,-2.211506492313496941e-01
7.670000000000000151e-01,4.394473785703681967e-01,-2.918675867387569012e-01,5.461434231119377536e-02
7.680000000000000160e-01,3.176479855668699892e-02,-3.775645788780564449e-01,2.520465255507574054e-01
7.690000000000000169e-01,-3.971482846787791621e-01,-1.007897666036325357e-01,2.219496834115856909e-01
7.700000000000000178e-01,-4.250723180315835736e-01,2.794050904718260453e-01,-2.479603347198954671e-02
7.710000000000000187e-01,-3.356306380599161782e-02,3.815547373999979008e-01,-2.513655792433489577e-01
7.720000000000000195e-01,3.915063773761879307e-01,9.852957344810592266e-02,-2.333171699943482336e-01
7.730000000000000204e-01,4.286027458785231503e-01,-2.547226302353888250e-01,1.286495221365079912e-02
7.740000000000000213e-01,4.569959769459851912e-02,-4.018332929388794272e-01,2.561764606144068535e-01
7.750000000000000222e-01,-3.865691692931849111e-01,-9.061803825542065483e-02,2.379259160326896994e-01
7.760000000000000231e-01,-4.461251893279591929e-01,2.789238214239954661e-01,4.798098766034279185e-03
7.770000000000000240e-01,-6.220480115757638651e-02,3.748176451410051846e-01,-2.421756139918520567e-01
7.780000000000000249e-01,3.990826753028511864e-01,8.873465574534410150e-02,-2.567219389716500211e-01
7.790000000000000258e-01,4.331576433601195819e-01,-2.971092820354357955e-01,-8.965196713513187698e-03
7.800000000000000266e-01,6.491282898221059638e-02,-3.666195618282620527e-01,2.563946359840857392e-01
7.810000000000000275e-01,-3.712205921750112436e-01,-8.628525931879864330e-02,2.738650759757146336e-01
7.820000000000000284e-01,-4.364553596472381947e-01,2.821669799738791840e-01,2.447768225732925226e-02
7.830000000000000293e-01,-6.375402246905630121e-02,3.632175177099603580e-01,-2.294086355612019179e-01
7.840000000000000302e-01,3.532358707881014803e-01,7.460676356875475812e-02,-2.671220183651255575e-01
7.850000000000000311e-01,4.409699114464492031e-01,-3.028880756213434555e-01,-5.720258124014984680e-02
7.860000000000000320e-01,7.996777574303902403e-02,-3.689718987320615984e-01,2.335767497539210646e-01
7.870000000000000329e-01,-3.772571291905345570e-01,-8.184186478389229857e-02,2.722649402544653485e-01
7.880000000000000338e-01,-4.568796681266055204e-01,2.776356909639250414e-01,5.144904381350497158e-02
7.890000000000000346e-01,-1.039109180618979361e-01,3.522933631261238596e-01,-2.237699654627310908e-01
7.900000000000000355e-01,3.442022944867085821e-01,6.899199127866924297e-02,-2.681186265278589498e-01
7.910000000000000364e-01,4.457233589862090728e-01,-2.923721097181920525e-01,-7.472954846262430673e-02
7.920000000000000373e-01,1.038475155703312974e-01,-3.663544367556796355e-01,2.110437747207632164e-01
7.930000000000000382e-01,-3.585070498949318174e-01,-6.644788794240036323e-02,2.833554550558563534e-01
7.940000000000000391e-01,-4.720987608546524661e-01,2.884388261755255201e-01,7.713021808953064717e-02
7.950000000000000400e-01,-1.033686056796042779e-01,3.522040080633335180e-01,-1.837359735906075597e-01
7.960000000000000409e-01,3.475745974497101431e-01,5.560438086588411627e-02,-2.735683640539318673e-01
7.970000000000000417e-01,4.546298189798842482e-01,-3.158808868420987515e-01,-1.142572438432029464e-01
7.980000000000000426e-01,1.178415495235678179e-01,-3.613883073831752335e-01,1.739850185598616761e-01
7.990000000000000435e-01,-3.362098975825920655e-01,-3.938605179019577518e-02,2.854882268957067981e-01
8.000000000000000444e-01,-4.726626153911655526e-01,3.036624904064763597e-01,1.105256261725840322e-01
8.010000000000000453e-01,-1.350493723969972970e-01,3.812912424815099732e-01,-1.788309597388285654e-01
8.020000000000000462e-01,3.301530588387624476e-01,3.433607640492702257e-02,-2.777512730295230714e-01
8.030000000000000471e-01,4.670757274786205837e-01,-3.120887849490989741e-01,-1.330291373519406350e-01
8.040000000000000480e-01,1.331373466202479261e-01,-3.561834158331915745e-01,1.625231316700215811e-01
8.050000000000000488e-01,-3.293741406152457807e-01,-4.184055827088858925e-02,3.031006195602435893e-01
8.060000000000000497e-01,-4.727366129928133320e-01,3.164983837669055333e-01,1.348868643694395575e-01
8.070000000000000506e-01,-1.438018914386830771e-01,3.597390145909200032e-01,-1.362994534771529431e-01
8.080000000000000515e-01,3.096058853947593059e-01,3.228828491269606499e-02,-2.864210102858670282e-01
8.090000000000000524e-01,4.692466078081489744e-01,-3.228066898540028484e-01,-1.526929049328064336e-01
8.100000000000000533e-01,1.530632167383791653e-01,-3.464601811947689569e-01,1.407967155494304068e-01
8.110000000000000542e-01,-3.023158408277840659e-01,-4.335909432314692669e-02,2.895015787621610381e-01
8.120000000000000551e-01,-4.879538341515118338e-01,3.138027186547017733e-01,1.623881760625374149e-01
8.129999999999999449e-01,-1.605042657504723302e-01,3.477619927761717578e-01,-1.182153042724826963e-01
8.139999999999999458e-01,3.073356591211084399e-01,2.952650195384358411e-02,-2.836594852275498568e-01
8.149999999999999467e-01,4.731759897320897412e-01,-3.271170857405959476e-01,-1.624399642257660648e-01
8.159999999999999476e-01,1.638087070722318850e-01,-3.548185650741021435e-01,1.093600453858197680e-01
8.169999999999999485e-01,-2.753154725738513608e-01,-3.972105775868706168e-02,2.789564266131444592e-01
8.179999999999999494e-01,-4.866744012755310211e-01,3.238747882543074330e-01,1.881286183204340379e-01
8.189999999999999503e-01,-1.933563566239064890e-01,3.505617905796892808e-01,-7.781753173768313214e-02
8.199999999999999512e-01,2.849544360522591746e-01,2.257692866750196647e-02,-2.793464884580143526e-01
8.209999999999999520e-01,4.863176807652515032e-01,-3.262636236974088555e-01,-2.092234817980547779e-01
8.219999999999999529e-01,1.990188558567201893e-01,-3.507214160921686696e-01,6.579775210623525772e-02
8.229999999999999538e-01,-2.948577279681531826e-01,-1.834248702671243542e-02,2.750934105877463898e-01
8.239999999999999547e-01,-4.800206967384890722e-01,3.325605377674011875e-01,2.119568141118205185e-01
8.249999999999999556e-01,-1.940371027998240849e-01,3.441486619001049574e-01,-6.590802968067009660e-02
8.259999999999999565e-01,2.967331081948260674e-01,1.342542040390479890e-02,-2.755012351073294896e-01
8.269999999999999574e-01,4.658569677807918863e-01,-3.290306434740037922e-01,-2.201140247560217922e-01
8.279999999999999583e-01,2.129931861225073109e-01,-3.346366788205306086e-01,4.062006258760796767e-02
8.289999999999999591e-01,-2.651974718290101563e-01,-1.727999311455842568e-02,2.856627369744380585e-01
8.299999999999999600e-01,-4.925994304063139873e-01,3.282422300951094440e-01,2.232989937407109104e-01
8.309999999999999609e-01,-2.159727787568521407e-01,3.430016588042056336e-01,-3.116375502551633689e-02
8.319999999999999618e-01,2.646093487782327780e-01,1.223399618129674543e-02,-2.816302862289798425e-01
8.329999999999999627e-01,4.755487405992274152e-01,-3.434585675424190465e-01,-2.384824549692339257e-01
8.339999999999999636e-01,2.216626243094909077e-01,-3.507164622248017394e-01,2.775619146684077040e-02
8.349999999999999645e-01,-2.629303233577471310e-01,4.818303220423382147e-03,2.653089177109762553e-01
8.359999999999999654e-01,-4.864711434993364003e-01,3.330405500482863101e-01,2.417532423874871050e-01
8.369999999999999662e-01,-2.416909149800588741e-01,3.363784997979000213e-01,-1.032546334967143070e-02
8.379999999999999671e-01,2.349753342678119195e-01,-3.561014240642089088e-03,-2.475903183663483442e-01
8.389999999999999680e-01,4.644934065917858956e-01,-3.457566812250953969e-01,-2.525764659220585129e-01
8.399999999999999689e-01,2.528666059765410368e-01,-3.249784435237997871e-01,4.774860837502106423e-03
8.409999999999999698e-01,-2.407374986993373600e-01,-1.167316125826305161e-03,2.588050516565298942e-01
8.419999999999999707e-01,-4.786322967195852374e-01,3.353254655596888956e-01,2.675571729744150029e-01
8.429999999999999716e-01,-2.505305607389946010e-01,3.242816600841668118e-01,3.992880375441125451e-02
8.439999999999999725e-01,2.320133700807093524e-01,-2.982531735893945504e-02,-2.254484500856333007e-01
8.449999999999999734e-01,4.830731842369231921e-01,-3.396545253402823428e-01,-2.719859581397070514e-01
8.459999999999999742e-01,2.476911844353782421e-01,-3.303445854216157107e-01,-3.364664432542055494e-02
8.469999999999999751e-01,-2.084879534107889343e-01,2.195330253668887829e-02,2.330927072540210365e-01
8.479999999999999760e-01,-4.964944516583697509e-01,3.434300101484012435e-01,2.607628773038404568e-01
8.489999999999999769e-01,-2.736336795408390032e-01,3.320674354191087141e-01,5.543560035032667199e-02
8.499999999999999778e-01,1.960981836801158895e-01,-2.998309978650802107e-02,-2.124105087320569407e-01
8.509999999999999787e-01,5.013147189081481603e-01,-3.459940094499053820e-01,-2.884705518563628335e-01
8.519999999999999796e-01,2.717729534972603278e-01,-3.167359725934967840e-01,-7.172474006719968542e-02
8.529999999999999805e-01,-1.870968241646537300e-01,2.396612488722475037e-02,2.050263287202840345e-01
8.539999999999999813e-01,-4.697029039451254273e-01,3.563297447443635191e-01,2.699092632581637785e-01
8.549999999999999822e-01,-2.833616088291504020e-01,3.218675282056015496e-01,7.319458044865242985e-02
8.559999999999999831e-01,1.918028953625559030e-01,-4.383682079482582872e-02,-1.820387719739968158e-01
8.569999999999999840e-01,4.987248602293899991e-01,-3.568816288234035738e-01,-2.950881118162014816e-01
8.579999999999999849e-01,2.844687165639043780e-01,-3.165635334488290376e-01,-1.158536450254922107e-01
8.589999999999999858e-01,-1.732898561556399930e-01,3.322235947984591986e-02,1.672705246116025779e-01
8.599999999999999867e-01,-4.763154214573746548e-01,3.495228999215309051e-01,2.816359759184949296e-01
8.609999999999999876e-01,-3.064295712783013936e-01,3.039948176004459990e-01,1.137847884445497143e-01
8.619999999999999885e-01,1.628064057179595403e-01,-4.746991488516501267e-02,-1.765703202187286769e-01
8.629999999999999893e-01,4.687743914416107049e-01,-3.548259506615265568e-01,-2.714253556163169212e-01
8.639999999999999902e-01,3.013485397144970435e-01,-3.157658270722952798e-01,-1.169440141739302302e-01
8.649999999999999911e-01,-1.835686894283470039e-01,4.779239282626190216e-02,1.594746711500942271e-01
8.659999999999999920e-01,-4.783960601432340476e-01,3.621442210806637974e-01,2.926783602139482188e-01
8.669999999999999929e-01,-3.103561805930279971e-01,3.295757985763246301e-01,1.381827045105376017e-01
8.679999999999999938e-01,1.623676335829160322e-01,-4.354322015337392521e-02,-1.532073940462547190e-01
8.689999999999999947e-01,4.520820351543121673e-01,-3.689906623256010709e-01,-2.811259763896210573e-01
8.699999999999999956e-01,3.032716839157030275e-01,-3.172229817576776578e-01,-1.446061080735375759e-01
8.709999999999999964e-01,-1.428402451063330580e-01,5.261475901749192163e-02,1.247883672608586098e-01
8.719999999999999973e-01,-4.764715452741652979e-01,3.504513905175673516e-01,2.920995920359166775e-01
8.729999999999999982e-01,-3.236642473424806710e-01,3.050771467424011063e-01,1.582982016562649585e-01
8.739999999999999991e-01,1.381740692838871465e-01,-5.733423080167764779e-02,-1.233494909604027495e-01
8.750000000000000000e-01,4.719827874182763727e-01,-3.605033250398574918e-01,-2.795040342734166905e-01
8.760000000000000009e-01,3.366098362565261293e-01,-2.981483031093230540e-01,-1.654913538159252517e-01
8.770000000000000018e-01,-1.330137192465756513e-01,5.796984991383809932e-02,1.036492032831557997e-01
8.780000000000000027e-01,-4.730409063013753523e-01,3.649526801796044162e-01,2.820013374554514729e-01
8.790000000000000036e-01,-3.552978002259574164e-01,2.881124132204954669e-01,1.797388939716716705e-01
8.800000000000000044e-01,1.235220534682573701e-01,-7.481743881396556162e-02,-9.012006481550839665e-02
8.810000000000000053e-01,4.587703562210885266e-01,-3.656498073866963350e-01,-2.980632490733786666e-01
8.820000000000000062e-01,3.533044679502617136e-01,-2.860819800174162486e-01,-2.132602593393207180e-01
8.830000000000000071e-01,-1.130709338880750009e-01,8.048934888446111768e-02,8.137831030012794564e-02
8.840000000000000080e-01,-4.623187977411382654e-01,3.657190587223490552e-01,2.805796153168449436e-01
8.850000000000000089e-01,-3.679783929745852333e-01,2.871073456470029650e-01,2.163028235889493112e-01
8.860000000000000098e-01,1.100842127453903058e-01,-7.553373079952205305e-02,-5.341075135806550023e-02
8.870000000000000107e-01,4.626294413742560452e-01,-3.642262877410147870e-01,-2.696569028260534795e-01
8.880000000000000115e-01,3.597107112215968683e-01,-2.881536678038066346e-01,-2.219379622710551392e-01
8.890000000000000124e-01,-1.018160557250590847e-01,7.025318461524991676e-02,3.724099124714420894e-02
8.900000000000000133e-01,-4.527372363403676103e-01,3.664679639679442325e-01,2.650955052220316244e-01
8.910000000000000142e-01,-3.641074588721054384e-01,2.972522003832945292e-01,2.278370821057527085e-01
8.920000000000000151e-01,9.121903140402437549e-02,-1.013367971537514206e-01,-4.032554013574582430e-02
8.930000000000000160e-01,4.469100047414560350e-01,-3.672333213844404254e-01,-2.650638314480076585e-01
8.940000000000000169e-01,3.665965021725572925e-01,-2.891175266052412596e-01,-2.364152826089654658e-01
8.950000000000000178e-01,-6.293016918790252101e-02,9.531549531004583631e-02,2.117980120746401976e-02
8.960000000000000187e-01,-4.643065548945897181e-01,3.766003745548368031e-01,2.422626609012334398e-01
8.970000000000000195e-01,-3.639191438509655763e-01,2.813425879736748403e-01,2.405174534074225323e-01
8.980000000000000204e-01,7.174303041197667430e-02,-8.123933480055764433e-02,2.958546942293579802e-03
8.990000000000000213e-01,4.500363699376265236e-01,-3.738108802113528917e-01,-2.497480955618696652e-01
9.000000000000000222e-01,3.788392855329196784e-01,-2.747522200575712725e-01,-2.525324295238385308e-01
9.010000000000000231e-01,-6.723391646761188445e-02,9.612917174775847950e-02,-6.672098917015267111e-03
9.020000000000000240e-01,-4.392580403283959933e-01,3.753553141635220802e-01,2.400142925017577922e-01
9.030000000000000249e-01,-3.948560118441391542e-01,2.742265653419819205e-01,2.644819451944450672e-01
9.040000000000000258e-01,6.017967095100948405e-02,-1.050394412772332198e-01,2.280539880182947191e-02
9.050000000000000266e-01,4.309580709573544444e-01,-3.708965616431894596e-01,-2.410693164249903264e-01
9.060000000000000275e-01,4.092727100438218746e-01,-2.780167427041052575e-01,-2.570881777955634218e-01
9.070000000000000284e-01,-4.957285768363101086e-02,1.161025144962276878e-01,-4.430872339066253829e-02
9.080000000000000293e-01,-4.369609371644555540e-01,3.850548123228048070e-01,2.060746917620001895e-01
9.090000000000000302e-01,-4.044584558068531899e-01,2.723181397863451703e-01,2.633820726085681074e-01
9.100000000000000311e-01,2.678321130751343260e-02,-1.094764495349325739e-01,4.619207221862994123e-02
9.110000000000000320e-01,4.196176838749411386e-01,-3.767139317154830636e-01,-2.228168889670202601e-01
9.120000000000000329e-01,4.008465341023139672e-01,-2.642945746333733026e-01,-2.847205369882401804e-01
9.130000000000000338e-01,-3.670325085218824075e-03,1.238156015648253921e-01,-5.640299629911565971e-02
9.140000000000000346e-01,-4.387899206448188649e-01,3.618594701907356659e-01,1.991524047051231039e-01
9.150000000000000355e-01,-4.229510041641819651e-01,2.781708537468527420e-01,2.881020953598921741e-01
9.160000000000000364e-01,1.893384903048385762e-02,-1.294481959432544349e-01,6.099380059817580829e-02
9.170000000000000373e-01,4.173017037491674186e-01,-3.823476834908218214e-01,-1.979000053993847652e-01
9.180000000000000382e-01,4.257745888954039826e-01,-2.359411556871231774e-01,-2.917411365625020570e-01
9.190000000000000391e-01,-1.740945247868360551e-02,1.279750959866889914e-01,-9.484007090336969703e-02
9.200000000000000400e-01,-4.147828754740213175e-01,3.781884786881423710e-01,1.908659089984824087e-01
9.210000000000000409e-01,-4.271160250844999173e-01,2.684081316008122275e-01,2.968229394386360243e-01
9.220000000000000417e-01,-1.536725136085416964e-02,-1.320160744156216592e-01,9.638090483611480574e-02
9.230000000000000426e-01,4.034114907710167341e-01,-3.767297559218575898e-01,-1.893994383901915768e-01
9.240000000000000435e-01,4.330041745007464082e-01,-2.436574721158498713e-01,-2.867035463273792661e-01
9.250000000000000444e-01,1.785665386544016756e-02,1.237656066703200913e-01,-1.207064178836766560e-01
9.260000000000000453e-01,-3.984758878095808754e-01,3.831883479496268619e-01,1.589466212832816305e-01
9.270000000000000462e-01,-4.122736635123420146e-01,2.472027618618590772e-01,2.900009746273514155e-01
9.280000000000000471e-01,-3.345418745078356654e-02,-1.281423144169422101e-01,1.198720805744353385e-01
9.290000000000000480e-01,3.916588861065753990e-01,-3.732990405352614727e-01,-1.556312767242071515e-01
9.300000000000000488e-01,4.336338714863648414e-01,-2.460258827877111476e-01,-2.776755349620345092e-01
9.310000000000000497e-01,3.327753789578043186e-02,1.509688529799826373e-01,-1.453073550496978839e-01
9.320000000000000506e-01,-3.909124910953385990e-01,3.680759184644801230e-01,1.481771557390532679e-01
9.330000000000000515e-01,-4.308316937509051869e-01,2.426337763637951284e-01,2.978590039756012775e-01
9.340000000000000524e-01,-3.692466051638668839e-02,-1.489219790550377620e-01,1.651932304057495415e-01
9.350000000000000533e-01,3.872664209899028265e-01,-3.826357618115028281e-01,-1.306763949635717237e-01
9.360000000000000542e-01,4.431697493779526709e-01,-2.340140905406185856e-01,-2.895298888996171716e-01
9.370000000000000551e-01,5.710407784199629522e-02,1.525856680450838887e-01,-1.734038406471585247e-01
9.379999999999999449e-01,-3.986833422330361976e-01,3.883594670652842362e-01,1.142314109827516772e-01
9.389999999999999458e-01,-4.631884914503124895e-01,2.332318081640016028e-01,2.927112990754321409e-01
9.399999999999999467e-01,-6.367868362470385790e-02,-1.570063526478140126e-01,1.766461230329093857e-01
9.409999999999999476e-01,3.746012774217420960e-01,-3.812161713608869795e-01,-1.016932232805845826e-01
9.419999999999999485e-01,4.481141113810546694e-01,-2.301856446628947339e-01,-2.827448716792745342e-01
9.429999999999999494e-01,7.885173140087994859e-02,1.604200587450810844e-01,-1.990970414298997015e-01
9.439999999999999503e-01,-3.700129876960077113e-01,3.829436359907940624e-01,8.950426674058845067e-02
9.449999999999999512e-01,-4.647759634690070696e-01,2.206365016964650649e-01,2.844794744423663202e-01
9.459999999999999520e-01,-8.822866115972895218e-02,-1.513423794169933556e-01,2.066235061354902147e-01
9.469999999999999529e-01,3.511831284490161686e-01,-3.951181995316860873e-01,-8.017890487797396659e-02
9.479999999999999538e-01,4.527123073949019805e-01,-2.267381914572564050e-01,-2.717768908384770032e-01
9.489999999999999547e-01,9.670758987941423246e-02,1.729691923720269586e-01,-2.255484270990779638e-01
9.499999999999999556e-01,-3.812436595817122464e-01,3.819260322547985975e-01,5.375581116391695696e-02
9.509999999999999565e-01,-4.437700569458580269e-01,2.209975598721377610e-01,2.645483088072087541e-01
9.519999999999999574e-01,-1.059239309596677198e-01,-1.864257799430298068e-01,2.191364465645170012e-01
9.529999999999999583e-01,3.536801491230875949e-01,-3.842690372993385894e-01,-5.738061156566352794e-02
9.539999999999999591e-01,4.628001436467728547e-01,-2.162136617791554083e-01,-2.725574016859559912e-01
9.549999999999999600e-01,9.991112432884899364e-02,1.683682311732723480e-01,-2.320250723272479221e-01
9.559999999999999609e-01,-3.477612434853341594e-01,3.848887586443261455e-01,1.636841036890698819e-02
9.569999999999999618e-01,-4.677614441151366487e-01,2.041167039433195718e-01,2.631438795273571274e-01
9.579999999999999627e-01,-1.015680671826772047e-01,-1.796284945518832055e-01,2.429626410735018227e-01
9.589999999999999636e-01,3.324908137967510502e-01,-3.900488230319402172e-01,-3.017032019399447720e-02
9.599999999999999645e-01,4.802924930763054490e-01,-2.163281827246405498e-01,-2.723432811555435151e-01
9.609999999999999654e-01,1.325916624058059434e-01,1.966922034028968369e-01,-2.566054872999334879e-01
9.619999999999999662e-01,-3.445647724394415023e-01,3.844898593072076931e-01,-1.556246772845462471e-02
9.629999999999999671e-01,-4.599711407852746237e-01,2.101367226454756154e-01,2.432457935430169804e-01
9.639999999999999680e-01,-1.344667099086567785e-01,-1.683864993367421015e-01,2.381706286314004273e-01
9.649999999999999689e-01,3.103423833631817064e-01,-3.888208657749487873e-01,2.143598914143939049e-02
9.659999999999999698e-01,4.753875278803710303e-01,-1.912935573745878082e-01,-2.304186164991223196e-01
9.669999999999999707e-01,1.565276085625510183e-01,1.828282898161268377e-01,-2.412109727526684233e-01
9.679999999999999716e-01,-3.191852213763591295e-01,3.726677367010256536e-01,-1.491386181648143329e-02
9.689999999999999725e-01,-4.852291116846442764e-01,1.819241696247533013e-01,2.383043827779763590e-01
9.699999999999999734e-01,-1.498873458050832830e-01,-1.801556501363312246e-01,2.754703724466270320e-01
9.709999999999999742e-01,3.171396380634360357e-01,-3.905281370364969140e-01,5.968417659413224191e-02
9.719999999999999751e-01,4.633271237716444779e-01,-1.836714141566410941e-01,-2.089933990217681392e-01
9.729999999999999760e-01,1.594103994770151300e-01,2.045530126471453158e-01,-2.604075713887468169e-01
9.739999999999999769e-01,-3.314810526730515572e-01,3.986342281023492751e-01,-6.906645485602667944e-02
9.749999999999999778e-01,-4.946021998414443233e-01,1.867992508874493085e-01,2.184764148571712028e-01
9.759999999999999787e-01,-1.861757650123002095e-01,-1.995116798840199102e-01,2.979529803572312230e-01
9.769999999999999796e-01,3.030962625382083719e-01,-4.104930803546342766e-01,6.106165236389100165e-02
9.779999999999999805e-01,4.800865752330341074e-01,-1.870948108701358248e-01,-1.931681365541502993e-01
9.789999999999999813e-01,2.038623721097529984e-01,2.150672272531402585e-01,-2.877484395798455830e-01
9.799999999999999822e-01,-2.991835452073074442e-01,3.868329269860809050e-01,-8.082109962720694651e-02
9.809999999999999831e-01,-4.617768327480497037e-01,1.796256490130253847e-01,2.062125796746255013e-01
9.819999999999999840e-01,-2.119911991859187717e-01,-2.072763903057703860e-01,2.811678954272548991e-01
9.829999999999999849e-01,2.915085168765809143e-01,-3.933923900778849014e-01,1.011821003478421271e-01
9.839999999999999858e-01,4.763441149630510685e-01,-1.724385342029793322e-01,-1.914746752153723419e-01
9.849999999999999867e-01,2.163032548909617214e-01,2.142009369043592071e-01,-2.835788326270137771e-01
9.859999999999999876e-01,-2.809855405161214570e-01,3.997691825085647466e-01,-1.114727225312833331e-01
9.869999999999999885e-01,-4.776117006575235080e-01,1.759403541223852618e-01,1.630124925142507342e-01
9.879999999999999893e-01,-2.069023258573832735e-01,-2.049240349832852359e-01,2.743072902171628247e-01
9.889999999999999902e-01,2.671432602641824472e-01,-3.825450684833077153e-01,1.316004598475799536e-01
9.899999999999999911e-01,4.929705425541395236e-01,-1.818893224209979509e-01,-1.575273524061936992e-01
9.909999999999999920e-01,1.932214250341800499e-01,2.152048792459397009e-01,-2.933341017818493213e-01
9.919999999999999929e-01,-2.575536556117631881e-01,3.824529087364912372e-01,-1.476344668756524592e-01
9.929999999999999938e-01,-4.795194343934217063e-01,1.616318586411480407e-01,1.510894986805501050e-01
9.939999999999999947e-01,-2.231581727468547605e-01,-2.276842399136397299e-01,2.847853732168216245e-01
9.949999999999999956e-01,2.545714484184710691e-01,-3.935637284828046312e-01,1.547871349227037951e-01
9.959999999999999964e-01,4.947703020571242449e-01,-1.487313476733866102e-01,-1.144745533299412615e-01
9.969999999999999973e-01,2.271670269823501398e-01,2.185946658837961687e-01,-2.888505923054954239e-01
9.979999999999999982e-01,-2.372227151075212426e-01,3.939071331415424648e-01,-1.612274608080984384e-01
9.989999999999999991e-01,-4.986909869788097027e-01,1.674535311507787394e-01,1.106230545449028851e-01
1.000000000000000000e+00,-2.566769803958954266e-01,-2.313422759327552203e-01,2.964780393480008214e-01
1.000999999999999890e+00,2.418802895177636081e-01,-3.774437584692257319e-01,1.848971323430290969e-01
1.002000000000000002e+00,4.674477398803537631e-01,-1.592781214892055319e-01,-1.133880721979446254e-01
1.002999999999999892e+00,2.498012428350662451e-01,2.226155761947173906e-01,-2.921101475688310800e-01
1.004000000000000004e+00,-2.077684208649320796e-01,3.852466773108258469e-01,-1.865544443737244540e-01
1.004999999999999893e+00,-4.771293192037643904e-01,1.439530714261668676e-01,7.995891969455959369e-02
1.006000000000000005e+00,-2.542699872301055208e-01,-2.258896119699632388e-01,2.800969646641850441e-01
1.006999999999999895e+00,2.331886463154852485e-01,-3.848312403802967019e-01,1.872313208316679634e-01
1.008000000000000007e+00,4.841093481270057897e-01,-1.441067453193729531e-01,-7.090711807057753502e-02
1.008999999999999897e+00,2.678167706856491859e-01,2.404212467781309259e-01,-2.832464578111774656e-01
1.010000000000000009e+00,-2.030269355918281060e-01,3.736668231103780768e-01,-2.183609440654348255e-01
1.010999999999999899e+00,-4.792315198831242906e-01,1.471763784386806440e-01,6.162108362291433827e-02
1.012000000000000011e+00,-2.880832921204570241e-01,-2.426741179614676780e-01,2.691318170158121803e-01
1.012999999999999901e+00,2.079801468958244193e-01,-3.827751949538111820e-01,2.185614028362606043e-01
1.014000000000000012e+00,4.916486999985648088e-01,-1.404806704602197531e-01,-4.650676658633976640e-02
1.014999999999999902e+00,2.842155913345978946e-01,2.637234240746384462e-01,-2.665624152107997635e-01
1.016000000000000014e+00,-1.865800014982663957e-01,3.804116423073356512e-01,-2.243997181055046031e-01
1.016999999999999904e+00,-4.838289735888386400e-01,1.448841297443553833e-01,3.184296667546746007e-02
1.018000000000000016e+00,-3.003755081732182308e-01,-2.454194590923354791e-01,2.538958070780349408e-01
1.018999999999999906e+00,1.978619822016598195e-01,-3.913548946866769462e-01,2.411882751910192080e-01
1.020000000000000018e+00,4.682033828797031449e-01,-1.308482314994565410e-01,-1.671131315702620301e-02
1.020999999999999908e+00,3.032763701295859704e-01,2.496241901580030509e-01,-2.542761706342198114e-01
1.022000000000000020e+00,-1.699055874790086906e-01,3.703410518458188361e-01,-2.346143680812456112e-01
1.022999999999999909e+00,-4.720807828973291320e-01,1.042182323894319251e-01,1.116485657012530365e-02
1.024000000000000021e+00,-3.103278670634908032e-01,-2.434535846020653149e-01,2.514958490006107827e-01
1.024999999999999911e+00,1.562193126660770259e-01,-3.808488115494504389e-01,2.528790320678553361e-01
1.026000000000000023e+00,4.778512896187532277e-01,-1.264876366401077035e-01,1.960385720961013711e-02
1.026999999999999913e+00,3.098258836242383518e-01,2.607587966474654850e-01,-2.336865441822877920e-01
1.028000000000000025e+00,-1.582137214670009950e-01,3.730410089742098867e-01,-2.710745847025177735e-01
1.028999999999999915e+00,-4.687374721270617384e-01,1.078619409960410030e-01,-2.633704356972823082e-02
1.030000000000000027e+00,-3.244982414570907747e-01,-2.735517693264534755e-01,2.153745619699111713e-01
1.030999999999999917e+00,1.616815324857637515e-01,-3.730876735046579351e-01,2.613462085548253211e-01
1.032000000000000028e+00,4.837998131980985606e-01,-1.210014419879436864e-01,4.757226050800727329e-02
1.032999999999999918e+00,3.250340676805342222e-01,2.649846234846965354e-01,-2.335442556166451300e-01
1.034000000000000030e+00,-1.444972522624375644e-01,3.560463585018918131e-01,-2.749081294358327043e-01
1.034999999999999920e+00,-4.703852213783937253e-01,1.011561217419780778e-01,-5.755949698604489323e-02
1.036000000000000032e+00,-3.313418092456796860e-01,-2.926633422101010407e-01,2.160395264473099208e-01
1.036999999999999922e+00,1.370133945883806326e-01,-3.654980992688123265e-01,2.693283990149869522e-01
1.038000000000000034e+00,4.679791661985675533e-01,-1.110234513216575708e-01,7.150792245782972012e-02
1.038999999999999924e+00,3.433104029515036126e-01,2.711487653043491708e-01,-2.064042994666626107e-01
1.040000000000000036e+00,-1.190729766154641628e-01,3.787749205935701524e-01,-2.849348754211774026e-01
1.040999999999999925e+00,-4.708968811392183484e-01,1.082002724631835888e-01,-7.327364116251799953e-02
1.042000000000000037e+00,-3.606457094109322692e-01,-2.795694858526994175e-01,1.970756194164472175e-01
1.042999999999999927e+00,1.316993524171982399e-01,-3.590409055297907326e-01,2.834237393184012022e-01
1.044000000000000039e+00,4.658222035937535921e-01,-8.993041240849683482e-02,1.074149604797027119e-01
1.044999999999999929e+00,3.530872904471285545e-01,2.864066687837401037e-01,-1.932825061446010739e-01
1.046000000000000041e+00,-9.727789251789864533e-02,3.801775159287493211e-01,-2.901331666491783756e-01
1.046999999999999931e+00,-4.607422407578379842e-01,8.323930157074106717e-02,-1.214445205883473849e-01
1.048000000000000043e+00,-3.769181617838282539e-01,-2.787949310238135858e-01,1.773517154133184837e-01
1.048999999999999932e+00,8.045856186738221949e-02,-3.360600959472171412e-01,2.712594175800525087e-01
1.050000000000000044e+00,4.479643120811897528e-01,-6.135701394129510627e-02,1.298483362834091104e-01
1.050999999999999934e+00,3.627885477763015398e-01,2.710870097433321635e-01,-1.642950093526553967e-01
1.052000000000000046e+00,-8.471390782244861417e-02,3.695331133981406557e-01,-2.941337392617930924e-01
1.052999999999999936e+00,-4.537350384843263362e-01,9.352724044225620148e-02,-1.497342012821810953e-01
1.054000000000000048e+00,-3.743735796933816973e-01,-2.838886716351464723e-01,1.528927561655768486e-01
1.054999999999999938e+00,7.469555971854975607e-02,-3.589420735984852340e-01,2.925162772359534147e-01
1.056000000000000050e+00,4.432037730573873957e-01,-9.404766989210897044e-02,1.510635837872119913e-01
1.056999999999999940e+00,3.825371722502667327e-01,3.031697316738571346e-01,-1.385918988942817232e-01
1.058000000000000052e+00,-7.059034116903198375e-02,3.567610754949485652e-01,-2.960713648050501967e-01
1.058999999999999941e+00,-4.484131488670745069e-01,8.550842613415432503e-02,-1.618020353377794540e-01
1.060000000000000053e+00,-3.887643029850366694e-01,-2.722823785085273229e-01,1.083868794869411317e-01
1.060999999999999943e+00,5.214660090275510806e-02,-3.593384095959313296e-01,2.966660945223223433e-01
1.062000000000000055e+00,4.272053237669757864e-01,-6.878608799651966810e-02,1.784794037903991992e-01
1.062999999999999945e+00,3.922879143634512289e-01,3.010289970008343530e-01,-1.106946978666967507e-01
1.064000000000000057e+00,-4.044676658625458165e-02,3.532486016059551703e-01,-2.752647768099548697e-01
1.064999999999999947e+00,-4.460984514030105208e-01,6.459164504301273535e-02,-1.980233896652372205e-01
1.066000000000000059e+00,-3.928326040181046030e-01,-2.967916932134472274e-01,9.930925573103065174e-02
1.066999999999999948e+00,2.878819894185396036e-02,-3.623179016274298281e-01,2.854004142781358944e-01
1.068000000000000060e+00,4.362748723522697492e-01,-4.777623132648432802e-02,2.031154073913605251e-01
1.068999999999999950e+00,3.965054971425692742e-01,3.033854137388729555e-01,-6.878121524259865616e-02
1.070000000000000062e+00,-4.612392789059816672e-02,3.520513551389514162e-01,-2.601096413710283217e-01
1.070999999999999952e+00,-4.359372974540376422e-01,5.886630564755874345e-02,-2.014568446595764173e-01
1.072000000000000064e+00,-4.089962204589462358e-01,-3.213488797499867156e-01,5.247652509381243308e-02
1.072999999999999954e+00,1.124744251816950022e-02,-3.776085421405618869e-01,2.763990514134777032e-01
1.074000000000000066e+00,4.327792502301093247e-01,-3.418591964170225594e-02,2.403712990903068836e-01
1.074999999999999956e+00,4.082530322959372904e-01,3.117833848440519917e-01,-7.123378635683909332e-02
1.076000000000000068e+00,-2.298818113922800228e-03,3.515267180992195373e-01,-2.877967605577187449e-01
1.076999999999999957e+00,-4.316161991786210961e-01,4.688527045324231840e-02,-2.345403167100033603e-01
1.078000000000000069e+00,-4.336850216036096661e-01,-3.171518018371506931e-01,2.346777017838854243e-02
1.078999999999999959e+00,-3.897996079681036435e-03,-3.637847170322686119e-01,2.781731786714613519e-01
1.080000000000000071e+00,4.180434764768424238e-01,-4.173055671441101150e-02,2.493331175475670125e-01
1.080999999999999961e+00,4.204789688468772435e-01,3.070346454206655529e-01,-2.234607831761243821e-02
1.082000000000000073e+00,1.737517171778266839e-02,3.473238505066181259e-01,-2.633639074737590957e-01
1.082999999999999963e+00,-4.214280508808765924e-01,3.540865005911785629e-02,-2.427931669648239754e-01
1.084000000000000075e+00,-4.377051491550145723e-01,-3.158910600741094976e-01,1.776324597536689531e-02
1.084999999999999964e+00,3.950827340039574369e-04,-3.525703375805257500e-01,2.653368442205077393e-01
1.086000000000000076e+00,4.103846554605382613e-01,-2.660949271017265527e-02,2.537346717280279940e-01
1.086999999999999966e+00,4.389950920957482183e-01,3.257448012765381540e-01,1.287322085382969911e-02
1.088000000000000078e+00,2.212775269818017046e-02,3.507545143972265467e-01,-2.427974036883421005e-01
1.088999999999999968e+00,-3.942241700113128799e-01,2.526335616053819108e-02,-2.764778174947263301e-01
1.090000000000000080e+00,-4.433672720743351281e-01,-3.237354886570256163e-01,-1.956885559566711938e-02
1.090999999999999970e+00,-4.903898513352199229e-02,-3.677997159885278422e-01,2.404303909693676078e-01
1.092000000000000082e+00,3.943891680128765453e-01,-1.220786032423663327e-02,2.716920485352957160e-01
1.092999999999999972e+00,4.424863430340210124e-01,3.081926572693720612e-01,3.985291571127898974e-02
1.094000000000000083e+00,6.087034551721599157e-02,3.460627213360223386e-01,-2.408399234850039372e-01
1.094999999999999973e+00,-3.930019436793542043e-01,1.767874709251522278e-02,-2.902192761748565997e-01
1.096000000000000085e+00,-4.487046873615276876e-01,-3.173414699225894364e-01,-3.927606655173890987e-02
1.096999999999999975e+00,-7.508056713408323146e-02,-3.291905385887426427e-01,2.033699988839045292e-01
1.098000000000000087e+00,3.872870279645789782e-01,-1.489323847964258221e-02,2.915576226673606830e-01
1.098999999999999977e+00,4.539160557081816094e-01,3.159336689287107758e-01,6.889780299804902641e-02
1.100000000000000089e+00,7.022849503102145119e-02,3.305637433155255711e-01,-2.082494979135693647e-01
1.100999999999999979e+00,-3.776655730019484736e-01,1.025339404382758987e-02,-2.794893393599210407e-01
1.102000000000000091e+00,-4.438003833115519159e-01,-3.342620923539318945e-01,-8.174643425613355163e-02
1.102999999999999980e+00,-9.117851883760538789e-02,-3.394156004770954027e-01,1.858175821570277331e-01
1.104000000000000092e+00,3.838048685762440737e-01,-1.006860284878837754e-02,2.791462278098819638e-01
1.104999999999999982e+00,4.394697806363724868e-01,3.315713605815991949e-01,1.107059419629844166e-01
1.106000000000000094e+00,8.557262102958182459e-02,3.387835575959650680e-01,-1.869325089402339157e-01
1.106999999999999984e+00,-3.645891258846855609e-01,-1.588950709408576412e-02,-3.015906911706051630e-01
1.108000000000000096e+00,-4.615968070481440422e-01,-3.344633661220711707e-01,-1.030120074852489964e-01
1.108999999999999986e+00,-9.156776001036862067e-02,-3.383232341763007245e-01,1.839746771570946460e-01
1.110000000000000098e+00,3.627358080043653898e-01,-1.345638627803890687e-02,2.798238898254477025e-01
1.110999999999999988e+00,4.735063190438356107e-01,3.369376921080056153e-01,1.141031990947038860e-01
1.112000000000000099e+00,9.625779703414712174e-02,3.335733506211894794e-01,-1.546438762546679113e-01
1.112999999999999989e+00,-3.702088873881764219e-01,-2.065976034090341237e-02,-2.796106771911254785e-01
1.114000000000000101e+00,-4.569514330864459795e-01,-3.467495517632310786e-01,-1.210624750031179253e-01
1.114999999999999991e+00,-1.305523785186930852e-01,-3.318282888750210269e-01,1.545655741297790320e-01
1.116000000000000103e+00,3.381627600743425388e-01,1.408071930650892090e-02,2.940431323911942285e-01
1.116999999999999993e+00,4.659416833637185507e-01,3.379362540639389012e-01,1.436061801342188582e-01
1.118000000000000105e+00,1.173704975406475171e-01,3.114289489454438731e-01,-1.431995908244492188e-01
1.118999999999999995e+00,-3.423828550356551315e-01,-3.910355541068358948e-02,-2.917805366390855970e-01
1.120000000000000107e+00,-4.564300285128923274e-01,-3.447418998946267243e-01,-1.636978476338225574e-01
1.120999999999999996e+00,-1.359666685446746515e-01,-3.306398471963567509e-01,1.205150294329330324e-01
1.122000000000000108e+00,3.542684501044191525e-01,2.513508008995481852e-02,2.825462780636493476e-01
1.122999999999999998e+00,4.793340252324971851e-01,3.433348944318539986e-01,1.898277177294049600e-01
1.124000000000000110e+00,1.571408156582502214e-01,3.065643850719591001e-01,-1.062760976609586905e-01
1.125000000000000000e+00,-3.260063283334520556e-01,-2.122783505088941813e-02,-2.839231723320818634e-01
1.125999999999999890e+00,-4.784370029318443240e-01,-3.538479920149951163e-01,-1.845172931039674169e-01
1.127000000000000002e+00,-1.402596920929370661e-01,-3.246321854029673437e-01,9.552206484405463549e-02
1.127999999999999892e+00,3.023570121126532007e-01,5.381190152196889398e-02,2.798267607410301894e-01
1.129000000000000004e+00,4.591642454041557908e-01,3.533729474326632314e-01,2.028199096170934246e-01
1.129999999999999893e+00,1.479340433660748799e-01,3.106150196627761595e-01,-8.840603141213296268e-02
1.131000000000000005e+00,-3.127308122349349850e-01,-2.864257370648352549e-02,-2.860140677034418988e-01
1.131999999999999895e+00,-4.767169015120704678e-01,-3.497156603740360081e-01,-2.115572335700884876e-01
1.133000000000000007e+00,-1.621403289634714417e-01,-3.152643636160730178e-01,7.923429368716247700e-02
1.133999999999999897e+00,3.167341374124579834e-01,3.846841933617881071e-02,2.763455167600223361e-01
1.135000000000000009e+00,4.806031215547935664e-01,3.542898239642215397e-01,2.063398907821055450e-01
1.135999999999999899e+00,1.767842923516568243e-01,3.160902677436253638e-01,-6.101854865652871912e-02
1.137000000000000011e+00,-3.068483147919796594e-01,-4.034659909460913685e-02,-2.839389340252814753e-01
1.137999999999999901e+00,-4.759216874808709363e-01,-3.471549254886952540e-01,-2.226368697734336100e-01
1.139000000000000012e+00,-1.919689483704450361e-01,-3.127158598067341089e-01,2.780072896823077358e-02
1.139999999999999902e+00,2.859006582158067911e-01,3.803215653662533891e-02,2.658527525245995560e-01
1.141000000000000014e+00,4.862774515977178469e-01,3.470698170015255601e-01,2.378959453511285405e-01
1.141999999999999904e+00,2.076557771755112303e-01,3.000785890906094155e-01,-1.968625197637281082e-02
1.143000000000000016e+00,-2.821374098677391085e-01,-4.998373367912775644e-02,-2.537951136786675277e-01
1.143999999999999906e+00,-4.686596779015296810e-01,-3.622277447364531389e-01,-2.462711281085825932e-01
1.145000000000000018e+00,-2.119144920893221984e-01,-3.033223637278022466e-01,1.810514786639565860e-02
1.145999999999999908e+00,2.635245021013706279e-01,5.877475597597658918e-02,2.566806279403166524e-01
1.147000000000000020e+00,4.796331987956386489e-01,3.714367442445458134e-01,2.401836524954364394e-01
1.147999999999999909e+00,2.253725637102468038e-01,3.057642495614980027e-01,1.298487789175485976e-02
1.149000000000000021e+00,-2.816183727540583215e-01,-5.920323737932078889e-02,-2.308371841680554315e-01
1.149999999999999911e+00,-4.838739591391268968e-01,-3.423384188619678636e-01,-2.521889878388639539e-01
1.151000000000000023e+00,-2.174408992534499485e-01,-2.874780097782251853e-01,-2.765142578704623405e-02
1.151999999999999913e+00,2.747408763609560656e-01,5.068375861965999235e-02,2.318352404786681309e-01
1.153000000000000025e+00,4.761379140596586068e-01,3.665535678897207106e-01,2.705890228947613885e-01
1.153999999999999915e+00,2.288077561651639391e-01,3.131580988580681124e-01,2.222786920807519329e-02
1.155000000000000027e+00,-2.474055478735161240e-01,-8.179381933814144912e-02,-2.412424984818646867e-01
1.155999999999999917e+00,-4.731636595864244232e-01,-3.539900685702177530e-01,-2.738927989833946364e-01
1.157000000000000028e+00,-2.310672959070993737e-01,-2.906308824968029669e-01,-4.594061364692678118e-02
1.157999999999999918e+00,2.382416400605665008e-01,8.095631513553643022e-02,1.979820756922480995e-01
1.159000000000000030e+00,4.830772705245667820e-01,3.727073781345872638e-01,2.674402166407384707e-01
1.159999999999999920e+00,2.520826828316519164e-01,3.005972298013693256e-01,8.081906089416579508e-02
1.161000000000000032e+00,-2.303998127395393558e-01,-9.421892321762001532e-02,-2.054288041177672886e-01
1.161999999999999922e+00,-4.727050969101629918e-01,-3.683359087501308915e-01,-2.724961243993551108e-01
1.163000000000000034e+00,-2.531245082370741639e-01,-2.785486179067890311e-01,-8.416382115510677442e-02
1.163999999999999924e+00,2.176933129452236215e-01,9.132766206733050618e-02,1.896898878355655904e-01
1.165000000000000036e+00,4.652219347962799900e-01,3.622146549964935236e-01,2.724831676981733231e-01
1.165999999999999925e+00,2.657923480028089869e-01,2.736565861698718738e-01,7.871562472496000662e-02
1.167000000000000037e+00,-2.329624371744833111e-01,-8.559264834749398532e-02,-1.733281523618118436e-01
1.167999999999999927e+00,-4.954732548639436129e-01,-3.720011043903789227e-01,-2.923840025349087046e-01
1.169000000000000039e+00,-2.767261520915587081e-01,-2.790932552140100720e-01,-9.718498559564373029e-02
1.169999999999999929e+00,2.111409019519918662e-01,9.310889419432584468e-02,1.865751988982581600e-01
1.171000000000000041e+00,4.919018073872346575e-01,3.680708446431338876e-01,2.745564905588979143e-01
1.171999999999999931e+00,2.659426741895716262e-01,2.725402943506000097e-01,1.267267229238396575e-01
1.173000000000000043e+00,-1.926180313125078480e-01,-9.497286699291700163e-02,-1.477883491019814644e-01
1.173999999999999932e+00,-4.748417742175833345e-01,-3.637309973994941603e-01,-2.881369901057641014e-01
1.175000000000000044e+00,-2.813651068885025808e-01,-2.674131259310477682e-01,-1.523189846706800854e-01
1.175999999999999934e+00,2.000691144522513398e-01,1.000399153624315224e-01,1.664748949137588308e-01
1.177000000000000046e+00,4.748812608505813548e-01,3.693035487322200439e-01,2.941705317706714284e-01
1.177999999999999936e+00,2.950219247069998385e-01,2.600385695965016231e-01,1.617499841011799389e-01
1.179000000000000048e+00,-1.814320217480195063e-01,-1.092056536744359097e-01,-1.296396861408641576e-01
1.179999999999999938e+00,-4.689800684299421096e-01,-3.907034821026613147e-01,-2.969916398062134588e-01
1.181000000000000050e+00,-2.899619503393696118e-01,-2.646582328537502860e-01,-1.680809345926752019e-01
