time,acc_x,acc_y,acc_z
0.000000000000000000e+00,-2.117501491564628691e-01,-1.895914466407387644e-01,-8.915041863880485140e-02
1.000000000000000021e-03,-2.304115374889154078e-01,-1.865566688903351478e-01,-1.384837619620384874e-01
2.000000000000000042e-03,-1.794262407679713678e-01,-6.274680676538411939e-02,-1.496971461313736929e-01
3.000000000000000062e-03,-9.687449655106391763e-03,6.593162328157343988e-02,-7.154107924890273917e-02
4.000000000000000083e-03,1.373026016168552021e-01,1.658801449177770282e-01,2.417042237923562598e-02
5.000000000000000104e-03,2.526923137979412703e-01,1.878441843118227872e-01,1.148623590813990097e-01
6.000000000000000125e-03,2.281638463789090188e-01,1.276161474508856475e-01,1.425327385026650684e-01
7.000000000000000146e-03,1.194981814378032747e-01,-1.583713274559267817e-02,1.186372995314768503e-01
8.000000000000000167e-03,-6.266452323586453599e-02,-1.246550085494364662e-01,3.451368858065547579e-02
8.999999999999999320e-03,-1.969178468148297667e-01,-2.057072848825047817e-01,-5.620934044721068168e-02
1.000000000000000021e-02,-2.445870584932519631e-01,-1.777497750096703744e-01,-1.252933048470828703e-01
1.099999999999999936e-02,-1.890018588400498023e-01,-7.189179387737262839e-02,-1.309884804320496088e-01
1.200000000000000025e-02,-4.013396879119589256e-02,6.196087173644872909e-02,-9.321695299241804233e-02
1.299999999999999940e-02,1.293913431175452711e-01,1.752670112466433727e-01,2.364290515676463348e-04
1.400000000000000029e-02,2.373637327685870491e-01,2.057107770858949969e-01,8.866346973077476878e-02
1.499999999999999944e-02,2.377496857195491586e-01,1.350186302773047076e-01,1.630227552560071513e-01
1.600000000000000033e-02,1.243797970702978511e-01,1.054015157759379505e-02,1.369566613983242420e-01
1.700000000000000122e-02,-3.271657161054872948e-02,-1.144413845565059040e-01,7.102172133929750275e-02
1.799999999999999864e-02,-1.816033456170439986e-01,-2.072068957498864328e-01,-4.878442805192927112e-02
1.899999999999999953e-02,-2.515116062433493949e-01,-1.838607812913811423e-01,-1.184306658562944981e-01
2.000000000000000042e-02,-2.131846207493872380e-01,-8.419778203009205264e-02,-1.473482243176095219e-01
2.100000000000000130e-02,-5.848486223351147262e-02,5.790215703867144376e-02,-1.160563302280664261e-01
2.199999999999999872e-02,9.897817417782388272e-02,1.676716139393903404e-01,-3.582158186106644548e-02
2.299999999999999961e-02,2.265564320473290594e-01,2.062031883759480599e-01,7.227797362194499087e-02
2.400000000000000050e-02,2.604901979026642000e-01,1.387391000240864591e-01,1.369291011565564320e-01
2.500000000000000139e-02,1.644593987272685853e-01,3.594686370985662738e-02,1.352000259182961073e-01
2.599999999999999881e-02,-3.735238029019186806e-02,-1.196420969709282300e-01,7.875234325812809077e-02
2.699999999999999969e-02,-1.614254109142559956e-01,-1.995445898654412131e-01,-1.360291311318939135e-02
2.800000000000000058e-02,-2.456576652900234747e-01,-1.715176021312677379e-01,-1.097000583749171837e-01
2.900000000000000147e-02,-1.976072379942042101e-01,-8.902925652920587463e-02,-1.467946186529455188e-01
2.999999999999999889e-02,-9.770492034117371494e-02,5.630167235985433088e-02,-1.251504567861653205e-01
3.099999999999999978e-02,6.920896597816321438e-02,1.561179444625589718e-01,-5.165102337731732746e-02
3.200000000000000067e-02,1.990731584274627597e-01,2.088626992664613935e-01,5.513752692375768066e-02
3.300000000000000155e-02,2.486617460137683366e-01,1.374985270111090396e-01,1.365804204571327285e-01
3.400000000000000244e-02,1.865231602667258293e-01,3.154908734317914132e-02,1.624411539205135036e-01
3.500000000000000333e-02,3.368916811007402479e-02,-9.917160272047351177e-02,1.009363225039144468e-01
3.599999999999999728e-02,-1.310886443793899681e-01,-1.937504441261719834e-01,5.063982674707159792e-03
3.699999999999999817e-02,-2.292064641187252227e-01,-1.768789194085335359e-01,-9.303987937339559811e-02
3.799999999999999906e-02,-2.297412170851691748e-01,-9.738656696751289699e-02,-1.234239121862631405e-01
3.899999999999999994e-02,-1.311222284840818098e-01,3.890404266097578084e-02,-1.364351659428094665e-01
4.000000000000000083e-02,4.749469417569198576e-02,1.647030811641947423e-01,-6.865848560931757383e-02
4.100000000000000172e-02,1.834267596437005321e-01,2.095442156981598414e-01,3.000210255773376120e-02
4.200000000000000261e-02,2.571564355874614849e-01,1.462679182611610618e-01,1.229390991648282166e-01
4.299999999999999656e-02,1.887814867304947186e-01,2.172622223056691268e-02,1.523544683383338261e-01
4.399999999999999745e-02,5.542989519363692580e-02,-1.026743933676545067e-01,1.236882904312223141e-01
4.499999999999999833e-02,-1.165660916652136309e-01,-1.722209975579510055e-01,2.673632310726389155e-02
4.599999999999999922e-02,-2.278877523813561401e-01,-2.020681063358164553e-01,-8.066009515352061399e-02
4.700000000000000011e-02,-2.404121016018193335e-01,-1.015339727805916192e-01,-1.352202182713743428e-01
4.800000000000000100e-02,-1.312454132887074798e-01,2.988104526878185632e-02,-1.594548570311006552e-01
4.900000000000000189e-02,2.011464282718858007e-02,1.496197259561434789e-01,-9.831683888100105351e-02
5.000000000000000278e-02,1.748282410572651047e-01,2.073362834020611167e-01,-3.739656502763312809e-03
5.099999999999999672e-02,2.526030317713041651e-01,1.562350590950748741e-01,9.595059174920550493e-02
5.199999999999999761e-02,2.162405144328209683e-01,3.690552693704400589e-02,1.464490094434383605e-01
5.299999999999999850e-02,8.487544608885551345e-02,-7.688963218868354044e-02,1.370427472743407094e-01
5.399999999999999939e-02,-1.013040777135539583e-01,-1.913763179321240626e-01,6.330428976639142225e-02
5.500000000000000028e-02,-2.295265639565656768e-01,-1.791244629746119588e-01,-3.939202631328490162e-02
5.600000000000000117e-02,-2.525477978518785305e-01,-1.103613633099775893e-01,-1.289107933901409431e-01
5.700000000000000205e-02,-1.669138060520593547e-01,3.286447581573266608e-02,-1.523082036273079309e-01
5.800000000000000294e-02,-1.215629984346598344e-02,1.494750545227089000e-01,-1.168938565367852039e-01
5.899999999999999689e-02,1.624318861335021513e-01,2.029790087504055318e-01,-1.924283750434471058e-02
5.999999999999999778e-02,2.558270065316912145e-01,1.548495060613454266e-01,8.095250539408904711e-02
6.099999999999999867e-02,2.192427044278252579e-01,3.762242691685879770e-02,1.419203376588260290e-01
6.199999999999999956e-02,1.144089931502699775e-01,-9.306985785760507612e-02,1.400909481111314581e-01
6.300000000000000044e-02,-6.771053161314764812e-02,-1.773418572868363241e-01,8.423486522235122675e-02
6.400000000000000133e-02,-2.014228517351606962e-01,-2.036517436018335236e-01,-1.344598194613244070e-02
6.500000000000000222e-02,-2.507660127028910613e-01,-1.100679684839466765e-01,-1.114929536821434725e-01
6.600000000000000311e-02,-1.789138983510364933e-01,1.041359779231075013e-02,-1.461017303403895351e-01
6.700000000000000400e-02,-2.944954283611443679e-02,1.399847574818770257e-01,-1.240683473937456427e-01
6.800000000000000488e-02,1.283434151177417493e-01,1.983228799355350180e-01,-5.139183794796078897e-02
6.900000000000000577e-02,2.380892800383041241e-01,1.739429223879036535e-01,4.225031675859480806e-02
7.000000000000000666e-02,2.197799984474782531e-01,6.633984685538202308e-02,1.339184810512291934e-01
7.099999999999999367e-02,1.322661487966171334e-01,-7.273818472615632691e-02,1.611619987517508290e-01
7.199999999999999456e-02,-2.854698596600601171e-02,-1.881080067550683910e-01,9.637401876181221627e-02
7.299999999999999545e-02,-1.930183430615969309e-01,-1.935179554010692526e-01,1.043468633869334798e-02
7.399999999999999634e-02,-2.565410461689224819e-01,-1.212280351251971838e-01,-9.315467077121573902e-02
7.499999999999999722e-02,-1.946943491444157182e-01,2.976976998774333305e-04,-1.415226566680352349e-01
7.599999999999999811e-02,-4.621661811277748971e-02,1.318908146804672055e-01,-1.335580934786389229e-01
7.699999999999999900e-02,1.070948364709096573e-01,1.993744061402622225e-01,-7.928826715104299316e-02
7.799999999999999989e-02,2.394295119704520636e-01,1.764050604476307960e-01,2.645975570812938299e-02
7.900000000000000078e-02,2.394627523039207784e-01,6.630142484903624178e-02,9.765300836254436900e-02
8.000000000000000167e-02,1.513322462045154360e-01,-7.337068056325933563e-02,1.468848691882498336e-01
8.100000000000000255e-02,-2.785943778274231619e-02,-1.713091153266370625e-01,1.223033471940736944e-01
8.200000000000000344e-02,-1.722961765357501340e-01,-1.897990165214042679e-01,3.538662049670419224e-02
8.300000000000000433e-02,-2.578193247398282706e-01,-1.347061693603584798e-01,-7.140451317621294980e-02
8.400000000000000522e-02,-2.107762018072769916e-01,-4.191504319290750499e-03,-1.339904068835252593e-01
8.500000000000000611e-02,-7.647140143887222463e-02,1.153140480778679228e-01,-1.601489049263015996e-01
8.599999999999999312e-02,8.553036295621102569e-02,1.994266541818420779e-01,-9.902037433513914688e-02
8.699999999999999400e-02,2.193144998753790154e-01,1.810275513267306513e-01,1.265339986311383026e-04
8.799999999999999489e-02,2.500241644284443843e-01,6.984694945111917519e-02,9.320925364475850239e-02
8.899999999999999578e-02,1.862969754859769567e-01,-6.614086858518582190e-02,1.456324307263041351e-01
8.999999999999999667e-02,1.721872752531767442e-02,-1.725036864620068666e-01,1.344739504118231121e-01
9.099999999999999756e-02,-1.558350151198156508e-01,-2.115620867466095623e-01,5.301331286820501476e-02
9.199999999999999845e-02,-2.436153479689316670e-01,-1.427122983445957005e-01,-3.948333412144031107e-02
9.299999999999999933e-02,-2.356261233417863699e-01,-2.971755080951654984e-02,-1.215390987384102756e-01
9.400000000000000022e-02,-1.071212069142313539e-01,1.230692552352798952e-01,-1.499890302548994581e-01
9.500000000000000111e-02,6.093351879079640654e-02,1.862781718486642424e-01,-1.133219020630689966e-01
9.600000000000000200e-02,2.070660916738973067e-01,1.738216045733308734e-01,-2.188766923260015984e-02
9.700000000000000289e-02,2.531280088418565444e-01,7.399371509408682324e-02,7.725110973670364090e-02
9.800000000000000377e-02,1.727783167816584475e-01,-4.812157647381732489e-02,1.434201914310957726e-01
9.900000000000000466e-02,4.036042000822399195e-02,-1.567307782513581438e-01,1.552098364878295167e-01
1.000000000000000056e-01,-1.212919109356829089e-01,-2.028270091336600578e-01,8.454533705632594209e-02
1.010000000000000064e-01,-2.386294816409614272e-01,-1.386279325351305602e-01,-1.412039731015303501e-02
1.019999999999999934e-01,-2.350523492661095448e-01,-2.959976906191899571e-02,-1.006960304537286716e-01
1.029999999999999943e-01,-1.397111058952278106e-01,1.121214835782009395e-01,-1.564874309008839615e-01
1.039999999999999952e-01,2.657414789621877563e-02,1.928993934155656953e-01,-1.326201200666937141e-01
1.049999999999999961e-01,1.902933501701035979e-01,1.771147979299525221e-01,-4.975191802351577874e-02
1.059999999999999970e-01,2.401291555402242928e-01,8.562547973817501157e-02,4.655418707920568749e-02
1.069999999999999979e-01,2.056235543545911482e-01,-3.488364547736602650e-02,1.367844943646256139e-01
1.079999999999999988e-01,6.376867639839187141e-02,-1.641197465333471828e-01,1.462736146879659582e-01
1.089999999999999997e-01,-1.156209666045650980e-01,-1.989691364090452885e-01,1.099551803631694108e-01
1.100000000000000006e-01,-2.341930115355101705e-01,-1.580189938111388470e-01,3.953404989648158334e-03
1.110000000000000014e-01,-2.395140517874848884e-01,-1.284352646549205730e-02,-8.482562549790712003e-02
1.120000000000000023e-01,-1.323956423454528686e-01,1.007245804630264446e-01,-1.382576231478261919e-01
1.130000000000000032e-01,1.060093820618004078e-02,1.905630424979594117e-01,-1.307056286746755280e-01
1.140000000000000041e-01,1.596709991460135425e-01,1.859439731739252755e-01,-7.144913832362836947e-02
1.150000000000000050e-01,2.580112023606018767e-01,1.108118043869173036e-01,2.871249595278176428e-02
1.160000000000000059e-01,2.139899314916582085e-01,-2.848276826827838420e-02,1.053530135381443023e-01
1.170000000000000068e-01,9.838985767055613563e-02,-1.523805355065254996e-01,1.686263367731230256e-01
1.179999999999999938e-01,-8.435027822763128957e-02,-2.091829803710203439e-01,1.274935259915920549e-01
1.189999999999999947e-01,-2.009231381494463731e-01,-1.584557165160044301e-01,3.920771421447760696e-02
1.199999999999999956e-01,-2.568919920720647010e-01,-3.089184871899606361e-02,-5.836973626981686175e-02
1.209999999999999964e-01,-1.668387414929003443e-01,8.751076018409456592e-02,-1.276721050250061995e-01
1.219999999999999973e-01,-2.444924669552071828e-02,1.848991339494649444e-01,-1.421164270963427845e-01
1.229999999999999982e-01,1.377591190651346054e-01,1.974183701155380888e-01,-9.380240283382525190e-02
1.239999999999999991e-01,2.351158291613557605e-01,1.071762457578542271e-01,-3.278685909381093798e-03
1.250000000000000000e-01,2.405029117181797516e-01,-2.629869650651579099e-02,1.109735955492169718e-01
1.260000000000000009e-01,1.078038756007990429e-01,-1.365820537330300899e-01,1.509907855965937906e-01
1.270000000000000018e-01,-4.232274570715378881e-02,-2.096761035422168851e-01,1.305581115900322775e-01
1.280000000000000027e-01,-1.953651777777845044e-01,-1.654416731746078395e-01,5.824893081210180679e-02
1.290000000000000036e-01,-2.579763934523805480e-01,-5.362475771744312086e-02,-4.008057905623946954e-02
1.300000000000000044e-01,-1.904023641250142396e-01,7.743305331482747134e-02,-1.371870538810354978e-01
1.310000000000000053e-01,-4.803622518811768993e-02,1.905369947407083153e-01,-1.457467780156820603e-01
1.320000000000000062e-01,1.143658989428757988e-01,2.003088796547882189e-01,-1.192867830485177250e-01
1.330000000000000071e-01,2.267329190257819094e-01,1.128246350393441871e-01,-2.017856373813130266e-02
1.340000000000000080e-01,2.361628628369801253e-01,-9.027209754806057515e-03,7.838972777938821301e-02
1.350000000000000089e-01,1.312172369020089824e-01,-1.264754912318322988e-01,1.368675428999790167e-01
1.360000000000000098e-01,-3.376548259910311378e-02,-1.939410837016711797e-01,1.472806857651999535e-01
1.370000000000000107e-01,-1.774304702551486312e-01,-1.602093773840507218e-01,7.542243256563480047e-02
1.380000000000000115e-01,-2.544356573774487207e-01,-6.329055681088405216e-02,-1.043356848804081159e-02
1.390000000000000124e-01,-1.921993386876142962e-01,8.095427761516443832e-02,-9.989164720720718205e-02
1.400000000000000133e-01,-6.749981743447323879e-02,1.732621214924650044e-01,-1.503402970147658113e-01
1.409999999999999865e-01,9.581660327691181311e-02,1.983664019502078824e-01,-1.188234433668496348e-01
1.419999999999999873e-01,2.258244404585139642e-01,1.387528614526658266e-01,-4.432534903405471044e-02
1.429999999999999882e-01,2.354164971740154988e-01,3.347254869828227702e-03,6.225284754840024887e-02
1.439999999999999891e-01,1.729730388493662119e-01,-1.338761161387392873e-01,1.222299918350090719e-01
1.449999999999999900e-01,1.401488181422790719e-02,-1.919908674976862628e-01,1.455272478803067149e-01
1.459999999999999909e-01,-1.537290512716768254e-01,-1.834136969253507554e-01,1.064818409742745720e-01
1.469999999999999918e-01,-2.371699162863459276e-01,-4.973348099540162576e-02,1.003609784722831431e-02
1.479999999999999927e-01,-2.170763393472205371e-01,6.399159189412739757e-02,-8.003845531618335174e-02
1.489999999999999936e-01,-9.737390614438648506e-02,1.714242081381228133e-01,-1.519280493349955685e-01
1.499999999999999944e-01,8.288838653993702010e-02,2.040990242029636637e-01,-1.290496154167726506e-01
1.509999999999999953e-01,2.049019142603744903e-01,1.328835921265576758e-01,-5.894231858362977000e-02
1.519999999999999962e-01,2.465914124308511701e-01,7.740988363984074513e-03,3.201470424488542937e-02
1.529999999999999971e-01,1.879817004016963167e-01,-1.270729311810407658e-01,1.170053673055273247e-01
1.539999999999999980e-01,1.349312414084741750e-02,-1.872876930901788972e-01,1.507821589783298610e-01
1.549999999999999989e-01,-1.456823875820661418e-01,-1.619977245298091229e-01,1.145936077034880873e-01
1.559999999999999998e-01,-2.314777488545234629e-01,-5.594989270772732226e-02,1.663489817837549706e-02
1.570000000000000007e-01,-2.454255757174017560e-01,6.693349920936600417e-02,-6.436961690154840987e-02
1.580000000000000016e-01,-1.206872831504837151e-01,1.541888803369644290e-01,-1.394578048898404421e-01
1.590000000000000024e-01,5.433202518206691617e-02,2.111963513944614956e-01,-1.356244915719128363e-01
1.600000000000000033e-01,1.904924391040277443e-01,1.374012878549822347e-01,-9.430581208775254409e-02
1.610000000000000042e-01,2.593561039912169464e-01,1.461170490894337509e-02,1.582221513204301599e-02
1.620000000000000051e-01,2.098257158979724146e-01,-1.208225806663662250e-01,1.051187101216953246e-01
1.630000000000000060e-01,5.135480576942060699e-02,-1.882233593200728916e-01,1.533733274990193851e-01
1.640000000000000069e-01,-1.146375981875132621e-01,-1.698174882167019506e-01,1.227187421219097935e-01
1.650000000000000078e-01,-2.352942785961100181e-01,-9.174075153057473231e-02,5.078650046330530216e-02
1.660000000000000087e-01,-2.275064685085671501e-01,4.979978831745941747e-02,-4.222819707508781994e-02
1.670000000000000095e-01,-1.375332788672480322e-01,1.740041107093092954e-01,-1.327505881120089604e-01
1.680000000000000104e-01,2.229493833548972653e-02,1.826005384147346144e-01,-1.507996775049333937e-01
1.690000000000000113e-01,1.720218854887825555e-01,1.367881760604595376e-01,-1.183576588438219057e-01
1.700000000000000122e-01,2.437394140779599039e-01,2.312273478520444556e-02,-1.724429369782859781e-02
1.710000000000000131e-01,2.066344135503760115e-01,-1.148838152107227450e-01,7.340243757691254645e-02
1.719999999999999862e-01,8.397933327534079506e-02,-1.911881074684798343e-01,1.356558068100699177e-01
1.729999999999999871e-01,-8.102503650946987768e-02,-1.922956509350249865e-01,1.424300351927338393e-01
1.739999999999999880e-01,-2.083509217721060680e-01,-8.766528619150000534e-02,8.214575565325994699e-02
1.749999999999999889e-01,-2.464375418866993073e-01,3.630479621591203160e-02,-2.598406387749416235e-02
1.759999999999999898e-01,-1.695805472817282500e-01,1.570380515820295753e-01,-9.509024354292687498e-02
1.769999999999999907e-01,-3.738005989561057636e-03,2.088179674392276197e-01,-1.600054086311523960e-01
1.779999999999999916e-01,1.486267726673891343e-01,1.552882877684097773e-01,-1.279226250662157394e-01
1.789999999999999925e-01,2.397070352566638696e-01,3.090371492044107285e-02,-4.521355605036402048e-02
1.799999999999999933e-01,2.270942289107154843e-01,-1.090975844868130873e-01,4.910804755088235551e-02
1.809999999999999942e-01,1.055876582789640333e-01,-1.850083000132578537e-01,1.283237586821064646e-01
1.819999999999999951e-01,-7.609723947200106031e-02,-1.887676243553933764e-01,1.444075822208375770e-01
1.829999999999999960e-01,-2.076915501699324873e-01,-1.047881276464319028e-01,1.108083615874082134e-01
1.839999999999999969e-01,-2.526284503913161505e-01,2.638294801583470142e-02,9.922767161890722054e-03
1.849999999999999978e-01,-1.864442054981033103e-01,1.532053937909969854e-01,-9.719503096595837055e-02
1.859999999999999987e-01,-3.550374290691986345e-02,1.954315183226654484e-01,-1.312493546402964673e-01
1.869999999999999996e-01,1.162682448494754828e-01,1.518738018442273296e-01,-1.426930817098681636e-01
1.880000000000000004e-01,2.393059880249375215e-01,4.013478004365073765e-02,-6.806533072275749996e-02
1.890000000000000013e-01,2.226965439124164725e-01,-9.239266317371797044e-02,2.616989454347476776e-02
1.900000000000000022e-01,1.193986814152537823e-01,-1.872455715948387334e-01,1.113852015213570995e-01
1.910000000000000031e-01,-4.509931606945300625e-02,-1.871478137446122847e-01,1.422152028324532858e-01
1.920000000000000040e-01,-1.865845445729981400e-01,-1.042923591401097444e-01,1.104744591986021041e-01
1.930000000000000049e-01,-2.490622394468387513e-01,1.403842524863074641e-02,2.873671322782722984e-02
1.940000000000000058e-01,-2.062020726118930225e-01,1.456105062991098209e-01,-5.673535020235594833e-02
1.950000000000000067e-01,-6.208264293168250236e-02,2.002211689222678226e-01,-1.403312851393023475e-01
1.960000000000000075e-01,1.117236056779484371e-01,1.498680270147354221e-01,-1.430225413075074115e-01
1.970000000000000084e-01,2.314668916644551100e-01,4.383820209847999472e-02,-9.735656454878363619e-02
1.980000000000000093e-01,2.402156009019914273e-01,-9.484929444986391067e-02,1.947350823540445336e-02
1.990000000000000102e-01,1.451248147742292272e-01,-1.895405495743702762e-01,9.691641463366097720e-02
2.000000000000000111e-01,3.050992832590717491e-03,-1.875297833758506061e-01,1.583352141418580827e-01
2.010000000000000120e-01,-1.741735509910538604e-01,-9.955907677540404288e-02,1.317614230735591752e-01
2.020000000000000129e-01,-2.425204115164383278e-01,1.326394291848808325e-02,5.025955425863115611e-02
2.030000000000000138e-01,-2.169587620016757423e-01,1.455178928717287545e-01,-4.734871709375161608e-02
2.039999999999999869e-01,-9.270023241141099601e-02,2.053264582034423635e-01,-1.243811091707437005e-01
2.049999999999999878e-01,7.959826399399205776e-02,1.621191515208664224e-01,-1.448650172158021110e-01
2.059999999999999887e-01,2.148300915465159444e-01,5.249645875162740893e-02,-1.066804815069796464e-01
2.069999999999999896e-01,2.473424428106172634e-01,-7.239704118689989365e-02,-1.564911551025891662e-02
2.079999999999999905e-01,1.600832215220796828e-01,-1.846326136346299329e-01,8.302708706124301008e-02
2.089999999999999913e-01,9.049491431401043146e-03,-1.879501668372487166e-01,1.512272316768942804e-01
2.099999999999999922e-01,-1.379848125323016594e-01,-1.143306535960837561e-01,1.526147736699503266e-01
2.109999999999999931e-01,-2.482869518150314647e-01,-7.387625088901987429e-03,6.533273191612448683e-02
2.119999999999999940e-01,-2.234521323027871265e-01,1.323993380174954826e-01,-1.410499229903036146e-02
2.129999999999999949e-01,-1.073612626781866863e-01,1.910545107093827299e-01,-1.068583327063949706e-01
2.139999999999999958e-01,5.944496753045760279e-02,1.629250909141655157e-01,-1.581724471636792306e-01
2.149999999999999967e-01,1.983513440519301951e-01,6.857031199255168852e-02,-1.303369576117157924e-01
2.159999999999999976e-01,2.442924251146169623e-01,-8.065858665583000575e-02,-4.538763437379546989e-02
2.169999999999999984e-01,1.812966489665458758e-01,-1.753556559115045377e-01,5.475523313285393656e-02
2.179999999999999993e-01,4.108754738808700208e-02,-2.032542812549593680e-01,1.303016930216952252e-01
2.190000000000000002e-01,-1.262858748292817745e-01,-1.312688532719908097e-01,1.506094334735702533e-01
2.200000000000000011e-01,-2.388803823338553622e-01,6.009531006325746381e-04,9.261404956113925002e-02
2.210000000000000020e-01,-2.430009958924859159e-01,1.276849040926228140e-01,6.214675121759829883e-03
2.220000000000000029e-01,-1.329838442867321002e-01,1.999958301636317881e-01,-9.609365282515834605e-02
2.230000000000000038e-01,3.633004455514060593e-02,1.938996340622435588e-01,-1.500983774228479006e-01
2.240000000000000047e-01,1.808455430524901486e-01,7.303238293623277866e-02,-1.398163536045751443e-01
2.250000000000000056e-01,2.594456187606493658e-01,-5.912754888846746826e-02,-6.123958978410497245e-02
2.260000000000000064e-01,1.962468757388206586e-01,-1.571763744823314046e-01,2.707333276621596771e-02
2.270000000000000073e-01,6.123537304360574668e-02,-1.816457522951827330e-01,1.253943875437153466e-01
2.280000000000000082e-01,-9.666088046407610157e-02,-1.323327066247831640e-01,1.483782778857855866e-01
2.290000000000000091e-01,-2.241715000771801747e-01,1.981286882384140653e-03,1.205227966532753381e-01
2.300000000000000100e-01,-2.459013533192639100e-01,1.332262105315362710e-01,5.163601607214079320e-02
2.310000000000000109e-01,-1.613653094907822050e-01,2.059984932780693223e-01,-6.380305450526017885e-02
2.320000000000000118e-01,8.122918254742173341e-03,1.956101804481632789e-01,-1.373841931153715334e-01
2.330000000000000127e-01,1.717690581410376283e-01,7.883055469673924676e-02,-1.542903681323409548e-01
2.340000000000000135e-01,2.522113081046329364e-01,-5.401456124649309243e-02,-9.009579495924915915e-02
2.349999999999999867e-01,2.142236046670795424e-01,-1.658954771873731304e-01,1.043494780840568785e-02
2.359999999999999876e-01,9.624327331475107661e-02,-1.865310197256101199e-01,1.028673240099741981e-01
2.369999999999999885e-01,-8.191003006052817448e-02,-1.535765356983423702e-01,1.424744252215200402e-01
2.379999999999999893e-01,-2.067616933541736868e-01,-2.555267698263585796e-02,1.262542982504433198e-01
2.389999999999999902e-01,-2.523081700939748262e-01,1.082053607871635154e-01,4.598086212694421637e-02
2.399999999999999911e-01,-1.660931529968797116e-01,1.990157436963318205e-01,-5.243598051531375009e-02
2.409999999999999920e-01,-2.065377661425790018e-02,1.926615408760094239e-01,-1.246825790375416659e-01
2.419999999999999929e-01,1.285861697810433968e-01,9.288055345164221432e-02,-1.549941715309742230e-01
2.429999999999999938e-01,2.572447911160075651e-01,-5.088988323657465257e-02,-1.017256301320892536e-01
2.439999999999999947e-01,2.258193347833916675e-01,-1.520948008638666749e-01,-1.513963581918616533e-02
2.449999999999999956e-01,1.156098076089020071e-01,-1.909039414405058199e-01,6.221379779109179747e-02
2.459999999999999964e-01,-4.204176513561131562e-02,-1.619383698855388909e-01,1.375356929842595499e-01
2.469999999999999973e-01,-1.837260823664229048e-01,-3.688832772138468663e-02,1.263513776529278931e-01
2.479999999999999982e-01,-2.547189418040464171e-01,1.114370093105788440e-01,7.216865295157126603e-02
2.489999999999999991e-01,-1.762904172905680467e-01,1.903576834757083891e-01,-1.724292149161048282e-02
2.500000000000000000e-01,-5.955949951589703528e-02,1.891998598018826694e-01,-1.007098646541250003e-01
2.510000000000000009e-01,1.162750189475240947e-01,9.510373362112599371e-02,-1.514724625216560261e-01
2.520000000000000018e-01,2.363091169129681313e-01,-3.498426709669426315e-02,-1.280753758877195836e-01
2.530000000000000027e-01,2.423666843036072494e-01,-1.446014691060264756e-01,-4.774656216013115073e-02
2.540000000000000036e-01,1.480690678853627540e-01,-1.937941048331369709e-01,6.869955497289237378e-02
2.550000000000000044e-01,-2.040455025168451397e-02,-1.590796756751168828e-01,1.412617210814990920e-01
2.560000000000000053e-01,-1.693113518220216440e-01,-3.153423972386744378e-02,1.513921128117107495e-01
2.570000000000000062e-01,-2.476458346095464780e-01,1.105496836847842806e-01,1.013678728092771847e-01
2.580000000000000071e-01,-2.028840722907341021e-01,1.808361661109239293e-01,1.137112979896105422e-02
2.590000000000000080e-01,-8.638730106349007398e-02,1.792547950650651700e-01,-9.128628529352803000e-02
2.600000000000000089e-01,1.087081210139832083e-01,1.086247238945265564e-01,-1.462291587620189459e-01
2.610000000000000098e-01,2.279470570415179087e-01,-3.133704539130648808e-02,-1.290464015367810413e-01
2.620000000000000107e-01,2.642541834866730666e-01,-1.409432891407245148e-01,-7.153339168614575305e-02
2.630000000000000115e-01,1.584059089429404599e-01,-1.996074802324700193e-01,3.816099605706668035e-02
2.640000000000000124e-01,-3.791696557501657468e-03,-1.653598593128526861e-01,1.196574010954762207e-01
2.650000000000000133e-01,-1.479239181546550541e-01,-6.458824825400855119e-02,1.403887228112403185e-01
2.660000000000000142e-01,-2.423700594238821227e-01,8.172331345478267561e-02,1.166935674324475342e-01
2.670000000000000151e-01,-2.201104164110120054e-01,1.891742584480510525e-01,3.595691266714257789e-02
2.680000000000000160e-01,-8.450317787106381706e-02,1.834654033251515437e-01,-7.424033935532738104e-02
2.690000000000000169e-01,6.339993785045244801e-02,1.148868157424622893e-01,-1.479043057533628858e-01
2.700000000000000178e-01,1.998257235294146616e-01,-2.455191801538507065e-02,-1.385556494765032565e-01
2.710000000000000187e-01,2.593492521325838629e-01,-1.505320065928150708e-01,-9.178518317622362532e-02
2.720000000000000195e-01,1.838458675665999020e-01,-1.893858513324005455e-01,1.146711621823649253e-02
2.730000000000000204e-01,2.479867114550822135e-02,-1.696071912941512771e-01,9.376512383461910183e-02
2.740000000000000213e-01,-1.239546243041813184e-01,-5.266248156049131018e-02,1.497225021619147944e-01
2.750000000000000222e-01,-2.274973688844382502e-01,8.330555629466859791e-02,1.317572677723688745e-01
2.760000000000000231e-01,-2.231083035370385603e-01,1.799447244525826384e-01,5.759877707752504572e-02
2.770000000000000240e-01,-1.362499622063610971e-01,2.000485591973726607e-01,-5.440836993104557207e-02
2.780000000000000249e-01,2.970421303464233775e-02,1.193295818062322516e-01,-1.319309984240222278e-01
2.790000000000000258e-01,1.838577798225187743e-01,-7.389142336228310404e-03,-1.523037079024962270e-01
2.800000000000000266e-01,2.601698748655641436e-01,-1.291970331995458410e-01,-1.210853635705758935e-01
2.810000000000000275e-01,1.935209955556401462e-01,-2.016049068068647976e-01,-3.466339139055398672e-02
2.819999999999999729e-01,4.097181943078739147e-02,-1.660301345841587173e-01,7.275674630356762651e-02
2.829999999999999738e-01,-1.107192701039627636e-01,-7.369639308258504884e-02,1.433990463770951629e-01
2.839999999999999747e-01,-2.151727619646501555e-01,6.572598573164001312e-02,1.430704929342986320e-01
2.849999999999999756e-01,-2.358067229658438735e-01,1.555762811939396251e-01,8.529374645227348617e-02
2.859999999999999765e-01,-1.403383164930776805e-01,1.793018717244336535e-01,-3.194415840793517203e-02
2.869999999999999774e-01,1.975765460255383618e-02,1.191812404016441701e-01,-1.143569777734042142e-01
2.879999999999999782e-01,1.634467834853470802e-01,1.082230948448532546e-04,-1.394228870448490643e-01
2.889999999999999791e-01,2.481820285117313230e-01,-1.245292495329173715e-01,-1.122547672219995352e-01
2.899999999999999800e-01,2.055505305979602737e-01,-2.046550384198321804e-01,-4.053569138789300114e-02
2.909999999999999809e-01,6.845947793844728291e-02,-1.698618927307861404e-01,7.370833716079761011e-02
2.919999999999999818e-01,-7.626290955762193846e-02,-8.159991004411422388e-02,1.266116624545933766e-01
2.929999999999999827e-01,-2.017334566618010083e-01,6.428005916280772614e-02,1.577255372695108016e-01
2.939999999999999836e-01,-2.435713010082009577e-01,1.703896817361193750e-01,8.664481894635242543e-02
2.949999999999999845e-01,-1.612225246173751292e-01,1.990687740189708566e-01,9.522945987301786874e-03
2.959999999999999853e-01,-1.615757770718743644e-02,1.303842168612243668e-01,-8.365176998177586976e-02
2.969999999999999862e-01,1.486301200072712436e-01,1.297979958694358161e-03,-1.316733786408415263e-01
2.979999999999999871e-01,2.318308854721729262e-01,-1.393311097421567613e-01,-1.545099442423690239e-01
2.989999999999999880e-01,2.154237594738308004e-01,-1.951647875260950626e-01,-5.087516390826227891e-02
2.999999999999999889e-01,1.288319704196068116e-01,-1.839447919556944921e-01,3.555784057321390024e-02
3.009999999999999898e-01,-6.635248245808378353e-02,-7.990366044034133419e-02,1.154917668901919714e-01
3.019999999999999907e-01,-2.064915028454842594e-01,5.049099900469194990e-02,1.554835389261917666e-01
3.029999999999999916e-01,-2.513995323858769226e-01,1.652206443407779057e-01,1.131535871781032404e-01
3.039999999999999925e-01,-1.795783718008204521e-01,2.029546926779983718e-01,3.441972654058245845e-02
3.049999999999999933e-01,-2.541093667178181970e-02,1.397794040276580108e-01,-7.661078046863548097e-02
3.059999999999999942e-01,1.249948822044500280e-01,2.234372851437878629e-02,-1.340726178076612207e-01
3.069999999999999951e-01,2.287428203987366682e-01,-9.870195351053616395e-02,-1.482325560913218820e-01
3.079999999999999960e-01,2.329285477782107039e-01,-1.946089011695841253e-01,-8.851134228564337680e-02
3.089999999999999969e-01,1.245652436472262092e-01,-1.839568313983307724e-01,2.634325902633361319e-02
3.099999999999999978e-01,-3.463420151158235621e-02,-9.671674991799775190e-02,1.082968790528829467e-01
3.109999999999999987e-01,-1.817066329361324839e-01,3.986008340876634470e-02,1.559430162868515601e-01
3.119999999999999996e-01,-2.355719331301551478e-01,1.714322691705499335e-01,1.355975985632200953e-01
3.130000000000000004e-01,-1.988601471924049680e-01,1.925124316298203464e-01,4.528442848903807549e-02
3.140000000000000013e-01,-6.490716755248954195e-02,1.326730152168833776e-01,-4.242379757086312680e-02
3.150000000000000022e-01,1.248988244256685753e-01,2.852631714449306577e-02,-1.256919211320247365e-01
3.160000000000000031e-01,2.267638981364302753e-01,-1.158479081525791571e-01,-1.710061006730303756e-01
3.170000000000000040e-01,2.430526978058699938e-01,-1.873147077384093029e-01,-1.102662050081679584e-01
3.180000000000000049e-01,1.480980005494988150e-01,-1.901526813861295906e-01,-4.857002356861087576e-03
3.190000000000000058e-01,-1.476135522997997808e-02,-1.006745554798433723e-01,7.047802434079269984e-02
3.200000000000000067e-01,-1.680060992760348815e-01,4.628303758065757667e-02,1.514062809372305474e-01
3.210000000000000075e-01,-2.432058050455615517e-01,1.584942335385191581e-01,1.385233936140926880e-01
3.220000000000000084e-01,-2.320897530820636157e-01,2.064378706653094420e-01,6.889957251228470692e-02
3.230000000000000093e-01,-8.943585952528826377e-02,1.386878670541853986e-01,-2.749251094329339951e-02
3.240000000000000102e-01,7.806413928011926573e-02,2.826903309443786622e-02,-1.182026735308244342e-01
3.250000000000000111e-01,2.042323523556844878e-01,-1.026626252279193019e-01,-1.499870295477572502e-01
3.260000000000000120e-01,2.441972593303297634e-01,-1.854597999993848889e-01,-1.319869616950206936e-01
3.270000000000000129e-01,1.740964218460834545e-01,-1.877356042648560541e-01,-3.975352977292752332e-02
3.280000000000000138e-01,3.127224657630724158e-02,-1.176952993950814569e-01,5.493447497099800125e-02
3.290000000000000147e-01,-1.310001475633522372e-01,2.857517264326106532e-02,1.341726402770138937e-01
3.300000000000000155e-01,-2.327597464277093020e-01,1.483707928050580493e-01,1.455856245565124163e-01
3.310000000000000164e-01,-2.312636685107317125e-01,1.972788903210888900e-01,9.671859755892982247e-02
3.320000000000000173e-01,-1.092668961711853876e-01,1.660525652411772302e-01,-3.422390765035094717e-03
3.330000000000000182e-01,4.960946721399679682e-02,5.043651123545478399e-02,-9.056536595358916086e-02
3.340000000000000191e-01,2.005538287112540452e-01,-9.682546614143815178e-02,-1.500333410733788175e-01
3.350000000000000200e-01,2.608206838145689654e-01,-1.737614367463837795e-01,-1.347321098157162056e-01
3.360000000000000209e-01,1.946903455210813871e-01,-1.991859949499550642e-01,-7.733076449866187196e-02
3.370000000000000218e-01,4.315105492155844880e-02,-1.077697197133283269e-01,2.782668195329426539e-02
3.380000000000000226e-01,-1.280793482061850508e-01,2.821554607860810374e-02,1.265954420318007034e-01
3.390000000000000235e-01,-2.273390354702393423e-01,1.392812834043381520e-01,1.450843162514708351e-01
3.400000000000000244e-01,-2.405753912560686658e-01,1.933927677007541424e-01,1.071124071858228360e-01
3.410000000000000253e-01,-1.336603044415617669e-01,1.637679221993735834e-01,1.783555311635564092e-02
3.420000000000000262e-01,3.051305094824585326e-02,4.808704772910998154e-02,-7.882029364571510599e-02
3.430000000000000271e-01,1.769914762468293712e-01,-9.017687138453876761e-02,-1.408468055799962926e-01
3.439999999999999725e-01,2.508565441866520418e-01,-1.782123662208284498e-01,-1.351313304031405982e-01
3.449999999999999734e-01,1.911163269910005902e-01,-1.849022461952653795e-01,-9.347435273659618349e-02
3.459999999999999742e-01,6.997307772611831289e-02,-1.153974350568289092e-01,1.337815467036700644e-02
3.469999999999999751e-01,-9.473186787878960791e-02,1.797171620068598735e-02,8.982535367780547508e-02
3.479999999999999760e-01,-2.252366525264583308e-01,1.366098047358239864e-01,1.358309804324115133e-01
3.489999999999999769e-01,-2.396565822126402734e-01,2.115312809727981358e-01,1.219705521550235039e-01
3.499999999999999778e-01,-1.554748883247888402e-01,1.773302378249608235e-01,5.044613372875835638e-02
3.509999999999999787e-01,1.365582550066507875e-02,6.240591509257553682e-02,-4.733389031780793621e-02
3.519999999999999796e-01,1.597690134805368478e-01,-7.063023481260460867e-02,-1.297038259174712604e-01
3.529999999999999805e-01,2.582772520440484998e-01,-1.696704791998901729e-01,-1.520691586757880742e-01
3.539999999999999813e-01,2.233375429475455975e-01,-1.921643477506867759e-01,-1.012118434522669558e-01
3.549999999999999822e-01,1.011233692895249919e-01,-1.154730162575622748e-01,-8.026306143322144496e-03
3.559999999999999831e-01,-7.103690341411592057e-02,-2.481609248236910700e-03,7.795064623608587151e-02
3.569999999999999840e-01,-2.190549483068338632e-01,1.277528008252602487e-01,1.475154870364973891e-01
3.579999999999999849e-01,-2.473766841544431383e-01,1.929634368954372403e-01,1.325617053131485645e-01
3.589999999999999858e-01,-1.790491827940588199e-01,1.703459035107086905e-01,7.808555660385090025e-02
3.599999999999999867e-01,-3.126304098045066399e-02,7.218834519771524794e-02,-2.577068727452675248e-02
3.609999999999999876e-01,1.348267591746057370e-01,-6.212950979447428440e-02,-1.146223124273356431e-01
3.619999999999999885e-01,2.396565861095427963e-01,-1.717974527067921142e-01,-1.374155727954188833e-01
3.629999999999999893e-01,2.272443459459416171e-01,-1.901333132459544495e-01,-1.263552278885705094e-01
3.639999999999999902e-01,1.262243564863646805e-01,-1.349922865858238508e-01,-6.088805676630600766e-02
3.649999999999999911e-01,-4.555961713381665584e-02,3.603371567988849708e-03,5.814138174684816557e-02
3.659999999999999920e-01,-1.919833221061597317e-01,1.052033871308069024e-01,1.384881425073610228e-01
3.669999999999999929e-01,-2.525277082129022133e-01,1.783396598990570348e-01,1.540219118405820875e-01
3.679999999999999938e-01,-1.972271935341935456e-01,1.726622260937801523e-01,1.009745869335477303e-01
3.689999999999999947e-01,-5.106134330296611956e-02,6.978524620112672161e-02,8.640365040875829308e-03
3.699999999999999956e-01,1.179990831315389510e-01,-5.350451615074627160e-02,-8.692915258447055094e-02
3.709999999999999964e-01,2.228843413421657815e-01,-1.671231819884657355e-01,-1.328651124814173579e-01
3.719999999999999973e-01,2.404534418443187993e-01,-1.894533986137043047e-01,-1.251928503230837209e-01
3.729999999999999982e-01,1.475410589910857717e-01,-1.390611798403552646e-01,-6.857002990842145373e-02
3.739999999999999991e-01,-2.245743721702981796e-02,1.047846073180438986e-03,4.240433827025810037e-02
3.750000000000000000e-01,-1.844205827978665224e-01,1.249181781227284294e-01,1.221563913599750251e-01
3.760000000000000009e-01,-2.514713187728024879e-01,1.949504319589050738e-01,1.517881761995833467e-01
3.770000000000000018e-01,-1.950867137796477302e-01,1.786368885718269128e-01,1.190409476556399254e-01
3.780000000000000027e-01,-8.162444924430356519e-02,8.469212574972087570e-02,3.302539376594595955e-02
3.790000000000000036e-01,1.081869464422360594e-01,-5.530933005174084455e-02,-6.690990484790158843e-02
3.800000000000000044e-01,2.329607211971276293e-01,-1.494171731029715899e-01,-1.341954197137907034e-01
3.810000000000000053e-01,2.509967658080646813e-01,-2.004815288367805259e-01,-1.597966589037454199e-01
3.820000000000000062e-01,1.522646401500850344e-01,-1.577040312925730714e-01,-9.434466284667727964e-02
3.830000000000000071e-01,-1.267017302833041469e-03,-1.590124577292013203e-02,2.130502828784119548e-02
3.840000000000000080e-01,-1.543700985239698231e-01,1.115275213335543691e-01,9.779227735289831858e-02
3.850000000000000089e-01,-2.397433009358331257e-01,1.879319933750911442e-01,1.402053792670486243e-01
3.860000000000000098e-01,-2.236209519431000547e-01,1.821806594931605905e-01,1.268556767754189241e-01
3.870000000000000107e-01,-9.574014055892306196e-02,7.848397284786233497e-02,5.662665133694049641e-02
3.880000000000000115e-01,5.771195271535314170e-02,-5.448167417779342658e-02,-4.267839009548145962e-02
3.890000000000000124e-01,1.937481801435806672e-01,-1.567766602230228623e-01,-1.487754219095598351e-01
3.900000000000000133e-01,2.488234191671588602e-01,-2.067259623396349166e-01,-1.409237686098882281e-01
3.910000000000000142e-01,1.700829822372639799e-01,-1.495045265206933482e-01,-1.073839764208347203e-01
3.920000000000000151e-01,3.544200780997657646e-02,-3.133136810798779759e-02,-2.332081957387136320e-02
3.930000000000000160e-01,-1.371484255879348857e-01,1.040077786111524710e-01,7.640349279851485487e-02
3.940000000000000169e-01,-2.360108655132324151e-01,1.795325461490869801e-01,1.475873970845175132e-01
3.950000000000000178e-01,-2.320180519832944488e-01,1.797889948759967826e-01,1.399021235049518475e-01
3.960000000000000187e-01,-1.152801893694328367e-01,1.033227954174682495e-01,8.216448249291181949e-02
3.970000000000000195e-01,5.495310936156896225e-02,-3.140104955890357652e-02,-1.885038573187687930e-02
3.980000000000000204e-01,1.913871945865590340e-01,-1.462142640910551461e-01,-1.234633272750660787e-01
3.990000000000000213e-01,2.428301650915271614e-01,-2.007548245471761361e-01,-1.505983647357153621e-01
4.000000000000000222e-01,2.020800476759829767e-01,-1.638534537120013845e-01,-1.383407115523480058e-01
4.010000000000000231e-01,5.905460670473628576e-02,-3.219809642099257657e-02,-4.411854042575052981e-02
4.020000000000000240e-01,-1.174641043630882536e-01,8.288128070320771590e-02,6.795869336014719042e-02
4.030000000000000249e-01,-2.360906673641238740e-01,1.926294298866268462e-01,1.306841236801542794e-01
4.040000000000000258e-01,-2.427283762933601374e-01,1.855265615047187455e-01,1.504613235976450525e-01
4.050000000000000266e-01,-1.389861686857011280e-01,1.062332339630809447e-01,8.905945723535817204e-02
4.060000000000000275e-01,1.419177272595958765e-02,-2.029493874273499698e-02,-6.754910959364582822e-03
4.069999999999999729e-01,1.685025226483628513e-01,-1.398718980515157861e-01,-9.156243293367309632e-02
4.079999999999999738e-01,2.552729939969388129e-01,-1.953109531642333030e-01,-1.525110318971593382e-01
4.089999999999999747e-01,2.201947925255058891e-01,-1.676606614602456913e-01,-1.308609326371782400e-01
4.099999999999999756e-01,9.089350036345739126e-02,-5.214723659339571410e-02,-6.532272219298575211e-02
4.109999999999999765e-01,-7.382938012693317231e-02,8.291572527009595517e-02,4.806906517136073920e-02
4.119999999999999774e-01,-2.058445508031686022e-01,1.792581363817555562e-01,1.173838915954496520e-01
4.129999999999999782e-01,-2.478975454200295081e-01,1.833257870443854853e-01,1.479771890376603838e-01
4.139999999999999791e-01,-1.768049878955517684e-01,1.068585569720021250e-01,1.207816202823373264e-01
4.149999999999999800e-01,6.516414146743178260e-03,-9.441965060946426805e-03,1.754989574016547343e-02
4.159999999999999809e-01,1.533018846480737329e-01,-1.431821368189271637e-01,-7.500628297469898176e-02
4.169999999999999818e-01,2.374744125893771263e-01,-1.869963645488392223e-01,-1.348382208574985530e-01
4.179999999999999827e-01,2.240711118644808375e-01,-1.676125055267505826e-01,-1.455428508706080870e-01
4.189999999999999836e-01,1.131582534309539118e-01,-5.450902142191401539e-02,-8.905558836180689497e-02
4.199999999999999845e-01,-8.802209307301557539e-02,7.993027173763674054e-02,9.104227364883707777e-03
4.209999999999999853e-01,-1.982089434811692696e-01,1.736655082374061188e-01,1.057318930015601066e-01
4.219999999999999862e-01,-2.412099583937238334e-01,2.053182829949796728e-01,1.455787684973440521e-01
4.229999999999999871e-01,-1.947861925026191654e-01,1.252899073178304068e-01,1.410040276314580010e-01
4.239999999999999880e-01,-3.216804105121179314e-02,-2.760764526485952677e-02,5.370220600748620843e-02
4.249999999999999889e-01,1.380838821575525455e-01,-1.245894528729822870e-01,-6.122854258217774737e-02
4.259999999999999898e-01,2.320136149251325886e-01,-2.036414958163998701e-01,-1.232023160135546497e-01
4.269999999999999907e-01,2.454502255408154143e-01,-1.761390009329735218e-01,-1.491097743060340597e-01
4.279999999999999916e-01,1.364922981495070853e-01,-6.777636622502777874e-02,-1.065881098769789898e-01
4.289999999999999925e-01,-2.920875601348569064e-02,8.115074895795873489e-02,-9.369468989098798245e-03
4.299999999999999933e-01,-1.818195930829469009e-01,1.777428796173975423e-01,8.679952208454404239e-02
4.309999999999999942e-01,-2.527270933905774730e-01,1.919255605785112340e-01,1.451062563368437641e-01
4.319999999999999951e-01,-2.067530165210873239e-01,1.306386698746351827e-01,1.326598885629865221e-01
4.329999999999999960e-01,-6.934311905351958627e-02,1.167103738410774950e-02,6.621107893600329530e-02
4.339999999999999969e-01,9.419990285303221633e-02,-1.296066208571749201e-01,-2.683583828005558711e-02
4.349999999999999978e-01,2.333571537849886413e-01,-1.920144372770622443e-01,-1.126390806609764983e-01
4.359999999999999987e-01,2.304408452449246691e-01,-1.719378783417605805e-01,-1.588608889845430638e-01
4.369999999999999996e-01,1.465258378272845108e-01,-7.346321750370972403e-02,-1.208159173024236782e-01
4.380000000000000004e-01,-9.195792885177737908e-03,5.623012417440476085e-02,-2.490964422778217321e-02
4.390000000000000013e-01,-1.533920599390874717e-01,1.670195835302306087e-01,5.805023082274109875e-02
4.400000000000000022e-01,-2.365210405513065162e-01,1.982387860003279045e-01,1.352689437977063203e-01
4.410000000000000031e-01,-2.194902226362946407e-01,1.316693346973758783e-01,1.526523226331949201e-01
4.420000000000000040e-01,-9.506040208949620429e-02,1.637376226061532450e-02,1.091168599495297153e-01
4.430000000000000049e-01,8.697497115164795622e-02,-1.217209745984941666e-01,5.645339985156128636e-03
4.440000000000000058e-01,1.961375489354597323e-01,-1.937162489319249614e-01,-9.955462610736566520e-02
4.450000000000000067e-01,2.477587366591965656e-01,-1.800750400149145614e-01,-1.407341262182705555e-01
4.460000000000000075e-01,1.719093598579703175e-01,-8.082697059719946842e-02,-1.205672614439853990e-01
4.470000000000000084e-01,1.036098003787567362e-02,5.354921146537148374e-02,-5.751767271020418598e-02
4.480000000000000093e-01,-1.432726815336730075e-01,1.589447853368971264e-01,2.568994770973363068e-02
4.490000000000000102e-01,-2.437798628364289955e-01,2.001984505316700969e-01,1.241929416736052977e-01
4.500000000000000111e-01,-2.419434520606182359e-01,1.334967880060932699e-01,1.581158468904753089e-01
4.510000000000000120e-01,-1.056176822376517083e-01,1.917608647225439028e-02,1.099250788710594978e-01
4.520000000000000129e-01,4.709048377396673341e-02,-1.169862251943662029e-01,3.208082332319844854e-02
4.530000000000000138e-01,1.987115525013717354e-01,-1.818107600013103564e-01,-7.090906517608834558e-02
4.540000000000000147e-01,2.553586178992323097e-01,-1.800699140173818436e-01,-1.440293670161113537e-01
4.550000000000000155e-01,1.799749321000904956e-01,-9.609346145841518583e-02,-1.334686772612202477e-01
4.560000000000000164e-01,5.041772278030560300e-02,4.621236217227751852e-02,-7.348327534659365723e-02
4.570000000000000173e-01,-1.219520009303026453e-01,1.680923508721323401e-01,1.342833087562400780e-02
4.580000000000000182e-01,-2.375874066554358732e-01,2.004668273227362962e-01,1.149570570442416118e-01
4.590000000000000191e-01,-2.373712171867621012e-01,1.535441141692437672e-01,1.433187419637259596e-01
4.600000000000000200e-01,-1.344141437200384592e-01,3.930803167554947075e-02,1.312156784706760837e-01
4.610000000000000209e-01,4.122061258839446879e-02,-1.061110190042602180e-01,5.109819931435997942e-02
4.620000000000000218e-01,1.788484931855371662e-01,-1.920034148113759775e-01,-6.492809411786305829e-02
4.630000000000000226e-01,2.526456829722640296e-01,-1.853967873350064743e-01,-1.125745697132878170e-01
4.640000000000000235e-01,2.149792693174296665e-01,-1.019221144039995364e-01,-1.409083490962044771e-01
4.650000000000000244e-01,6.765222930665061585e-02,3.384094094411572995e-02,-9.203576156637321981e-02
4.660000000000000253e-01,-1.153381386900567684e-01,1.430238429445195303e-01,-1.209129278935148176e-02
4.670000000000000262e-01,-2.136586125911912604e-01,2.015673601584613006e-01,8.588354628881007813e-02
4.680000000000000271e-01,-2.376018506960847765e-01,1.467369533600399456e-01,1.441673685500600988e-01
4.689999999999999725e-01,-1.582302973742917562e-01,4.433475231327120569e-02,1.343236759839350480e-01
4.699999999999999734e-01,9.930183900791982434e-05,-9.395631152554234644e-02,6.406336104608213733e-02
4.709999999999999742e-01,1.636386155232101292e-01,-1.808203880588798163e-01,-3.080655755259827794e-02
4.719999999999999751e-01,2.483672530602755724e-01,-1.935207327126964583e-01,-1.226775735550743041e-01
4.729999999999999760e-01,2.275975707924718927e-01,-1.048173628996300066e-01,-1.520033281376839684e-01
4.739999999999999769e-01,9.795167791781854427e-02,2.972712002246329088e-02,-1.127208127248532366e-01
4.749999999999999778e-01,-7.100305044265187160e-02,1.383685048996361189e-01,-4.612070306092219685e-02
4.759999999999999787e-01,-2.077507265839829975e-01,2.057486794203852720e-01,6.637791599842843282e-02
4.769999999999999796e-01,-2.447917287047184920e-01,1.610653025759845314e-01,1.405264216108670083e-01
4.779999999999999805e-01,-1.776045292740328352e-01,5.582676963100689782e-02,1.519852119483193764e-01
4.789999999999999813e-01,-2.377922463797942434e-02,-1.016249082380474011e-01,9.527954431471853669e-02
4.799999999999999822e-01,1.502654046975368807e-01,-1.811804388331967886e-01,-7.387160656887121341e-03
4.809999999999999831e-01,2.373936524745843824e-01,-1.902954301670136683e-01,-1.004602607628829747e-01
4.819999999999999840e-01,2.357702333658305560e-01,-1.129665876868155561e-01,-1.453405024804723944e-01
4.829999999999999849e-01,1.205864780694574645e-01,1.623569359144781676e-02,-1.460856046791208229e-01
4.839999999999999858e-01,-5.368484321964387546e-02,1.442765571247274781e-01,-6.669762443408605579e-02
4.849999999999999867e-01,-2.004399297058185037e-01,1.964189661943509801e-01,5.009235295198135457e-02
4.859999999999999876e-01,-2.520123086744141538e-01,1.577803154128371854e-01,1.089443528388631538e-01
4.869999999999999885e-01,-2.042177825427118620e-01,5.939155371885210255e-02,1.434020283115704786e-01
4.879999999999999893e-01,-5.837087872777266956e-02,-7.669688323287190967e-02,1.286067206913928118e-01
4.889999999999999902e-01,1.048387412197950147e-01,-1.819200194184374952e-01,2.995684679751092760e-02
4.899999999999999911e-01,2.233238992181808547e-01,-2.023607499137315691e-01,-6.237120989842828700e-02
4.909999999999999920e-01,2.429379502871350238e-01,-1.284856779094791235e-01,-1.451132481804898733e-01
4.919999999999999929e-01,1.349345688492585016e-01,1.173351859504256044e-02,-1.479903271785361352e-01
4.929999999999999938e-01,-1.853470826096090956e-02,1.364964281478259212e-01,-7.023802653483710023e-02
4.939999999999999947e-01,-1.728579339786641134e-01,1.954930249524277075e-01,1.326080515987065195e-02
4.949999999999999956e-01,-2.366870824111830529e-01,1.602505126730011664e-01,1.085735908383249626e-01
4.959999999999999964e-01,-2.161673976061993518e-01,7.413977325462353662e-02,1.505371402902477562e-01
4.969999999999999973e-01,-9.623067569587159809e-02,-8.026173350744132684e-02,1.232729959617471643e-01
4.979999999999999982e-01,8.314388938465624990e-02,-1.608963269913009642e-01,4.530083636891994031e-02
4.989999999999999991e-01,2.205000841404197442e-01,-2.001477792927350563e-01,-5.870287781046811676e-02
5.000000000000000000e-01,2.389365307750973277e-01,-1.364565738998519129e-01,-1.206386159107012829e-01
5.010000000000000009e-01,1.625752716773078421e-01,-6.044410995861811478e-03,-1.400492195826482100e-01
5.020000000000000018e-01,4.140012509532529222e-03,1.338289816996394987e-01,-9.554756244562835621e-02
5.030000000000000027e-01,-1.476840003988705852e-01,2.060238965488151719e-01,-1.795615457261351411e-02
5.040000000000000036e-01,-2.509763591083302159e-01,1.588188451818267621e-01,9.479283480899056147e-02
5.050000000000000044e-01,-2.329597010589679607e-01,7.793463470298257756e-02,1.602731307624984669e-01
5.060000000000000053e-01,-9.912469349401031860e-02,-6.834888132755900791e-02,1.455177288281492842e-01
5.070000000000000062e-01,7.030089670280156855e-02,-1.869018500330415777e-01,6.610885309437206092e-02
5.080000000000000071e-01,1.979295495160346696e-01,-2.015072591086427001e-01,-3.601232542898481076e-02
5.090000000000000080e-01,2.514689962281789204e-01,-1.383513730084273974e-01,-1.309253669272098797e-01
5.100000000000000089e-01,1.735067133847678078e-01,-1.468976608981832979e-02,-1.541452923863980140e-01
5.110000000000000098e-01,4.390239048675654426e-02,1.259979844011009653e-01,-1.102894880875629480e-01
5.120000000000000107e-01,-1.339281103747178292e-01,2.005366381608298942e-01,-2.199321841543546915e-02
5.130000000000000115e-01,-2.394363292234342189e-01,1.729732343262996852e-01,6.267324294197879064e-02
5.140000000000000124e-01,-2.270813273582452385e-01,8.361427777591308452e-02,1.283714640404744201e-01
5.150000000000000133e-01,-1.185693208046117858e-01,-6.800882989749168495e-02,1.412074999701528055e-01
5.160000000000000142e-01,4.424428413714366626e-02,-1.694039760777127646e-01,8.033350693698930456e-02
5.170000000000000151e-01,1.827145925624127087e-01,-1.909129459971216081e-01,-6.417485055024959965e-03
5.180000000000000160e-01,2.468767834340320766e-01,-1.325297450066990623e-01,-9.331373916932428347e-02
5.190000000000000169e-01,2.057127472993939277e-01,-1.159994473936020246e-02,-1.437612845547196760e-01
5.200000000000000178e-01,4.538045938661054018e-02,9.857328424984024284e-02,-1.353736655226015217e-01
5.210000000000000187e-01,-1.110491873868653945e-01,1.797572464551575044e-01,-5.892001383984642182e-02
5.220000000000000195e-01,-2.262314522681782569e-01,1.918269551158516273e-01,4.738052828756853657e-02
5.230000000000000204e-01,-2.397713807509253559e-01,9.624280128881476659e-02,1.196858067957046745e-01
5.240000000000000213e-01,-1.447055291587684978e-01,-4.057038810292509790e-02,1.505629942012599032e-01
5.250000000000000222e-01,1.594706908777811238e-02,-1.557752081734573857e-01,1.208600052130269636e-01
5.260000000000000231e-01,1.678243217335916859e-01,-2.025313129669986389e-01,1.901421757147897518e-02
5.270000000000000240e-01,2.447520553751951489e-01,-1.537447358336621051e-01,-8.957688472790763246e-02
5.280000000000000249e-01,2.213973699315409938e-01,-2.741433780758534278e-02,-1.457396173520229266e-01
5.290000000000000258e-01,8.405709117760902516e-02,1.131339262332646256e-01,-1.430237929624891546e-01
5.300000000000000266e-01,-7.967601357580000876e-02,1.882738680255516273e-01,-7.361181791169468802e-02
5.310000000000000275e-01,-2.092444221784746372e-01,1.777503594719338775e-01,1.498023669787344921e-02
5.320000000000000284e-01,-2.447346574575974820e-01,1.096671195603030335e-01,1.157954286397564481e-01
5.330000000000000293e-01,-1.742549508167102468e-01,-3.430876160746096359e-02,1.517388916454979753e-01
5.340000000000000302e-01,-1.379963492957774623e-02,-1.541762009301112235e-01,1.125666865734034627e-01
5.350000000000000311e-01,1.595601964913764270e-01,-1.981660648425911109e-01,4.229571025250397631e-02
5.360000000000000320e-01,2.342810778989996845e-01,-1.491846482369086624e-01,-4.742418949803167000e-02
5.370000000000000329e-01,2.363710887762340840e-01,-4.975407891400999288e-02,-1.332375934539410112e-01
5.380000000000000338e-01,1.079156719243216378e-01,1.055793525764496116e-01,-1.534489147009032994e-01
5.390000000000000346e-01,-5.936252453823588626e-02,1.858439049643509644e-01,-9.674885671684441135e-02
5.400000000000000355e-01,-1.918637815085962317e-01,1.857354312216048797e-01,-1.705246955519770791e-02
5.410000000000000364e-01,-2.450542927687260064e-01,1.016908636189614856e-01,8.784743945121244180e-02
5.420000000000000373e-01,-1.878797375969611660e-01,-1.807537314322949298e-02,1.374753628856473786e-01
5.430000000000000382e-01,-3.843869741204007651e-02,-1.471679892333119521e-01,1.436814497982225602e-01
5.440000000000000391e-01,1.263086688701910987e-01,-2.019224427943044353e-01,7.471977576360892825e-02
5.450000000000000400e-01,2.266448922077385630e-01,-1.718446430495583210e-01,-2.249009488336575768e-02
5.460000000000000409e-01,2.212531271164124291e-01,-3.717051475675170469e-02,-1.183025418917431210e-01
5.470000000000000417e-01,1.391800591461316017e-01,6.860791783015321443e-02,-1.514853837434307904e-01
5.480000000000000426e-01,-4.100825126447690122e-02,1.872597474980251253e-01,-1.155249860917579863e-01
5.490000000000000435e-01,-1.894409717345765520e-01,1.817298097107332144e-01,-3.630265834314091999e-02
5.500000000000000444e-01,-2.720436648153566339e-01,1.163749263884768931e-01,5.983355989369901901e-02
5.510000000000000453e-01,-2.166336066173934760e-01,-3.921464907190771315e-02,1.312022815177212309e-01
5.520000000000000462e-01,-6.122632955763161744e-02,-1.429968685238470205e-01,1.457219314514748842e-01
5.530000000000000471e-01,9.276192298646228351e-02,-1.924559077542853103e-01,8.538986004131893237e-02
5.540000000000000480e-01,2.301044305164786086e-01,-1.722105908504951155e-01,5.366952538751641744e-03
5.550000000000000488e-01,2.426848186512637895e-01,-5.563401199704808703e-02,-1.007514590527536363e-01
5.560000000000000497e-01,1.431916723760115195e-01,8.304254458054632915e-02,-1.536258048737385029e-01
5.570000000000000506e-01,5.933809781610236561e-04,1.692760554702834042e-01,-1.266308149253634052e-01
5.580000000000000515e-01,-1.762330114434239314e-01,1.965721431297219324e-01,-4.549892385912776560e-02
5.590000000000000524e-01,-2.487162070733711372e-01,1.036485101188741875e-01,4.457968801209962612e-02
5.600000000000000533e-01,-2.195399020440715609e-01,-2.034427964549812354e-02,1.310907534474767544e-01
5.610000000000000542e-01,-9.169636657936505730e-02,-1.306901261520866386e-01,1.428475072938330537e-01
5.620000000000000551e-01,8.310561656462669977e-02,-1.930562852020099862e-01,1.089130475162785605e-01
5.629999999999999449e-01,2.114865380028583819e-01,-1.614381995317064888e-01,2.546942370201023959e-02
5.639999999999999458e-01,2.491541412281532142e-01,-6.234114808308911793e-02,-6.971779983702224015e-02
5.649999999999999467e-01,1.761014037395237097e-01,9.078285590002882488e-02,-1.439857228341956119e-01
5.659999999999999476e-01,8.314301404324741726e-03,1.690531226483922289e-01,-1.289488808921081531e-01
5.669999999999999485e-01,-1.311643898194935209e-01,2.025325819754000556e-01,-7.667218162782006574e-02
5.679999999999999494e-01,-2.563562669019435192e-01,1.065846403436187667e-01,1.307870751124384431e-02
5.689999999999999503e-01,-2.304011838329446116e-01,1.054395305838777335e-03,1.162298437736954682e-01
5.699999999999999512e-01,-1.216851720414912630e-01,-1.218982073900069796e-01,1.573876309279746144e-01
5.709999999999999520e-01,4.821903016278963200e-02,-2.037016112557135383e-01,1.339228842688301169e-01
5.719999999999999529e-01,1.990939898707235478e-01,-1.752237615433199502e-01,4.842739058986975098e-02
5.729999999999999538e-01,2.591241475333979638e-01,-6.526095868654180343e-02,-5.260799556236370189e-02
5.739999999999999547e-01,1.895046084253383389e-01,7.486689655218708994e-02,-1.240063267736148389e-01
5.749999999999999556e-01,4.859304256581695181e-02,1.859581145031996008e-01,-1.442185908314982112e-01
5.759999999999999565e-01,-1.291925627441864455e-01,1.931371573805163722e-01,-1.134938903026467966e-01
5.769999999999999574e-01,-2.341793795478685491e-01,1.333655347868907270e-01,-1.135829521572252233e-02
5.779999999999999583e-01,-2.350405523568265820e-01,-2.108773085480701494e-03,8.438827819918608142e-02
5.789999999999999591e-01,-1.349720651718872289e-01,-1.201267348983630634e-01,1.412583982106808689e-01
5.799999999999999600e-01,2.758136319463956251e-02,-2.054880840675805398e-01,1.570464809102683212e-01
5.809999999999999609e-01,1.727828594353265357e-01,-1.819281608510145976e-01,6.330488665642243495e-02
5.819999999999999618e-01,2.316775442031387133e-01,-8.352562864754128902e-02,-3.447858063608054413e-02
5.829999999999999627e-01,2.171381622299735081e-01,7.346563715316821452e-02,-1.179454210769020628e-01
5.839999999999999636e-01,7.454035048893577209e-02,1.672937605494871083e-01,-1.551077228476955283e-01
5.849999999999999645e-01,-8.567120313581443047e-02,2.032332505039385617e-01,-1.276344638763400596e-01
5.859999999999999654e-01,-2.075990982365127635e-01,1.449244761662504821e-01,-3.855823806212493182e-02
5.869999999999999662e-01,-2.487045972366591362e-01,1.048497416762599055e-02,6.683646779794394366e-02
5.879999999999999671e-01,-1.533917325282782851e-01,-1.246441044315235031e-01,1.368167534482363223e-01
5.889999999999999680e-01,-7.617027338461918387e-03,-1.889691532958901743e-01,1.399110118742508124e-01
5.899999999999999689e-01,1.488885688413055519e-01,-1.726780220452993897e-01,9.435966440072721118e-02
5.909999999999999698e-01,2.572036183320520197e-01,-8.698850128661203551e-02,-1.382731490150447898e-03
5.919999999999999707e-01,2.198121611807601905e-01,4.470455141544860123e-02,-9.949905927525026783e-02
5.929999999999999716e-01,1.086511980061414251e-01,1.646394988590817177e-01,-1.458655476582678134e-01
5.939999999999999725e-01,-6.096160945627973615e-02,1.962090476866716615e-01,-1.307853225964582256e-01
5.949999999999999734e-01,-2.071483057516452231e-01,1.358154621352580249e-01,-6.532648116854097853e-02
5.959999999999999742e-01,-2.406926916376170011e-01,2.953009057229880399e-02,4.015658259116952622e-02
5.969999999999999751e-01,-1.738118452130164304e-01,-9.563698427805816804e-02,1.312417593347724454e-01
5.979999999999999760e-01,-3.280511204961715499e-02,-1.824673051962101000e-01,1.565207525910822517e-01
5.989999999999999769e-01,1.323698057072473511e-01,-1.949005223203651438e-01,1.041532158396230590e-01
5.999999999999999778e-01,2.463033070930058244e-01,-9.498465218273838273e-02,2.029766768423226647e-02
6.009999999999999787e-01,2.300160777451178418e-01,3.634038286908552323e-02,-7.086130922625344386e-02
6.019999999999999796e-01,1.372986881182320651e-01,1.572530960518227772e-01,-1.411160217529925931e-01
6.029999999999999805e-01,-2.953188879762843125e-02,2.036816454685149436e-01,-1.425824763750108415e-01
6.039999999999999813e-01,-1.790927072294319078e-01,1.514108473325232185e-01,-6.228927292574495261e-02
6.049999999999999822e-01,-2.591201964933702029e-01,3.171777158291777532e-02,1.370410100024464090e-02
6.059999999999999831e-01,-1.895748361938948134e-01,-1.077405548719787415e-01,1.150434647146424821e-01
6.069999999999999840e-01,-5.632240634361136700e-02,-1.965178776036893560e-01,1.437108525349448940e-01
6.079999999999999849e-01,1.200717501673647519e-01,-1.840483798565400453e-01,1.269247449242671133e-01
6.089999999999999858e-01,2.299891081143767002e-01,-9.427521230250145157e-02,4.467614493125479647e-02
6.099999999999999867e-01,2.513195296701152270e-01,2.271052779154310308e-02,-4.647601107521018987e-02
6.109999999999999876e-01,1.409399887378498528e-01,1.520623093624791922e-01,-1.281533102188896212e-01
6.119999999999999885e-01,-1.399912610307534055e-02,2.040387621539704321e-01,-1.468451030164638627e-01
6.129999999999999893e-01,-1.810862550816426941e-01,1.612402231673404074e-01,-1.064094357212486686e-01
6.139999999999999902e-01,-2.474482186878627921e-01,3.490754544778433555e-02,-1.299733792026342392e-02
6.149999999999999911e-01,-1.992263955716126189e-01,-9.688302120558484054e-02,6.267694745260919686e-02
6.159999999999999920e-01,-9.153188971798915941e-02,-1.932172170400413835e-01,1.425045825132289501e-01
6.169999999999999929e-01,8.567030747370406318e-02,-1.884513991064144245e-01,1.386582962764439098e-01
6.179999999999999938e-01,2.219910221722416754e-01,-1.121271981335131979e-01,6.534710523526511550e-02
6.189999999999999947e-01,2.530397262273647585e-01,3.707519968653320147e-02,-3.604778147738860877e-02
6.199999999999999956e-01,1.579634371277279237e-01,1.423677399501588059e-01,-1.257719278386259243e-01
6.209999999999999964e-01,7.377502230936348361e-03,2.000446710259189964e-01,-1.454383293305105407e-01
6.219999999999999973e-01,-1.471496856204392578e-01,1.689052716651900099e-01,-1.035934190386268022e-01
6.229999999999999982e-01,-2.451389625465235644e-01,5.502814564797534752e-02,-2.394459181928880465e-02
6.239999999999999991e-01,-2.319823537728947227e-01,-1.013903745384935190e-01,6.374859713141645123e-02
6.250000000000000000e-01,-1.000789292959889526e-01,-2.010941868721578540e-01,1.308602879726332435e-01
6.260000000000000009e-01,7.316590629165935222e-02,-1.885254394908947029e-01,1.450274055014999786e-01
6.270000000000000018e-01,1.952152140333076047e-01,-1.230733232521450116e-01,1.081418636770976605e-01
6.280000000000000027e-01,2.615623114058480692e-01,-7.993942567540289479e-03,-1.397466817166137174e-02
6.290000000000000036e-01,1.948639865033157670e-01,1.334879621253667326e-01,-1.056615363549937014e-01
6.300000000000000044e-01,3.662103692524117798e-02,2.001172971355738572e-01,-1.424689506409998752e-01
6.310000000000000053e-01,-1.421333440711682883e-01,1.596302046849216172e-01,-1.262789498224882179e-01
6.320000000000000062e-01,-2.392225212096170950e-01,5.546850094564835520e-02,-5.784621581546849078e-02
6.330000000000000071e-01,-2.446158328730266285e-01,-8.473992083941625508e-02,4.448856617606890967e-02
6.340000000000000080e-01,-1.310123259966844145e-01,-1.726086526546965205e-01,1.384337049718152857e-01
6.350000000000000089e-01,3.897176084468113866e-02,-1.941105841628377460e-01,1.385579438571384880e-01
6.360000000000000098e-01,1.853498047091791667e-01,-1.387277734681795494e-01,1.054386903406416692e-01
6.370000000000000107e-01,2.536634910599010473e-01,8.719155362032262810e-03,1.859995078769919458e-02
6.380000000000000115e-01,2.020590764056540423e-01,1.368410028323309435e-01,-8.511553771767528531e-02
6.390000000000000124e-01,4.899268107653434456e-02,1.970863786743246027e-01,-1.506688027336939573e-01
6.400000000000000133e-01,-1.034252776022493714e-01,1.669733764513332552e-01,-1.233449837580130604e-01
6.410000000000000142e-01,-2.150010612138515409e-01,7.115642867097062008e-02,-7.501271686228412616e-02
6.420000000000000151e-01,-2.314735424580132983e-01,-7.182238859673834019e-02,1.705450511444874667e-02
6.430000000000000160e-01,-1.506949008188855077e-01,-1.732922199443961697e-01,1.001923358598027780e-01
6.440000000000000169e-01,5.080638231139410731e-03,-1.966367923511045945e-01,1.373604055939524060e-01
6.450000000000000178e-01,1.768328733894085347e-01,-1.439509396268045249e-01,1.118686496895621163e-01
6.460000000000000187e-01,2.549802551781770177e-01,1.408692021529488886e-02,5.007932808319597029e-02
6.470000000000000195e-01,2.360950573200314151e-01,1.197268298257179592e-01,-6.252887031786598382e-02
6.480000000000000204e-01,8.675084902080250349e-02,1.937467805950338351e-01,-1.276543049378218442e-01
6.490000000000000213e-01,-7.055070054413571656e-02,1.794346753416862228e-01,-1.479351675079714490e-01
6.500000000000000222e-01,-2.234074041052722948e-01,8.479715096833527477e-02,-9.058878431013488164e-02
6.510000000000000231e-01,-2.541035781727273291e-01,-6.243011368320119936e-02,-3.969668288988120741e-03
6.520000000000000240e-01,-1.814988490588935466e-01,-1.575506581513489990e-01,9.261697862041171070e-02
6.530000000000000249e-01,-1.595897218974930490e-02,-2.055687897713826262e-01,1.522324389883568108e-01
6.540000000000000258e-01,1.478089152320336275e-01,-1.478826725081660576e-01,1.461881853955617483e-01
6.550000000000000266e-01,2.442778089279943610e-01,-4.111746455842746686e-03,6.822476724944068205e-02
6.560000000000000275e-01,2.185257391472810451e-01,1.089444789584061157e-01,-2.705703431527773858e-02
6.570000000000000284e-01,1.046412301989013971e-01,1.934754929010115976e-01,-1.277997339298341251e-01
6.580000000000000293e-01,-6.312155347066861211e-02,1.807099312677705183e-01,-1.392705617898723214e-01
6.590000000000000302e-01,-2.103150670486113316e-01,8.688703053917137820e-02,-1.250259355769827163e-01
6.600000000000000311e-01,-2.426530492315454313e-01,-4.231810215036766604e-02,-1.899176545542183292e-02
6.610000000000000320e-01,-1.906011340156387734e-01,-1.629062043497649104e-01,6.791713200178307874e-02
6.620000000000000329e-01,-5.653008100762699217e-02,-1.970540883800583343e-01,1.384745557066791311e-01
6.630000000000000338e-01,1.271314584877408504e-01,-1.328722287196981988e-01,1.482604927262383410e-01
6.640000000000000346e-01,2.234801175210141544e-01,-2.429342344707546494e-02,8.892990538748582474e-02
6.650000000000000355e-01,2.346319817238546601e-01,9.977103571200243715e-02,-1.774777937905955283e-02
6.660000000000000364e-01,1.425727674662534972e-01,1.979084582148473714e-01,-9.763051552293526558e-02
6.670000000000000373e-01,-2.429752922499996484e-02,1.975911137131768081e-01,-1.529199751108873684e-01
6.680000000000000382e-01,-1.883618380431912320e-01,8.837032912683631669e-02,-1.262804894371523101e-01
6.690000000000000391e-01,-2.431371912778924060e-01,-4.449187494711147328e-02,-4.789110168975019288e-02
6.700000000000000400e-01,-2.067623845202675170e-01,-1.609054765719033775e-01,6.141040377755515450e-02
6.710000000000000409e-01,-6.803944532614060459e-02,-1.935317884141592171e-01,1.134255861027308881e-01
6.720000000000000417e-01,9.207929433746210590e-02,-1.516409580545001745e-01,1.375093366703294406e-01
6.730000000000000426e-01,2.255410026516791455e-01,-2.835832961089095050e-02,1.101988916474730268e-01
6.740000000000000435e-01,2.445325813193586495e-01,1.062287433038662798e-01,1.929859970145977183e-02
6.750000000000000444e-01,1.565273192480806375e-01,1.833623238833321512e-01,-8.381734956448136376e-02
6.760000000000000453e-01,-8.410805916055327444e-03,1.928690292466259948e-01,-1.551465673742210560e-01
6.770000000000000462e-01,-1.624605726379375892e-01,9.886705247795829488e-02,-1.442523833188537052e-01
6.780000000000000471e-01,-2.365146506460887310e-01,-3.627272329483475360e-02,-7.048368268546251203e-02
6.790000000000000480e-01,-2.192483409689781892e-01,-1.498850679959678744e-01,1.818059704255061901e-02
6.800000000000000488e-01,-8.490479661926519928e-02,-2.098971477370931982e-01,1.037379591434508808e-01
6.810000000000000497e-01,7.593840174156138434e-02,-1.454204855975109179e-01,1.386221203755969855e-01
6.820000000000000506e-01,2.104683419174073478e-01,-5.465309580822096114e-02,1.249545655007299749e-01
6.830000000000000515e-01,2.390003678709280988e-01,8.854555363581194383e-02,3.924752295111466616e-02
6.840000000000000524e-01,1.788738111489510396e-01,1.781892363510363952e-01,-6.035401459106395222e-02
6.850000000000000533e-01,2.266002455282158795e-02,1.957871687439112773e-01,-1.288732335356613523e-01
6.860000000000000542e-01,-1.332793956483529496e-01,1.048021685500221539e-01,-1.397972573329341051e-01
6.870000000000000551e-01,-2.300985207583669256e-01,-2.220828657645779886e-02,-9.086065139741428265e-02
6.879999999999999449e-01,-2.321698551569998936e-01,-1.321900023757539011e-01,1.346008377348295072e-03
6.889999999999999458e-01,-1.116088710404253559e-01,-2.108160209786666128e-01,8.852395608131885529e-02
6.899999999999999467e-01,4.996332209977982081e-02,-1.492195419131752132e-01,1.365455924027408341e-01
6.909999999999999476e-01,1.920682118830976393e-01,-5.052474292620569296e-02,1.217673333765109805e-01
6.919999999999999485e-01,2.415034582338445313e-01,1.015793592451969124e-01,5.472988302401535221e-02
6.929999999999999494e-01,1.847102452796530736e-01,1.756262348363757386e-01,-3.123883627057507176e-02
6.939999999999999503e-01,5.704992196587349573e-02,1.987029736051181827e-01,-1.217989621496599340e-01
6.949999999999999512e-01,-1.181070749079629056e-01,1.241392770918654798e-01,-1.424445371395234028e-01
6.959999999999999520e-01,-2.381263598738584952e-01,-2.855017917070790806e-02,-1.193892862801519544e-01
6.969999999999999529e-01,-2.407289809998859331e-01,-1.454543962034723914e-01,-2.973410721952560870e-02
6.979999999999999538e-01,-1.402981498576453823e-01,-1.889330731751165393e-01,6.889543314961880938e-02
6.989999999999999547e-01,2.697287119163088720e-02,-1.731807494641809109e-01,1.404597783370554465e-01
6.999999999999999556e-01,1.776100977801937930e-01,-6.267949995359257953e-02,1.477208859893101578e-01
7.009999999999999565e-01,2.573953829226622858e-01,7.896879509109741568e-02,9.333725881447384187e-02
7.019999999999999574e-01,1.991307648599485725e-01,1.730033106178341662e-01,-2.181472630143355140e-04
7.029999999999999583e-01,7.342737997398073035e-02,1.980527270954551833e-01,-9.373300066864595492e-02
7.039999999999999591e-01,-9.061678813024737211e-02,1.192103710350613799e-01,-1.571529007752954232e-01
7.049999999999999600e-01,-2.122806997247695115e-01,-9.275421392142615962e-03,-1.341813998434255029e-01
7.059999999999999609e-01,-2.457374525077576366e-01,-1.450835272482156602e-01,-6.028289118236616201e-02
7.069999999999999618e-01,-1.657707569124148295e-01,-1.917619808098573186e-01,4.354674808776644312e-02
7.079999999999999627e-01,-1.530006495876602528e-02,-1.663555631592102402e-01,1.261649761033327710e-01
7.089999999999999636e-01,1.538526509374985030e-01,-5.970672400798400503e-02,1.428783731465760043e-01
7.099999999999999645e-01,2.511728071393842798e-01,7.766300574958569236e-02,1.022151331338152641e-01
7.109999999999999654e-01,2.221594573317414723e-01,1.760447862612724013e-01,1.633004326382264323e-02
7.119999999999999662e-01,1.048908080867692050e-01,1.922605619467596116e-01,-9.506243365362554432e-02
7.129999999999999671e-01,-8.043084920288660900e-02,1.256679402472757889e-01,-1.591596207719025158e-01
7.139999999999999680e-01,-1.994337286861264102e-01,-7.055038006854255465e-03,-1.456835416689235552e-01
7.149999999999999689e-01,-2.429059969335838620e-01,-1.485488415016248398e-01,-7.741371279553828366e-02
7.159999999999999698e-01,-1.678642754616605504e-01,-2.036934593664669890e-01,1.503037796244086066e-02
7.169999999999999707e-01,-3.174280579515213058e-02,-1.671406805706601439e-01,9.897010596009035710e-02
7.179999999999999716e-01,1.313195244339462053e-01,-7.956985962111469413e-02,1.525671003417765903e-01
7.189999999999999725e-01,2.373267229930239863e-01,7.052789345313756342e-02,1.262989823384705890e-01
7.199999999999999734e-01,2.318922175078921843e-01,1.676546304432912360e-01,3.644744389495582770e-02
7.209999999999999742e-01,1.179217383722841461e-01,2.115758391919332904e-01,-5.821512041505313984e-02
7.219999999999999751e-01,-4.250239800411376861e-02,1.379292150666873162e-01,-1.361243189813856336e-01
7.229999999999999760e-01,-1.956332450548149693e-01,1.412583496533874501e-02,-1.485149541810500406e-01
7.239999999999999769e-01,-2.423653906358783638e-01,-1.260396608104560334e-01,-1.003495095512474122e-01
7.249999999999999778e-01,-2.052086635925251534e-01,-1.988910297404509475e-01,-3.628613150142287209e-03
7.259999999999999787e-01,-7.109295395052840638e-02,-1.632834660963350670e-01,7.882763350187180218e-02
7.269999999999999796e-01,9.846231259673599023e-02,-7.604771686518199680e-02,1.512896767839234102e-01
7.279999999999999805e-01,2.228141944004776998e-01,6.803251139989513474e-02,1.463094584385369601e-01
7.289999999999999813e-01,2.439112120988015942e-01,1.680246318452360277e-01,6.803635773722808977e-02
7.299999999999999822e-01,1.363416127391607613e-01,2.008878956609304600e-01,-3.493491444795277651e-02
7.309999999999999831e-01,-2.054420226897446522e-02,1.417106541737372105e-01,-1.179157247559003557e-01
7.319999999999999840e-01,-1.600145460995872349e-01,2.981034204030087037e-02,-1.407124955113920051e-01
7.329999999999999849e-01,-2.435180117713862669e-01,-1.223678122470835683e-01,-1.134777914462437726e-01
7.339999999999999858e-01,-2.106259464020955596e-01,-1.820359111171780120e-01,-9.985991963675147978e-03
7.349999999999999867e-01,-8.788028820810309116e-02,-1.834293616236758184e-01,6.451287800228024116e-02
7.359999999999999876e-01,7.700438342800142166e-02,-8.263860462340540114e-02,1.324677018315415511e-01
7.369999999999999885e-01,2.256550720354602579e-01,4.992508963231669789e-02,1.400103566340699934e-01
7.379999999999999893e-01,2.535295548535412280e-01,1.579673677355219463e-01,7.788895857367042486e-02
7.389999999999999902e-01,1.650176067537763303e-01,2.066713580735970723e-01,-1.306079791244743084e-02
7.399999999999999911e-01,1.397589795776205991e-02,1.503863412881971118e-01,-9.717581299200082900e-02
7.409999999999999920e-01,-1.450331981257667602e-01,2.859582863476689552e-02,-1.459562452648349162e-01
7.419999999999999929e-01,-2.417850103094112690e-01,-1.049253733167157532e-01,-1.348888711558483000e-01
7.429999999999999938e-01,-2.285899043793342134e-01,-1.772346248475026309e-01,-4.360306094164818902e-02
7.439999999999999947e-01,-1.124300513752936048e-01,-1.890634555747351953e-01,5.151385829624936102e-02
7.449999999999999956e-01,4.446807664724330283e-02,-9.837839669139172849e-02,1.251859651345886282e-01
7.459999999999999964e-01,1.946899719752866187e-01,2.914114326039033906e-02,1.539344917108687594e-01
7.469999999999999973e-01,2.628884361322847973e-01,1.481367435017479639e-01,9.961885643697580839e-02
7.479999999999999982e-01,1.812915364504554261e-01,2.059526185982230584e-01,2.191106472688973683e-02
7.489999999999999991e-01,2.611702814541257481e-02,1.478559521861176618e-01,-8.983835839904318055e-02
7.500000000000000000e-01,-1.356616045098833490e-01,3.608947845276997551e-02,-1.365076798174904571e-01
7.510000000000000009e-01,-2.496946484562606317e-01,-9.734658838789217450e-02,-1.401288439980261924e-01
7.520000000000000018e-01,-2.453078992919102419e-01,-1.725367996066810850e-01,-6.513543879512838364e-02
7.530000000000000027e-01,-1.291825399776604932e-01,-1.837490265424921998e-01,2.748401874948692286e-02
7.540000000000000036e-01,3.494356503644337891e-02,-8.528171423351237068e-02,9.823317074560108941e-02
7.550000000000000044e-01,1.785713306917571797e-01,1.583970576640367223e-02,1.563510136812206186e-01
7.560000000000000053e-01,2.545120039615119678e-01,1.393637392378125062e-01,1.307982467188277542e-01
7.570000000000000062e-01,2.007573331324391530e-01,2.036883409207049522e-01,5.212272404397145370e-02
7.580000000000000071e-01,7.189651111155231922e-02,1.474366417409377628e-01,-5.989963257953710707e-02
7.590000000000000080e-01,-1.015827964807764772e-01,3.743237233228861871e-02,-1.432631937799907218e-01
7.600000000000000089e-01,-2.290918718947993205e-01,-8.850725415116166006e-02,-1.544994504109998557e-01
7.610000000000000098e-01,-2.366042198810390240e-01,-1.802199869872489202e-01,-9.943068449497134698e-02
7.620000000000000107e-01,-1.499623130835725515e-01,-1.899435552030949159e-01,1.360711679169322730e-02
7.630000000000000115e-01,8.580195716978789369e-03,-9.915556680683415558e-02,9.770012949544773506e-02
7.640000000000000124e-01,1.626757375400143535e-01,2.182767775551021708e-02,1.427482684907432908e-01
7.650000000000000133e-01,2.444091268593088506e-01,1.341434741172642664e-01,1.281953777651608783e-01
7.660000000000000142e-01,2.144397196256818405e-01,2.072773575021750747e-01,5.256246666633492687e-02
7.670000000000000151e-01,9.446163479203451008e-02,1.602880271855319505e-01,-2.675087429339061823e-02
7.680000000000000160e-01,-8.202877425154553315e-02,5.096497124487509717e-02,-1.293914669247067106e-01
7.690000000000000169e-01,-2.216820101280938538e-01,-8.308631574144949294e-02,-1.536817972448701330e-01
7.700000000000000178e-01,-2.464104261749306413e-01,-1.668617681981114931e-01,-1.121961288953204766e-01
7.710000000000000187e-01,-1.765454880044954045e-01,-1.895658265551488919e-01,-1.147100799028840518e-02
7.720000000000000195e-01,-1.455884180365351818e-02,-1.243216670890205516e-01,7.082861139089099978e-02
7.730000000000000204e-01,1.405969873229877265e-01,1.075779228729115480e-02,1.424951781568677411e-01
7.740000000000000213e-01,2.326699072342905128e-01,1.358095034306970872e-01,1.462594726565698833e-01
7.750000000000000222e-01,2.267574191242394122e-01,2.041118935015515112e-01,7.908776544950475718e-02
7.760000000000000231e-01,1.130418258244857005e-01,1.680871499078203379e-01,-1.048310145181593177e-02
7.770000000000000240e-01,-5.768271089690160669e-02,6.574368939882689611e-02,-1.138043052770353752e-01
7.780000000000000249e-01,-1.895642206367366689e-01,-6.585916760175557216e-02,-1.449094652911246117e-01
7.790000000000000258e-01,-2.501786848961258802e-01,-1.887162459643120238e-01,-1.291327233284025877e-01
7.800000000000000266e-01,-1.865045834080359954e-01,-1.902176392478697464e-01,-4.208954006551540034e-02
7.810000000000000275e-01,-4.678469757290510539e-02,-1.273944460577075000e-01,4.928984425010613651e-02
7.820000000000000284e-01,1.180300875051848719e-01,7.031573766505583127e-03,1.174464250315120223e-01
7.830000000000000293e-01,2.244838415529111508e-01,1.246724421182600212e-01,1.414516167405058533e-01
7.840000000000000302e-01,2.376030401970418426e-01,1.906640057988798487e-01,9.986449167061872689e-02
7.850000000000000311e-01,1.422229758792121490e-01,1.687715160683962157e-01,1.484029428009252770e-02
7.860000000000000320e-01,-1.445198163736284569e-02,6.405172046612590819e-02,-8.237380904345384391e-02
7.870000000000000329e-01,-1.645008806674927715e-01,-5.409675724001753588e-02,-1.504612199427836361e-01
7.880000000000000338e-01,-2.589260894718412587e-01,-1.761603253192130791e-01,-1.429546755401408797e-01
7.890000000000000346e-01,-2.080635290513631608e-01,-2.083493220299634241e-01,-6.970973050999401677e-02
7.900000000000000355e-01,-7.591033021685769655e-02,-1.196114793837052548e-01,2.966497449295507974e-02
7.910000000000000364e-01,9.436874812048165473e-02,-9.293938711425902416e-03,8.989386056044029738e-02
7.920000000000000373e-01,2.172044701254372545e-01,1.257624116521890989e-01,1.538329193694668584e-01
7.930000000000000382e-01,2.418753332087924257e-01,1.926133628425336919e-01,1.195778245425194175e-01
7.940000000000000391e-01,1.568490243743644597e-01,1.731020404386517941e-01,3.088896793295373144e-02
7.950000000000000400e-01,5.492131791377754700e-04,7.638047039968039187e-02,-5.928666543980629783e-02
7.960000000000000409e-01,-1.557770176577620014e-01,-7.081271021619842121e-02,-1.312015804382534734e-01
7.970000000000000417e-01,-2.535171905545172688e-01,-1.581407960038051508e-01,-1.525843051141765327e-01
7.980000000000000426e-01,-2.109236648997026842e-01,-1.964670122889238812e-01,-1.078698164582442276e-01
7.990000000000000435e-01,-1.021096620980968261e-01,-1.437423959099217718e-01,3.808556496055952659e-03
8.000000000000000444e-01,7.906649944607152536e-02,-2.442106470910528765e-02,9.168671521893152765e-02
8.010000000000000453e-01,2.129828455672243548e-01,1.172308048048672224e-01,1.424291101706201546e-01
8.020000000000000462e-01,2.478991155748039854e-01,2.067482035074724722e-01,1.235958852309051864e-01
8.030000000000000471e-01,1.649262468936010251e-01,1.755185694564099785e-01,6.664955174742065447e-02
8.040000000000000480e-01,2.223814604590433272e-02,9.880908514970115908e-02,-3.196372556342606114e-02
8.050000000000000488e-01,-1.192214325366396793e-01,-4.790717297448971596e-02,-1.288985630989598896e-01
8.060000000000000497e-01,-2.414049944084810939e-01,-1.715099516181599060e-01,-1.649006012179650982e-01
8.070000000000000506e-01,-2.168245522148160576e-01,-2.162615797250532768e-01,-1.244970471253425415e-01
8.080000000000000515e-01,-1.236508024315619014e-01,-1.429530168990902350e-01,-1.946898478338460192e-02
8.090000000000000524e-01,5.154751751493231310e-02,-1.683307795167821377e-02,7.522462480475049229e-02
8.100000000000000533e-01,2.051415812724304011e-01,1.154004213019054065e-01,1.454333380971933598e-01
8.110000000000000542e-01,2.630071939031102257e-01,1.913560221227215141e-01,1.464185732668030204e-01
8.120000000000000551e-01,1.905058964341866667e-01,1.795287847003466664e-01,8.324262928371682635e-02
8.129999999999999449e-01,4.138135994192571748e-02,9.814723712227346741e-02,-1.534626121491899746e-02
8.139999999999999458e-01,-1.240453828767332095e-01,-3.740989304752639216e-02,-9.618150536801263473e-02
8.149999999999999467e-01,-2.258852790043257008e-01,-1.502568413550771087e-01,-1.597526654622763442e-01
8.159999999999999476e-01,-2.416128517466768766e-01,-2.118537364376528731e-01,-1.318528880152180782e-01
8.169999999999999485e-01,-1.457235646813398733e-01,-1.438505155929240553e-01,-4.383127071134248348e-02
8.179999999999999494e-01,1.180595494963744899e-02,-3.450653510297557736e-02,4.452221866557982272e-02
8.189999999999999503e-01,1.621735594740202346e-01,1.034706105174233587e-01,1.291981985070939365e-01
8.199999999999999512e-01,2.525969659920319632e-01,1.905311300116853124e-01,1.502516250208161541e-01
8.209999999999999520e-01,2.082374304321286396e-01,1.926552889393387813e-01,9.213472314092620297e-02
8.219999999999999529e-01,8.009770465130673645e-02,1.015809221825031278e-01,1.030239622192366186e-02
8.229999999999999538e-01,-9.076443164811540121e-02,-3.750117085797371325e-02,-7.920682600724222866e-02
8.239999999999999547e-01,-2.222339985844484778e-01,-1.527390903706380698e-01,-1.506151832734688445e-01
8.249999999999999556e-01,-2.479117788209100892e-01,-2.028579471478804963e-01,-1.426974991808187820e-01
8.259999999999999565e-01,-1.791974425497422085e-01,-1.593918391370817977e-01,-6.914120085374321489e-02
8.269999999999999574e-01,-5.657923350932289770e-03,-4.076775635134436554e-02,3.400562784837264652e-02
8.279999999999999583e-01,1.666884202230484724e-01,8.919984960536339602e-02,1.118785421978605726e-01
8.289999999999999591e-01,2.384780440820419567e-01,1.843347819892744432e-01,1.464458586035234100e-01
8.299999999999999600e-01,2.211303199341367598e-01,1.847171585011204431e-01,1.114049655284900797e-01
8.309999999999999609e-01,1.004316353072994272e-01,1.148236161222314644e-01,4.764150019005459341e-02
8.319999999999999618e-01,-6.475851079877978367e-02,-1.621132251034755264e-02,-6.803500268412543406e-02
8.329999999999999627e-01,-2.018464922499091652e-01,-1.433349025339082372e-01,-1.253628212831369715e-01
8.339999999999999636e-01,-2.368818011675041246e-01,-2.095978803809256386e-01,-1.546118759771863138e-01
8.349999999999999645e-01,-1.784281670303218270e-01,-1.533951075339746173e-01,-9.859351477318055446e-02
8.359999999999999654e-01,-4.790162439548616841e-02,-5.984875314818551006e-02,-4.295591514064246545e-03
8.369999999999999662e-01,1.438221048549221392e-01,8.442695483226290987e-02,9.131889585758187766e-02
8.379999999999999671e-01,2.403107361670214492e-01,1.864616929204103990e-01,1.544093347114729453e-01
8.389999999999999680e-01,2.387157621181869582e-01,1.928559231247084504e-01,1.284347542276669252e-01
8.399999999999999689e-01,1.273413111519815233e-01,1.160823936877368179e-01,6.598290818009724945e-02
8.409999999999999698e-01,-3.465166927014863563e-02,-2.243440319486678103e-02,-2.325820233354555788e-02
8.419999999999999707e-01,-1.706892929072601761e-01,-1.261669828899705248e-01,-1.148555394893687048e-01
8.429999999999999716e-01,-2.414164173839590255e-01,-1.937491123990345288e-01,-1.413856931467707412e-01
8.439999999999999725e-01,-2.153092849115251228e-01,-1.759035790166933177e-01,-1.191530452083594122e-01
8.449999999999999734e-01,-5.530667773459378017e-02,-5.025993310066522585e-02,-3.581251398245514223e-02
8.459999999999999742e-01,9.392286259031402962e-02,7.486684847696109535e-02,7.623941698280355117e-02
8.469999999999999751e-01,2.295008206757226388e-01,1.797639011148139954e-01,1.377196292868448080e-01
8.479999999999999760e-01,2.461512297237199165e-01,2.089334160055374146e-01,1.478729828162768101e-01
8.489999999999999769e-01,1.537074085323406614e-01,1.209744534727261039e-01,7.704726961036090227e-02
8.499999999999999778e-01,-3.573046586963090840e-03,-1.018072486283501171e-03,-9.200911389212050595e-03
8.509999999999999787e-01,-1.540174328132888071e-01,-1.302328164234018704e-01,-8.807226962601809317e-02
8.519999999999999796e-01,-2.428310659894388213e-01,-1.996584757381593411e-01,-1.555010957220484824e-01
8.529999999999999805e-01,-2.273427885053539710e-01,-1.678692942613078942e-01,-1.265660982606598428e-01
8.539999999999999813e-01,-6.790937123854055846e-02,-6.413187772299611122e-02,-5.991863786895943594e-02
8.549999999999999822e-01,8.104217267746133269e-02,7.608510204228710605e-02,6.752953029901705151e-02
8.559999999999999831e-01,2.191738334311373049e-01,1.713221367142020446e-01,1.335844095156524247e-01
8.569999999999999840e-01,2.400006395601040066e-01,1.857354111599826829e-01,1.432906552159437796e-01
8.579999999999999849e-01,1.555633896430259622e-01,1.357434981466051349e-01,1.038734555627041645e-01
8.589999999999999858e-01,6.633150017390884723e-03,2.150113482396635509e-02,8.982985969220464925e-03
8.599999999999999867e-01,-1.452406969350179822e-01,-1.184796866694018957e-01,-8.861500542138883718e-02
8.609999999999999876e-01,-2.411422606126681356e-01,-1.909259683683408315e-01,-1.428615813614895202e-01
8.619999999999999885e-01,-2.208681203753355138e-01,-1.679852873727785967e-01,-1.456019022966969223e-01
8.629999999999999893e-01,-1.093332272560478963e-01,-8.381071092651706800e-02,-7.024327779277704520e-02
8.639999999999999902e-01,6.755990576628725930e-02,7.008280349930223752e-02,2.005331192817790681e-02
8.649999999999999911e-01,1.998293617906111153e-01,1.711422360227871919e-01,1.199064317834204613e-01
8.659999999999999920e-01,2.556665280118819439e-01,1.884639225625112657e-01,1.495193952797058412e-01
8.669999999999999929e-01,1.881268625260271998e-01,1.322801745003510110e-01,1.296614730607816568e-01
8.679999999999999938e-01,4.510892505604861824e-02,1.094286566034957837e-02,1.798495734895192918e-02
8.689999999999999947e-01,-1.342428305807385480e-01,-1.213845904281966870e-01,-6.360889106632174050e-02
8.699999999999999956e-01,-2.498260210732793085e-01,-1.815648179509863624e-01,-1.439470152406118753e-01
8.709999999999999964e-01,-2.393069997689035999e-01,-1.850102785631206892e-01,-1.593984497813377699e-01
8.719999999999999973e-01,-1.249503114263882803e-01,-9.585847688521857701e-02,-9.721290678794144990e-02
8.729999999999999982e-01,2.589327866886322743e-02,4.253830472612706720e-02,8.113266399881033722e-03
8.739999999999999991e-01,1.953814092970314609e-01,1.665973164547973340e-01,1.060667617597524925e-01
8.750000000000000000e-01,2.509687701311574815e-01,1.984344194119149474e-01,1.422071111484544681e-01
8.760000000000000009e-01,2.049986438633118191e-01,1.498451395715363343e-01,1.226896964049163652e-01
8.770000000000000018e-01,6.737468823910243432e-02,2.335273093519836182e-02,6.172624903215664233e-02
8.780000000000000027e-01,-8.609445142269930851e-02,-1.100339251907379023e-01,-3.554494206496963682e-02
8.790000000000000036e-01,-2.147842341579912495e-01,-1.931232083879487194e-01,-1.183206694680895565e-01
8.800000000000000044e-01,-2.551866018971142291e-01,-1.756368952615271484e-01,-1.572684335071643513e-01
8.810000000000000053e-01,-1.577338314818190201e-01,-1.106480889861606448e-01,-1.210674142773717488e-01
8.820000000000000062e-01,-1.179896335672147786e-02,3.302515196416040688e-02,-2.591719999726982762e-02
8.830000000000000071e-01,1.648544021497518886e-01,1.513865856742257210e-01,8.275871885009426776e-02
8.840000000000000080e-01,2.566353493393642715e-01,2.016463997977992473e-01,1.356563623814894815e-01
8.850000000000000089e-01,2.199338906504780811e-01,1.611545627094128630e-01,1.339836681478801805e-01
8.860000000000000098e-01,9.662554121380556582e-02,4.072032663130048524e-02,8.051456557012054427e-02
8.870000000000000107e-01,-7.587101053544187401e-02,-8.840258725608185486e-02,-1.533088109599952710e-02
8.880000000000000115e-01,-2.067744700195167928e-01,-1.844450133133692937e-01,-9.758574663610652955e-02
8.890000000000000124e-01,-2.355919936082656319e-01,-1.925640413571466925e-01,-1.416572391424522070e-01
8.900000000000000133e-01,-1.757491441910367103e-01,-1.023869566293948430e-01,-1.020085728597135422e-01
8.910000000000000142e-01,-1.170404232199645858e-02,3.255253125067916753e-02,-5.224607531433766300e-02
8.920000000000000151e-01,1.296969871881722414e-01,1.456927088044236707e-01,5.220264620549471685e-02
8.930000000000000160e-01,2.449420015655638105e-01,2.002399340596452415e-01,1.217970782819514930e-01
8.940000000000000169e-01,2.242697085721258032e-01,1.574666192338337323e-01,1.549586419114421243e-01
8.950000000000000178e-01,1.137402507269110880e-01,4.928211639979142300e-02,1.131248485777867629e-01
8.960000000000000187e-01,-5.661123475786868087e-02,-8.917364938934829732e-02,1.455678986880034123e-02
8.970000000000000195e-01,-1.993141377663584790e-01,-1.759246004416852305e-01,-8.861263012462207433e-02
8.980000000000000204e-01,-2.333159085382943421e-01,-1.917408037016839761e-01,-1.412777835449358088e-01
8.990000000000000213e-01,-1.987408773827004649e-01,-1.041438964862504563e-01,-1.381295615986709857e-01
9.000000000000000222e-01,-4.104688156088295847e-02,3.423386772544901452e-02,-5.123505967525836258e-02
9.010000000000000231e-01,1.138688629321337326e-01,1.464278957010353432e-01,2.363486620112011105e-02
9.020000000000000240e-01,2.257568122556894152e-01,1.903355703511399322e-01,1.063586121669217593e-01
9.030000000000000249e-01,2.588570206264453333e-01,1.543804175040545679e-01,1.376343350566714696e-01
9.040000000000000258e-01,1.463249744093725879e-01,4.307104811744321554e-02,1.198728916846876213e-01
9.050000000000000266e-01,-2.518815902672724011e-02,-7.833982647766567220e-02,2.846080443136243809e-02
9.060000000000000275e-01,-1.726302449651662685e-01,-1.858165615028483653e-01,-6.054802733404082010e-02
9.070000000000000284e-01,-2.387789998261216906e-01,-1.848992718092986320e-01,-1.279299362833358211e-01
9.080000000000000293e-01,-2.083085935892219076e-01,-1.132248615513973961e-01,-1.412642837512445293e-01
9.090000000000000302e-01,-9.461552321735379467e-02,1.630313608643011586e-02,-1.085876075678954972e-01
9.100000000000000311e-01,1.053251233474952892e-01,1.488499917380388116e-01,1.179810769756779471e-03
9.110000000000000320e-01,2.297189653930759856e-01,1.897087715883726267e-01,9.599314131411096351e-02
9.120000000000000329e-01,2.568543937121727794e-01,1.684173222714706319e-01,1.480004115920916796e-01
9.130000000000000338e-01,1.603862570531445764e-01,6.103798555704029877e-02,1.213149106212741690e-01
9.140000000000000346e-01,3.120690733050334592e-03,-6.773385892155694976e-02,6.586391775084309008e-02
9.150000000000000355e-01,-1.556438096980728159e-01,-1.725987441238472087e-01,-4.975844982090046192e-02
9.160000000000000364e-01,-2.282404983053620551e-01,-1.992078440088102809e-01,-1.239822880071926453e-01
9.170000000000000373e-01,-2.202204964681629962e-01,-1.141371872783548819e-01,-1.463005729482266815e-01
9.180000000000000382e-01,-9.738427028829740872e-02,1.252203598519213354e-02,-1.108669178162617758e-01
9.190000000000000391e-01,6.039481624308164209e-02,1.245601265347770215e-01,-2.424708360422509618e-02
9.200000000000000400e-01,2.132108655036413225e-01,2.068653492030626539e-01,6.765271477644616005e-02
9.210000000000000409e-01,2.599354277566150451e-01,1.766253927013436420e-01,1.469580388671105076e-01
9.220000000000000417e-01,1.820527547314709504e-01,6.720170964666899449e-02,1.337566174267109664e-01
9.230000000000000426e-01,3.202436228428767045e-02,-6.783096417085421326e-02,8.193711048449793533e-02
9.240000000000000435e-01,-1.319145253941593487e-01,-1.610492876283862451e-01,-1.892981055125341275e-02
9.250000000000000444e-01,-2.210358674003247703e-01,-1.886461768244558079e-01,-1.042808521137022076e-01
9.260000000000000453e-01,-2.360764352484454320e-01,-1.258866669904015467e-01,-1.490420792481451928e-01
9.270000000000000462e-01,-1.251219835620851206e-01,-6.693331762309432005e-03,-1.237974592283356268e-01
9.280000000000000471e-01,3.383903530899005224e-02,1.172822084812949195e-01,-5.420250436287121082e-02
9.290000000000000480e-01,1.924253003082477265e-01,2.030681037088155616e-01,4.309622132862354210e-02
9.300000000000000488e-01,2.420300861657893321e-01,1.841770441072475006e-01,1.344782439424276610e-01
9.310000000000000497e-01,1.942142203395322009e-01,7.294010104040182796e-02,1.511769673157505878e-01
9.320000000000000506e-01,4.979695039591065103e-02,-5.657562396306625718e-02,1.041389962839384675e-01
9.330000000000000515e-01,-1.258314617213947550e-01,-1.649045214862429332e-01,6.304577017040690484e-03
9.340000000000000524e-01,-2.293334229236035082e-01,-1.954126210878359970e-01,-8.478522928086873467e-02
9.350000000000000533e-01,-2.322067435442609351e-01,-1.401653938726138415e-01,-1.418148481255209481e-01
9.360000000000000542e-01,-1.565485852932260724e-01,-1.543863628827858193e-02,-1.490615255048186594e-01
9.370000000000000551e-01,2.049931755697483385e-02,1.099930139782581834e-01,-6.392302595748804162e-02
9.379999999999999449e-01,1.659613028716891980e-01,1.868913287332316653e-01,4.368510464417040690e-02
9.389999999999999458e-01,2.499239980468899724e-01,1.870595317287223058e-01,1.215926562108574083e-01
9.399999999999999467e-01,2.115705095114561451e-01,7.296777644085299108e-02,1.476810930064053062e-01
9.409999999999999476e-01,6.516121000122911122e-02,-6.334608661180538003e-02,1.150774158216997661e-01
9.419999999999999485e-01,-8.250465404323771568e-02,-1.684077441485964111e-01,2.138332740917166588e-02
9.429999999999999494e-01,-2.274964714734189208e-01,-2.091669613012832052e-01,-4.926735153287163660e-02
9.439999999999999503e-01,-2.327438819080786814e-01,-1.425062477888046908e-01,-1.421959384711053709e-01
9.449999999999999512e-01,-1.627583027828505835e-01,-2.564124738225085839e-02,-1.544539062832067100e-01
9.459999999999999520e-01,-6.968780039828796451e-03,1.075156810106186883e-01,-8.416322869033135423e-02
9.469999999999999529e-01,1.528845617586026551e-01,1.834546074627532997e-01,-2.113531446029035324e-02
9.479999999999999538e-01,2.424596426741049138e-01,1.841682245308006172e-01,1.100687859176923411e-01
9.489999999999999547e-01,2.417157704292569875e-01,8.492712746991545880e-02,1.565035778516280229e-01
9.499999999999999556e-01,9.960793304066109521e-02,-2.326167847953061057e-02,1.335147678872839749e-01
9.509999999999999565e-01,-6.837916355849095462e-02,-1.721577209188227819e-01,5.010089295599674808e-02
9.519999999999999574e-01,-2.128341474517674581e-01,-1.990079222385979507e-01,-2.811429740886518119e-02
9.529999999999999583e-01,-2.484122916859231867e-01,-1.589984077431414178e-01,-1.242143062011182575e-01
9.539999999999999591e-01,-1.864608166656975263e-01,-3.272197991951718288e-02,-1.467794331158706056e-01
9.549999999999999600e-01,-3.812494361831521988e-02,9.763183441700970522e-02,-1.021127732358344947e-01
9.559999999999999609e-01,1.092144614327311414e-01,1.929391121783175511e-01,-2.200127715397661235e-02
9.569999999999999618e-01,2.356353781549679061e-01,1.820132774710497559e-01,6.978716437735253686e-02
9.579999999999999627e-01,2.380056875585384590e-01,9.836698842810812082e-02,1.419472728695153341e-01
9.589999999999999636e-01,1.288896602154069593e-01,-3.493318521233520352e-02,1.418618153381178415e-01
9.599999999999999645e-01,-2.772777335107075650e-02,-1.436404612287392746e-01,8.073246384802658382e-02
9.609999999999999654e-01,-1.801165387544827468e-01,-2.220563226022089498e-01,1.497433917116274254e-03
9.619999999999999662e-01,-2.557449762770332424e-01,-1.551754802250497056e-01,-1.026853311933990653e-01
9.629999999999999671e-01,-1.990408195900837396e-01,-3.150489569833420794e-02,-1.686975484994350793e-01
9.639999999999999680e-01,-6.381997531428858228e-02,9.493841062279487208e-02,-1.239742875505182029e-01
9.649999999999999689e-01,9.650323081580683415e-02,1.769661530557655460e-01,-4.562639963964262163e-02
9.659999999999999698e-01,2.096040051950118777e-01,1.818172387872685480e-01,5.219690701815686562e-02
9.669999999999999707e-01,2.339752077114407025e-01,9.770546714500429053e-02,1.261365860652318427e-01
9.679999999999999716e-01,1.393694253488020340e-01,-3.133268441156775164e-02,1.358785193523526780e-01
9.689999999999999725e-01,-4.838779221885719517e-03,-1.448769590975132193e-01,1.004606893293335523e-01
9.699999999999999734e-01,-1.541331650006404763e-01,-2.036003062976614597e-01,5.912281580514329449e-03
9.709999999999999742e-01,-2.437796281867529724e-01,-1.492040427717029327e-01,-9.139055204764542917e-02
9.719999999999999751e-01,-2.008227374661563092e-01,-4.986372969698184276e-02,-1.589707026087898434e-01
9.729999999999999760e-01,-7.310284205300075777e-02,8.838847092630530700e-02,-1.536870154122853549e-01
9.739999999999999769e-01,7.576322437876696625e-02,1.974282522094850389e-01,-5.476603178008650208e-02
9.749999999999999778e-01,2.055442833838833638e-01,1.924178345034448234e-01,3.059333665374438724e-02
9.759999999999999787e-01,2.458165145238533911e-01,1.103938316942659065e-01,1.219512300768097607e-01
9.769999999999999796e-01,1.684221193459248533e-01,-1.595982300355161532e-02,1.415594970691032295e-01
9.779999999999999805e-01,1.966400299705058433e-02,-1.372832232069224889e-01,1.261354044613391123e-01
9.789999999999999813e-01,-1.398010197239330510e-01,-1.920040887450497891e-01,2.006698123688372207e-02
9.799999999999999822e-01,-2.426040144218019334e-01,-1.670321331014657518e-01,-6.104772346883172857e-02
9.809999999999999831e-01,-2.226854421557089847e-01,-7.053798027311361518e-02,-1.359990462226131624e-01
9.819999999999999840e-01,-1.091266114347948235e-01,8.768634884708159660e-02,-1.569750382449094372e-01
9.829999999999999849e-01,5.446473325661990023e-02,1.877795147562961453e-01,-9.414319132232433496e-02
9.839999999999999858e-01,1.923173604362383715e-01,2.007413480070532330e-01,4.197080931799431619e-03
9.849999999999999867e-01,2.618373590207655477e-01,1.172764218176756829e-01,8.615146002462265029e-02
9.859999999999999876e-01,1.960548549432367393e-01,-8.621188309086104049e-03,1.493002286059917083e-01
9.869999999999999885e-01,5.640703215148478583e-02,-1.308599413689802704e-01,1.390639391976177530e-01
9.879999999999999893e-01,-1.191489058269723372e-01,-1.974635786460841591e-01,6.143176105276570292e-02
9.889999999999999902e-01,-2.378538357043280538e-01,-1.829498179778969447e-01,-3.635984461712890581e-02
9.899999999999999911e-01,-2.540328229865382315e-01,-6.516759594427554148e-02,-1.296696095572796581e-01
9.909999999999999920e-01,-1.316942930870378947e-01,6.269591213281892894e-02,-1.363978503968688583e-01
9.919999999999999929e-01,2.996062592635235361e-02,1.666954549542004893e-01,-1.150663499777901250e-01
9.929999999999999938e-01,1.792471301733780942e-01,1.910053339840453168e-01,-2.741301368502742017e-02
9.939999999999999947e-01,2.403485417920038780e-01,1.243053672527832249e-01,7.620979116183457247e-02
9.949999999999999956e-01,2.000278013519847242e-01,-1.997638146318961219e-03,1.291743786449257581e-01
9.959999999999999964e-01,8.155292529261695678e-02,-1.156052470417582578e-01,1.585467977497220238e-01
9.969999999999999973e-01,-9.959345644373476802e-02,-1.934675617335405995e-01,7.511343862876936062e-02
9.979999999999999982e-01,-2.323118840699174292e-01,-1.712816384961180216e-01,-2.869519025376569485e-02
9.989999999999999991e-01,-2.460607661854894157e-01,-6.176742775779071187e-02,-1.074639296778304720e-01
1.000000000000000000e+00,-1.546629804650419548e-01,5.629489708978843709e-02,-1.353242120787254144e-01
1.000999999999999890e+00,3.575552584187197385e-03,1.591163098967309508e-01,-1.271818867970227751e-01
1.002000000000000002e+00,1.655539357254901256e-01,2.000994107612549811e-01,-4.818943211823493999e-02
1.002999999999999892e+00,2.487474749181331213e-01,1.260294556259596854e-01,7.059463433825842460e-02
1.004000000000000004e+00,2.152945061141976202e-01,1.847684948846697872e-02,1.294585925680571126e-01
1.004999999999999893e+00,1.072225151224292794e-01,-1.290461455028089899e-01,1.422462938282636202e-01
1.006000000000000005e+00,-7.637588152526363083e-02,-1.940775803735637350e-01,1.024763940419280706e-01
1.006999999999999895e+00,-2.125507411026856530e-01,-1.881289761951120409e-01,4.102658308197131357e-03
1.008000000000000007e+00,-2.510738483835561752e-01,-8.822072782758874632e-02,-7.718636357879389565e-02
1.008999999999999897e+00,-1.744983696109131399e-01,6.545798392082427530e-02,-1.457864843034487601e-01
1.010000000000000009e+00,-3.356351238504801104e-02,1.604608631320518508e-01,-1.462067920416729172e-01
1.010999999999999899e+00,1.508464229447571414e-01,2.011642664069020203e-01,-6.215960420100547640e-02
1.012000000000000011e+00,2.422748890326503757e-01,1.419245682356643778e-01,2.068741307327139761e-02
1.012999999999999901e+00,2.302578382721380823e-01,2.698957425418887363e-02,1.163517518088619668e-01
1.014000000000000012e+00,1.069819474022220690e-01,-1.200227820373603316e-01,1.563230419321098297e-01
1.014999999999999902e+00,-3.837353667563957876e-02,-1.903053264782364473e-01,1.124582480991210415e-01
1.016000000000000014e+00,-1.820010292739360491e-01,-1.849602686977316612e-01,2.300174660749191441e-02
1.016999999999999904e+00,-2.402449938936641605e-01,-9.501089998148577742e-02,-5.763957859233229120e-02
1.018000000000000016e+00,-1.861033460123358019e-01,6.413025744593502109e-02,-1.303933566180130177e-01
1.018999999999999906e+00,-5.104013534437690236e-02,1.595541178124976756e-01,-1.511451606795775060e-01
1.020000000000000018e+00,1.219809182014010562e-01,1.905466744339998353e-01,-8.339681969779405568e-02
1.020999999999999908e+00,2.321946403572880957e-01,1.461785907307132093e-01,5.484820042460748085e-03
1.022000000000000020e+00,2.481457929552577657e-01,1.103389592348763722e-02,9.797607726005663764e-02
1.022999999999999909e+00,1.465476173508531987e-01,-1.001897245294690181e-01,1.478831875394994444e-01
1.024000000000000021e+00,-1.918789425745882210e-02,-1.875972625569227170e-01,1.162976735089743530e-01
1.024999999999999911e+00,-1.811153237361673718e-01,-1.877528834884060471e-01,6.108932578904704286e-02
1.026000000000000023e+00,-2.663706855353187297e-01,-9.460321296893876852e-02,-4.724643036567923587e-02
1.026999999999999913e+00,-2.270852011980635521e-01,4.213351294643419287e-02,-1.155931198675924643e-01
1.028000000000000025e+00,-7.595140116416843057e-02,1.419142769187223541e-01,-1.497080931988752639e-01
1.028999999999999915e+00,8.725882793971620477e-02,1.914898995857088893e-01,-1.045624663699978724e-01
1.030000000000000027e+00,2.227885331353101628e-01,1.544064414548836084e-01,-1.980698297911839129e-02
1.030999999999999917e+00,2.422071487291223013e-01,3.614526971638816477e-02,7.133058189145603800e-02
1.032000000000000028e+00,1.493031866935995711e-01,-8.086270873334609754e-02,1.354618924922060819e-01
1.032999999999999918e+00,8.411494351066564970e-03,-1.859695831984677639e-01,1.448606904849490673e-01
1.034000000000000030e+00,-1.480731128249104245e-01,-1.918484724906504568e-01,7.276930058818062430e-02
1.034999999999999920e+00,-2.493044139368647549e-01,-9.942861558805216049e-02,-2.190941343434782418e-02
1.036000000000000032e+00,-2.320757940975095301e-01,2.189523749180770015e-02,-1.161408786560514939e-01
1.036999999999999922e+00,-9.612627782302382573e-02,1.474859281115330212e-01,-1.554324440065117940e-01
1.038000000000000034e+00,6.245848245564881995e-02,1.955812285675850581e-01,-1.377525554960245535e-01
1.038999999999999924e+00,2.016724666440453118e-01,1.704902624055214255e-01,-4.895463098513975347e-02
1.040000000000000036e+00,2.412286014522894706e-01,4.310849787324225191e-02,7.745711502675803328e-02
1.040999999999999925e+00,1.791255919288664566e-01,-8.988794404392237702e-02,1.456505291083064757e-01
1.042000000000000037e+00,2.458569982862961190e-02,-1.825583367822833092e-01,1.553835112196292334e-01
1.042999999999999927e+00,-1.373617137264432353e-01,-1.900224878137686257e-01,1.155329846009330030e-01
1.044000000000000039e+00,-2.539423344324464038e-01,-1.115372338538758862e-01,2.078748433669648510e-02
1.044999999999999929e+00,-2.532260322188435442e-01,1.981917248513312066e-02,-8.585856811381085973e-02
1.046000000000000041e+00,-1.228819470907633882e-01,1.373522272589839388e-01,-1.438079069614198180e-01
1.046999999999999931e+00,5.061122543382827466e-02,2.040922063029689260e-01,-1.497434723685346081e-01
1.048000000000000043e+00,1.734605520568159309e-01,1.804383901514814426e-01,-7.354554435647160660e-02
1.048999999999999932e+00,2.494027823896661777e-01,3.935579531814008269e-02,3.124873548061041229e-02
1.050000000000000044e+00,2.027688060062607656e-01,-8.059387391430933301e-02,1.144645553699030899e-01
1.050999999999999934e+00,5.699036742538426958e-02,-1.927798978008102848e-01,1.550120406434398468e-01
1.052000000000000046e+00,-9.417920386698402924e-02,-1.908704092238803218e-01,1.301951656347874464e-01
1.052999999999999936e+00,-2.302561105837518940e-01,-1.213275037160502917e-01,2.558811210592561169e-02
1.054000000000000048e+00,-2.382436152897546844e-01,2.047826063792276483e-02,-4.576020212356464445e-02
1.054999999999999938e+00,-1.403147601142424317e-01,1.290149490937883558e-01,-1.415043748270509438e-01
1.056000000000000050e+00,1.474553274908549892e-03,1.957832632167845199e-01,-1.419932971878924699e-01
1.056999999999999940e+00,1.686338357881913830e-01,1.647172035377122701e-01,-9.407181348701298962e-02
1.058000000000000052e+00,2.424126768906747775e-01,5.675595857692833368e-02,8.302341587485188509e-03
1.058999999999999941e+00,2.175691350428791415e-01,-5.705963075481364916e-02,9.986660007201519917e-02
1.060000000000000053e+00,6.920208836601439428e-02,-1.861441210748391306e-01,1.441934835551508809e-01
1.060999999999999943e+00,-8.241085654949045769e-02,-1.978768056117484186e-01,1.167394688128257779e-01
1.062000000000000055e+00,-2.306230843943008757e-01,-1.337448874691362644e-01,6.800071969472008815e-02
1.062999999999999945e+00,-2.521362804159000826e-01,1.082384566127748624e-02,-4.475102282815335286e-02
1.064000000000000057e+00,-1.692705620970547942e-01,1.376310307361997554e-01,-1.177259340138870763e-01
1.064999999999999947e+00,3.566917873554406940e-03,1.923288204037532922e-01,-1.435976128976460264e-01
1.066000000000000059e+00,1.589868955341420809e-01,1.839204911335214077e-01,-1.113040600097853633e-01
1.066999999999999948e+00,2.427652227652264127e-01,6.095074779812860444e-02,-1.827380064895933048e-02
1.068000000000000060e+00,2.289464781246107472e-01,-6.626047333735435307e-02,7.996839342737700751e-02
1.068999999999999950e+00,1.084060989152824533e-01,-1.776450059075870280e-01,1.378859619540019066e-01
1.070000000000000062e+00,-5.078353596459676128e-02,-2.022971968676660903e-01,1.433966137695062149e-01
1.070999999999999952e+00,-1.936253158209613190e-01,-1.312219592627260623e-01,8.821403850544222436e-02
1.072000000000000064e+00,-2.469804680874247982e-01,-6.250900153834192119e-03,-2.036838310208253372e-02
1.072999999999999954e+00,-1.864903315819709806e-01,1.203792372119558973e-01,-1.084488065623909897e-01
1.074000000000000066e+00,-2.798337416129849375e-02,2.003823862180507953e-01,-1.449694585534935520e-01
1.074999999999999956e+00,1.199566104498209079e-01,1.778227676972372606e-01,-1.240425420074568186e-01
1.076000000000000068e+00,2.438271309328794989e-01,8.042053682052222041e-02,-5.121975808803270330e-02
1.076999999999999957e+00,2.315517476405521691e-01,-5.398250470060358963e-02,6.891434744090890741e-02
1.078000000000000069e+00,1.287205292528560696e-01,-1.681892144905003383e-01,1.301911940578955040e-01
1.078999999999999959e+00,-4.777525427032602162e-02,-1.792496105595799971e-01,1.422157273317838644e-01
1.080000000000000071e+00,-1.758971687505131720e-01,-1.315620079776358142e-01,8.790436878471849513e-02
1.080999999999999961e+00,-2.539090729240177646e-01,-2.421145195285080015e-02,1.061613108356911257e-02
1.082000000000000073e+00,-2.121901175506694937e-01,1.097464339811922152e-01,-8.789663457769973653e-02
1.082999999999999963e+00,-7.296163786574220989e-02,2.063565165709827232e-01,-1.311734915611762198e-01
1.084000000000000075e+00,1.034602784932147912e-01,1.845515450010195013e-01,-1.327995258813947088e-01
1.084999999999999964e+00,2.348330762613088651e-01,1.017968346403922836e-01,-6.038831039324338984e-02
1.086000000000000076e+00,2.376582494885575436e-01,-5.336340616082613925e-02,1.724422071964538256e-02
1.086999999999999966e+00,1.448921856615991710e-01,-1.626887769589101806e-01,1.219207161106055093e-01
1.088000000000000078e+00,-1.198699403326663505e-02,-1.998614945046789937e-01,1.356464242925800034e-01
1.088999999999999968e+00,-1.577263516536736576e-01,-1.520800620278023874e-01,1.124033185834711207e-01
1.090000000000000080e+00,-2.438573591052106693e-01,-2.594441872841714639e-02,3.727368773069637820e-02
1.090999999999999970e+00,-2.146039623762486526e-01,1.126382539021794221e-01,-7.753699899395287420e-02
1.092000000000000082e+00,-8.612585593513580329e-02,1.881434099066182364e-01,-1.353735846903879880e-01
1.092999999999999972e+00,8.562475383879054880e-02,1.800322130162433087e-01,-1.293655209051241539e-01
1.094000000000000083e+00,2.099416001595661718e-01,8.494720121253175604e-02,-8.166239702341451800e-02
1.094999999999999973e+00,2.433968327344909754e-01,-2.509395576683330978e-02,9.254791934514543933e-03
1.096000000000000085e+00,1.748744902216737285e-01,-1.561386564294371393e-01,1.018031425169660248e-01
1.096999999999999975e+00,3.672820177893124788e-02,-2.001468177376986290e-01,1.422487803544311979e-01
1.098000000000000087e+00,-1.182635386662954785e-01,-1.494789084671044321e-01,1.325028147461494443e-01
1.098999999999999977e+00,-2.411313405694172907e-01,-3.373535727142568802e-02,5.203361719999442109e-02
1.100000000000000089e+00,-2.227496074109294733e-01,9.821828505492137540e-02,-3.918781918922396162e-02
1.100999999999999979e+00,-1.080941493895282851e-01,1.915781069378790780e-01,-1.218814973991532435e-01
1.102000000000000091e+00,5.441973799390749378e-02,1.783653183676809639e-01,-1.512392389725473463e-01
1.102999999999999980e+00,2.128644943865608263e-01,1.027546073701576107e-01,-9.745459157481010937e-02
1.104000000000000092e+00,2.664382145646813083e-01,-1.535552251476136019e-02,-1.152199651136320661e-02
1.104999999999999982e+00,1.990057869961900372e-01,-1.540225663057566419e-01,8.016637959211596332e-02
1.106000000000000094e+00,3.784588717317825812e-02,-2.059105230750800930e-01,1.345408506765505274e-01
1.106999999999999984e+00,-1.186307103937560420e-01,-1.612904659174437538e-01,1.426516312671921860e-01
1.108000000000000096e+00,-2.337931361209986125e-01,-3.863483550244155990e-02,7.699475316275457282e-02
1.108999999999999986e+00,-2.280259038547671480e-01,9.160814365067929121e-02,-1.648198500515150877e-02
1.110000000000000098e+00,-1.310003933929073661e-01,1.785433738175465079e-01,-1.084455895464515179e-01
1.110999999999999988e+00,2.662037770601170805e-02,1.853389029668943422e-01,-1.453216894601849773e-01
1.112000000000000099e+00,1.835662085917925401e-01,1.006968146222120830e-01,-1.241492583935854127e-01
1.112999999999999989e+00,2.632331328547076743e-01,-6.098435633508262482e-03,-3.337675625707700600e-02
1.114000000000000101e+00,2.114038251510653166e-01,-1.384263266709686024e-01,4.592081567106153644e-02
1.114999999999999991e+00,6.457910736136066032e-02,-1.985763641572527438e-01,1.309368363594552997e-01
1.116000000000000103e+00,-1.016797203611664174e-01,-1.640310582388729288e-01,1.465271932007378985e-01
1.116999999999999993e+00,-2.136258152732475879e-01,-5.069144635877859822e-02,1.021569450406779045e-01
1.118000000000000105e+00,-2.411693820985869874e-01,8.014472014559069490e-02,1.999655387278839128e-03
1.118999999999999995e+00,-1.694081572206287967e-01,1.824927194083454662e-01,-8.476342951144717752e-02
1.120000000000000107e+00,1.114299505981524406e-02,1.943478430228957887e-01,-1.505865158063978693e-01
1.120999999999999996e+00,1.779608490283725308e-01,1.345149317320045446e-01,-1.267599792906250744e-01
1.122000000000000108e+00,2.494087441441880659e-01,-8.294641158852070553e-03,-7.165295881815181289e-02
1.122999999999999998e+00,2.117213529348955792e-01,-1.367249694839884899e-01,3.768437092148049089e-02
1.124000000000000110e+00,8.814122696766719944e-02,-1.966126131382261166e-01,1.236534455129888882e-01
1.125000000000000000e+00,-7.433148281912813071e-02,-1.620284149660137507e-01,1.532688739610459649e-01
1.125999999999999890e+00,-2.061431166650166957e-01,-6.432093031129269833e-02,1.127190817236196629e-01
1.127000000000000002e+00,-2.329258931479395722e-01,8.162388308853184282e-02,2.408556277083363437e-02
1.127999999999999892e+00,-1.752759286062356148e-01,1.855752663575553907e-01,-7.348179017846023786e-02
1.129000000000000004e+00,-3.447292887839110975e-02,1.938324592525312307e-01,-1.372002332081630749e-01
1.129999999999999893e+00,1.423467272976881304e-01,1.225834280279178151e-01,-1.512148473221872624e-01
1.131000000000000005e+00,2.318784221516033139e-01,-7.957283920473850677e-03,-8.338661576890613047e-02
1.131999999999999895e+00,2.399880151491518010e-01,-1.322396920255471953e-01,9.067532994795134832e-03
1.133000000000000007e+00,1.313739459045458746e-01,-1.919580796961143365e-01,1.067531312369528057e-01
1.133999999999999897e+00,-4.645831425639043027e-02,-1.847956001052986352e-01,1.399156898263606563e-01
1.135000000000000009e+00,-2.033721615374355918e-01,-7.474519099312960935e-02,1.337896795893913082e-01
1.135999999999999899e+00,-2.506286782480176556e-01,6.059584567442672515e-02,5.622544607850035736e-02
1.137000000000000011e+00,-2.027649806874656235e-01,1.708363982954853588e-01,-5.347360110966899172e-02
1.137999999999999901e+00,-6.522745529179292678e-02,1.988235760129213325e-01,-1.359531992669729406e-01
1.139000000000000012e+00,1.117210890714993299e-01,1.333872315342833903e-01,-1.506274829945692673e-01
1.139999999999999902e+00,2.397124322428990373e-01,2.541228912677175565e-03,-1.099480412308016242e-01
1.141000000000000014e+00,2.445193284705510506e-01,-1.259465963249878084e-01,-2.978647730489733525e-02
1.141999999999999904e+00,1.471365774213203859e-01,-1.893199449971393611e-01,7.651853601724672993e-02
1.143000000000000016e+00,-2.252435228835507688e-02,-1.791540408202159096e-01,1.519772678069072347e-01
1.143999999999999906e+00,-1.835081485275135149e-01,-7.611714800923445601e-02,1.455187595167552472e-01
1.145000000000000018e+00,-2.501610923862856994e-01,4.737103322344660139e-02,8.219938959375384935e-02
1.145999999999999908e+00,-2.100922835387837861e-01,1.632935600037688506e-01,-2.671998698028099639e-02
1.147000000000000020e+00,-6.741463282499964016e-02,2.006076746797979538e-01,-9.761050796335773994e-02
1.147999999999999909e+00,9.556777134067456769e-02,1.376035760561917232e-01,-1.449591757295715655e-01
1.149000000000000021e+00,2.227281942750222177e-01,5.737946877490319834e-03,-1.114448083036929382e-01
1.149999999999999911e+00,2.363910436013443861e-01,-1.197516855852015782e-01,-5.204287298461143796e-02
1.151000000000000023e+00,1.702097095876480837e-01,-1.819840503137038490e-01,6.298395504253233301e-02
1.151999999999999913e+00,7.703999252372686554e-03,-1.777693744807343490e-01,1.262000337923971094e-01
1.153000000000000025e+00,-1.599644952152627642e-01,-9.655039863137560019e-02,1.507211655366605396e-01
1.153999999999999915e+00,-2.497717644626188394e-01,5.672326807669056392e-02,9.299917560152731744e-02
1.155000000000000027e+00,-2.230758454363245269e-01,1.546059214962672290e-01,-2.289751134239875318e-03
1.155999999999999917e+00,-9.847002144138800039e-02,1.995396759841560341e-01,-8.592183883671131173e-02
1.157000000000000028e+00,6.896296158732649617e-02,1.549599371750622068e-01,-1.435880976643774676e-01
1.157999999999999918e+00,1.933192471680901803e-01,1.827643193577437389e-02,-1.249076477601878676e-01
1.159000000000000030e+00,2.465373075077973986e-01,-1.035325413199718880e-01,-5.381065354487372249e-02
1.159999999999999920e+00,1.724525250623443196e-01,-1.932914637563199201e-01,4.668092406162011737e-02
1.161000000000000032e+00,4.244578464866910483e-02,-1.791334865594581549e-01,1.138286406811258866e-01
1.161999999999999922e+00,-1.415024061098176800e-01,-8.426245900900940222e-02,1.665550152764978253e-01
1.163000000000000034e+00,-2.328274680651343520e-01,5.552774164380708255e-02,1.083595696278950998e-01
1.163999999999999924e+00,-2.297633030986338531e-01,1.538469022607270864e-01,3.520143118944447924e-02
1.165000000000000036e+00,-1.195460479705621609e-01,1.967046928876805267e-01,-7.887237771754880555e-02
1.165999999999999925e+00,4.381507610627846661e-02,1.685154760184645328e-01,-1.531619300973666720e-01
1.167000000000000037e+00,2.013767432339768071e-01,3.371999982395292722e-02,-1.377187685136461448e-01
1.167999999999999927e+00,2.631626203600270220e-01,-9.949619996675646005e-02,-7.354846636189968367e-02
1.169000000000000039e+00,2.082741892232942149e-01,-1.818525704911303775e-01,5.725361286617193513e-03
1.169999999999999929e+00,5.500718540454392624e-02,-1.856318772753203228e-01,9.956704888327211345e-02
1.171000000000000041e+00,-1.131833627120796965e-01,-1.026712041879436765e-01,1.580471353655650835e-01
1.171999999999999931e+00,-2.356077851106206100e-01,2.445933662295347519e-02,1.330975659646575215e-01
1.173000000000000043e+00,-2.269963315223654243e-01,1.475073366323579604e-01,5.037961712645852574e-02
1.173999999999999932e+00,-1.462268279684853511e-01,1.918146604812094314e-01,-4.732225773589370660e-02
1.175000000000000044e+00,1.501314164041002777e-02,1.572251412485538846e-01,-1.371466245654935912e-01
1.175999999999999934e+00,1.664426377217118336e-01,3.605681401695341737e-02,-1.503352129991623876e-01
1.177000000000000046e+00,2.409215326278808245e-01,-8.018792241171632251e-02,-1.115459972381844522e-01
1.177999999999999936e+00,2.245856309208704160e-01,-1.840971116111270456e-01,-2.048852790804443075e-02
1.179000000000000048e+00,9.058503355808640578e-02,-1.841423034103179535e-01,8.370142647685757664e-02
1.179999999999999938e+00,-9.618131146520010610e-02,-9.580176760366136690e-02,1.438953053365617796e-01
1.181000000000000050e+00,-2.071279273135995247e-01,3.107354030244418794e-02,1.449232205825226882e-01
