time,acc_x,acc_y,acc_z
0.000000000000000000e+00,5.474008295337675495e-02,1.713001604563448022e-01,-6.999811173274798903e-02
1.000000000000000021e-03,4.007341090194160849e-01,2.852015154432945288e-01,2.104023991829587492e-01
2.000000000000000042e-03,2.446332767005436892e-01,-4.106782584016092225e-02,2.897440263725139520e-01
3.000000000000000062e-03,-2.461698668402937107e-01,-4.426614580301431734e-01,8.454505155557838492e-02
4.000000000000000083e-03,-5.391895329629684541e-01,-4.230556786951402692e-01,-2.168850651747661340e-01
5.000000000000000104e-03,-2.598011072913717356e-01,-4.052470825961143608e-02,-2.435299142505699399e-01
6.000000000000000125e-03,1.773972417046876804e-01,1.733247448050716233e-01,1.475112117172907265e-02
7.000000000000000146e-03,1.585989419059665173e-01,-1.031311090648562578e-01,2.068758095950374298e-01
8.000000000000000167e-03,-3.375033847775978924e-01,-5.156847316462643827e-01,3.302521532803261162e-02
8.999999999999999320e-03,-6.927787710492527840e-01,-4.728384258081849700e-01,-3.027584764686742647e-01
1.000000000000000021e-02,-4.285155478882284319e-01,-8.904759699490154279e-02,-3.560426812303723598e-01
1.099999999999999936e-02,5.228689774173628235e-02,1.502634803184470791e-01,-1.484891033376228575e-01
1.200000000000000025e-02,1.395770596614247794e-01,-7.091882879394113826e-02,1.136163589621011771e-01
1.299999999999999940e-02,-3.041393809394662417e-01,-4.370270809325284000e-01,2.932028472360873397e-02
1.400000000000000029e-02,-6.623881356428408251e-01,-4.700685297700429865e-01,-2.768047864298465721e-01
1.499999999999999944e-02,-4.958378902109242814e-01,-7.910506281151476193e-02,-4.174743634166649953e-01
1.600000000000000033e-02,3.446015631308947669e-02,2.313858219531036708e-01,-1.848124768735993628e-01
1.700000000000000122e-02,2.354872025721050366e-01,8.358944216680778971e-02,1.119835066062781631e-01
1.799999999999999864e-02,-1.020005002067015248e-01,-2.933646958028272023e-01,9.270515463006241685e-02
1.899999999999999953e-02,-5.226330327069550474e-01,-3.752279509286058357e-01,-1.907081362761039178e-01
2.000000000000000042e-02,-4.692967847882976717e-01,-3.125793632714048836e-02,-3.678330898448989306e-01
2.100000000000000130e-02,9.488182721816372511e-02,3.109921583591618854e-01,-2.376157955554304979e-01
2.199999999999999872e-02,3.840965143179626007e-01,2.246530487708658930e-01,1.098938162214405101e-01
2.299999999999999961e-02,1.318882922143965186e-01,-1.855471600384223096e-01,1.700216659290273435e-01
2.400000000000000050e-02,-3.399744451386441102e-01,-3.262112695822390052e-01,-5.890985798553574626e-02
2.500000000000000139e-02,-3.911919022207974161e-01,1.175579023917649492e-02,-2.735413654029502095e-01
2.599999999999999881e-02,8.326574923701153541e-02,3.610584071128667971e-01,-1.986652352687805489e-01
2.699999999999999969e-02,4.716538792407874436e-01,2.929398973106192017e-01,1.071806893384037312e-01
2.800000000000000058e-02,2.673292104709174000e-01,-8.133228871069500543e-02,2.849743664711117952e-01
2.900000000000000147e-02,-2.207124953620578367e-01,-3.106259359115510210e-01,6.934452918736581928e-02
2.999999999999999889e-02,-3.654994952738503944e-01,-2.796071169717320726e-02,-1.901336774302134769e-01
3.099999999999999978e-02,4.891409156393863866e-02,3.466956691324363238e-01,-1.882880244536372649e-01
3.200000000000000067e-02,4.503291268688290327e-01,2.974821934024362569e-01,1.059001857592150458e-01
3.300000000000000155e-02,3.655754520378746153e-01,-4.690947778959627529e-02,2.911315295547907689e-01
3.400000000000000244e-02,-1.680849979546719664e-01,-3.482299095522531918e-01,1.698386110530421267e-01
3.500000000000000333e-02,-4.131315302518829835e-01,-1.357882377849810585e-01,-1.256322773768280554e-01
3.599999999999999728e-02,-9.661134977561841586e-02,2.384535465558241807e-01,-2.475126155397756600e-01
3.699999999999999817e-02,3.779145264051161912e-01,2.964105338864603256e-01,8.709169059624637804e-03
3.799999999999999906e-02,3.450333818599574109e-01,-8.270993398042365830e-02,2.418295468229938738e-01
3.899999999999999994e-02,-1.290882452160554972e-01,-3.775189380830957231e-01,1.835836214492569674e-01
4.000000000000000083e-02,-4.574604513394003313e-01,-2.004365031578405343e-01,-9.395062991875373359e-02
4.100000000000000172e-02,-1.792142132511992114e-01,1.951666269598955061e-01,-2.601054159800483823e-01
4.200000000000000261e-02,2.628371379168503719e-01,3.106612446509846026e-01,-7.961807149576638487e-02
4.299999999999999656e-02,3.425088092012985030e-01,-3.507829693441377045e-02,2.055325334682663319e-01
4.399999999999999745e-02,-6.751777482078358261e-02,-3.596267580056494162e-01,2.351130366023320983e-01
4.499999999999999833e-02,-4.742636199026386556e-01,-2.136437313261043969e-01,-7.439685682543797918e-02
4.599999999999999922e-02,-2.572460558977980871e-01,1.748007920457304853e-01,-2.781365375233016413e-01
4.700000000000000011e-02,2.388773599267046688e-01,3.638187566013334484e-01,-1.475287420861979837e-01
4.800000000000000100e-02,4.480122467781728068e-01,8.045640525960305600e-02,1.683576418566924415e-01
4.900000000000000189e-02,5.652098281429226295e-02,-2.889989247418345841e-01,2.403622264405980424e-01
5.000000000000000278e-02,-3.619454524393408423e-01,-1.798315591891194720e-01,1.967926799164385759e-02
5.099999999999999672e-02,-2.586030080972291367e-01,2.213130603990244860e-01,-2.311415954176817833e-01
5.199999999999999761e-02,2.453195319874050817e-01,4.602956592784263057e-01,-1.927223414001670576e-01
5.299999999999999850e-02,5.292818058368998768e-01,2.105871737464904692e-01,1.160024190716194697e-01
5.399999999999999939e-02,2.267667681204599828e-01,-1.373566629485071244e-01,3.133222383344192452e-01
5.500000000000000028e-02,-1.992195466310859309e-01,-1.102325069208269226e-01,1.815819171878246541e-01
5.600000000000000117e-02,-2.345467048851276881e-01,3.124927246159440175e-01,-1.544189076223073942e-01
5.700000000000000205e-02,2.759801484468548671e-01,4.955596814599906308e-01,-1.698949337438532825e-01
5.800000000000000294e-02,6.377950377179826269e-01,3.089815640563464139e-01,1.190983901617950480e-01
5.899999999999999689e-02,4.169059714711987330e-01,-8.671094169807005980e-02,3.676237866976924118e-01
5.999999999999999778e-02,-9.734577059143871558e-02,-1.451005162535242143e-01,2.693575272359701733e-01
6.099999999999999867e-02,-2.113757799035147766e-01,2.459020164986561452e-01,-1.838699831471742735e-02
6.199999999999999956e-02,2.407755450532210739e-01,5.069460908866103566e-01,-1.523404064823102866e-01
6.300000000000000044e-02,6.360037296168261634e-01,3.322991933509473750e-01,8.023988925123490268e-02
6.400000000000000133e-02,5.130303653823757859e-01,-1.110653263579162719e-01,3.457840945254790910e-01
6.500000000000000222e-02,-5.607788825585544208e-03,-2.250660280761613286e-01,3.548331197952204197e-01
6.600000000000000311e-02,-2.501411914507162826e-01,1.158177474684261576e-01,6.850600738367776388e-02
6.700000000000000400e-02,7.867857279239265367e-02,3.893595204953004263e-01,-1.495522514096924993e-01
6.800000000000000488e-02,5.040562009920158681e-01,2.435560187075617999e-01,2.131617890160295362e-02
6.900000000000000577e-02,4.279651371437866447e-01,-1.915840894783161219e-01,2.796337267667646787e-01
7.000000000000000666e-02,-7.792779204694968986e-02,-3.896167446528576161e-01,3.379251332836659127e-01
7.099999999999999367e-02,-4.551925441244585313e-01,-1.325613384027647390e-01,4.468228663857659599e-02
7.199999999999999456e-02,-1.732893209690106462e-01,2.013254990988153637e-01,-2.048203166724028856e-01
7.299999999999999545e-02,2.734678013310685163e-01,8.565192718489135493e-02,-1.332175421667197712e-01
7.399999999999999634e-02,3.056996908098149057e-01,-3.343372646422935746e-01,1.545778191407237989e-01
7.499999999999999722e-02,-1.937113524126518049e-01,-5.670218505118449492e-01,2.226375737734268279e-01
7.599999999999999811e-02,-6.046534636046808631e-01,-3.327959780596781991e-01,1.998004734663712256e-02
7.699999999999999900e-02,-4.588760966919027129e-01,4.482328040446344197e-02,-3.124186679671925315e-01
7.799999999999999989e-02,-9.015485301064683765e-03,1.967124314405477564e-03,-3.137203879128079853e-01
7.900000000000000078e-02,1.313056715187706780e-01,-3.834943239118376868e-01,-2.372359910551787021e-02
8.000000000000000167e-02,-2.816085960331921600e-01,-6.466667005207108465e-01,1.039614543336998542e-01
8.100000000000000255e-02,-7.283639090605180666e-01,-4.196881323316406509e-01,-7.004002673443389393e-02
8.200000000000000344e-02,-6.743361551287260225e-01,-5.207557245225331172e-02,-3.948438530228773335e-01
8.300000000000000433e-02,-1.810354199456672419e-01,2.008306998788384271e-02,-4.176790392071509928e-01
8.400000000000000522e-02,8.220179883741819682e-02,-3.374243543565171310e-01,-2.104743897694877908e-01
8.500000000000000611e-02,-2.305363122723129710e-01,-5.851531921876587106e-01,3.267225407356511013e-02
8.599999999999999312e-02,-7.052831096635373553e-01,-3.914799101997802344e-01,-3.637746299073466721e-02
8.699999999999999400e-02,-6.839829481904129427e-01,4.997043123489103983e-02,-3.376500347037423855e-01
8.799999999999999489e-02,-1.906372485553075868e-01,1.903436455213138312e-01,-4.644063944536048760e-01
8.899999999999999578e-02,1.918400171864449444e-01,-1.237254168246062075e-01,-3.132174739287149623e-01
8.999999999999999667e-02,-2.638200780759111103e-02,-3.964089376335481751e-01,1.033602948735837419e-02
9.099999999999999756e-02,-4.565537351615051032e-01,-2.118945292598451713e-01,2.744473148597070811e-02
9.199999999999999845e-02,-5.292820327447338435e-01,1.842821107581608664e-01,-2.276468292424601025e-01
9.299999999999999933e-02,-5.266028152390282713e-02,3.907830680942692703e-01,-4.095303823766808793e-01
9.400000000000000022e-02,3.759714115161275072e-01,1.158101209810827870e-01,-2.538085365597985144e-01
9.500000000000000111e-02,3.049390793545897482e-01,-1.660770432144539344e-01,4.471290593516235451e-02
9.600000000000000200e-02,-1.732189810436319255e-01,-8.949976029432693547e-02,2.163016275629259522e-01
9.700000000000000289e-02,-3.023531671633701845e-01,3.640128345346029248e-01,-2.138985718077531656e-02
9.800000000000000377e-02,9.648000970240826202e-02,5.965649658183448389e-01,-2.292997439636958734e-01
9.900000000000000466e-02,5.862896678403747286e-01,3.434754801790207979e-01,-1.406286738238526346e-01
1.000000000000000056e-01,5.677351489660485973e-01,3.110530759374350966e-03,1.932874711314742089e-01
1.010000000000000064e-01,1.615006495290273181e-01,-1.385694621285263675e-02,3.342284037142667086e-01
1.019999999999999934e-01,-1.391708939739258188e-01,3.790521020850256551e-01,2.000278592351589224e-01
1.029999999999999943e-01,1.876352420106016106e-01,6.574060370813843424e-01,-5.764896165989272930e-02
1.039999999999999952e-01,6.919005021439229575e-01,3.989647650737341289e-01,-5.761871027339932755e-02
1.049999999999999961e-01,7.686585721228591517e-01,5.160964273913883418e-03,2.125696526449011026e-01
1.059999999999999970e-01,3.027417203985459104e-01,-2.136472805818767987e-02,4.443569819554630818e-01
1.069999999999999979e-01,-7.130754731767013910e-02,3.037984319240689124e-01,3.516393496915162786e-01
1.079999999999999988e-01,1.162453114823257805e-01,5.586759879879000801e-01,4.968794996886872345e-02
1.089999999999999997e-01,6.135315852955351978e-01,3.559000250881559357e-01,-2.090288640529949088e-02
1.100000000000000006e-01,7.308123219628798184e-01,-5.571765663062971941e-02,2.074226298478021313e-01
1.110000000000000014e-01,2.805111539383622343e-01,-2.021579764899963938e-01,4.294888320079335853e-01
1.120000000000000023e-01,-1.573156884873816164e-01,8.209487742671167654e-02,4.088156032603438295e-01
1.130000000000000032e-01,-7.737759889369519306e-02,4.081932752491849170e-01,1.017740222920439225e-01
1.140000000000000041e-01,3.635491094778305898e-01,2.534473317383427737e-01,-8.296323879598997697e-02
1.150000000000000050e-01,5.744015766324038763e-01,-2.016370162516175901e-01,4.319974342845890602e-02
1.160000000000000059e-01,1.885283362541433916e-01,-4.063430633809390069e-01,3.516401082296926606e-01
1.170000000000000068e-01,-3.245305867180431347e-01,-1.071117129992416178e-01,3.461476747189083381e-01
1.179999999999999938e-01,-3.661849337104354229e-01,2.123480029491580379e-01,5.612875921666516527e-02
1.189999999999999947e-01,8.123557818241856909e-02,1.562596276109314841e-01,-2.026131795655281287e-01
1.199999999999999956e-01,3.614895188552399441e-01,-2.886339381771970691e-01,-1.143460416713063810e-01
1.209999999999999964e-01,8.157940606056413024e-02,-5.051877259493581240e-01,1.631628647485908190e-01
1.219999999999999973e-01,-4.600633354097628525e-01,-2.490282220846537775e-01,2.389475825205195081e-01
1.229999999999999982e-01,-5.819946470100292313e-01,1.014445116463754959e-01,2.475500507677122139e-02
1.239999999999999991e-01,-1.442558016174918245e-01,9.721723620131861310e-02,-2.905115616161750292e-01
1.250000000000000000e-01,2.189029469341372547e-01,-2.633855227926785170e-01,-3.095627556425235016e-01
1.260000000000000009e-01,2.569978594244595044e-02,-5.134637377004656056e-01,3.320870968736140856e-03
1.270000000000000018e-01,-4.616996557930730383e-01,-2.850606683902160432e-01,1.581382033450297875e-01
1.280000000000000027e-01,-6.522335554880724917e-01,1.053969363043939650e-01,-4.035157915261559231e-02
1.290000000000000036e-01,-2.679984128305397673e-01,1.801918575265705202e-01,-3.227655575511526043e-01
1.300000000000000044e-01,1.788597733329891915e-01,-1.701457140312473137e-01,-3.984676466634345937e-01
1.310000000000000053e-01,1.357857486893259413e-01,-4.828306298652710882e-01,-1.205393524668994104e-01
1.320000000000000062e-01,-3.321505440144869037e-01,-2.768745230956348169e-01,1.242193916387295677e-01
1.330000000000000071e-01,-6.179777785423431480e-01,1.598665231731044023e-01,1.707004143405635443e-02
1.340000000000000080e-01,-2.856716431351528085e-01,2.928014246528633513e-01,-2.512640046528891169e-01
1.350000000000000089e-01,2.127854461389239171e-01,-5.883658952590920671e-02,-3.730816091035130122e-01
1.360000000000000098e-01,2.800058993958232101e-01,-3.417957663515822642e-01,-1.576029240772477136e-01
1.370000000000000107e-01,-1.722785441550959695e-01,-2.091619541285451023e-01,1.462282696413891026e-01
1.380000000000000115e-01,-4.810904127653257700e-01,2.073509897962364235e-01,1.348562499399504067e-01
1.390000000000000124e-01,-2.338801964605701778e-01,3.510238833280181492e-01,-1.277865905531292423e-01
1.400000000000000133e-01,2.762056928082949891e-01,7.345020378177016807e-02,-2.907163980167617456e-01
1.409999999999999865e-01,4.246663353057746892e-01,-2.771756132930892624e-01,-1.347370873343023412e-01
1.419999999999999873e-01,4.682402882397154915e-03,-2.223156366781870730e-01,1.415545496334338904e-01
1.429999999999999882e-01,-3.925985555453203601e-01,1.774854213409496895e-01,2.240761837369286968e-01
1.439999999999999891e-01,-2.716963123487355358e-01,3.824560028179696536e-01,-1.665038418888227512e-02
1.449999999999999900e-01,2.297750483478336603e-01,1.147007143630443676e-01,-2.483105314438826816e-01
1.459999999999999909e-01,4.784419011499035368e-01,-2.676728963161432162e-01,-1.708953036810561543e-01
1.469999999999999918e-01,1.159947946411562375e-01,-3.070650234257073508e-01,1.596509056018486084e-01
1.479999999999999927e-01,-3.397953025971872099e-01,8.215793395300617641e-02,2.723114646631140667e-01
1.489999999999999936e-01,-3.431028426067233572e-01,3.115703808375896444e-01,5.384489159712173290e-02
1.499999999999999944e-01,1.352198908115601061e-01,1.082520192824200506e-01,-1.951174020796618835e-01
1.509999999999999953e-01,4.521293875220437353e-01,-3.134357804320611063e-01,-2.021027816905609786e-01
1.519999999999999962e-01,1.638109711439292571e-01,-3.284516943639546604e-01,9.032974347958713790e-02
1.529999999999999971e-01,-3.200471764718174628e-01,1.187413030703220358e-02,3.017421232703849099e-01
1.539999999999999980e-01,-4.278649080783168412e-01,2.938454557603652484e-01,1.137392785318429161e-01
1.549999999999999989e-01,1.445906162673738686e-03,1.360372737627826845e-01,-1.608980056025281491e-01
1.559999999999999998e-01,3.729761855716379193e-01,-2.746785472556689256e-01,-2.475697279608027879e-01
1.570000000000000007e-01,1.971583807397741250e-01,-3.591491185699643984e-01,-3.707355599607015106e-02
1.580000000000000016e-01,-3.329732618859509996e-01,-4.507556176351191352e-02,2.345399274793225630e-01
1.590000000000000024e-01,-4.865129042993838193e-01,3.048661761577805551e-01,1.276901898822048464e-01
1.600000000000000033e-01,-1.189899456800594668e-01,1.980891862545651749e-01,-1.347991259434505595e-01
1.610000000000000042e-01,3.406511319348439204e-01,-1.692967899672050414e-01,-2.938599460087327753e-01
1.620000000000000051e-01,2.602068505396817333e-01,-3.395301055083804753e-01,-9.866981981334095597e-02
1.630000000000000060e-01,-2.171774965014732495e-01,9.420951608364641974e-03,1.827802855483878219e-01
1.640000000000000069e-01,-4.747844289385498295e-01,3.674308188984637957e-01,1.815136773672979820e-01
1.650000000000000078e-01,-1.533725825277547361e-01,3.293557672755424437e-01,-9.960308359264806455e-02
1.660000000000000087e-01,3.878950895619449057e-01,-1.914404931359551740e-02,-2.843709034186877038e-01
1.670000000000000095e-01,4.318521564106901356e-01,-2.184851853416556466e-01,-1.292401402167759061e-01
1.680000000000000104e-01,-8.026445086368979784e-03,3.720171330362768286e-02,1.743309591333197794e-01
1.690000000000000113e-01,-3.504957005410276882e-01,4.607187184963745241e-01,2.415576050248187945e-01
1.700000000000000122e-01,-8.616347610628881382e-02,4.571711283726723196e-01,2.163754295828703919e-02
1.710000000000000131e-01,4.550643386747668662e-01,7.769615100280673203e-02,-1.887234932324496905e-01
1.719999999999999862e-01,6.131842727407590399e-01,-1.575983631618910474e-01,-1.492405296654816249e-01
1.729999999999999871e-01,1.929142168116844414e-01,6.736307275460402810e-02,1.910443549457223056e-01
1.739999999999999880e-01,-1.903670954162601792e-01,4.733504105636804349e-01,3.352465175012976917e-01
1.749999999999999889e-01,-5.022192182010743605e-02,5.171619973270564774e-01,1.943524038336833515e-01
1.759999999999999898e-01,4.699960039066709561e-01,1.372961903126656280e-01,-6.205870492139532041e-02
1.769999999999999907e-01,6.818327641268129291e-01,-1.821384340790100365e-01,-8.691077512630308866e-02
1.779999999999999916e-01,3.430133786868658219e-01,-1.501111319144754833e-02,1.849622599145333002e-01
1.789999999999999925e-01,-1.316973741713542423e-01,3.679129709869898290e-01,4.126210307070610761e-01
1.799999999999999933e-01,-7.181751185972340412e-02,4.798094716831824980e-01,2.852124017107749987e-01
1.809999999999999942e-01,3.791670612198318469e-01,1.084049404021251856e-01,4.112334724627242366e-03
1.819999999999999951e-01,6.642375442236291283e-01,-2.933170989104040283e-01,-9.564860317538333156e-02
1.829999999999999960e-01,3.421142430418799285e-01,-1.894759739222162120e-01,1.184116401775462679e-01
1.839999999999999969e-01,-1.462213925320954566e-01,1.851619814340276227e-01,3.991789951546442783e-01
1.849999999999999978e-01,-2.945107559635482541e-01,3.289652291149907648e-01,3.393828629620070925e-01
1.859999999999999987e-01,1.412485937097538724e-01,-2.433461539104278190e-02,5.928473697824845207e-02
1.869999999999999996e-01,4.698747363945801614e-01,-4.196108552832290561e-01,-1.688423117259606476e-01
1.880000000000000004e-01,2.470947417538439661e-01,-3.968347428347639427e-01,9.194020892049566823e-03
1.890000000000000013e-01,-3.217795761482873940e-01,-4.556382109944923098e-02,2.768088151755965232e-01
1.900000000000000022e-01,-5.501846192213429854e-01,1.486660992689261551e-01,3.164263583120821566e-01
1.910000000000000031e-01,-1.796360375243278296e-01,-1.471031343010097414e-01,2.810732865847121245e-02
1.920000000000000040e-01,2.050575138386789009e-01,-5.470051182325655903e-01,-2.692420705856775065e-01
1.930000000000000049e-01,9.935256604358287669e-02,-5.542557802958154589e-01,-1.909640152482572906e-01
1.940000000000000058e-01,-4.634896445603619020e-01,-1.927847463016809093e-01,6.885905124792833509e-02
1.950000000000000067e-01,-7.411133562943449382e-01,6.558351210702800804e-02,1.645090302259599735e-01
1.960000000000000075e-01,-4.477463304360669305e-01,-1.685895414249733437e-01,-7.825211269182172358e-02
1.970000000000000084e-01,-8.659440709572606421e-03,-5.683124322836661246e-01,-3.608685686751949562e-01
1.980000000000000093e-01,-1.746159966392801105e-02,-6.049916182558402467e-01,-3.529860835788584672e-01
1.990000000000000102e-01,-4.766696085013846229e-01,-2.190768079303542226e-01,-8.978203165908220373e-02
2.000000000000000111e-01,-8.180268594853182806e-01,9.793434497610760403e-02,6.776607851055233001e-02
2.010000000000000120e-01,-5.756363486771177707e-01,-4.474441089699638524e-02,-1.059118248226638692e-01
2.020000000000000129e-01,-6.270641472818300199e-02,-3.974945211812403456e-01,-4.062193391864923342e-01
2.030000000000000138e-01,5.209150014399152595e-02,-5.043862003779189251e-01,-4.942856481805300017e-01
2.039999999999999869e-01,-3.285020863320250450e-01,-1.050885889299279924e-01,-2.395835851042436293e-01
2.049999999999999878e-01,-7.182009836619509535e-01,2.647760115802600955e-01,6.757396715537434574e-03
2.059999999999999887e-01,-5.173663354170101591e-01,2.010940092253473699e-01,-3.928723462089969004e-02
2.069999999999999896e-01,-4.453104158682268218e-04,-1.845340558469638903e-01,-3.258761894479212384e-01
2.079999999999999905e-01,2.774613635471117612e-01,-2.841346549847703629e-01,-4.618752497467483176e-01
2.089999999999999913e-01,-3.577375060700554305e-02,1.380464705457450786e-02,-2.138921007119509721e-01
2.099999999999999922e-01,-4.331182480314937910e-01,4.489084579890973425e-01,6.862906290833559186e-02
2.109999999999999931e-01,-3.569139568938829998e-01,4.183748709509456654e-01,1.067667545850746191e-01
2.119999999999999940e-01,2.153054480575863072e-01,4.195802542474195290e-02,-1.832487688095019995e-01
2.129999999999999949e-01,5.330067205728032942e-01,-1.621850317811485143e-01,-3.386519555510817958e-01
2.139999999999999958e-01,2.939053983788376123e-01,1.561878916891535074e-01,-1.461752472288468108e-01
2.149999999999999967e-01,-1.487686032488048371e-01,5.569393761276228982e-01,2.048483172214587700e-01
2.159999999999999976e-01,-1.660625560613572527e-01,5.631037674938229598e-01,2.679272431786896003e-01
2.169999999999999984e-01,3.349922345434708237e-01,1.911465064467694763e-01,5.984330861551234032e-02
2.179999999999999993e-01,7.357631488577115464e-01,-7.613610645571806945e-02,-1.904915348912056827e-01
2.190000000000000002e-01,5.589545531247605004e-01,1.342070672970091805e-01,-6.906331447419508662e-02
2.200000000000000011e-01,8.464977825591185612e-02,5.205193815691938619e-01,2.534944902766426700e-01
2.210000000000000020e-01,-8.317612437628019162e-02,5.546421775762609974e-01,4.146559283558894915e-01
2.220000000000000029e-01,3.166984989400697947e-01,2.114215672596756190e-01,2.111022957603573835e-01
2.230000000000000038e-01,7.713509923547750002e-01,-1.256632814072871918e-01,-1.478514290094303310e-02
2.240000000000000047e-01,6.493438005781606570e-01,6.093075950054350175e-03,-7.613104173874892661e-03
2.250000000000000056e-01,1.051922898456748579e-01,3.893785468272837891e-01,2.648737517566155941e-01
2.260000000000000064e-01,-1.262231067592518019e-01,4.523650911926291318e-01,4.671871118603216355e-01
2.270000000000000073e-01,1.518879200223731130e-01,1.015389019253477854e-01,3.195373121315032150e-01
2.280000000000000082e-01,5.968533687879913341e-01,-2.940313339433720530e-01,3.343885145856081986e-02
2.290000000000000091e-01,5.645192849367923760e-01,-1.936075331798564336e-01,-3.979643869853257548e-02
2.300000000000000100e-01,6.653464270897470334e-02,1.597225777283523551e-01,1.784532527875950514e-01
2.310000000000000109e-01,-2.967820092261251874e-01,3.206593548067888655e-01,4.110626331299652159e-01
2.320000000000000118e-01,-9.528279827696220505e-02,6.071291527893517455e-03,3.492707714792203655e-01
2.330000000000000127e-01,3.529360889935849177e-01,-3.899509831776123425e-01,8.671020936246495031e-03
2.340000000000000135e-01,4.184591212769489532e-01,-3.690852780200941652e-01,-1.668010811726707288e-01
2.349999999999999867e-01,-4.600690914014049504e-02,2.385115793590162833e-02,3.064973635989758083e-02
2.359999999999999876e-01,-4.904617593042391310e-01,2.239219572133732405e-01,2.778726677449576687e-01
2.369999999999999885e-01,-3.404497357792317658e-01,-2.330044061374013722e-02,2.874456721904080636e-01
2.379999999999999893e-01,1.394389937704246518e-01,-4.256334861167400674e-01,-1.008931061008009125e-02
2.389999999999999902e-01,3.047659528748006275e-01,-4.302145217927956233e-01,-2.624700644236727110e-01
2.399999999999999911e-01,-5.146034130573609588e-02,-4.462804082955139362e-02,-1.822960480861899324e-01
2.409999999999999920e-01,-5.743038741538794012e-01,2.223093561375209248e-01,1.084944408243101455e-01
2.419999999999999929e-01,-5.241701462737079487e-01,-2.167459434616069314e-03,1.932820621191105592e-01
2.429999999999999938e-01,-2.029796217734739297e-02,-3.744666982810603284e-01,-8.139625489628367350e-02
2.439999999999999947e-01,2.346321476215649238e-01,-4.555295616051843188e-01,-3.185786503341198617e-01
2.449999999999999956e-01,-7.733543597015155036e-02,-3.884271797045561747e-02,-2.857456098359009711e-01
2.459999999999999964e-01,-5.079763793868857791e-01,2.571195138280562009e-01,5.565996616269058925e-04
2.469999999999999973e-01,-5.518193336522128067e-01,1.361883949609286326e-01,1.737590352044490194e-01
2.479999999999999982e-01,-8.773002769419968594e-02,-2.729374326056047129e-01,-4.798980275252595629e-02
2.489999999999999991e-01,2.845269427717533328e-01,-3.657515116102465491e-01,-3.088605752505703128e-01
2.500000000000000000e-01,9.576888868330060700e-02,-1.122643033945053964e-02,-3.394752973717358735e-01
2.510000000000000009e-01,-3.783058179116989828e-01,3.190763544375788685e-01,-7.385396602614711925e-02
2.520000000000000018e-01,-5.290147588522667865e-01,2.135268418779577848e-01,1.597522359986662810e-01
2.530000000000000027e-01,-8.172785686931424709e-02,-1.852550575297487456e-01,7.988448646799711783e-02
2.540000000000000036e-01,3.716979865657728532e-01,-3.474762679115612762e-01,-2.255143540642619293e-01
2.550000000000000044e-01,2.507089928201852169e-01,-5.067154859006871293e-02,-3.316560031681456411e-01
2.560000000000000053e-01,-2.297762305638831604e-01,3.298236301227979173e-01,-5.704369204680920930e-02
2.570000000000000062e-01,-4.245235492614246597e-01,2.677536590142606809e-01,1.807182943486222715e-01
2.580000000000000071e-01,-8.768532659571404153e-02,-1.188057729377761385e-01,1.955894692797078838e-01
2.590000000000000080e-01,4.122055790322615154e-01,-3.408348556489676495e-01,-1.118681853513562724e-01
2.600000000000000089e-01,3.721978420023717704e-01,-1.072429112566919834e-01,-2.779478825669161046e-01
2.610000000000000098e-01,-7.198212524134812995e-02,2.322468189939209393e-01,-1.285445818957178798e-01
2.620000000000000107e-01,-4.035077865826863230e-01,2.940700738648912571e-01,1.883311560940429674e-01
2.630000000000000115e-01,-1.768283744172839955e-01,-1.327940261404831346e-01,2.518252786193559967e-01
2.640000000000000124e-01,3.130832714394173877e-01,-3.865788582841904741e-01,-5.650591482827128920e-03
2.650000000000000133e-01,3.797986277460856375e-01,-2.197368323668089929e-01,-2.584186087518184349e-01
2.660000000000000142e-01,-8.447927769343650806e-02,1.988438875427498420e-01,-1.614827865088316883e-01
2.670000000000000151e-01,-4.854416198767832480e-01,2.289930827671231295e-01,1.413210137248945286e-01
2.680000000000000160e-01,-2.976680611374020180e-01,-1.331209711826275566e-01,2.724510088541375885e-01
2.690000000000000169e-01,1.658650941165708548e-01,-3.930252420137567149e-01,3.679043026097920249e-02
2.700000000000000178e-01,3.514885417807420143e-01,-2.596257624543843456e-01,-2.132157038897969648e-01
2.710000000000000187e-01,-5.329240625372852480e-02,1.557827913456041047e-01,-2.292658461115875956e-01
2.720000000000000195e-01,-4.978951517363731649e-01,2.352771516055292833e-01,5.656044705281110946e-02
2.730000000000000204e-01,-4.204381202275522256e-01,-3.054409355577616600e-02,2.391749764719592330e-01
2.740000000000000213e-01,8.122755637889149394e-02,-3.703848626827731527e-01,6.833468837403502971e-02
2.750000000000000222e-01,3.191684027210413555e-01,-2.189400394091035040e-01,-2.504918765360343857e-01
2.760000000000000231e-01,4.882796645163220428e-02,1.728783448167420245e-01,-3.056842009882209665e-01
2.770000000000000240e-01,-4.361191769678951502e-01,3.686147103745552323e-01,-4.111077824475277420e-02
2.780000000000000249e-01,-4.626844455767942788e-01,9.975614660747632312e-02,1.865659411357015462e-01
2.790000000000000258e-01,5.641362276530081932e-02,-2.380921748055062626e-01,7.326897414700021816e-02
2.800000000000000266e-01,4.231483233493689711e-01,-2.005102241564866716e-01,-1.966657520351192956e-01
2.810000000000000275e-01,2.207796694934859305e-01,2.538829020986879681e-01,-3.282235342099875108e-01
2.819999999999999729e-01,-2.922423915602399558e-01,4.979230247569010892e-01,-8.985028116846653645e-02
2.829999999999999738e-01,-3.477455385832921020e-01,2.521921140046007870e-01,1.668876715654541709e-01
2.839999999999999747e-01,9.151900486664268919e-02,-1.261261759967407525e-01,1.784191057996634688e-01
2.849999999999999756e-01,5.320583434413328483e-01,-1.180257020274294716e-01,-1.172602941149295114e-01
2.859999999999999765e-01,4.230337143440986991e-01,3.045461772374524756e-01,-2.399013260701976513e-01
2.869999999999999774e-01,-4.164954221913490934e-02,5.887691603844168453e-01,-9.233799092640671002e-02
2.879999999999999782e-01,-2.020124606818763380e-01,3.573346658146246413e-01,1.895581397641051269e-01
2.889999999999999791e-01,1.612737662831636443e-01,-2.863879635018892408e-02,3.067864779065834768e-01
2.899999999999999800e-01,6.156425050859355430e-01,-9.715927842192687014e-02,6.884672563294386149e-02
2.909999999999999809e-01,6.137891941664108675e-01,2.869005314270320350e-01,-1.567843625049590572e-01
2.919999999999999818e-01,1.597499400320420426e-01,5.447433419811873456e-01,-7.693828350549278272e-02
2.929999999999999827e-01,-1.449990274231068021e-01,4.100024964774661718e-01,2.502541205139651725e-01
2.939999999999999836e-01,1.182303460978027243e-01,-3.675486507377204864e-02,3.724730704263460312e-01
2.949999999999999845e-01,6.223314745971358919e-01,-1.634573007548240919e-01,2.094136140669367041e-01
2.959999999999999853e-01,6.645862877690907888e-01,1.062333966474325875e-01,-5.378637248894582723e-02
2.969999999999999862e-01,2.181731416898279319e-01,4.207184026432522206e-01,-4.481593649613136582e-02
2.979999999999999871e-01,-1.988427242935158490e-01,2.476429666931390383e-01,2.424752443022502868e-01
2.989999999999999880e-01,-3.141624326988020494e-02,-1.741591833109664422e-01,4.383527531614379025e-01
2.999999999999999889e-01,4.462016990621497370e-01,-3.729350999284916646e-01,3.055240689842401713e-01
3.009999999999999898e-01,5.849713963662531713e-01,-1.130895347505687931e-01,1.096335673884006687e-03
3.019999999999999907e-01,1.140023224021314563e-01,1.948960733546929169e-01,-7.243190960680268020e-02
3.029999999999999916e-01,-3.406759115921800252e-01,9.368922294519028970e-02,1.498177829317829945e-01
3.039999999999999925e-01,-2.857716527871199674e-01,-3.127821816579891001e-01,3.634637166685208975e-01
3.049999999999999933e-01,1.329041938739750350e-01,-5.693451699696412405e-01,2.857692053977419211e-01
3.059999999999999942e-01,3.524221015819714586e-01,-3.202536792837153423e-01,-2.111993441930453547e-02
3.069999999999999951e-01,-9.527895265495460453e-03,-9.565643292667040318e-03,-1.915893245800295575e-01
3.079999999999999960e-01,-5.355873303426523790e-01,3.122185502018707398e-03,-2.061562040936499793e-02
3.089999999999999969e-01,-5.987828970558706221e-01,-3.839452254399251530e-01,2.237503249138285688e-01
3.099999999999999978e-01,-1.501853617917735251e-01,-6.668061952868412634e-01,1.894136913540564182e-01
3.109999999999999987e-01,1.177395807378721904e-01,-4.564954845913383741e-01,-7.302814255646924990e-02
3.119999999999999996e-01,-1.320406175712107444e-01,-7.695348873396025413e-02,-3.280649349890458755e-01
3.130000000000000004e-01,-6.622145991849556212e-01,4.329934495100536129e-02,-2.045583738361241022e-01
3.140000000000000013e-01,-7.547384931301974742e-01,-3.493724515519077700e-01,3.485466710906508919e-02
3.150000000000000022e-01,-3.768548738230206863e-01,-6.061611922289248389e-01,1.278846281871622026e-01
3.160000000000000031e-01,4.333714789296396613e-02,-4.107982226536433523e-01,-1.490239149392847962e-01
3.170000000000000040e-01,-1.240194323643532825e-01,4.672325779208928720e-02,-4.221349483129776536e-01
3.180000000000000049e-01,-6.048013274029608866e-01,1.845650927162458821e-01,-4.053474195445873618e-01
3.190000000000000058e-01,-7.734528554728756777e-01,-1.154170227491775891e-01,-1.416800734554370944e-01
3.200000000000000067e-01,-3.827884884669566778e-01,-4.106521548610732597e-01,4.054115367762501504e-02
3.210000000000000075e-01,9.470095204020122226e-02,-2.715333651207083587e-01,-1.680068783295489698e-01
3.220000000000000084e-01,3.582986676777261126e-02,1.316854031063744712e-01,-4.585149921618287827e-01
3.230000000000000093e-01,-3.605524641022723187e-01,3.806528412760456503e-01,-4.480627050717996829e-01
3.240000000000000102e-01,-6.062506719414695322e-01,1.329903069463795051e-01,-1.828899753003507267e-01
3.250000000000000111e-01,-2.777354795498101492e-01,-2.164722377275728749e-01,2.120026986762046928e-02
3.260000000000000120e-01,2.348869909621893182e-01,-9.844712039759964672e-02,-3.122137021178037625e-02
3.270000000000000129e-01,3.721574197221688141e-01,3.141264165936537567e-01,-3.069410621376351123e-01
3.280000000000000138e-01,-3.677402405012172859e-02,5.656384521481877536e-01,-3.779699957068553551e-01
3.290000000000000147e-01,-3.849057397558625637e-01,3.285231340346473905e-01,-1.724156711058627278e-01
3.300000000000000155e-01,-1.244342781016867100e-01,-9.758760780973319005e-03,1.377181620978147059e-01
3.310000000000000164e-01,4.273119103763005078e-01,-2.399142547718862220e-02,1.427248023275767552e-01
3.320000000000000173e-01,6.210745873112057946e-01,3.648859300700352248e-01,-9.713139039615585613e-02
3.330000000000000182e-01,2.619074396295908991e-01,6.117811148306232516e-01,-2.626356766186871416e-01
3.340000000000000191e-01,-1.582697243880946125e-01,4.004635064788585885e-01,-7.463535159570403033e-02
3.350000000000000200e-01,2.738483088059608106e-03,-1.372162307687630964e-02,2.448160727251246227e-01
3.360000000000000209e-01,5.126388485052212340e-01,-9.042494545913438986e-02,2.992350632769587571e-01
3.370000000000000218e-01,7.559503746322091544e-01,2.629469012371932202e-01,8.824309798684776274e-02
3.380000000000000226e-01,4.440892444144516893e-01,5.469224382180056798e-01,-1.168874592176806504e-01
3.390000000000000235e-01,-5.870220923134378266e-02,3.408702608007528334e-01,1.553539032924943462e-02
3.400000000000000244e-01,-5.802661131068860556e-02,-7.013505864070823659e-02,3.120690018323311055e-01
3.410000000000000253e-01,4.201855221760512071e-01,-2.256238520706053963e-01,4.278637516858017631e-01
3.420000000000000262e-01,7.260668059878974123e-01,7.321606770832957134e-02,2.208689382730446571e-01
3.430000000000000271e-01,4.513367557855177958e-01,3.781846664384307943e-01,-6.475139292975266858e-03
3.439999999999999725e-01,-9.986837683895251339e-02,2.644280130179991195e-01,-4.771595902598765176e-02
3.449999999999999734e-01,-2.269884668614590983e-01,-1.845259354738702229e-01,2.675929060368359425e-01
3.459999999999999742e-01,1.806008597567307639e-01,-3.683625757952598834e-01,4.729574584203709020e-01
3.469999999999999751e-01,5.359363324936512463e-01,-1.019588658935834807e-01,2.805213201826157743e-01
3.479999999999999760e-01,3.584778046145986607e-01,2.368390694850943945e-01,-6.067810756736519671e-03
3.489999999999999769e-01,-1.662685970007725389e-01,2.020349377119810830e-01,-9.031864439967619840e-02
3.499999999999999778e-01,-4.091510448917164422e-01,-2.383252306171018409e-01,1.476519572344999753e-01
3.509999999999999787e-01,-5.869458987250202736e-02,-4.545344906821074393e-01,3.711618831148859599e-01
3.519999999999999796e-01,3.410474555700651611e-01,-2.235442843104179511e-01,2.593546579021701604e-01
3.529999999999999805e-01,2.802101456053271433e-01,1.485785313776104288e-01,-6.200649859538365227e-02
3.539999999999999813e-01,-2.427912438383054705e-01,1.829351805699193090e-01,-2.046095200961096927e-01
3.549999999999999822e-01,-5.562462898163141878e-01,-1.903802774371203821e-01,-1.043205875335216984e-02
3.559999999999999831e-01,-2.610560961188764240e-01,-4.610468445784621228e-01,2.050437411210931371e-01
3.569999999999999840e-01,1.881320907103282425e-01,-2.635533201210487064e-01,1.994508844606706632e-01
3.579999999999999849e-01,2.331193594044926598e-01,1.397221308222778013e-01,-1.095498505203155032e-01
3.589999999999999858e-01,-2.312387999348698153e-01,2.307868272896819450e-01,-3.124617716164582726e-01
3.599999999999999867e-01,-5.964276600424309738e-01,-9.832883778401693697e-02,-1.717476532230890196e-01
3.609999999999999876e-01,-3.849652741263882016e-01,-3.637479257151957079e-01,1.027334120664471634e-01
3.619999999999999885e-01,1.407413985646487897e-01,-2.560191509887035366e-01,1.936447797192691056e-01
3.629999999999999893e-01,3.028915016014000483e-01,1.933067288342775469e-01,-9.314652612175157442e-02
3.639999999999999902e-01,-1.088757573524660044e-01,3.118589316541646728e-01,-3.475316183486319432e-01
3.649999999999999911e-01,-5.159495486605794046e-01,1.466610728611267636e-02,-3.056511681883682385e-01
3.659999999999999920e-01,-3.660965241284466209e-01,-3.159269800420679841e-01,3.680366657580565193e-02
3.669999999999999929e-01,1.215058230278921320e-01,-2.196324727644295427e-01,1.737319220872529657e-01
3.679999999999999938e-01,3.736836868451393623e-01,1.722873119607094550e-01,-1.659711442331309253e-02
3.689999999999999947e-01,3.435821041570387424e-02,3.571921919483998509e-01,-2.930583409242986104e-01
3.699999999999999956e-01,-3.953777337442379580e-01,3.461653385308880587e-02,-2.932072607168660361e-01
3.709999999999999964e-01,-3.521015962335634630e-01,-3.087544772907439006e-01,-1.870053249711190520e-03
3.719999999999999973e-01,1.254284441902819291e-01,-2.783273605456548783e-01,2.143413469542999605e-01
3.729999999999999982e-01,4.496608285842375596e-01,1.402956233427425925e-01,8.507139349687332930e-02
3.739999999999999991e-01,1.785346482718911110e-01,3.380719820971517242e-01,-2.008902853765561491e-01
3.750000000000000000e-01,-2.817328038701503168e-01,6.717744031757059975e-02,-2.536751312747037024e-01
3.760000000000000009e-01,-4.096755910933891909e-01,-3.383608336535567362e-01,-2.811422721743363565e-02
3.770000000000000018e-01,7.098636650583757535e-02,-3.368905157990988997e-01,2.285411764623086484e-01
3.780000000000000027e-01,4.165679037154937925e-01,1.227793804548463728e-02,1.933682927620497816e-01
3.790000000000000036e-01,1.981375533744746120e-01,2.971253387199866425e-01,-1.008258153403030349e-01
3.800000000000000044e-01,-3.067722385598878332e-01,6.644326183661242169e-02,-2.562386956604253974e-01
3.810000000000000053e-01,-4.813721702114389656e-01,-3.501782315852167149e-01,-8.434795146763486573e-02
3.820000000000000062e-01,-1.109322960117872514e-01,-4.179125504209830755e-01,2.105049341524143081e-01
3.830000000000000071e-01,3.117268338740533662e-01,-6.257023281615019250e-02,2.230969974087255170e-01
3.840000000000000080e-01,2.335222700351600456e-01,2.465755538523062285e-01,-4.692330826013074718e-02
3.850000000000000089e-01,-2.855765790967832451e-01,9.669536684302780516e-02,-2.619947785297358500e-01
3.860000000000000098e-01,-5.391077923764958646e-01,-3.153932667083316210e-01,-1.566979011280140166e-01
3.870000000000000107e-01,-2.664050087706426595e-01,-4.134748082999489260e-01,1.127450432407496039e-01
3.880000000000000115e-01,2.156833164930098412e-01,-7.999018151558522083e-02,2.077172296106047089e-01
3.890000000000000124e-01,2.494316653311145771e-01,2.778016704540599013e-01,-3.607311278202979948e-02
3.900000000000000133e-01,-2.047053868710606572e-01,2.036822529395612702e-01,-2.809817289045725697e-01
3.910000000000000142e-01,-5.739283050238289663e-01,-1.833077485899905490e-01,-2.663940836316846528e-01
3.920000000000000151e-01,-3.469212386701585049e-01,-3.321864189625088892e-01,2.055992731490071182e-02
3.930000000000000160e-01,1.908440404081639397e-01,-2.456756896024232112e-02,1.882530758862196452e-01
3.940000000000000169e-01,3.481328549944885387e-01,3.869699354155077820e-01,-6.707360399397562650e-03
3.950000000000000178e-01,-7.824847638828255625e-02,3.664622675015716813e-01,-2.839229436808210494e-01
3.960000000000000187e-01,-4.895297664082361444e-01,-1.418802383469147319e-03,-3.243048662690575790e-01
3.970000000000000195e-01,-2.928226000439642096e-01,-2.199306962436770041e-01,-1.450074722465100226e-02
3.980000000000000204e-01,2.272288796893989771e-01,6.698654511815173296e-02,1.911773046887275396e-01
3.990000000000000213e-01,4.787552972110418192e-01,4.786827644516497005e-01,1.145391566458556915e-01
4.000000000000000222e-01,1.365636926651258298e-01,4.909615745746095938e-01,-2.465430613467344267e-01
4.010000000000000231e-01,-2.665295446212983532e-01,1.361154296746074910e-01,-2.745924735054262600e-01
4.020000000000000240e-01,-1.801225711525427098e-01,-7.761129194725772951e-02,-6.215891178927437921e-02
4.030000000000000249e-01,3.399666773122586583e-01,8.473901836506297913e-02,2.181166692375126337e-01
4.040000000000000258e-01,6.587632838685445469e-01,5.007099029662330780e-01,2.236004801036974021e-01
4.050000000000000266e-01,4.121258059864272849e-01,5.759752262895310171e-01,-7.046113212304491724e-02
4.060000000000000275e-01,-4.371101286398939439e-02,2.311381696019569332e-01,-2.133269900285519050e-01
4.069999999999999729e-01,-8.845715165701631411e-02,-1.279280205048586305e-01,-1.863441992588400764e-02
4.079999999999999738e-01,3.486700603354450090e-01,1.842000640742227219e-02,2.876548897028227136e-01
4.089999999999999747e-01,7.633215897301921515e-01,4.083857716298288643e-01,3.296764467284777900e-01
4.099999999999999756e-01,5.533197995910278388e-01,5.037325778550504340e-01,1.006987084621413647e-01
4.109999999999999765e-01,3.174540770087876801e-02,1.548851258638319905e-01,-1.037855160779133090e-01
4.119999999999999774e-01,-1.043677936845876925e-01,-2.258120484224157842e-01,-3.193139173530396002e-02
4.129999999999999782e-01,2.398293122885541140e-01,-1.653576971806580143e-01,3.218535241067668196e-01
4.139999999999999791e-01,6.751676841468995383e-01,1.929302051571071819e-01,4.364396451682771017e-01
4.149999999999999800e-01,5.573283370401941328e-01,3.188568264006955144e-01,2.219528737319228506e-01
4.159999999999999809e-01,3.011412418196372787e-02,5.823720362379184064e-03,-3.882870780099942354e-02
4.169999999999999818e-01,-2.368509289415035579e-01,-4.131421960789617431e-01,1.580078138864537008e-03
4.179999999999999827e-01,1.823515222605423536e-02,-4.088299130625961397e-01,2.726438915067980751e-01
4.189999999999999836e-01,4.234660082530379288e-01,-6.357938745277606774e-02,4.538999162689771882e-01
4.199999999999999845e-01,3.866808555190057728e-01,1.602937261179102069e-01,2.937372932933683956e-01
4.209999999999999853e-01,-1.091946499900134648e-01,-1.416788893093120782e-01,-3.554843126388614744e-02
4.219999999999999862e-01,-5.039260215194096837e-01,-5.337052532465627053e-01,-1.107997773715420770e-01
4.229999999999999871e-01,-3.238384527177347039e-01,-5.764066299425113504e-01,1.231253551298147481e-01
4.239999999999999880e-01,1.488298186449829863e-01,-2.370616346864121704e-01,3.305236069158688506e-01
4.249999999999999889e-01,2.008455762981401216e-01,4.515824910069287518e-02,2.290335977749302920e-01
4.259999999999999898e-01,-2.766488215074321966e-01,-1.615345591561686556e-01,-9.039991419177431653e-02
4.269999999999999907e-01,-6.925967520949112277e-01,-5.409183616236213910e-01,-2.796952115023346175e-01
4.279999999999999916e-01,-5.991922800381175307e-01,-6.196250499889270902e-01,-7.339837366740710467e-02
4.289999999999999925e-01,-1.141968692376398725e-01,-2.351275391964549322e-01,1.799134116229445801e-01
4.299999999999999933e-01,8.330399937567826985e-02,8.822420617523138442e-02,1.467763368311554295e-01
4.309999999999999942e-01,-3.153264121859302715e-01,-6.007228273653469897e-02,-1.961046736942605728e-01
4.319999999999999951e-01,-7.447545469533808360e-01,-4.027755441759889865e-01,-3.897999505719313973e-01
4.329999999999999960e-01,-7.227928758707482526e-01,-4.988607453728280960e-01,-3.127674921126396002e-01
4.339999999999999969e-01,-2.106698068344398656e-01,-1.191304568226122101e-01,-4.280633221858774241e-03
4.349999999999999978e-01,9.697262850753585184e-02,2.451018116365508148e-01,6.877949585028250712e-02
4.359999999999999987e-01,-1.684452574847942752e-01,1.833044749482100888e-01,-2.254163157029850095e-01
4.369999999999999996e-01,-6.310854833400850739e-01,-1.908981390662934652e-01,-4.916697301676162257e-01
4.380000000000000004e-01,-6.692984569622890678e-01,-3.085715984382191301e-01,-4.099184407810215203e-01
4.390000000000000013e-01,-1.730719551049753890e-01,9.682216169064554456e-03,-1.188870184872628244e-01
4.400000000000000022e-01,2.793946927537500069e-01,4.042536828122362813e-01,5.228744286624210924e-02
4.410000000000000031e-01,1.037018735952818099e-01,3.926679471411823052e-01,-1.521137364713918971e-01
4.420000000000000040e-01,-3.699091879776317260e-01,5.135785475098578884e-02,-4.229722669362074305e-01
4.430000000000000049e-01,-4.600413718317323819e-01,-1.651431082795373206e-01,-4.269521094503740954e-01
4.440000000000000058e-01,-3.355729701711473306e-02,1.043782930904962325e-01,-1.238308060356123202e-01
4.450000000000000067e-01,4.523523952331656717e-01,5.114864303245063581e-01,1.053415291416209820e-01
4.460000000000000075e-01,4.191573212279864347e-01,5.520328946317843988e-01,-5.910323869895128465e-03
4.470000000000000084e-01,-5.981123658695581408e-02,1.710761134319834231e-01,-2.835194000096277200e-01
4.480000000000000093e-01,-2.638103001786953339e-01,-1.118616054735499799e-01,-3.300469214032610843e-01
4.490000000000000102e-01,1.150849059257694901e-01,9.312778591493278690e-02,-7.179158160727511229e-02
4.500000000000000111e-01,5.978120239654308721e-01,4.985166173724411842e-01,2.207833759703203003e-01
4.510000000000000120e-01,6.227162799108943991e-01,5.554019579158941955e-01,2.398426605188747063e-01
4.520000000000000129e-01,1.770316371689909518e-01,1.623374309927934633e-01,-5.632458840928102062e-02
4.530000000000000138e-01,-1.386623883412965441e-01,-1.608937547089147602e-01,-2.262348667505422739e-01
4.540000000000000147e-01,7.512997247143497759e-02,-4.510978632979559949e-02,-6.826149708355955595e-03
4.550000000000000155e-01,6.317798214644361199e-01,3.505419255385325839e-01,3.137633835051114595e-01
4.560000000000000164e-01,7.110191279995889957e-01,4.244688000079616663e-01,3.652128625024593234e-01
4.570000000000000173e-01,2.489392832863468741e-01,1.121000551094041564e-01,8.785483596508603110e-02
4.580000000000000182e-01,-1.169232280307525712e-01,-2.888709329941863135e-01,-8.381591670431041974e-02
4.590000000000000191e-01,-1.780556909488928766e-02,-2.280611510594461044e-01,4.864332384499039930e-02
4.600000000000000200e-01,4.454914773500113223e-01,1.762430018652395569e-01,3.491680059258490676e-01
4.610000000000000209e-01,6.083198431178696852e-01,3.409431800539358126e-01,4.581486936866123183e-01
4.620000000000000218e-01,2.095667341025644614e-01,1.559780270162995121e-02,2.261173701889276078e-01
4.630000000000000226e-01,-2.597206405532960782e-01,-3.417649970474462839e-01,-7.273405894005972872e-02
4.640000000000000235e-01,-2.179684022976624280e-01,-3.195851253796706537e-01,-3.619098180691894540e-02
4.650000000000000244e-01,2.410091299552369337e-01,5.171690343233890236e-02,2.432779310009468843e-01
4.660000000000000253e-01,4.957419394145848868e-01,2.622066073507934858e-01,3.810067280234459286e-01
4.670000000000000262e-01,1.554481029172932738e-01,2.256192176214099829e-02,2.266949345425212925e-01
4.680000000000000271e-01,-3.466236878932068000e-01,-4.024867570467476896e-01,-9.794196926299665595e-02
4.689999999999999725e-01,-4.285592756438439399e-01,-4.047614902736036968e-01,-1.413471232453283877e-01
4.699999999999999734e-01,-8.612420520763566789e-03,-1.092858414574601408e-02,1.101099259023176624e-01
4.709999999999999742e-01,3.383881212720383780e-01,2.799598357904102830e-01,3.147247218886812248e-01
4.719999999999999751e-01,1.034724028863371892e-01,7.991918161864687564e-02,2.063198450945362694e-01
4.729999999999999760e-01,-3.888498325508066289e-01,-3.379888524527232541e-01,-1.313780015633226605e-01
4.739999999999999769e-01,-5.643485667471853651e-01,-4.090644041948721665e-01,-2.537266879712412604e-01
4.749999999999999778e-01,-1.457378729056012234e-01,-2.473483668819394937e-02,-7.634699734146883909e-02
4.759999999999999787e-01,3.012809035868509455e-01,2.933449787446543722e-01,2.319099557693305724e-01
4.769999999999999796e-01,1.969810164146091891e-01,1.981034007583720169e-01,1.721343939357914132e-01
4.779999999999999805e-01,-3.145140705413021487e-01,-2.499338069567210718e-01,-1.401693905082688485e-01
4.789999999999999813e-01,-5.212139175014984804e-01,-3.459847180000241162e-01,-3.255216444578519219e-01
4.799999999999999822e-01,-1.466510669961535174e-01,1.335164666015980703e-02,-1.647469825447869518e-01
4.809999999999999831e-01,3.121237490990971253e-01,3.437622343170169126e-01,1.238532979561212666e-01
4.819999999999999840e-01,3.240236406706363814e-01,2.517767212578954639e-01,1.762327391334061188e-01
4.829999999999999849e-01,-1.576324546001632854e-01,-1.605631203970764309e-01,-9.796420090958786464e-02
4.839999999999999858e-01,-4.579303227092030859e-01,-3.489901957160417290e-01,-3.108265272063960860e-01
4.849999999999999867e-01,-1.799900665839117009e-01,-6.164517821568468031e-02,-2.135697177752982345e-01
4.859999999999999876e-01,2.766978006925646105e-01,2.758012500017819613e-01,5.874002943236409507e-02
4.869999999999999885e-01,4.055228988594190009e-01,2.616541915140765950e-01,2.195986947664180511e-01
4.879999999999999893e-01,-2.626402516955351693e-02,-1.644660372116057423e-01,1.313092423042700949e-02
4.889999999999999902e-01,-4.281991321239262960e-01,-4.058909874859857880e-01,-2.540867100141337431e-01
4.899999999999999911e-01,-2.616251310869823210e-01,-1.549236161181635207e-01,-1.911495200050115084e-01
4.909999999999999920e-01,2.499090288239941560e-01,2.132269562846550726e-01,7.924896359968572335e-02
4.919999999999999929e-01,4.316556866359458344e-01,2.392223719328738785e-01,2.609189982639104621e-01
4.929999999999999938e-01,6.798407538535620846e-03,-1.678583457793254297e-01,1.084567747951256239e-01
4.939999999999999947e-01,-4.217027811124060555e-01,-4.394696663184320951e-01,-1.943211068043821099e-01
4.949999999999999956e-01,-3.615051478099068905e-01,-2.575895653355202986e-01,-2.514973583179671013e-01
4.959999999999999964e-01,1.443175126831169885e-01,1.293450428315487954e-01,-1.148321863427250768e-02
4.969999999999999973e-01,3.940575190380845028e-01,1.788886960348317623e-01,2.559363398104402276e-01
4.979999999999999982e-01,4.958714229524058964e-02,-1.675146244245891147e-01,1.839459905668928696e-01
4.989999999999999991e-01,-4.424660853016516571e-01,-4.610133867990649503e-01,-1.300636676253755508e-01
5.000000000000000000e-01,-4.965472655595075113e-01,-2.991725366218944693e-01,-2.868645357370117610e-01
5.010000000000000009e-01,-4.576219286873672853e-02,8.116896845785158410e-02,-6.040053849518818574e-02
5.020000000000000018e-01,2.957436241745620698e-01,2.439038936731929841e-01,1.875163141083789897e-01
5.030000000000000027e-01,6.382104215578725259e-02,-4.242636966791568653e-02,1.488448666830365641e-01
5.040000000000000036e-01,-4.679975478229040919e-01,-4.199155047968616827e-01,-1.135827453393286890e-01
5.050000000000000044e-01,-5.851316618384250212e-01,-2.832506726303168354e-01,-3.021575896098766534e-01
5.060000000000000053e-01,-1.544821482639473220e-01,1.668774516851543877e-01,-1.941685176151323189e-01
5.070000000000000062e-01,2.411284222430571667e-01,3.650294738187060406e-01,1.291307453615698209e-01
5.080000000000000071e-01,1.189909586988346507e-01,1.120036742338420960e-01,1.500488963033841106e-01
5.090000000000000080e-01,-3.504435319128335613e-01,-2.163151808625256578e-01,-9.368857604576440179e-02
5.100000000000000089e-01,-5.652012112437478919e-01,-1.577852057942721875e-01,-3.709356699112339451e-01
5.110000000000000098e-01,-1.899100253730371113e-01,2.440242129256182946e-01,-2.799156593342754795e-01
5.120000000000000107e-01,2.967307835112680259e-01,4.843020620822326983e-01,-7.707834050531730055e-03
5.130000000000000115e-01,3.204317550625118138e-01,2.923476147102126443e-01,1.581700557353034331e-01
5.140000000000000124e-01,-1.286091198416619841e-01,-8.857921312810218550e-02,-3.038827633602735057e-02
5.150000000000000133e-01,-4.057621365783529166e-01,-9.004854816065770151e-02,-3.040691377918793847e-01
5.160000000000000142e-01,-7.389503446044036472e-02,3.260681061825936866e-01,-2.978398183135193000e-01
5.170000000000000151e-01,4.286590092750650616e-01,6.100338540232803641e-01,-1.635131703665616137e-02
5.180000000000000160e-01,4.911103029985290913e-01,4.176635295686421667e-01,2.075769601457688740e-01
5.190000000000000169e-01,1.439161348118538630e-01,3.425029850997637904e-02,8.433589057954329893e-02
5.200000000000000178e-01,-2.009209792722098653e-01,-7.532797282319533827e-02,-1.903440244565608730e-01
5.210000000000000187e-01,8.543999481789169362e-03,3.233356073131065656e-01,-2.671688927519424994e-01
5.220000000000000195e-01,5.462556800205762286e-01,5.557147492526719468e-01,-1.455192466728471743e-03
5.230000000000000204e-01,7.279082003417167712e-01,4.311664687109211247e-01,2.878300674185561570e-01
5.240000000000000213e-01,3.828688410775166195e-01,-2.419143933626288767e-02,2.411988211359865908e-01
5.250000000000000222e-01,-6.156766343254629903e-02,-1.753108204516687085e-01,-3.105448689674651305e-02
5.260000000000000231e-01,-6.642735049792404881e-03,1.146940104241197939e-01,-1.501328999157084121e-01
5.270000000000000240e-01,5.210548152226660568e-01,4.462649581314440672e-01,4.470242544852741362e-02
5.280000000000000249e-01,7.844151149548074242e-01,3.133013817362724773e-01,3.604823546568599046e-01
5.290000000000000258e-01,4.440116976394956616e-01,-1.640751865735805559e-01,3.932231068541317542e-01
5.300000000000000266e-01,-7.152737012332559263e-02,-3.829675325534624974e-01,1.498571772299795157e-01
5.310000000000000275e-01,-1.025573531322728216e-01,-1.014287397976250532e-01,-8.253240821551040274e-02
5.320000000000000284e-01,3.492576846674148028e-01,2.002297804808633730e-01,4.555331112330469889e-02
5.330000000000000293e-01,6.561789119722752917e-01,1.410589048535593470e-01,3.366495449351227243e-01
5.340000000000000302e-01,3.493463324728720565e-01,-2.854876103932876830e-01,4.458589567478845050e-01
5.350000000000000311e-01,-1.698436449817492810e-01,-5.627837103523005702e-01,2.468056695994500782e-01
5.360000000000000320e-01,-3.666783450462140492e-01,-3.278308503413626118e-01,-1.180905335981575349e-02
5.370000000000000329e-01,3.725481302632589753e-02,-4.882703250053266678e-03,-3.027606925603431795e-02
5.380000000000000338e-01,3.702968550679291981e-01,3.660350406245985178e-02,2.868966178994205030e-01
5.390000000000000346e-01,1.955403877008358438e-01,-3.602924746503846087e-01,4.402724812108744779e-01
5.400000000000000355e-01,-3.917688285597635822e-01,-6.649987686437236478e-01,2.159304328122771677e-01
5.410000000000000364e-01,-6.279692832259318180e-01,-4.673633613492534922e-01,-7.873112638331962454e-02
5.420000000000000373e-01,-2.907312342526373605e-01,-5.595428834798561735e-02,-1.797558976086124360e-01
5.430000000000000382e-01,1.026554283752914298e-01,-3.147650782842950287e-03,7.352428893292881074e-02
5.440000000000000391e-01,5.112632263062513727e-02,-3.369505321377913587e-01,2.626993651702349553e-01
5.450000000000000400e-01,-4.674554835724588631e-01,-5.863232392128364667e-01,1.638943541932342818e-01
5.460000000000000409e-01,-7.937818654936037444e-01,-4.622722390627635458e-01,-1.574868702148823907e-01
5.470000000000000417e-01,-5.479365149760910825e-01,8.099712460777565640e-03,-3.442619345656900975e-01
5.480000000000000426e-01,-3.600113290544644518e-02,1.451159138751316191e-01,-1.086293486648205048e-01
5.490000000000000435e-01,-4.803629377191165686e-03,-1.130436024867013250e-01,1.090329242620561995e-01
5.500000000000000444e-01,-4.345348322078281811e-01,-4.318823194361696705e-01,3.220649947129494706e-02
5.510000000000000453e-01,-8.171226232508695952e-01,-3.000619632196089848e-01,-2.595002307686858356e-01
5.520000000000000462e-01,-5.645123754072841615e-01,1.438101648465433535e-01,-4.377050740244757820e-01
5.530000000000000471e-01,-4.325819217365162866e-02,3.806864743120989547e-01,-2.859852731603211295e-01
5.540000000000000480e-01,1.185056238018232649e-01,1.201312520642919268e-01,-3.751099986384569956e-02
5.550000000000000488e-01,-2.126452770231476164e-01,-2.237538820687678676e-01,2.128871211113651449e-02
5.560000000000000497e-01,-5.937704172297487704e-01,-1.517006828217882797e-01,-2.315104980106015564e-01
5.570000000000000506e-01,-4.476717437510794317e-01,2.907907498855263895e-01,-4.858330758447003683e-01
5.580000000000000515e-01,7.214509040880850987e-02,5.103937490569721014e-01,-3.956897507110245793e-01
5.590000000000000524e-01,3.794620717405736698e-01,2.904722282599372929e-01,-6.821613162345752102e-02
5.600000000000000533e-01,9.722373524058459948e-02,-5.108315983027195833e-02,9.069265596016586051e-02
5.610000000000000542e-01,-3.197337792270759094e-01,-7.074895603713342307e-02,-1.463842229562169472e-01
5.620000000000000551e-01,-2.809143746608442349e-01,2.999389814375081897e-01,-3.755463474886331365e-01
5.629999999999999449e-01,2.377256171160432030e-01,5.701223757465909703e-01,-3.910364481030019768e-01
5.639999999999999458e-01,5.990791107997354148e-01,3.848189278447368133e-01,-4.464630241845995995e-02
5.649999999999999467e-01,3.940676774496185142e-01,-2.876193430729962960e-02,1.735479568412352236e-01
5.659999999999999476e-01,-9.157552293358670048e-02,-1.172845618238037707e-01,7.339532322755168425e-02
5.669999999999999485e-01,-1.416954103739270221e-01,2.076858250187227362e-01,-2.250871237877107023e-01
5.679999999999999494e-01,2.952581439934647833e-01,5.037392402405816982e-01,-2.254362033289061817e-01
5.689999999999999503e-01,7.011209081514687691e-01,3.401821916267604995e-01,4.273761758504323466e-02
5.699999999999999512e-01,5.444143261744087692e-01,-7.379554222212959813e-02,2.882359191771227680e-01
5.709999999999999520e-01,3.593757194502666258e-02,-2.244868564078874307e-01,2.485513237452866286e-01
5.719999999999999529e-01,-1.499360467678508002e-01,7.361192909806592299e-02,-4.249706218165815591e-02
5.729999999999999538e-01,2.353735664845527653e-01,3.609341772113462965e-01,-1.301521720159758699e-01
5.739999999999999547e-01,6.421132835244542925e-01,2.783373459766861346e-01,7.427347996645654316e-02
5.749999999999999556e-01,5.508450848967785252e-01,-1.659715655783824961e-01,3.666355776462710825e-01
5.759999999999999565e-01,6.280742077534764989e-02,-3.464122653703644583e-01,3.853825019398834373e-01
5.769999999999999574e-01,-2.665651309023716053e-01,-9.454118476918195457e-02,7.130667560671265226e-02
5.779999999999999583e-01,5.688792993501594168e-03,2.660173712357726816e-01,-7.764013900199724649e-02
5.789999999999999591e-01,4.900910719456937903e-01,2.324516118419254762e-01,2.473461184464170390e-02
5.799999999999999600e-01,4.937703664969838591e-01,-1.827880263246105530e-01,3.332270813458974024e-01
5.809999999999999609e-01,-3.035491894776926047e-02,-4.302464365928314050e-01,4.388032215080066578e-01
5.819999999999999618e-01,-3.804182550912333927e-01,-1.762998404523246077e-01,1.576370804538196335e-01
5.829999999999999627e-01,-2.203944946350907541e-01,2.101584319592496586e-01,-1.157770952529955932e-01
5.839999999999999636e-01,2.513081392195936625e-01,2.304451912868417107e-01,-7.182343926014383984e-02
5.849999999999999645e-01,3.761463308834240293e-01,-1.247760451693680078e-01,2.380035647451067549e-01
5.859999999999999654e-01,-3.519544783280074973e-02,-4.115657000885539207e-01,3.769399503266027129e-01
5.869999999999999662e-01,-4.736303305147936404e-01,-2.173479059942484137e-01,1.562051692887498067e-01
5.879999999999999671e-01,-3.729517891970558496e-01,2.192052824346565065e-01,-1.529066042889461741e-01
5.889999999999999680e-01,1.432411277351183509e-01,2.803660814197461160e-01,-1.705928503072590141e-01
5.899999999999999689e-01,3.365293342540058297e-01,-5.208819871469882318e-02,5.724843959714064762e-02
5.909999999999999698e-01,1.615053371743793362e-02,-3.286758579324994822e-01,2.849083978263681760e-01
5.919999999999999707e-01,-4.622006464816106330e-01,-1.907479829718384534e-01,1.513358648168834086e-01
5.929999999999999716e-01,-4.213854341677698012e-01,2.112786484816087385e-01,-1.900572864912817295e-01
5.939999999999999725e-01,2.592951710635517729e-02,3.296801842632892110e-01,-2.812626855414947502e-01
5.949999999999999734e-01,3.756524921942337447e-01,4.202219197474544449e-02,-5.696123198689915373e-02
5.959999999999999742e-01,1.243895861783531204e-01,-3.155611835712943125e-01,1.682184420324182861e-01
5.969999999999999751e-01,-3.553667200516246183e-01,-2.169778925248510293e-01,1.613253600819988809e-01
5.979999999999999760e-01,-4.410844414580979977e-01,1.880492805829999114e-01,-1.620489234351755459e-01
5.989999999999999769e-01,3.560719502834541750e-02,3.386733388901146946e-01,-2.899161385595982465e-01
5.999999999999999778e-01,4.328450263185303903e-01,6.354504851728536019e-02,-1.227617384826645425e-01
6.009999999999999787e-01,2.783405385594858172e-01,-3.264655894938038871e-01,1.455908996029662006e-01
6.019999999999999796e-01,-2.348683327275384036e-01,-2.978622374987152654e-01,1.856476755063935502e-01
6.029999999999999805e-01,-4.398608631954988302e-01,7.214667358566231870e-02,-7.226593472203805824e-02
6.039999999999999813e-01,-3.468953553141192886e-02,3.096185329357390992e-01,-3.042055846138542741e-01
6.049999999999999822e-01,4.185434457623669058e-01,3.312803602710607392e-02,-2.046753721435847773e-01
6.059999999999999831e-01,2.994953149135268777e-01,-3.801169637132032486e-01,8.731344409350258462e-02
6.069999999999999840e-01,-1.635328246916487593e-01,-4.265548882860841773e-01,2.486696504011111364e-01
6.079999999999999849e-01,-4.371995540111990874e-01,-2.405073457463497918e-02,5.061512704701078003e-02
6.089999999999999858e-01,-1.400228901165156969e-01,2.001593813212678152e-01,-2.491317342140920155e-01
6.099999999999999867e-01,2.904694031133215337e-01,-4.039617108046695410e-03,-1.977532305890319919e-01
6.109999999999999876e-01,3.306704440152014035e-01,-3.755512840078585879e-01,8.900006955969570754e-02
6.119999999999999885e-01,-1.369281280874836693e-01,-4.988012829509332891e-01,2.702000234788032307e-01
6.129999999999999893e-01,-5.336658771998764594e-01,-1.218319177038749146e-01,1.145113347855887115e-01
6.139999999999999902e-01,-3.375681164236479237e-01,1.884930252833049713e-01,-1.827423221522640473e-01
6.149999999999999911e-01,1.319253791789976871e-01,2.795242060983720717e-02,-2.277298738638556530e-01
6.159999999999999920e-01,2.455739822422139951e-01,-3.352004416929458830e-01,3.146525593814816779e-02
6.169999999999999929e-01,-1.826882017161488847e-01,-4.542225884374710976e-01,2.534912748593401433e-01
6.179999999999999938e-01,-6.120900061964055228e-01,-1.047633895198031156e-01,1.348151733031850152e-01
6.189999999999999947e-01,-4.705669796767010804e-01,2.622897060537560110e-01,-1.678601320307192002e-01
6.199999999999999956e-01,2.066093566548845087e-02,2.063569667315244827e-01,-3.197951849115251988e-01
6.209999999999999964e-01,2.180339062756834478e-01,-2.166572510752323710e-01,-1.022912322076481445e-01
6.219999999999999973e-01,-1.658211626660825166e-01,-3.485596754148023169e-01,1.670979141125748801e-01
6.229999999999999982e-01,-5.839831775178553341e-01,-3.792055058361378655e-02,1.334650365303585995e-01
6.239999999999999991e-01,-5.222420857986441733e-01,3.446949752832594860e-01,-1.946941726100203940e-01
6.250000000000000000e-01,-3.704346815899062229e-02,3.856042118705450550e-01,-3.825113367775855311e-01
6.260000000000000009e-01,2.865067942879802043e-01,-1.385272905613299001e-02,-2.157702579213869598e-01
6.270000000000000018e-01,5.150771069968844429e-02,-1.803314068743084031e-01,7.086491269940010940e-02
6.280000000000000027e-01,-4.139163814630192340e-01,7.587889441165082682e-02,1.074150132054573076e-01
6.290000000000000036e-01,-4.404540338671141253e-01,4.903447676585394044e-01,-1.248812637216909771e-01
6.300000000000000044e-01,3.673498339388030220e-02,5.415114123559192638e-01,-3.894319791305548284e-01
6.310000000000000053e-01,4.659897636229766160e-01,1.961700674929242327e-01,-2.867042361617538337e-01
6.320000000000000062e-01,3.269018686282841868e-01,-7.689119384578298189e-02,1.769092994263860713e-02
6.330000000000000071e-01,-1.527244048947496990e-01,1.405406249813540287e-01,1.653356386197438743e-01
6.340000000000000080e-01,-2.616453263331069978e-01,5.245755182042618481e-01,-4.904908706472096980e-02
6.350000000000000089e-01,1.312756917826554126e-01,6.023379413495797419e-01,-2.924482159613547849e-01
6.360000000000000098e-01,6.097646148028641466e-01,2.402722633991882240e-01,-2.506463460037615665e-01
6.370000000000000107e-01,5.737538501728876028e-01,-8.039132740282894929e-02,5.098202169799823102e-02
6.380000000000000115e-01,9.577615868717204162e-02,3.787455071917652377e-02,2.346407268588977246e-01
6.390000000000000124e-01,-1.157567070199038289e-01,4.504395915968481545e-01,1.344214143410724649e-01
6.400000000000000133e-01,2.257688952885419931e-01,5.296711967565286283e-01,-1.597211084534115866e-01
6.410000000000000142e-01,6.984838243339045460e-01,1.616287689457148180e-01,-1.955421045674241021e-01
6.420000000000000151e-01,7.322605185839433650e-01,-2.169378788153396576e-01,8.356744184595039926e-02
6.430000000000000160e-01,2.211781548826773081e-01,-1.754238166552336831e-01,3.287909121446830341e-01
6.440000000000000169e-01,-6.812897656688195192e-02,2.139892037856720164e-01,2.889249121987801372e-01
6.450000000000000178e-01,1.110060182950999286e-01,3.748875102064673781e-01,2.503531267456410303e-02
6.460000000000000187e-01,6.215089830680584626e-01,1.578218003322749002e-02,-8.868514112194848809e-02
6.470000000000000195e-01,7.104153080206426774e-01,-3.990425647064840264e-01,1.109845044446540474e-01
6.480000000000000204e-01,2.423582087524658313e-01,-3.838856228186209862e-01,4.300517490457416159e-01
6.490000000000000213e-01,-1.846060200329116552e-01,-3.497420434780313531e-02,4.153186490404206510e-01
6.500000000000000222e-01,-1.163210498759293943e-01,1.523211840103265990e-01,1.623896937659282114e-01
6.510000000000000231e-01,3.504358776286446431e-01,-1.147505809635049195e-01,-2.780515206075164295e-02
6.520000000000000240e-01,4.947305004039290743e-01,-5.169257426984827930e-01,5.416403764597479964e-02
6.530000000000000249e-01,9.440519097301448836e-02,-5.737193370175872609e-01,3.665821000286587639e-01
6.540000000000000258e-01,-3.886356088882991777e-01,-2.291264620259807483e-01,4.580821965584242483e-01
6.550000000000000266e-01,-4.083507258784677130e-01,4.658093799982750832e-02,2.173551196477978287e-01
6.560000000000000275e-01,1.779126236226358584e-02,-1.417045816100142019e-01,-8.855562961093417507e-02
6.570000000000000284e-01,2.752147387258778721e-01,-5.630841928833262289e-01,-3.448082666766506127e-02
6.580000000000000293e-01,-5.697893041419804100e-02,-6.150276935534590983e-01,2.528605628532452076e-01
6.590000000000000302e-01,-5.907857406341219253e-01,-2.750607270694420126e-01,3.437995594285431222e-01
6.600000000000000311e-01,-6.509937415421562790e-01,8.769673356495151506e-02,1.490267311232446323e-01
6.610000000000000320e-01,-2.567249769227828993e-01,-3.509815718366048748e-02,-1.726062120640066144e-01
6.620000000000000329e-01,7.819447949942293086e-02,-4.008522147379982581e-01,-1.894959199640069147e-01
6.630000000000000338e-01,-1.293586071948561733e-01,-5.091688185834393199e-01,9.656341378258010560e-03
6.640000000000000346e-01,-6.326406828002389959e-01,-1.481369423813113373e-01,2.339915180642475612e-01
6.650000000000000355e-01,-8.140627443419240494e-01,2.228104140311365777e-01,6.144418384203877148e-02
6.660000000000000364e-01,-3.901418617434519454e-01,1.497875278587561532e-01,-2.730739678492410394e-01
6.670000000000000373e-01,4.744339028147482457e-02,-1.824365955733819045e-01,-4.024824488289795443e-01
6.680000000000000382e-01,-2.703099879312668291e-02,-3.500388346528639505e-01,-1.913626435328022179e-01
6.690000000000000391e-01,-4.907288672671999974e-01,-5.927676165367477823e-02,5.879618497899586488e-02
6.700000000000000400e-01,-7.352778351925074452e-01,3.558514084233640462e-01,-1.647395836260399926e-02
6.710000000000000409e-01,-3.704849634668588854e-01,3.719275967694258833e-01,-3.130133106629898743e-01
6.720000000000000417e-01,1.267201816700521122e-01,1.627517424072086327e-02,-4.891013841380676963e-01
6.730000000000000426e-01,1.924843428676357715e-01,-1.928521366631403555e-01,-3.089176144303532601e-01
6.740000000000000435e-01,-2.342943065360125754e-01,5.620169221810931981e-02,-1.168651718823916254e-02
6.750000000000000444e-01,-5.063121250679182284e-01,4.606807698641353088e-01,3.336422179119600141e-03
6.760000000000000453e-01,-2.461185495244000987e-01,4.929653731992141297e-01,-2.225612482678375748e-01
6.770000000000000462e-01,3.162715301477371233e-01,1.295638356926503976e-01,-4.387248332006618012e-01
6.780000000000000471e-01,4.693305734254712980e-01,-1.256830456793198436e-01,-3.471615331781990332e-01
6.790000000000000480e-01,5.739654576688368870e-02,2.047982368158839800e-02,-1.194759017372931838e-02
6.800000000000000488e-01,-2.806668380439883981e-01,4.038912102415582184e-01,1.008252318913041151e-01
6.810000000000000497e-01,-1.429999523996372535e-01,5.208403735007958169e-01,-8.776753444221119249e-02
6.820000000000000506e-01,4.274088441435406338e-01,1.156329030162394356e-01,-3.248553165105700358e-01
6.830000000000000515e-01,6.489200770823029263e-01,-2.111524869842308083e-01,-2.784526493006666548e-01
6.840000000000000524e-01,3.020660436899991197e-01,-8.332901510805693079e-02,7.125736404410627778e-02
6.850000000000000533e-01,-1.339284545821967098e-01,3.151523510560295671e-01,2.546186672142874974e-01
6.860000000000000542e-01,-7.171215501172251150e-02,4.272096237826293885e-01,1.123693970621879729e-01
6.870000000000000551e-01,4.295101165664892418e-01,8.090734962640412642e-02,-1.483680522936231261e-01
6.879999999999999449e-01,6.661912917315540028e-01,-2.675946195319410248e-01,-1.892128167342627121e-01
6.889999999999999458e-01,3.581008407441351182e-01,-2.128311662869531440e-01,1.006094802422967116e-01
6.899999999999999467e-01,-8.485188388128152293e-02,1.793137257808251894e-01,3.430076008196932258e-01
6.909999999999999476e-01,-1.955701339689309703e-01,3.621955600366827399e-01,2.817395203307820895e-01
6.919999999999999485e-01,2.568543121330362777e-01,5.501594373420236328e-02,-1.025327947013888671e-03
6.929999999999999494e-01,6.053346314268935879e-01,-3.129010767822387185e-01,-1.336764750001243340e-01
6.939999999999999503e-01,3.554546310779300722e-01,-3.031757584931854543e-01,1.135378957010101109e-01
6.949999999999999512e-01,-1.376861026618848294e-01,5.787046389852679162e-02,3.428323949718222186e-01
6.959999999999999520e-01,-3.071008577394120920e-01,2.847073249068228784e-01,3.451768460586407961e-01
6.969999999999999529e-01,5.957091438100156622e-02,1.063262192653619542e-01,4.936490136521919786e-02
6.979999999999999538e-01,4.687880075796824753e-01,-3.290843063558393511e-01,-1.360830084131843809e-01
6.989999999999999547e-01,3.413317104326129559e-01,-3.294387388531533900e-01,1.954258321164725407e-02
6.999999999999999556e-01,-1.833791158814597200e-01,2.662723282674304970e-02,3.125627384100665984e-01
7.009999999999999565e-01,-4.470379018322937492e-01,3.324507285780299859e-01,3.592131632478846037e-01
7.019999999999999574e-01,-1.445103993285939692e-01,1.474833296966966134e-01,1.090805595662474592e-01
7.029999999999999583e-01,3.272390983498659200e-01,-2.532394280116781471e-01,-1.646155217861004771e-01
7.039999999999999591e-01,3.293698202936657382e-01,-3.456271837290099125e-01,-1.167756392622195244e-01
7.049999999999999600e-01,-1.885832635261444346e-01,2.710128312408348339e-02,2.089824202913907469e-01
7.059999999999999609e-01,-5.138432882004527746e-01,3.571555095891308929e-01,3.194867876483593605e-01
7.069999999999999618e-01,-2.319024494725332175e-01,2.426791344958860730e-01,1.141596297654723646e-01
7.079999999999999627e-01,2.907239399262298574e-01,-1.688443826426846706e-01,-2.375138688286390909e-01
7.089999999999999636e-01,3.643025185596979743e-01,-3.051598518401935634e-01,-2.198462899621974886e-01
7.099999999999999645e-01,-7.198601362677542470e-02,-1.521236961547985274e-02,3.652887466339076183e-02
7.109999999999999654e-01,-4.432226212645333230e-01,3.391369493353522113e-01,2.528941333046091366e-01
7.119999999999999662e-01,-2.679435430150031161e-01,2.579115234933012091e-01,1.091476512339068922e-01
7.129999999999999671e-01,2.385452395671731896e-01,-1.416539811645911306e-01,-1.943116103473059575e-01
7.139999999999999680e-01,4.484816275388237572e-01,-3.374048649893554019e-01,-2.869112539125253658e-01
7.149999999999999689e-01,7.259873742884676018e-02,-1.025513971020867304e-01,-5.793656914740750487e-03
7.159999999999999698e-01,-3.751213300330930034e-01,2.796151639544268153e-01,2.145076190994697762e-01
7.169999999999999707e-01,-2.790910712955890771e-01,2.203794486288571386e-01,1.500018936711472739e-01
7.179999999999999716e-01,2.280192895675856590e-01,-1.664204078520039320e-01,-1.227639460883424016e-01
7.189999999999999725e-01,4.920054745634716564e-01,-4.343005886259769244e-01,-2.627751405137404017e-01
7.199999999999999734e-01,1.885186083077358965e-01,-2.061199858628547099e-01,-6.780062513929165091e-02
7.209999999999999742e-01,-3.115158965304699601e-01,1.689500502277958283e-01,1.939434240249170993e-01
7.219999999999999751e-01,-3.592946946369322547e-01,1.642653077567000908e-01,2.135982511329455602e-01
7.229999999999999760e-01,1.180714622898896976e-01,-2.203031153168769074e-01,-3.059676460572184620e-02
7.239999999999999769e-01,4.306560187443109755e-01,-5.279556732569706812e-01,-2.483876717480691665e-01
7.249999999999999778e-01,1.921097533905718191e-01,-3.634140049245089821e-01,-9.778711907285810023e-02
7.259999999999999787e-01,-3.516727044351443121e-01,8.777860741562612534e-02,1.729620010710795908e-01
7.269999999999999796e-01,-4.575886558808645033e-01,1.279103541456787785e-01,2.881269073655162716e-01
7.279999999999999805e-01,-8.169214316042466839e-02,-2.005136200289249493e-01,2.655086093976655529e-02
7.289999999999999813e-01,2.882828899931465516e-01,-5.314016563721228881e-01,-2.454579486485678474e-01
7.299999999999999822e-01,1.575803811375247887e-01,-3.716430386983131662e-01,-1.371014727111256326e-01
7.309999999999999831e-01,-3.849097664553824405e-01,1.841978683783536755e-02,1.316977401421182137e-01
7.319999999999999840e-01,-6.011242817264261795e-01,1.831391824928805256e-01,2.863673008564350808e-01
7.329999999999999849e-01,-2.922545695587420167e-01,-9.317684964315611773e-02,8.289135498021563131e-02
7.339999999999999858e-01,1.689273109711904308e-01,-4.324246690021820161e-01,-2.165427167548907850e-01
7.349999999999999867e-01,1.159978869017465469e-01,-3.223991807265902954e-01,-2.486949582826374072e-01
7.359999999999999876e-01,-3.789113161109178285e-01,1.299356219565367121e-01,1.670567646457609204e-02
7.369999999999999885e-01,-6.792580904292623289e-01,3.385043197001883497e-01,1.986059623205363445e-01
7.379999999999999893e-01,-4.155155761956899618e-01,9.560586906170917554e-02,9.564006310020331525e-02
7.389999999999999902e-01,8.828118742152690768e-02,-2.533442050139395607e-01,-2.374523010360919395e-01
7.399999999999999911e-01,2.201385666606473224e-01,-1.388250869562658862e-01,-3.604670358566966493e-01
7.409999999999999920e-01,-2.477362272460046644e-01,2.618167420889538355e-01,-1.289404647531286197e-01
7.419999999999999929e-01,-5.973807581547445622e-01,5.016708898590036547e-01,1.330593943070973728e-01
7.429999999999999938e-01,-3.925803080849389337e-01,3.403031007495727622e-01,6.148745459768793775e-02
7.439999999999999947e-01,1.451443478084122884e-01,-4.122852353960067273e-02,-2.272810418712097047e-01
7.449999999999999956e-01,3.691432571837667820e-01,-3.472317718573583734e-02,-4.220723387230084778e-01
7.459999999999999964e-01,1.114424008884163514e-03,3.287122659722651052e-01,-2.500049014109779755e-01
7.469999999999999973e-01,-4.078606669810284635e-01,6.664984673851108710e-01,6.512148489134761409e-02
7.479999999999999982e-01,-2.639386711494582372e-01,4.541521992519144679e-01,7.726210537268994594e-02
7.489999999999999991e-01,3.139073100033934471e-01,2.530887543927900704e-02,-1.838091426063965805e-01
7.500000000000000000e-01,5.810869395623493583e-01,-3.990682334478473647e-02,-3.819422811976415644e-01
7.510000000000000009e-01,3.101733071112151019e-01,2.969764518530276787e-01,-2.776437508935326592e-01
7.520000000000000018e-01,-1.379129199363302583e-01,5.931683141173647034e-01,4.960116005631400732e-02
7.530000000000000027e-01,-1.044585079762455626e-01,4.580304492036026964e-01,1.923932650398804955e-01
7.540000000000000036e-01,3.861290566195040852e-01,5.189710688130302896e-02,-2.055614098730562320e-02
7.550000000000000044e-01,7.785353353783555086e-01,-1.399959372407029168e-01,-2.914102699823314380e-01
7.560000000000000053e-01,5.800809188169355757e-01,1.226963372890691045e-01,-2.364256147400791430e-01
7.570000000000000062e-01,4.580603817808973771e-02,4.489189508263143336e-01,1.044498709344871268e-01
7.580000000000000071e-01,-2.702434314800631135e-02,3.421682794293440244e-01,3.223213428218017484e-01
7.590000000000000080e-01,3.955376073510732393e-01,-1.164134610350569116e-01,1.710079185897120935e-01
7.600000000000000089e-01,7.957644988589649415e-01,-3.385138371457647732e-01,-9.693030206827488171e-02
7.610000000000000098e-01,6.354913585743454663e-01,-1.119461187585403528e-01,-1.173859706172270811e-01
7.620000000000000107e-01,8.968314400068570780e-02,2.555397722450894471e-01,1.999244594625256000e-01
7.630000000000000115e-01,-1.148646426749166255e-01,1.587921847927633856e-01,4.126566543942438159e-01
7.640000000000000124e-01,2.145065557341453155e-01,-2.700282069787194317e-01,3.453511000164533051e-01
7.650000000000000133e-01,5.900670026979104588e-01,-5.470465449257012613e-01,4.936321227022766323e-02
7.660000000000000142e-01,5.119253145915054759e-01,-3.228994264065501163e-01,-7.760835715349707897e-02
7.670000000000000151e-01,5.574347021665454482e-03,1.575731104461655652e-02,1.493558533968409319e-01
7.680000000000000160e-01,-3.260197574923279773e-01,1.832576504228053405e-02,4.597298131747465377e-01
7.690000000000000169e-01,-1.213276732601908381e-01,-3.586043865974081757e-01,4.211128685855711762e-01
7.700000000000000178e-01,3.342019208095374228e-01,-6.113450454694335789e-01,1.718676107367025363e-01
7.710000000000000187e-01,3.279551534459965167e-01,-4.307777263268005030e-01,-6.706599666330595455e-02
7.720000000000000195e-01,-1.407784519566920023e-01,-6.392984440863239137e-02,6.750729949323855394e-02
7.730000000000000204e-01,-5.934840406263688362e-01,3.959614319748158695e-02,3.374281979994559477e-01
7.740000000000000213e-01,-4.578271832393860929e-01,-2.750543946414622520e-01,4.127869458007281667e-01
7.750000000000000222e-01,5.021235193120057727e-02,-5.737807279052073994e-01,1.232720959528932209e-01
7.760000000000000231e-01,1.577089670000665356e-01,-4.602355491545419564e-01,-1.476207124887312927e-01
7.770000000000000240e-01,-2.705070147542648074e-01,-4.807164953473270011e-03,-1.076348078470976688e-01
7.780000000000000249e-01,-7.262472269691045978e-01,1.630056690904572725e-01,1.918926481259347339e-01
7.790000000000000258e-01,-6.368556682309111094e-01,-1.237584740686281243e-01,2.919926920483730814e-01
7.800000000000000266e-01,-1.381247712730559463e-01,-4.375355978604291707e-01,7.349453945547673728e-02
7.810000000000000275e-01,7.994290531962990054e-02,-3.329536635065233896e-01,-2.531088592454639463e-01
7.820000000000000284e-01,-2.587265869366681126e-01,1.063218547203357983e-01,-2.847604873018932947e-01
7.830000000000000293e-01,-6.940605256035194959e-01,3.484952191810805622e-01,-2.128417288401628776e-02
7.840000000000000302e-01,-7.049541434534181139e-01,9.978241209640933973e-02,1.836330718791611138e-01
7.850000000000000311e-01,-1.996910954665253590e-01,-2.306102258472094435e-01,-1.392744268178585862e-02
7.860000000000000320e-01,1.580190771170189024e-01,-1.839057576521778425e-01,-3.418624649143025551e-01
7.870000000000000329e-01,-4.428614847649604835e-02,2.320694236326555915e-01,-4.195004003630813938e-01
7.880000000000000338e-01,-5.183497510375565387e-01,4.604041762772244639e-01,-2.114709578031550297e-01
7.890000000000000346e-01,-5.866192896695622272e-01,2.826792924682673958e-01,4.313604437917790968e-02
7.900000000000000355e-01,-1.097989821476145628e-01,-1.002288942858896442e-01,-3.725949240879655039e-02
7.910000000000000364e-01,3.403845797182856736e-01,-1.402275342479133713e-01,-3.587352526628916904e-01
7.920000000000000373e-01,2.024261578274859363e-01,2.676835523017058738e-01,-4.670500388495330557e-01
7.930000000000000382e-01,-2.531899274251960263e-01,5.161359735529736925e-01,-2.644622870410923698e-01
7.940000000000000391e-01,-4.006069347248257251e-01,3.320514116223740597e-01,2.009689291002961925e-02
7.950000000000000400e-01,-1.399693707396630019e-03,-5.686524510576101282e-02,2.261401359078183543e-02
7.960000000000000409e-01,4.775649823263512506e-01,-1.963831676938974091e-01,-2.050501913556953826e-01
7.970000000000000417e-01,4.817626885266498293e-01,1.468082653047682873e-01,-4.179343460717482861e-01
7.980000000000000426e-01,8.957320073496961507e-03,4.859140634822076144e-01,-2.575507023773757620e-01
7.990000000000000435e-01,-2.492543197719391812e-01,3.302232573726752163e-01,4.588565921155014771e-02
8.000000000000000444e-01,3.077040549135146019e-02,-1.170637775768629540e-01,1.689072090585211350e-01
8.010000000000000453e-01,5.501198167792545890e-01,-2.826070719163372158e-01,-6.305458254993751011e-02
8.020000000000000462e-01,6.012849040294790948e-01,3.614274008492036894e-02,-2.655169021581925692e-01
8.030000000000000471e-01,1.445864946409795848e-01,3.431513851842243334e-01,-2.085672282511676912e-01
8.040000000000000480e-01,-2.225742639807839762e-01,2.995226488884904503e-01,9.580475833875858049e-02
8.050000000000000488e-01,-4.102679903575001674e-02,-1.461462527845481252e-01,2.847609424870792272e-01
8.060000000000000497e-01,4.554796240671531993e-01,-3.541389397635927860e-01,1.772631834801191852e-01
8.070000000000000506e-01,6.111402589425833920e-01,-8.697527003121544031e-02,-1.272827585516906335e-01
8.080000000000000515e-01,1.661627377831680075e-01,2.789176465271941407e-01,-1.297652837816114235e-01
8.090000000000000524e-01,-2.573946375041633039e-01,2.597901430072970252e-01,1.472600396077891061e-01
8.100000000000000533e-01,-1.783811299506548875e-01,-9.726661466241090515e-02,3.614654816756063260e-01
8.110000000000000542e-01,3.053023531477368491e-01,-3.871755749288469106e-01,2.398694933646990934e-01
8.120000000000000551e-01,5.204919034419804857e-01,-1.220083863556311321e-01,-1.940228136699401890e-02
8.129999999999999449e-01,1.544520334619338131e-01,2.345494590388734757e-01,-1.451099818975271627e-01
8.139999999999999458e-01,-3.393844908232283575e-01,2.886679958003388613e-01,8.289569887645531487e-02
8.149999999999999467e-01,-3.062377011564336726e-01,-6.696893550909752135e-02,3.769318387606317988e-01
8.159999999999999476e-01,1.341104741489966001e-01,-3.549772594594311492e-01,3.480322367916380832e-01
8.169999999999999485e-01,4.263494635154028156e-01,-1.537296166892032634e-01,3.197235303770842169e-02
8.179999999999999494e-01,1.639809337932493227e-01,2.627040722921316074e-01,-1.798657558287735658e-01
8.189999999999999503e-01,-3.254504968922564689e-01,3.679550433458700365e-01,-1.066094914249497011e-02
8.199999999999999512e-01,-4.552157679952392733e-01,4.087012950893497559e-02,2.565185092010023871e-01
8.209999999999999520e-01,-2.184208301955284370e-02,-3.078984794914263468e-01,3.146407187403900685e-01
8.219999999999999529e-01,4.101728309312879794e-01,-1.529467787441436688e-01,2.615236064691071893e-02
8.229999999999999538e-01,2.477144211513398475e-01,2.622662605612395281e-01,-2.249414552075272300e-01
8.239999999999999547e-01,-2.738937482146818758e-01,4.076539152015229983e-01,-1.352646544155708674e-01
8.249999999999999556e-01,-4.468452817461020521e-01,6.219675099509803379e-02,1.666303653737497004e-01
8.259999999999999565e-01,-5.109367042873139142e-02,-2.815682017341770704e-01,2.491889658785364781e-01
8.269999999999999574e-01,3.912940657248349385e-01,-2.101230625858399037e-01,6.148318553076045218e-02
8.279999999999999583e-01,3.521750745172644304e-01,1.871048502092555188e-01,-2.471437455587411625e-01
8.289999999999999591e-01,-1.243179640161414801e-01,3.489532110432198020e-01,-2.301196912447979748e-01
8.299999999999999600e-01,-3.781261116904914288e-01,5.866176827442629027e-02,5.576484622642487871e-02
8.309999999999999609e-01,-8.607196079964717084e-02,-3.408306602311407807e-01,2.439207099733825546e-01
8.319999999999999618e-01,4.154323602387646752e-01,-3.112374706145545344e-01,1.020734112127492377e-01
8.329999999999999627e-01,4.463919094495682471e-01,5.884297776480591768e-02,-1.957665968516399124e-01
8.339999999999999636e-01,6.735486870046888432e-03,2.683629483038320607e-01,-2.427804040480882886e-01
8.349999999999999645e-01,-3.729873531007955600e-01,1.996506706952317842e-02,-1.825978891682814844e-03
8.359999999999999654e-01,-1.543416759442606256e-01,-3.868120629477213579e-01,2.578190039789589050e-01
8.369999999999999662e-01,3.395649823135104550e-01,-4.694438490297543898e-01,1.732348607500277526e-01
8.379999999999999671e-01,4.481317012319138149e-01,-1.006685410180302720e-01,-1.151097086302389355e-01
8.389999999999999680e-01,4.376907033454311563e-02,1.624189267647924151e-01,-2.193079624793263516e-01
8.399999999999999689e-01,-3.971564498951067335e-01,-3.194285901443980752e-02,-3.061832171032863315e-02
8.409999999999999698e-01,-3.382405783956589640e-01,-4.264884018594284343e-01,2.443938124996825334e-01
8.419999999999999707e-01,1.944873139231893255e-01,-5.542959452194229364e-01,2.792678411053103327e-01
8.429999999999999716e-01,3.598620571834166837e-01,-1.821133141431421909e-01,-4.320664753906616057e-02
8.439999999999999725e-01,-8.681791725774865021e-03,1.528900615312170641e-01,-2.187884999336358050e-01
8.449999999999999734e-01,-4.989984023033099958e-01,3.790536273534395734e-02,-6.143346173120508430e-02
8.459999999999999742e-01,-5.002613494858528798e-01,-3.829693721022908726e-01,2.122136630738923890e-01
8.469999999999999751e-01,-6.888791327229071282e-02,-5.063350348021039560e-01,2.887952781001125180e-01
8.479999999999999760e-01,2.203255886383717888e-01,-1.651757603614264491e-01,3.615946131648800632e-02
8.489999999999999769e-01,-4.673998368464592906e-02,2.034095292851653136e-01,-2.132290335949788285e-01
8.499999999999999778e-01,-5.683461840090547890e-01,1.770182070398519658e-01,-1.534490458235638899e-01
8.509999999999999787e-01,-6.503149640557256417e-01,-1.889386701931025647e-01,1.285813399171481242e-01
8.519999999999999796e-01,-2.238209412599889425e-01,-3.924223503563522009e-01,2.754476599320727637e-01
8.529999999999999805e-01,1.547499881682087575e-01,-3.960446650853069461e-02,3.254552894347113173e-02
8.539999999999999813e-01,-4.770145667907664880e-03,3.365555069522872533e-01,-2.599041026271898258e-01
8.549999999999999822e-01,-5.233914291067739422e-01,3.499342364246927350e-01,-2.587220455233268379e-01
8.559999999999999831e-01,-6.796977160823530761e-01,1.090254144035573969e-02,-7.603089626821219436e-03
8.569999999999999840e-01,-2.952887555334816061e-01,-2.229580717199742823e-01,1.554075167956527337e-01
8.579999999999999849e-01,1.948474325342404445e-01,8.868741596361284785e-02,4.265372588972221601e-02
8.589999999999999858e-01,1.705374255243538306e-01,5.011469079481810640e-01,-2.986519031258509371e-01
8.599999999999999867e-01,-3.132047941495312848e-01,5.670639703188335989e-01,-3.876473297833892273e-01
8.609999999999999876e-01,-5.170713741363129889e-01,2.285234967669043382e-01,-1.644435000165467564e-01
8.619999999999999885e-01,-1.544367492063941083e-01,-3.725193413047120372e-02,9.187802505283752807e-02
8.629999999999999893e-01,3.425898905466863709e-01,1.231802333764869806e-01,5.416839018774469855e-02
8.639999999999999902e-01,4.243323660344746617e-01,5.199214455704364024e-01,-2.723014967638213157e-01
8.649999999999999911e-01,-3.362019271618411215e-02,6.183676005186349300e-01,-4.216668727652735371e-01
8.659999999999999920e-01,-3.088688772925430870e-01,2.656121319141375725e-01,-2.338152571990871342e-01
8.669999999999999929e-01,-1.906065661815752738e-02,-6.738606725089704708e-02,5.488908436663533785e-02
8.679999999999999938e-01,4.893037171043230771e-01,5.117300173837398269e-02,9.899211574378176393e-02
8.689999999999999947e-01,6.744571398414130892e-01,4.022560728144257136e-01,-1.850480361044793687e-01
8.699999999999999956e-01,2.464442132540057562e-01,5.611141215103491175e-01,-3.475061310576019191e-01
8.709999999999999964e-01,-8.193865794912157108e-02,2.215356038725447840e-01,-2.120483141189338783e-01
8.719999999999999973e-01,6.342393628808973283e-02,-1.768642608596336929e-01,1.111185665644637555e-01
8.729999999999999982e-01,5.873305503740204880e-01,-1.474662523855635732e-01,2.215008328539308791e-01
8.739999999999999991e-01,7.954109254747983027e-01,2.286341181166577918e-01,1.746800732233287634e-02
8.750000000000000000e-01,4.703511259830274738e-01,3.633594926615866250e-01,-2.000373801440094301e-01
8.760000000000000009e-01,2.333308246059207988e-02,4.850592857248004625e-02,-1.343398060965544372e-01
8.770000000000000018e-01,2.680308497807498951e-03,-3.879434962151460109e-01,1.890544629320018988e-01
8.780000000000000027e-01,4.897245060332630628e-01,-3.862606989197386875e-01,3.924451261969162386e-01
8.790000000000000036e-01,7.489559698235265239e-01,-4.047970820058482272e-02,1.963279249815417515e-01
8.800000000000000044e-01,4.440860031363500493e-01,1.927311379507035405e-01,-3.537454382215433901e-02
8.810000000000000053e-01,-8.546844317712848360e-02,-4.430241688812454337e-02,-6.061068805013723054e-02
8.820000000000000062e-01,-1.813788187089713233e-01,-5.151938386201809772e-01,2.221972069716615927e-01
8.830000000000000071e-01,2.412270632260422043e-01,-5.687516185631291687e-01,4.397514391930565925e-01
8.840000000000000080e-01,5.459527044470374735e-01,-2.018961855101868152e-01,3.615264663933220324e-01
8.850000000000000089e-01,3.294042235741876934e-01,6.753887579917862427e-02,6.642377485134220994e-02
8.860000000000000098e-01,-2.324125057811960438e-01,-1.135382587196386434e-01,-2.201301125369369699e-02
8.870000000000000107e-01,-4.583708775858486573e-01,-5.083969969489174900e-01,1.970873278181199950e-01
8.880000000000000115e-01,-1.295875225465573377e-01,-6.003316132262535021e-01,4.769274537542440018e-01
8.890000000000000124e-01,2.725260379420096912e-01,-2.431025243631457500e-01,4.108067894241670404e-01
8.900000000000000133e-01,1.014477448958069905e-01,8.409927551175219729e-02,1.238426864285308987e-01
8.910000000000000142e-01,-4.183813542679628572e-01,9.227650694723461486e-03,-9.540667025884161379e-02
8.920000000000000151e-01,-6.769377851201573426e-01,-3.890158636060337405e-01,7.786633528969819085e-02
8.930000000000000160e-01,-3.736797085164633714e-01,-5.193800690822608646e-01,3.438944994702411995e-01
8.940000000000000169e-01,4.886819687188092426e-02,-1.783059976052853990e-01,3.582114935121406551e-01
8.950000000000000178e-01,2.301514654557183098e-02,1.996779819943434453e-01,5.843079770169780363e-02
8.960000000000000187e-01,-4.435837888476406032e-01,2.002569905158425034e-01,-2.263486414937212754e-01
8.970000000000000195e-01,-8.125377668734381498e-01,-2.028659334849877705e-01,-1.494648800760252916e-01
8.980000000000000204e-01,-5.257792386568970189e-01,-3.597752288649144758e-01,1.259675621436120718e-01
8.990000000000000213e-01,-3.605411773962013955e-02,-8.323696229512878020e-02,2.238347599349424233e-01
9.000000000000000222e-01,9.223972959404433403e-02,3.450424636163537118e-01,-7.587807357964516768e-03
9.010000000000000231e-01,-3.422096977259097561e-01,3.631293661469703893e-01,-3.136255570361256573e-01
9.020000000000000240e-01,-7.187278406174910650e-01,-1.030572238196803166e-02,-3.593237544453261600e-01
9.030000000000000249e-01,-5.161765124226737056e-01,-2.755443371249002849e-01,-7.777023529824428349e-02
9.040000000000000258e-01,1.125084188872841132e-02,-8.381337267019884490e-03,7.216389251090712942e-02
9.050000000000000266e-01,2.509741477852642233e-01,3.884432981488385450e-01,-5.462112453995679462e-02
9.060000000000000275e-01,-7.759290024298494404e-02,4.560187810399871644e-01,-3.746688255071640161e-01
9.070000000000000284e-01,-5.055327413942809489e-01,9.447651882286599301e-02,-4.497613774197333214e-01
9.080000000000000293e-01,-4.084284771358085431e-01,-1.827352100289013903e-01,-1.863734032905357552e-01
9.090000000000000302e-01,1.112858855676066433e-01,-4.715775639311455686e-02,5.691314959906044330e-02
9.100000000000000311e-01,4.393935217872961818e-01,3.541257092690986430e-01,-1.902642095377400991e-02
9.110000000000000320e-01,2.150040279471220894e-01,4.549555930124740133e-01,-3.653627587322145764e-01
9.120000000000000329e-01,-2.402514065500795937e-01,1.073006439315107585e-01,-4.643503980750692262e-01
9.130000000000000338e-01,-2.689886196659452278e-01,-2.421136923049864720e-01,-2.369973039773489165e-01
9.140000000000000346e-01,2.112667688223396623e-01,-1.302508607923365536e-01,7.658611578900510752e-02
9.150000000000000355e-01,5.816288212605311703e-01,2.460010210739228542e-01,7.423787706917610307e-02
9.160000000000000364e-01,4.092310396587972021e-01,4.135588810185697461e-01,-1.764444321707948071e-01
9.170000000000000373e-01,-1.275490189451754519e-01,8.814116269560810790e-02,-3.477120584638506706e-01
9.180000000000000382e-01,-2.457283128082244639e-01,-2.770161873334591740e-01,-1.553271366081076799e-01
9.190000000000000391e-01,1.619099381309520025e-01,-2.588776308721492669e-01,1.295362859085060492e-01
9.200000000000000400e-01,5.883199746485152648e-01,1.417026887830396820e-01,2.133770905583936284e-01
9.210000000000000409e-01,4.701145105482878450e-01,3.731961133063934066e-01,7.482090713630495243e-03
9.220000000000000417e-01,-1.668782173868738408e-02,8.242805044004120063e-02,-2.375546770162353660e-01
9.230000000000000426e-01,-3.102510736496286725e-01,-3.381901617541845373e-01,-1.658786156293920178e-01
9.240000000000000435e-01,3.412569523765517782e-02,-2.961032280751710877e-01,1.811854774501915344e-01
9.250000000000000444e-01,5.145433955811914428e-01,8.831724032371053579e-02,3.478061108621385844e-01
9.260000000000000453e-01,4.289022154308829160e-01,3.166883505369209595e-01,1.365563104438920483e-01
9.270000000000000462e-01,-4.841128015790992917e-02,1.596772551406831775e-01,-1.337658502161720719e-01
9.280000000000000471e-01,-3.855090208330488877e-01,-2.435668142350503329e-01,-1.273697616699444868e-01
9.290000000000000480e-01,-1.460424577710928429e-01,-2.875981921904278149e-01,1.740224808343384943e-01
9.300000000000000488e-01,3.237640957202743142e-01,8.541896648295270456e-02,3.576782832289327474e-01
9.310000000000000497e-01,3.966241958823376046e-01,4.186939550780641173e-01,2.192232990986176799e-01
9.320000000000000506e-01,-2.554505013464157190e-02,2.063915146759706387e-01,-5.658193234335976568e-02
9.330000000000000515e-01,-3.966223002825069455e-01,-1.745089800317455031e-01,-1.486852588623621130e-01
9.340000000000000524e-01,-2.893497378861161207e-01,-2.694330727659186575e-01,8.095915762723632225e-02
9.350000000000000533e-01,2.442753359785146683e-01,1.059624346547240192e-01,3.301224622545051446e-01
9.360000000000000542e-01,4.381346613263480405e-01,4.049250247145217974e-01,2.485411155488574386e-01
9.370000000000000551e-01,3.218024603993464849e-02,3.167636183753624324e-01,-6.382626128354841610e-02
9.379999999999999449e-01,-4.015211060568567025e-01,-1.118460062751860939e-01,-2.320018295700774225e-01
9.389999999999999458e-01,-3.101717478494557811e-01,-2.471803267885941402e-01,-3.713454782034639884e-02
9.399999999999999467e-01,2.105612012264740929e-01,2.065974292808827467e-02,2.489257468209990498e-01
9.409999999999999476e-01,4.763939230074496489e-01,3.773558185785338970e-01,2.385280272291157300e-01
9.419999999999999485e-01,1.726529345619819411e-01,2.942624070572115724e-01,-4.315189364463836719e-02
9.429999999999999494e-01,-2.858026932243403206e-01,-1.137888717244822795e-01,-2.361936096384660289e-01
9.439999999999999503e-01,-2.877027094461924728e-01,-3.135101022877510579e-01,-1.439485116670864984e-01
9.449999999999999512e-01,1.503030584539676862e-01,-9.460774596523138791e-02,1.666918378983459625e-01
9.459999999999999520e-01,5.163157124728802172e-01,2.797099390621920478e-01,2.588610791949488288e-01
9.469999999999999529e-01,3.423069744116080670e-01,2.454786898782362059e-01,-1.306188201614468143e-02
9.479999999999999538e-01,-1.908132704700300497e-01,-1.885117490090788273e-01,-2.431298354736408929e-01
9.489999999999999547e-01,-3.037532351970759215e-01,-4.586905756873277396e-01,-1.991332216534122956e-01
9.499999999999999556e-01,1.061477365742221762e-01,-2.315990065457211866e-01,1.151071810411786189e-01
9.509999999999999565e-01,5.108206426775149245e-01,1.107123555187932706e-01,2.771953037590745295e-01
9.519999999999999574e-01,3.747425094386757083e-01,1.250641568060034681e-01,1.134242398037251798e-01
9.529999999999999583e-01,-1.560188813608019975e-01,-2.576589510747959721e-01,-1.637968681357240830e-01
9.539999999999999591e-01,-3.718926887255685765e-01,-5.712311493372467242e-01,-1.999180010803134899e-01
9.549999999999999600e-01,-4.557994379263693302e-02,-3.913611734529073849e-01,6.908570252768696240e-02
9.559999999999999609e-01,3.894594292929761115e-01,2.816317919963497868e-02,3.110123568199414934e-01
9.569999999999999618e-01,3.127909996049447749e-01,1.188695215484481121e-01,1.883150205736570659e-01
9.579999999999999627e-01,-1.842928250496790044e-01,-2.219518148158493298e-01,-8.637443180739912130e-02
9.589999999999999636e-01,-5.456187837122183915e-01,-5.561119670640695123e-01,-2.058584789616024202e-01
9.599999999999999645e-01,-2.531278063366726450e-01,-4.587843337189712600e-01,1.627652786696102971e-02
9.609999999999999654e-01,2.096767553561221242e-01,-2.775221482642599088e-02,3.032805783062687555e-01
9.619999999999999662e-01,2.452267123619688294e-01,1.686554873010192857e-01,2.662671563825571019e-01
9.629999999999999671e-01,-2.921636218167256716e-01,-1.216535382101082974e-01,-2.931090513903235675e-02
9.639999999999999680e-01,-6.571967115786417901e-01,-4.412646756498632139e-01,-2.192840205731034775e-01
9.649999999999999689e-01,-4.828858658915552438e-01,-3.732603232717702224e-01,-3.872041734717499017e-02
9.659999999999999698e-01,-2.490819046125457639e-03,9.934855344132184629e-02,2.255238924488884855e-01
9.669999999999999707e-01,1.250727398229007914e-01,3.195979755849573944e-01,2.572611609374841901e-01
9.679999999999999716e-01,-2.537901155879443427e-01,8.206059520694362897e-02,-2.723045560341716756e-02
9.689999999999999725e-01,-6.893782263570518154e-01,-2.361869090131833160e-01,-2.840494104859182523e-01
9.699999999999999734e-01,-6.308222719213105734e-01,-2.028826634416372732e-01,-2.229733171043906392e-01
9.709999999999999742e-01,-1.264802842347253764e-01,2.096416864455484252e-01,9.072018250710653375e-02
9.719999999999999751e-01,1.614367832664684588e-01,5.062097865297782162e-01,1.955095104732935962e-01
9.729999999999999760e-01,-1.297144748495323019e-01,3.162403139878795510e-01,-4.323791355583006535e-02
9.739999999999999769e-01,-5.587724748517852724e-01,-1.514600178600107247e-02,-3.288082972507899715e-01
9.749999999999999778e-01,-5.974686477427004760e-01,-8.713688501593931657e-02,-3.444647697154561983e-01
9.759999999999999787e-01,-7.031013946162538442e-02,3.328074636980636325e-01,-7.752069869117059198e-02
9.769999999999999796e-01,3.219613827488288504e-01,6.492222468525574719e-01,1.461369382139948159e-01
9.779999999999999805e-01,1.352154150026371737e-01,4.672040504152252804e-01,-5.687983566596505058e-02
9.789999999999999813e-01,-3.388090252512551692e-01,6.996382973146729467e-02,-3.702204721715907643e-01
9.799999999999999822e-01,-3.668507714470354286e-01,-2.768503589260656525e-02,-4.245487452390518945e-01
9.809999999999999831e-01,9.598205353172249710e-02,2.873302875828536163e-01,-1.821317809787164066e-01
9.819999999999999840e-01,5.185764502597468573e-01,6.168481215179085764e-01,5.721521587659246511e-02
9.829999999999999849e-01,4.604870219563365619e-01,4.992087511586950632e-01,-7.826308969772245716e-03
9.839999999999999858e-01,-8.710271022360313586e-03,6.596445365600321631e-02,-2.762036653481892423e-01
9.849999999999999867e-01,-1.869948912246564565e-01,-1.640730846241917895e-01,-4.301511197205902248e-01
9.859999999999999876e-01,2.120795820237478813e-01,1.281959677605712944e-01,-2.146648642383143790e-01
9.869999999999999885e-01,6.799589945148777348e-01,4.525388954924692841e-01,8.810152330816523047e-02
9.879999999999999893e-01,6.874018686940964740e-01,3.744689109669234184e-01,8.441166311379258436e-02
9.889999999999999902e-01,2.477216683288458454e-01,-6.077666022331938700e-02,-1.344947395175374594e-01
9.899999999999999911e-01,-5.414153988276045049e-02,-3.257279296113266276e-01,-2.887700115358800002e-01
9.909999999999999920e-01,2.356848848306738187e-01,-1.091254586600101384e-01,-1.417808239371556867e-01
9.919999999999999929e-01,7.109124936072904744e-01,2.592381748219899640e-01,1.719177221511089260e-01
9.929999999999999938e-01,7.925214604369951177e-01,1.975074206461421567e-01,2.973820305108246242e-01
9.939999999999999947e-01,2.958305777030784123e-01,-2.268945577936413716e-01,9.245812297832102511e-02
9.949999999999999956e-01,-8.221459347576123844e-02,-5.088425764250520400e-01,-1.532902130167005383e-01
9.959999999999999964e-01,8.805453796909082365e-02,-3.198705008920720849e-01,-3.765405203987443050e-02
9.969999999999999973e-01,5.340392348145913681e-01,8.340058186886478708e-02,2.467386568239751665e-01
9.979999999999999982e-01,6.796858754069305952e-01,8.034181948337719426e-02,4.213902948811126814e-01
9.989999999999999991e-01,1.900340777159293948e-01,-3.049214500333782829e-01,2.845609248912183142e-01
1.000000000000000000e+00,-2.419765748504104919e-01,-5.949166042873633709e-01,3.018758594111024124e-02
1.000999999999999890e+00,-2.043253899549813402e-01,-4.473252779758025710e-01,-1.291614306852711946e-02
1.002000000000000002e+00,2.385964695181587159e-01,-1.346317672427023091e-02,2.955380828510438262e-01
1.002999999999999892e+00,4.239311455811866081e-01,1.036814426734257444e-01,4.969733427571832451e-01
1.004000000000000004e+00,5.265405579997618074e-02,-2.392607125506424348e-01,3.645548537760740504e-01
1.004999999999999893e+00,-4.472942389302327348e-01,-5.724749501475542290e-01,4.277890919292647032e-02
1.006000000000000005e+00,-5.205569491252235448e-01,-4.589881807601967068e-01,-5.067465734411005784e-02
1.006999999999999895e+00,-7.173100455550636412e-02,-1.274676882634964530e-02,2.162599281655686045e-01
1.008000000000000007e+00,2.061727198232178038e-01,1.827562663467462434e-01,4.461420668005067203e-01
1.008999999999999897e+00,-7.915252302272696161e-02,-1.021513373215686554e-01,3.659428736021255180e-01
1.010000000000000009e+00,-5.866607796865211943e-01,-4.205182834190931973e-01,3.946430113389038513e-02
1.010999999999999899e+00,-6.989160139112260417e-01,-3.594706515107021771e-01,-1.425227366515310345e-01
1.012000000000000011e+00,-2.920379280140387168e-01,9.301547485565803131e-02,1.499542696783137674e-02
1.012999999999999901e+00,9.418777566407328383e-02,3.407881698521030844e-01,2.850653263613860400e-01
1.014000000000000012e+00,-7.447015763272712974e-02,8.203817542593834500e-02,2.723983462650069742e-01
1.014999999999999902e+00,-5.611897223743871344e-01,-2.811104237124961158e-01,-5.103547826927667952e-02
1.016000000000000014e+00,-7.360967948995894572e-01,-2.280863852776998935e-01,-3.018908032822389398e-01
1.016999999999999904e+00,-3.624592666185063594e-01,1.825942680108140204e-01,-1.845001391949418479e-01
1.018000000000000016e+00,1.184266757041182033e-01,4.367126111749340955e-01,7.668677304185396448e-02
1.018999999999999906e+00,9.834538350123739336e-02,2.516034726685377199e-01,1.435284984257468310e-01
1.020000000000000018e+00,-3.699734277874006105e-01,-1.515534237029170783e-01,-9.557883494280189351e-02
1.020999999999999908e+00,-6.068529955170424151e-01,-1.802002685388432446e-01,-3.860834336058864835e-01
1.022000000000000020e+00,-2.969794720633784912e-01,1.392570105243945977e-01,-3.484991982338765948e-01
1.022999999999999909e+00,2.107718619232187562e-01,4.785074535251115369e-01,-5.818800236179114821e-02
1.024000000000000021e+00,2.918868118489821861e-01,3.171225115101521386e-01,6.824120882555469170e-02
1.024999999999999911e+00,-1.183135785863649175e-01,-1.019129948858192997e-01,-8.934655555525725101e-02
1.026000000000000023e+00,-4.197387107505338166e-01,-2.037684025768976837e-01,-4.005028756223296127e-01
1.026999999999999913e+00,-1.901182761817113431e-01,8.998275095874179452e-02,-4.284220120267220877e-01
1.028000000000000025e+00,3.244242932347737307e-01,3.917510926681451178e-01,-1.463803804998515534e-01
1.028999999999999915e+00,5.161494129652446361e-01,2.866332431180159124e-01,7.873252191755029938e-02
1.030000000000000027e+00,1.039072634595983036e-01,-1.527403865308074316e-01,-2.761943970489242478e-02
1.030999999999999917e+00,-3.119500344658871493e-01,-3.013294870923279856e-01,-2.987564724273742423e-01
1.032000000000000028e+00,-1.558210257535996290e-01,-2.233609395037987246e-03,-3.896839448109292170e-01
1.032999999999999918e+00,3.498747938186764217e-01,3.346442214692320616e-01,-1.602099412221680286e-01
1.034000000000000030e+00,5.751012679054688936e-01,2.701321485746028817e-01,1.158291956032392184e-01
1.034999999999999920e+00,2.391869918662167804e-01,-1.495898957336615487e-01,1.594228531610145105e-01
1.036000000000000032e+00,-2.129787270667445886e-01,-3.297086555370395411e-01,-1.289926371228319324e-01
1.036999999999999922e+00,-2.390715485195563372e-01,-1.155974474536407975e-01,-3.012930400855967639e-01
1.038000000000000034e+00,2.399705668178832019e-01,2.734768341805408065e-01,-1.181558765896863483e-01
1.038999999999999924e+00,5.406300856536070398e-01,2.873301340852946750e-01,2.059483735915010605e-01
1.040000000000000036e+00,2.817702664293253445e-01,-9.744526813199973214e-02,2.520124629675832839e-01
1.040999999999999925e+00,-2.269959051010148332e-01,-3.431764551831046894e-01,3.727836883171493920e-02
1.042000000000000037e+00,-3.247564645081790768e-01,-1.229148290778754454e-01,-2.029477330539066204e-01
1.042999999999999927e+00,9.881575733999298228e-02,3.069809801438209695e-01,-7.341139713885676266e-02
1.044000000000000039e+00,4.695491600045908487e-01,3.597599002238672239e-01,2.019707056120375321e-01
1.044999999999999929e+00,3.020331935802452739e-01,1.249667218608664990e-02,3.606315323632711123e-01
1.046000000000000041e+00,-2.380440482714691608e-01,-3.017886732177619824e-01,1.248981378265638792e-01
1.046999999999999931e+00,-4.197709351747079265e-01,-8.802090050943513211e-02,-1.447802147061915956e-01
1.048000000000000043e+00,-2.542242076187675032e-02,3.183760762781865927e-01,-1.351523483693430061e-01
1.048999999999999932e+00,3.924301415693616790e-01,4.507849682069874908e-01,1.370770988740830643e-01
1.050000000000000044e+00,3.337185405808022476e-01,1.058809845430056934e-01,3.799867817306732953e-01
1.050999999999999934e+00,-1.767751920483788541e-01,-2.220789885040086176e-01,1.706844459462832919e-01
1.052000000000000046e+00,-4.290857983458563618e-01,-1.316724699462684389e-01,-1.405627326148406464e-01
1.052999999999999936e+00,-1.367488169326022407e-01,2.799227795513985484e-01,-2.019756979828214727e-01
1.054000000000000048e+00,3.599955498068079796e-01,4.709958119950024003e-01,5.832519157101088286e-02
1.054999999999999938e+00,3.814944847370335124e-01,1.411583921295375688e-01,2.890905430149118271e-01
1.056000000000000050e+00,-4.458940098194202895e-02,-2.341526186202798898e-01,2.367786284315504253e-01
1.056999999999999940e+00,-3.670267788851418467e-01,-1.636082849648139437e-01,-1.258312075830139154e-01
1.058000000000000052e+00,-1.467487816570651471e-01,2.238395075596699701e-01,-2.500923948885863668e-01
1.058999999999999941e+00,3.704786718823376290e-01,3.999811707820305484e-01,-5.461391436719901377e-02
1.060000000000000053e+00,5.119226609986320398e-01,8.867640085864691990e-02,2.015649402900410725e-01
1.060999999999999943e+00,1.272296110831828697e-01,-3.060034737005731253e-01,2.176765984648744434e-01
1.062000000000000055e+00,-2.911075410395470020e-01,-3.290874571764431655e-01,-5.079552151360586937e-02
1.062999999999999945e+00,-1.447182218893279804e-01,3.317023156074556597e-03,-2.701283344932497443e-01
1.064000000000000057e+00,3.664350056562005742e-01,2.405302208055485336e-01,-1.450324501093413210e-01
1.064999999999999947e+00,5.824682654725743536e-01,-1.143107990894181789e-03,1.314629121676905432e-01
1.066000000000000059e+00,2.220879332977491460e-01,-4.356485888794850991e-01,2.760196611949178869e-01
1.066999999999999948e+00,-2.398102106088464414e-01,-4.931266320954100224e-01,2.425874978899116453e-03
1.068000000000000060e+00,-2.351657211886963583e-01,-1.855564087251335703e-01,-2.038497473515265279e-01
1.068999999999999950e+00,2.419745333427872069e-01,9.542938351000916641e-02,-1.647492122538116999e-01
1.070000000000000062e+00,5.051796249702297237e-01,-4.713839248434740364e-02,1.670914454930481352e-01
1.070999999999999952e+00,1.998967029273134577e-01,-4.648019765926623692e-01,3.201575528148587479e-01
1.072000000000000064e+00,-2.836518344397579994e-01,-5.743105706552574796e-01,1.352505000752342312e-01
1.072999999999999954e+00,-3.866124023474253879e-01,-2.712634468075184602e-01,-1.341429304630537833e-01
1.074000000000000066e+00,6.883508645602091740e-03,1.080485369399813017e-01,-1.377650174914007708e-01
1.074999999999999956e+00,3.436643879654777689e-01,-6.969060672692330670e-03,1.199324377284283066e-01
1.076000000000000068e+00,1.421545590534150638e-01,-4.179059458940158622e-01,3.614402826432894233e-01
1.076999999999999957e+00,-4.124154574177426036e-01,-5.670349642934646717e-01,2.279821774752686936e-01
1.078000000000000069e+00,-6.051255102896685445e-01,-2.467210876074868164e-01,-6.418497031092577909e-02
1.078999999999999959e+00,-2.413085139758342768e-01,1.656956923645995783e-01,-1.616166348902978445e-01
1.080000000000000071e+00,1.516101996575231203e-01,1.391146835065824316e-01,4.398985695442699656e-02
1.080999999999999961e+00,3.452404867023492474e-02,-2.398224479396907916e-01,3.217185186454594170e-01
1.082000000000000073e+00,-4.480264319961472785e-01,-3.806342475433438510e-01,2.339666505408562469e-01
1.082999999999999963e+00,-7.100435157085576154e-01,-1.137171654456469033e-01,-4.252354701400453546e-02
1.084000000000000075e+00,-4.184055287151173808e-01,3.329387179558915832e-01,-2.231087160772623479e-01
1.084999999999999964e+00,3.720622467222325230e-02,3.514165998615312869e-01,-9.838687937394766103e-02
1.086000000000000076e+00,6.311398852762779843e-02,2.979540509815054028e-02,2.170649150896429291e-01
1.086999999999999966e+00,-4.068654269917850730e-01,-2.041897558497084986e-01,1.921645761791669349e-01
1.088000000000000078e+00,-7.234596312468015711e-01,4.096861209406748444e-02,-6.757693623298514918e-02
1.088999999999999968e+00,-4.925201778056820801e-01,4.658337715216515074e-01,-3.271691481501966536e-01
1.090000000000000080e+00,2.596269925627263733e-02,5.518563533856709613e-01,-2.171292286238158120e-01
1.090999999999999970e+00,1.783391112859789296e-01,2.205909011217177529e-01,4.323371995458768352e-02
1.092000000000000082e+00,-2.020038905410943553e-01,-7.974828384519511149e-02,1.374826215143565289e-01
1.092999999999999972e+00,-5.684725248880941884e-01,1.206067342183855529e-01,-1.004547479811775390e-01
1.094000000000000083e+00,-3.774671851512463316e-01,5.145642103864211947e-01,-4.140555240169306872e-01
1.094999999999999973e+00,1.805268226158912304e-01,6.556008932160007907e-01,-3.923075254945581625e-01
1.096000000000000085e+00,4.083304279671603476e-01,2.979240738519985943e-01,-1.051351847598717554e-01
1.096999999999999975e+00,1.315116937691712673e-01,-3.536193171164845467e-02,6.133139933318224740e-02
1.098000000000000087e+00,-2.728202445552148636e-01,6.695705782180813581e-02,-1.045384935084868738e-01
1.098999999999999977e+00,-1.911445246514093810e-01,4.473227498573022487e-01,-3.749392636297100845e-01
1.100000000000000089e+00,3.433466676394303918e-01,5.677256995746544632e-01,-4.276588885721664401e-01
1.100999999999999979e+00,6.910613000523900817e-01,2.360786178002875213e-01,-1.742221228675806532e-01
1.102000000000000091e+00,4.374177949381541364e-01,-1.545440257772585646e-01,6.778253953437812784e-02
1.102999999999999980e+00,-3.856439667701481999e-02,-1.394068455867985001e-01,4.628541382388788594e-02
1.104000000000000092e+00,-6.321195014313255034e-02,2.250559520698950655e-01,-2.465551555341902734e-01
1.104999999999999982e+00,4.075661699755112055e-01,3.772118148505754220e-01,-3.771118855080844434e-01
1.106000000000000094e+00,7.998632865522042890e-01,1.051333538769066711e-01,-1.438585961266658775e-01
1.106999999999999984e+00,5.978657684729218325e-01,-3.365981774813464611e-01,1.499251674685212476e-01
1.108000000000000096e+00,1.190121187098713423e-01,-3.655755534693909126e-01,1.417198404861849392e-01
1.108999999999999986e+00,-3.965897555103231609e-02,-3.225546103092842565e-02,-1.067399020404359022e-01
1.110000000000000098e+00,3.421231812688698692e-01,2.377686522382410073e-01,-2.462063552750137774e-01
1.110999999999999988e+00,7.417085203904925095e-01,-3.720693161499764173e-02,-7.513119503224154061e-02
1.112000000000000099e+00,6.543612263911199323e-01,-4.467224925071343611e-01,2.404311245784124251e-01
1.112999999999999989e+00,7.651165043706732727e-02,-5.550171294617992634e-01,3.625901179678945874e-01
1.114000000000000101e+00,-1.972629409755376484e-01,-1.765787438793660624e-01,1.347219376358100296e-01
1.114999999999999991e+00,7.538170953417538955e-02,1.080727418903132397e-01,-1.017349203261222607e-01
1.116000000000000103e+00,4.930965215954103975e-01,-6.088076310000373886e-02,1.563035053673088315e-02
1.116999999999999993e+00,4.771510296746180324e-01,-4.578272875822282373e-01,3.371881304295537563e-01
1.118000000000000105e+00,-1.873582836785565517e-02,-5.796501986583402211e-01,4.891003612598110450e-01
1.118999999999999995e+00,-4.305391256943822409e-01,-2.464216845325641891e-01,2.702588493670622927e-01
1.120000000000000107e+00,-2.415350223106268734e-01,1.041700246519808581e-01,1.779456074133318674e-02
1.120999999999999996e+00,1.952405826566500635e-01,2.693047108191503128e-02,2.891253708689164176e-02
1.122000000000000108e+00,2.726298568968814617e-01,-3.526472175672543119e-01,2.915861724317388992e-01
1.122999999999999998e+00,-1.919961105554472136e-01,-4.809016340528633471e-01,4.987726775185653549e-01
1.124000000000000110e+00,-6.034837280207722143e-01,-1.613568723943044070e-01,3.157060259590342977e-01
1.125000000000000000e+00,-4.842729248565972866e-01,1.932707432232419753e-01,3.867034793852324598e-02
1.125999999999999890e+00,-4.093334920077365546e-03,1.784756964812543034e-01,-5.469009631512343483e-02
1.127000000000000002e+00,1.567347711996964488e-01,-1.959330355228768306e-01,1.876009137364779700e-01
1.127999999999999892e+00,-2.084763776704317007e-01,-3.768047313337468118e-01,3.895320555623010272e-01
1.129000000000000004e+00,-6.819627682964595206e-01,-7.542460876310526363e-02,3.150326122115143512e-01
1.129999999999999893e+00,-6.294072231356265812e-01,3.009376776210155313e-01,-4.653645295707046353e-02
1.131000000000000005e+00,-1.722154033715479204e-01,3.264622386902312212e-01,-2.282886204986033507e-01
1.131999999999999895e+00,1.757107632931046715e-01,-2.173448272917537227e-02,-5.764915026621360294e-02
1.133000000000000007e+00,-1.095133922555407424e-01,-3.135208856053093851e-01,2.358097348941914362e-01
1.133999999999999897e+00,-5.642735316939959667e-01,-7.410542889469359795e-02,1.855288113722841914e-01
1.135000000000000009e+00,-6.068187237861142336e-01,3.312038339249293584e-01,-1.073720099667910405e-01
1.135999999999999899e+00,-1.378669833000599476e-01,4.038930550700764455e-01,-3.662057581927618544e-01
1.137000000000000011e+00,2.503306656036871636e-01,2.884913520188650896e-02,-2.380074070255023821e-01
1.137999999999999901e+00,9.882170800338264949e-02,-2.466806915304657899e-01,3.896786727221139557e-02
1.139000000000000012e+00,-3.979422001077181359e-01,-1.020059264143767519e-01,9.646081079787320600e-02
1.139999999999999902e+00,-4.624342035654614436e-01,3.293483964660517960e-01,-1.452677575727134018e-01
1.141000000000000014e+00,-7.968712026837321272e-02,4.347799692475631805e-01,-4.054086933738198506e-01
1.141999999999999904e+00,4.202594031948377329e-01,7.986602992909043464e-02,-3.554063744112908596e-01
1.143000000000000016e+00,3.194545157046226880e-01,-2.823341246188011966e-01,-7.511790506872481621e-02
1.143999999999999906e+00,-1.616213712473042741e-01,-1.887823076448225390e-01,6.909070121461916014e-02
1.145000000000000018e+00,-3.629406725185699845e-01,1.976454137345610707e-01,-8.028579021823140094e-02
1.145999999999999908e+00,-3.071571918356762187e-02,3.561901155044705503e-01,-3.751029589633882444e-01
1.147000000000000020e+00,4.605602795821914786e-01,6.975537129654188484e-02,-3.840095144024976426e-01
1.147999999999999909e+00,4.410660509137906971e-01,-3.027956340136107594e-01,-1.063300407109586121e-01
1.149000000000000021e+00,-3.735756301017382347e-02,-2.557137344437423465e-01,1.378107034583699875e-01
1.149999999999999911e+00,-3.493525276379125244e-01,1.600868312136665972e-01,1.119446663665829393e-02
1.151000000000000023e+00,-7.976569754523719913e-02,3.551547922501723797e-01,-2.575867125565485249e-01
1.151999999999999913e+00,4.235037972442122767e-01,8.808204125284986585e-02,-3.148278096226515554e-01
1.153000000000000025e+00,5.051699629351448229e-01,-2.668853528543326248e-01,-7.771269181914658430e-02
1.153999999999999915e+00,7.012131545213626249e-02,-2.980167290451942730e-01,1.949177659202560586e-01
1.155000000000000027e+00,-3.477885932600530694e-01,9.683845828273418554e-02,1.694703753409349534e-01
1.155999999999999917e+00,-1.831177268350259180e-01,3.462517516126729089e-01,-7.877973549701770828e-02
1.157000000000000028e+00,2.694605397270004032e-01,1.773019615097020940e-01,-2.410858747858576345e-01
1.157999999999999918e+00,4.495682892732613678e-01,-1.890748746141344416e-01,-7.257635012883417724e-02
1.159000000000000030e+00,7.163092311775606791e-02,-2.223628085795870124e-01,2.490903662267353602e-01
1.159999999999999920e+00,-3.898881083088359123e-01,1.415050016911589270e-01,3.026814581048365982e-01
1.161000000000000032e+00,-3.181798393830728711e-01,4.455484837324025227e-01,2.037840791663259390e-02
1.161999999999999922e+00,1.474958877785184919e-01,2.977973349489028698e-01,-1.921906454584172697e-01
1.163000000000000034e+00,4.541930230451191042e-01,-1.082021484932286226e-01,-1.011908657547724993e-01
1.163999999999999924e+00,1.222084409229479418e-01,-1.994417780131770290e-01,2.048390486191147553e-01
1.165000000000000036e+00,-3.659181321710097690e-01,1.294190356018153354e-01,3.362029708037653219e-01
1.165999999999999925e+00,-3.817104425923087407e-01,4.691729146332688782e-01,9.367738928519216135e-02
1.167000000000000037e+00,8.658353151379610813e-02,3.769472401924561233e-01,-1.664980914007923030e-01
1.167999999999999927e+00,4.593082313639559877e-01,-2.688870600926279719e-02,-1.317012087516537810e-01
1.169000000000000039e+00,2.659596771574403995e-01,-2.205347262190275881e-01,1.239758618494585657e-01
1.169999999999999929e+00,-2.395870324348354230e-01,5.811637042101640283e-02,3.232536894086148749e-01
1.171000000000000041e+00,-3.167644943461219165e-01,3.830967930099785090e-01,1.250152757926433766e-01
1.171999999999999931e+00,4.906433554147941051e-02,3.302532281317300811e-01,-1.330577435653962914e-01
1.173000000000000043e+00,4.998407379426828001e-01,-8.989216911699478285e-02,-2.068423115844476301e-01
1.173999999999999932e+00,3.888314043769112716e-01,-3.171010345767391048e-01,2.813594062214126029e-02
1.175000000000000044e+00,-1.027388119345734874e-01,-9.669619788384106740e-02,2.459269768442690351e-01
1.175999999999999934e+00,-3.065557189679424810e-01,2.518567991704078191e-01,1.727087790133471912e-01
1.177000000000000046e+00,6.101423307251233052e-02,2.293054907104920270e-01,-1.311314377034888401e-01
1.177999999999999936e+00,5.316697047888256922e-01,-1.650156964083722144e-01,-2.556629669931579363e-01
1.179000000000000048e+00,5.246074799208058081e-01,-5.121039668525564359e-01,-9.021332584133989752e-02
1.179999999999999938e+00,4.466278645939895930e-02,-2.722958914127052710e-01,2.347383474839636608e-01
