time,acc_x,acc_y,acc_z
0.000000000000000000e+00,-2.400078475706917125e-01,-1.506852615312300747e-01,-1.580869848843209080e-01
1.000000000000000021e-03,-3.317012729933831172e-02,7.354979247721571411e-02,-9.323452966515009821e-02
2.000000000000000042e-03,2.491375678036638341e-01,2.131411165691817489e-01,8.291743239213500427e-02
3.000000000000000062e-03,2.008826636580128555e-01,4.669094673856098027e-02,1.453050217399519672e-01
4.000000000000000083e-03,-9.344959613891264116e-02,-1.489575261399900263e-01,4.119479358918079481e-02
5.000000000000000104e-03,-2.776973265078983566e-01,-1.761202533416682259e-01,-1.438015220150068718e-01
6.000000000000000125e-03,-1.140676630298435162e-01,3.677609943544204313e-02,-1.219573192162012182e-01
7.000000000000000146e-03,2.006679735119691887e-01,2.182985355410549388e-01,3.432696321046310728e-02
8.000000000000000167e-03,2.652700659391907245e-01,1.299424334282570648e-01,1.760042471771429973e-01
8.999999999999999320e-03,-2.377912705618157735e-02,-1.252667678329469347e-01,8.807867842696961991e-02
1.000000000000000021e-02,-2.504685944539397080e-01,-2.180741274322954004e-01,-1.008413829998983241e-01
1.099999999999999936e-02,-1.675046335257051044e-01,2.301444301863348266e-03,-1.562703389366540407e-01
1.200000000000000025e-02,1.475894182530641530e-01,1.898324795003138721e-01,-2.460768673000122281e-02
1.299999999999999940e-02,2.747554202680538293e-01,1.499160964221650794e-01,1.142572548431410179e-01
1.400000000000000029e-02,7.466305928671226888e-02,-9.756267019015849029e-02,1.177268862151144707e-01
1.499999999999999944e-02,-2.142334541868545217e-01,-2.151647607630976511e-01,-5.362133012280353300e-02
1.600000000000000033e-02,-2.333610992056023292e-01,-6.895618145529812393e-02,-1.507047807305484932e-01
1.700000000000000122e-02,5.976025782185695467e-02,1.723727929130054459e-01,-8.864711955587913084e-02
1.799999999999999864e-02,2.526512134347806415e-01,1.686739082929924471e-01,1.081040227373061824e-01
1.899999999999999953e-02,1.209716378032167083e-01,-5.083329562352920106e-02,1.540646396929835904e-01
2.000000000000000042e-02,-1.608769573994082436e-01,-2.178363076148437105e-01,9.221341407577899468e-03
2.100000000000000130e-02,-2.596898564866781389e-01,-8.607729044472169078e-02,-1.411257327483742552e-01
2.199999999999999872e-02,-1.113801975760749484e-02,1.417080064060871336e-01,-1.232862738627205357e-01
2.299999999999999961e-02,2.266662700327289615e-01,1.970960604418163231e-01,5.360890903920996486e-02
2.400000000000000050e-02,2.028578041675014043e-01,-1.139006421449107950e-02,1.603000724898324958e-01
2.500000000000000139e-02,-8.996782410274667408e-02,-2.127258690288391652e-01,5.606137160477840664e-02
2.599999999999999881e-02,-2.625450577509573780e-01,-1.485817013798892972e-01,-1.171200457076751883e-01
2.699999999999999969e-02,-9.169605139734840482e-02,9.924395861738896651e-02,-1.564248536855906702e-01
2.800000000000000058e-02,1.908751624572725680e-01,2.212295472349453396e-01,5.868545591965698867e-03
2.900000000000000147e-02,2.381947115449419561e-01,5.423598089484745616e-02,1.609073894547017880e-01
2.999999999999999889e-02,-3.027612333465959024e-02,-1.737679380328198409e-01,1.179515335165107481e-01
3.099999999999999978e-02,-2.503591111130675784e-01,-1.741774772859126241e-01,-6.653203556715288347e-02
3.200000000000000067e-02,-1.692533574938874241e-01,5.202972284036862932e-02,-1.593992145694992923e-01
3.300000000000000155e-02,1.323391096271903378e-01,1.985006259927489247e-01,-6.643002048537748061e-02
3.400000000000000244e-02,2.509219814940262805e-01,1.119794045017001582e-01,9.543195232957729646e-02
3.500000000000000333e-02,4.740015057535364867e-02,-1.502019755447609739e-01,1.438409086737146014e-01
3.599999999999999728e-02,-2.461978570833041058e-01,-1.964525541262202579e-01,-7.639423929032834390e-03
3.699999999999999817e-02,-2.014708588105324771e-01,-2.964059296671643206e-03,-1.604325846484398188e-01
3.799999999999999906e-02,8.136445233836019086e-02,2.082099006951564080e-01,-1.093920559124735570e-01
3.899999999999999994e-02,2.680227433337049603e-01,1.282665911220488286e-01,6.071474584868232632e-02
4.000000000000000083e-02,1.220877853546036423e-01,-8.522024676382088104e-02,1.807657608982941588e-01
4.100000000000000172e-02,-1.707798982935788967e-01,-2.042409655094800935e-01,4.932204684106406695e-02
4.200000000000000261e-02,-2.263946692136105110e-01,-4.606237162211249819e-02,-1.131985233111167805e-01
4.299999999999999656e-02,8.755128037676508657e-03,1.905913346210752479e-01,-1.341554730144144669e-01
4.399999999999999745e-02,2.479224758558147834e-01,1.692178009963463958e-01,2.204766054573830888e-02
4.499999999999999833e-02,1.804921171318004669e-01,-5.745985059869625905e-02,1.539390980365058781e-01
4.599999999999999922e-02,-1.227535939017339039e-01,-2.209785134863095357e-01,8.568089747918021526e-02
4.700000000000000011e-02,-2.745392934803579377e-01,-9.950970410769609253e-02,-9.706459188747260103e-02
4.800000000000000100e-02,-8.677017734762722256e-02,1.484665277491442892e-01,-1.582947776454085298e-01
4.900000000000000189e-02,2.091926653742567088e-01,2.013822774233069712e-01,-2.015479521644837277e-02
5.000000000000000278e-02,2.294399309061843639e-01,-5.307058814562440850e-03,1.158029183502613940e-01
5.099999999999999672e-02,-4.720910996713996444e-02,-2.039103040210685225e-01,1.375947828161775410e-01
5.199999999999999761e-02,-2.509440365655498661e-01,-1.249290353432766787e-01,-1.853191225527542688e-02
5.299999999999999850e-02,-1.621313963262243085e-01,1.279983621047647013e-01,-1.412008464988267764e-01
5.399999999999999939e-02,1.386463578159835563e-01,2.348402662255567597e-01,-7.615563421201887451e-02
5.500000000000000028e-02,2.457443706907367909e-01,3.584603452967410897e-02,1.049325118411222613e-01
5.600000000000000117e-02,2.367990055202655666e-02,-1.874113551170281111e-01,1.554861669996422946e-01
5.700000000000000205e-02,-2.201756077958901825e-01,-1.614963800463959653e-01,1.520233597550045036e-02
5.800000000000000294e-02,-2.015878248787070504e-01,5.968944041217470048e-02,-1.588973993482199198e-01
5.899999999999999689e-02,9.541448663766911864e-02,2.138003825835418648e-01,-1.247682405169768111e-01
5.999999999999999778e-02,2.554989324937047002e-01,8.255256150718831565e-02,5.515100536116392116e-02
6.099999999999999867e-02,1.062474757290451377e-01,-1.555204241225329465e-01,1.430332092686515122e-01
6.199999999999999956e-02,-2.030335838810871929e-01,-1.704465161129626316e-01,7.952919830652865896e-02
6.300000000000000044e-02,-2.379261942392300599e-01,8.312431048746005829e-03,-1.029006010505607305e-01
6.400000000000000133e-02,-3.617282413107642154e-03,2.310450174635362564e-01,-1.382623861381555574e-01
6.500000000000000222e-02,2.608176624132790833e-01,1.357399812479413992e-01,7.587258383707042638e-04
6.600000000000000311e-02,1.568405548866559085e-01,-1.190876990199511987e-01,1.473811957735368661e-01
6.700000000000000400e-02,-1.202911178175406631e-01,-2.177645944645038023e-01,1.158915408237441852e-01
6.800000000000000488e-02,-2.752109430705687032e-01,-4.299981888870312019e-02,-5.428874476730381760e-02
6.900000000000000577e-02,-8.839541596126981871e-02,1.666092366503891808e-01,-1.648951101586288159e-01
7.000000000000000666e-02,2.239037341232681944e-01,1.621232916882224817e-01,-5.740876287212433315e-02
7.099999999999999367e-02,2.422854523299226293e-01,-5.288893554471200964e-02,1.228962245036700346e-01
7.199999999999999456e-02,-6.069673297222900887e-02,-2.032785919808544894e-01,1.187554463016814582e-01
7.299999999999999545e-02,-2.707541738120917141e-01,-7.784095787523159782e-02,-6.385834557383116179e-03
7.399999999999999634e-02,-1.444593062201324773e-01,1.622396396838726440e-01,-1.440110375926625108e-01
7.499999999999999722e-02,1.608459075719622378e-01,1.896728465918692541e-01,-1.227307646190868989e-01
7.599999999999999811e-02,2.627907860001139073e-01,-2.662493944858299044e-02,6.247005871296709700e-02
7.699999999999999900e-02,2.161934888962787141e-02,-2.163586079423586439e-01,1.503380354309069578e-01
7.799999999999999989e-02,-2.310871322846247689e-01,-1.286294766121391930e-01,6.459547809650231787e-02
7.900000000000000078e-02,-1.910886572029259212e-01,1.206688513606497259e-01,-1.211390106387423560e-01
8.000000000000000167e-02,9.136507281881997566e-02,2.238737382723841873e-01,-1.384558741925448477e-01
8.100000000000000255e-02,2.695024996162446729e-01,1.462758091481096423e-02,3.245616908109640042e-02
8.200000000000000344e-02,8.884351196260303896e-02,-2.005792066771457938e-01,1.409356501447563970e-01
8.300000000000000433e-02,-2.019882577187346873e-01,-1.552705358076226783e-01,1.046739104356178701e-01
8.400000000000000522e-02,-2.620136432719724073e-01,8.630624769342984393e-02,-7.047952809198991531e-02
8.500000000000000611e-02,5.920528958132624010e-03,2.256875754634493081e-01,-1.735225699469045701e-01
8.599999999999999312e-02,2.594298219354601032e-01,6.275212366527602170e-02,-2.110504345521711095e-02
8.699999999999999400e-02,1.700578431612710106e-01,-1.568396299484398904e-01,1.305668903530782521e-01
8.799999999999999489e-02,-1.331094447427947636e-01,-1.719380913405714195e-01,1.326733037903722046e-01
8.899999999999999578e-02,-2.608313810244884956e-01,2.626235443918756296e-02,-7.275019650745342785e-03
8.999999999999999667e-02,-6.094671239711264843e-02,2.086522646352648447e-01,-1.581668352785894904e-01
9.099999999999999756e-02,2.320353970327745374e-01,1.160736306344883756e-01,-9.746543405115314085e-02
9.199999999999999845e-02,2.324940935646836737e-01,-1.322788661100391949e-01,9.002160411296257492e-02
9.299999999999999933e-02,-6.533433563605701988e-02,-2.126521766437925731e-01,1.599287476941870234e-01
9.400000000000000022e-02,-2.538215448671471419e-01,-2.758105392851022131e-02,2.937263465003604052e-02
9.500000000000000111e-02,-1.377395552916630961e-01,1.962312023457119803e-01,-1.361253668942302153e-01
9.600000000000000200e-02,1.618794779412369433e-01,1.607310236452079710e-01,-1.290133637832432956e-01
9.700000000000000289e-02,2.477985607693972692e-01,-8.569574628976263375e-02,3.255158547124339941e-02
9.800000000000000377e-02,1.021386187042782126e-02,-2.184559120125437182e-01,1.590011861818695915e-01
9.900000000000000466e-02,-2.428379719346306365e-01,-6.768689823656373616e-02,8.909401701792218908e-02
1.000000000000000056e-01,-1.907268871909854058e-01,1.571047092923660848e-01,-8.505813447068660826e-02
1.010000000000000064e-01,8.686336910276096224e-02,1.731337324136049682e-01,-1.599261891186787299e-01
1.019999999999999934e-01,2.681110004203066111e-01,-2.602108031493689799e-02,-3.798354659055961507e-02
1.029999999999999943e-01,1.050691357823520244e-01,-2.109631320525288956e-01,1.313786176338450629e-01
1.039999999999999952e-01,-2.027977332328940729e-01,-9.878270985539305826e-02,1.238094911487907096e-01
1.049999999999999961e-01,-2.217310858775567439e-01,1.304417488216500776e-01,-5.503360865188610535e-02
1.059999999999999970e-01,1.441168584483841671e-02,2.043643700390826712e-01,-1.752931891029918809e-01
1.069999999999999979e-01,2.509536721962090655e-01,3.264985030844747005e-02,-7.384623039724316773e-02
1.079999999999999988e-01,1.425282872364257714e-01,-2.078130836746052423e-01,8.587296319279484613e-02
1.089999999999999997e-01,-1.478549274366424970e-01,-1.534153916904689718e-01,1.564356331383444376e-01
1.100000000000000006e-01,-2.530577798947604151e-01,9.084106287399693058e-02,-3.530986357042901168e-03
1.110000000000000014e-01,-5.350819346727729575e-02,2.308786721004707221e-01,-1.685095754497509535e-01
1.120000000000000023e-01,2.229141210603601542e-01,5.221926457131123578e-02,-1.029368097110971297e-01
1.130000000000000032e-01,2.097892124222795751e-01,-1.632808597099628112e-01,5.680351468165330958e-02
1.140000000000000041e-01,-5.379559597843518171e-02,-1.826874767130982902e-01,1.591242242522632189e-01
1.150000000000000050e-01,-2.720476689952255334e-01,5.764940560051178692e-02,4.590735305853319015e-02
1.160000000000000059e-01,-1.243429694300492439e-01,1.992363440622053894e-01,-1.082326087586919505e-01
1.170000000000000068e-01,1.825204681592128841e-01,1.035482869333514827e-01,-1.503314719127951948e-01
1.179999999999999938e-01,2.466330907258368343e-01,-1.385304326515213735e-01,-4.082921324789913486e-03
1.189999999999999947e-01,1.051265428377305515e-02,-2.017245059772585780e-01,1.456498245982734141e-01
1.199999999999999956e-01,-2.399440725765918381e-01,-8.627601978243391173e-03,1.159924447393327201e-01
1.209999999999999964e-01,-1.759228419805831944e-01,2.102957882741502416e-01,-7.013223915405854270e-02
1.219999999999999973e-01,1.406770727791297193e-01,1.250290493558798288e-01,-1.597022979542768728e-01
1.229999999999999982e-01,2.591594503138540118e-01,-1.094865551953251720e-01,-7.794431749122002206e-02
1.239999999999999991e-01,8.511850473101620351e-02,-2.111538054909280759e-01,9.875543337350208006e-02
1.250000000000000000e-01,-2.147360502071151978e-01,-4.232261604237858021e-02,1.395283762104310432e-01
1.260000000000000009e-01,-2.407000000917584592e-01,1.794303164715960464e-01,-1.196619056110930987e-02
1.270000000000000018e-01,4.449690226026816603e-02,1.718045383139077398e-01,-1.435693704719884223e-01
1.280000000000000027e-01,2.590008562659852354e-01,-2.922893115359995186e-02,-1.008279888903093058e-01
1.290000000000000036e-01,1.615291626571883910e-01,-2.379162602618465350e-01,7.973083553721505012e-02
1.300000000000000044e-01,-1.586458462391829860e-01,-9.719441308609420849e-02,1.576423563992752630e-01
1.310000000000000053e-01,-2.639939894473823934e-01,1.538160984260122655e-01,5.162015137640042772e-02
1.320000000000000062e-01,-3.001684942019420752e-02,1.824217050257778971e-01,-1.116548364843917701e-01
1.330000000000000071e-01,2.190373652830931162e-01,1.437142628959963385e-02,-1.338414803875500325e-01
1.340000000000000080e-01,2.125230276006120078e-01,-2.109653849401240677e-01,2.754553698432264316e-02
1.350000000000000089e-01,-7.130483437107107414e-02,-1.435548782762534337e-01,1.371841844646128072e-01
1.360000000000000098e-01,-2.452373174672718981e-01,8.540354563329713433e-02,1.123413120194950154e-01
1.370000000000000107e-01,-1.058042764866785890e-01,2.064686560627701506e-01,-1.245157746377623387e-01
1.380000000000000115e-01,1.822201362239718458e-01,6.025305044803529880e-02,-1.368473061818223369e-01
1.390000000000000124e-01,2.432409911455215845e-01,-1.923007037343511250e-01,-2.843112133076566156e-02
1.400000000000000133e-01,-2.373853892236573674e-03,-1.853067522917144494e-01,1.453926610546829590e-01
1.409999999999999865e-01,-2.625317221779671084e-01,7.057569245766161237e-02,1.413160560814778199e-01
1.419999999999999873e-01,-1.913923662529325720e-01,2.148691442497658866e-01,-4.541440336121734672e-02
1.429999999999999882e-01,1.319081328323318814e-01,1.029406455789768637e-01,-1.478952218890762504e-01
1.439999999999999891e-01,2.673959758022868560e-01,-1.358384799497246442e-01,-7.261296856300836211e-02
1.449999999999999900e-01,6.239531897364573171e-02,-2.038289481537162995e-01,1.067155564664881984e-01
1.459999999999999909e-01,-2.086460369212569110e-01,7.831469161362692930e-03,1.571666637662437194e-01
1.469999999999999918e-01,-2.117063363289470868e-01,1.996154642547481872e-01,3.633615205046605845e-02
1.479999999999999927e-01,5.463722347740944396e-02,1.208293095669279726e-01,-1.284908782905623270e-01
1.489999999999999936e-01,2.807464234505065992e-01,-1.084354059649956376e-01,-1.047976315058467556e-01
1.499999999999999944e-01,1.355558603246678484e-01,-2.140693825795939309e-01,3.816919278104379670e-02
1.509999999999999953e-01,-1.350434427064977905e-01,-2.271042489658711694e-02,1.650863813036660965e-01
1.519999999999999962e-01,-2.595693525427659742e-01,2.167322507168467915e-01,7.132567073809270575e-02
1.529999999999999971e-01,-2.279000013296982041e-02,1.593959053917995972e-01,-1.224325941241418275e-01
1.539999999999999980e-01,2.643515126219234124e-01,-6.528122193392049688e-02,-1.686430121894369194e-01
1.549999999999999989e-01,2.134467502433742281e-01,-2.161904529868474700e-01,-1.846109241942081938e-02
1.559999999999999998e-01,-9.617454007642677050e-02,-8.192963202061744055e-02,1.547598478126822885e-01
1.570000000000000007e-01,-2.611473302876068381e-01,1.676665313004820357e-01,1.066054329050089428e-01
1.580000000000000016e-01,-9.027515898745858136e-02,1.970075166201377403e-01,-5.311311704279944590e-02
1.590000000000000024e-01,2.100487028182334015e-01,-1.105154833761592958e-02,-1.572304995636601144e-01
1.600000000000000033e-01,2.349444203977415768e-01,-1.966541967460953000e-01,-4.212072829154701881e-02
1.610000000000000042e-01,-2.869722823126964403e-02,-1.375233517156737029e-01,1.078668862896659392e-01
1.620000000000000051e-01,-2.572018103308403303e-01,1.152442950000158728e-01,1.384341299064930086e-01
1.630000000000000060e-01,-1.593838708993301490e-01,2.131467056010121763e-01,3.522283094972630205e-03
1.640000000000000069e-01,1.318626253405165427e-01,4.810116699454646677e-02,-1.293141589597507080e-01
1.650000000000000078e-01,2.664779732937114232e-01,-1.770453555674338098e-01,-9.750314662366464658e-02
1.660000000000000087e-01,6.901853743059337132e-02,-1.563459030096938096e-01,6.794265267733143321e-02
1.670000000000000095e-01,-2.115869170840691260e-01,7.920318124342647093e-02,1.580842851842800822e-01
1.680000000000000104e-01,-2.281685827327918914e-01,2.072616163001402556e-01,4.601660371627020601e-02
1.690000000000000113e-01,7.812015853806644761e-02,6.324004436818965458e-02,-1.190186934325496299e-01
1.700000000000000122e-01,2.521783345218693850e-01,-1.565452397475066704e-01,-1.248406443578437275e-01
1.710000000000000131e-01,1.270087405256916935e-01,-2.012686977311799463e-01,9.312078972590049838e-03
1.719999999999999862e-01,-1.956002219564855760e-01,2.677317717163199898e-02,1.601417573249907800e-01
1.729999999999999871e-01,-2.484005810997975960e-01,2.239224669815012836e-01,9.842029810807736978e-02
1.739999999999999880e-01,-2.760884180761280851e-03,1.314061489131148064e-01,-7.231489153731858466e-02
1.749999999999999889e-01,2.487893524702035897e-01,-1.088613760241499556e-01,-1.422156887935520919e-01
1.759999999999999898e-01,1.783266128159351482e-01,-2.062149751353693217e-01,-5.236709810987008606e-02
1.769999999999999907e-01,-1.048139617077289282e-01,-1.415601389522614696e-02,1.208896287868305303e-01
1.779999999999999916e-01,-2.589469334254294597e-01,1.750034671651073959e-01,1.351507852603849591e-01
1.789999999999999925e-01,-9.576580837909895449e-02,1.620266528301031184e-01,-1.465046771139140273e-02
1.799999999999999933e-01,1.957573886354841974e-01,-8.344246906314435608e-02,-1.500092207477094208e-01
1.809999999999999942e-01,2.235922907252419489e-01,-2.032395129378187504e-01,-9.440755298913754145e-02
1.819999999999999951e-01,-4.068697991560973198e-02,-5.736046352308648427e-02,7.363302781489401705e-02
1.829999999999999960e-01,-2.502886959488456742e-01,1.673676011997650148e-01,1.568541198717262330e-01
1.839999999999999969e-01,-1.364425490038357336e-01,1.855150994284439081e-01,5.634399547970776051e-02
1.849999999999999978e-01,1.426760914481630671e-01,-2.927686388770173176e-02,-1.398590382919219777e-01
1.859999999999999987e-01,2.438557885837463746e-01,-2.021230881678325875e-01,-1.163628444159363062e-01
1.869999999999999996e-01,4.204802429736482355e-02,-1.079590527521336329e-01,4.406988294182805077e-02
1.880000000000000004e-01,-2.225475803970177191e-01,1.309546811714183967e-01,1.628980166019788345e-01
1.890000000000000013e-01,-2.209933236735386886e-01,2.074965058004994145e-01,7.807332049875846669e-02
1.900000000000000022e-01,6.734499593544124307e-02,2.009242742254347021e-03,-1.043206994183114578e-01
1.910000000000000031e-01,2.843004597058487182e-01,-1.926773483881961679e-01,-1.524722982990279196e-01
1.920000000000000040e-01,9.568948849888093966e-02,-1.438160099743835962e-01,1.036095751913251872e-02
1.930000000000000049e-01,-1.972162547310485070e-01,1.120708527982620245e-01,1.464590323701004948e-01
1.940000000000000058e-01,-2.568298425212530156e-01,2.176571128770585783e-01,1.354454429905801727e-01
1.950000000000000067e-01,-1.608398344873050376e-02,6.479847694594115248e-02,-4.695051405973530573e-02
1.960000000000000075e-01,2.560365637396183058e-01,-1.723843925656166620e-01,-1.471545940963360777e-01
1.970000000000000084e-01,1.840160067341136407e-01,-1.922463896028826502e-01,-9.666374815049395830e-02
1.980000000000000093e-01,-1.173866008257617999e-01,3.852613162129527036e-02,1.073861576512824823e-01
1.990000000000000102e-01,-2.558632416624677108e-01,2.150306942178143998e-01,1.675084631096729337e-01
2.000000000000000111e-01,-8.763764118479294707e-02,1.250737366313321441e-01,1.064439410711654106e-02
2.010000000000000120e-01,2.344098469806146501e-01,-1.362099880453986334e-01,-1.544730206669252537e-01
2.020000000000000129e-01,2.136637359049465557e-01,-1.977395051336452714e-01,-1.091338221210341741e-01
2.030000000000000138e-01,-4.914113892670227829e-02,-1.341919775460733398e-02,5.635067509411691850e-02
2.039999999999999869e-01,-2.535773846291313194e-01,2.252997798857471756e-01,1.616844421623387651e-01
2.049999999999999878e-01,-1.351533378237835259e-01,1.379704556840233298e-01,5.809527790687797622e-02
2.059999999999999887e-01,1.567108508203974848e-01,-8.259024419488600333e-02,-1.405668811791207506e-01
2.069999999999999896e-01,2.593539231389110356e-01,-2.248522599887452789e-01,-1.584504476734582834e-01
2.079999999999999905e-01,2.538154315373999936e-02,-3.963338944955099863e-02,-2.313882623468935251e-02
2.089999999999999913e-01,-2.351125732375302091e-01,1.630061669751723397e-01,1.384164069327510904e-01
2.099999999999999922e-01,-1.937998327910532004e-01,1.904470780242781824e-01,1.156212461615442610e-01
2.109999999999999931e-01,9.506164521530571787e-02,-4.982243296927642978e-02,-6.372432312992015735e-02
2.119999999999999940e-01,2.666694383242279032e-01,-2.118148641585091141e-01,-1.529847692821172667e-01
2.129999999999999949e-01,1.136798523811725359e-01,-1.010508889295283763e-01,-3.308580113790310362e-02
2.139999999999999958e-01,-1.705675191210515584e-01,1.475213810190214303e-01,1.160271123265393944e-01
2.149999999999999967e-01,-2.144803453791876702e-01,1.870105055555684181e-01,1.467103874304546141e-01
2.159999999999999976e-01,9.712034316224449002e-03,6.951266581443033693e-03,-1.996715117879642107e-02
2.169999999999999984e-01,2.720640477355703024e-01,-2.018350474188031485e-01,-1.538655557579331201e-01
2.179999999999999993e-01,1.892692430490863775e-01,-1.448949944774113874e-01,-8.861307199152528014e-02
2.190000000000000002e-01,-1.250943129073878723e-01,1.062189541276537391e-01,8.325030357400579895e-02
2.200000000000000011e-01,-2.681253331746746849e-01,2.203932309356674557e-01,1.475949908230333729e-01
2.210000000000000020e-01,-7.030924592412816920e-02,6.558918914501743469e-02,3.941967869235323690e-02
2.220000000000000029e-01,2.125255727796909466e-01,-1.965598688075564093e-01,-1.521828066847369099e-01
2.230000000000000038e-01,2.309059798631387661e-01,-1.755607647122834070e-01,-1.367557589019032793e-01
2.240000000000000047e-01,-5.179446677005936778e-02,5.812618820588928703e-02,1.587268737314002920e-02
2.250000000000000056e-01,-2.659757044078220889e-01,2.056381950539245829e-01,1.641038674496629324e-01
2.260000000000000064e-01,-1.257491874028597578e-01,9.878067808596405208e-02,1.068981839480691864e-01
2.270000000000000073e-01,1.743783162310423851e-01,-1.381653360234111616e-01,-8.613656714710288265e-02
2.280000000000000082e-01,2.384434709905480509e-01,-2.176232147934694383e-01,-1.460897197461222263e-01
2.290000000000000091e-01,1.053411163157408348e-02,5.899216227359789511e-03,-2.170340094172944559e-02
2.300000000000000100e-01,-2.582833471328869201e-01,2.045228383975470354e-01,1.187477894383035804e-01
2.310000000000000109e-01,-2.023476737505801870e-01,1.507064561470303210e-01,1.557718868815135271e-01
2.320000000000000118e-01,9.723209149568069753e-02,-9.485124583783412222e-02,-1.984923465478214549e-02
2.330000000000000127e-01,2.465757140707321993e-01,-2.147734891534181234e-01,-1.394328207531836950e-01
2.340000000000000135e-01,8.002850707872412317e-02,-3.776789014151587381e-02,-6.740822586571010300e-02
2.349999999999999867e-01,-2.094998990305715902e-01,1.783719543052110501e-01,1.028980888614548922e-01
2.359999999999999876e-01,-2.489408692802288769e-01,1.714624205734010254e-01,1.681505153523561169e-01
2.369999999999999885e-01,1.966571957176242204e-03,-7.177079359609249420e-02,2.059130505077910386e-02
2.379999999999999893e-01,2.413321657579843849e-01,-2.222352578242457466e-01,-1.316378487978106249e-01
2.389999999999999902e-01,1.801774567151768758e-01,-8.939789918451312989e-02,-1.184305734183149772e-01
2.399999999999999911e-01,-1.061185173783570218e-01,1.385521130624264297e-01,5.750117617455871577e-02
2.409999999999999920e-01,-2.719634485957039827e-01,1.882458034130308488e-01,1.528573198583713932e-01
2.419999999999999929e-01,-8.064234347450248419e-02,-1.384027258238404098e-02,8.049863318253797084e-02
2.429999999999999938e-01,2.146671554579129559e-01,-2.139857134548446838e-01,-1.116059757064457453e-01
2.439999999999999947e-01,1.905567703970002802e-01,-1.217358043930773653e-01,-1.559690725058172078e-01
2.449999999999999956e-01,-6.450258498214196667e-02,1.192246258133538711e-01,-2.878233778807570958e-03
2.459999999999999964e-01,-2.597366710473084095e-01,1.992066050796237331e-01,1.372637265757642167e-01
2.469999999999999973e-01,-1.315999954493706214e-01,6.008652006087188829e-02,1.149737286744219600e-01
2.479999999999999982e-01,1.622856929247831481e-01,-1.751891706774877933e-01,-6.165285936326145994e-02
2.489999999999999991e-01,2.207473627266282601e-01,-1.685588310727609007e-01,-1.635718924330561708e-01
2.500000000000000000e-01,1.387676360935852227e-02,5.012619083349507260e-02,-7.510493310189397809e-02
2.510000000000000009e-01,-2.433480231870171762e-01,2.169325487343288228e-01,1.061356250487771602e-01
2.520000000000000018e-01,-1.781517890272959204e-01,7.295301994506526999e-02,1.547031871651863566e-01
2.530000000000000027e-01,1.191079429118256372e-01,-1.501567757958372773e-01,-9.397788876463477117e-03
2.540000000000000036e-01,2.656823902787281422e-01,-1.878162465683438920e-01,-1.331544395570970485e-01
2.550000000000000044e-01,9.449297618470617333e-02,7.878894649041512377e-03,-1.112304867377983814e-01
2.560000000000000053e-01,-2.029450270167110493e-01,2.216185766328080120e-01,6.960057113908529880e-02
2.570000000000000062e-01,-2.617325305811522562e-01,1.292751718603174782e-01,1.611135279746970239e-01
2.580000000000000071e-01,5.326776863071504969e-02,-1.016025013466501925e-01,7.247985679876059462e-02
2.590000000000000080e-01,2.440284710726391415e-01,-2.040418958898461699e-01,-1.330716793640393247e-01
2.600000000000000089e-01,1.470164994804848690e-01,-1.703736108068770738e-02,-1.599954302100756454e-01
2.610000000000000098e-01,-1.606005026889290588e-01,1.795032398235412441e-01,3.771962826853268030e-02
2.620000000000000107e-01,-2.386047816600022353e-01,1.631372331786843100e-01,1.625198827770504284e-01
2.630000000000000115e-01,-4.511161581565219930e-02,-8.094349843845585757e-02,9.467636367765132344e-02
2.640000000000000124e-01,2.261122321825989323e-01,-2.096782080464858200e-01,-7.662522490139450637e-02
2.650000000000000133e-01,1.794955802488693297e-01,-7.801190329474701202e-02,-1.669293413674225179e-01
2.660000000000000142e-01,-8.975885196111908770e-02,1.514239396056191733e-01,-5.628568410238323633e-02
2.670000000000000151e-01,-2.566954194134699607e-01,1.707639267764994029e-01,1.386252075278370521e-01
2.680000000000000160e-01,-1.154073417789736322e-01,-2.215453503650328254e-02,1.213995099077340156e-01
2.690000000000000169e-01,1.806937556679199530e-01,-1.984804609594391922e-01,-1.120181362640120491e-02
2.700000000000000178e-01,2.523388112275845585e-01,-1.191674345181333583e-01,-1.571025661390357819e-01
2.710000000000000187e-01,1.063475830254118635e-03,1.085767896395924831e-01,-1.154860930706042982e-01
2.720000000000000195e-01,-2.493245095014469115e-01,2.043464076136761176e-01,1.002225666893852701e-01
2.730000000000000204e-01,-1.790925106057459915e-01,4.336852502323552093e-03,1.647003603803471328e-01
2.740000000000000213e-01,1.100578772068506322e-01,-1.896066523760403799e-01,4.145683345870727204e-02
2.750000000000000222e-01,2.616928201788155106e-01,-1.499216233591906255e-01,-1.288260368852481852e-01
2.760000000000000231e-01,5.585452858194041303e-02,6.920848139176520586e-02,-1.081919153719570897e-01
2.770000000000000240e-01,-2.184125842689733921e-01,2.055395364642946254e-01,3.495182306924265320e-02
2.780000000000000249e-01,-2.195798544162866073e-01,7.129122279408373064e-02,1.390420376833192695e-01
2.790000000000000258e-01,6.265585592441021145e-02,-1.579936562906178177e-01,9.978367410577171359e-02
2.800000000000000266e-01,2.704640963964420886e-01,-1.875875099001849955e-01,-1.053730923212569115e-01
2.810000000000000275e-01,1.479308612986599825e-01,5.089671703945025660e-02,-1.529521445604080376e-01
2.819999999999999729e-01,-1.592920526867268871e-01,2.151837949079528356e-01,-2.449858176563477971e-02
2.829999999999999738e-01,-2.622300707109873064e-01,9.571084067070859125e-02,1.454227680294689351e-01
2.839999999999999747e-01,-4.833050395388848591e-02,-1.232850943341482486e-01,1.346971603465392242e-01
2.849999999999999756e-01,2.215474762078788462e-01,-2.052832515415195236e-01,-5.530489472508463150e-02
2.859999999999999765e-01,1.993637505797441756e-01,-2.147940440898092954e-02,-1.672346556030001596e-01
2.869999999999999774e-01,-9.293678968783064542e-02,1.860934918634598589e-01,-5.997719556418646542e-02
2.879999999999999782e-01,-2.766094254268458008e-01,1.832678617368613261e-01,1.199379208077523823e-01
2.889999999999999791e-01,-9.906710334720320033e-02,-7.893004459124684791e-02,1.393537037513568055e-01
2.899999999999999800e-01,2.028909528803522488e-01,-2.194237219137949169e-01,1.581436802685078774e-02
2.909999999999999809e-01,2.694053505555346617e-01,-6.482374522640250991e-02,-1.487488095544860500e-01
2.919999999999999818e-01,-1.112380982132180757e-02,1.536960696719246733e-01,-1.008146923217306812e-01
2.929999999999999827e-01,-2.441976525840303114e-01,2.081389142331113162e-01,6.227253077055441149e-02
2.939999999999999836e-01,-1.657661553708163760e-01,-3.433891370632627393e-02,1.635266502577017445e-01
2.949999999999999845e-01,1.296908678773212586e-01,-2.327215651000039409e-01,4.592879772478524608e-02
2.959999999999999853e-01,2.529579491014570802e-01,-1.143960570446243413e-01,-1.221678253115053431e-01
2.969999999999999862e-01,8.005494989828476626e-02,1.226271508774718910e-01,-1.612307040673689462e-01
2.979999999999999871e-01,-2.248543608467904464e-01,1.755080485999588602e-01,2.573723819144477232e-02
2.989999999999999880e-01,-2.237403004242043414e-01,1.434558201039079842e-02,1.595015818330495772e-01
2.999999999999999889e-01,5.877820867412991701e-02,-2.141972093418804401e-01,1.101461048228236095e-01
3.009999999999999898e-01,2.750188530936369946e-01,-1.437072336751500090e-01,-7.945821437584284219e-02
3.019999999999999907e-01,1.252978529045102318e-01,1.001337768558718949e-01,-1.430780278813804929e-01
3.029999999999999916e-01,-1.595401623860265017e-01,2.134406432690983957e-01,-4.564790931992913914e-02
3.039999999999999925e-01,-2.522529661908746723e-01,6.586201055923975034e-02,1.110384437845731292e-01
3.049999999999999933e-01,-4.391355237844399295e-02,-1.582296985771181885e-01,1.378338381825708336e-01
3.059999999999999942e-01,2.617760610791479148e-01,-1.870389716973936411e-01,-3.366681024793546917e-02
3.069999999999999951e-01,1.821617715061973064e-01,3.257208933078008933e-02,-1.526783459401074849e-01
3.079999999999999960e-01,-1.057930407972775683e-01,2.101425229607343514e-01,-8.648767294360684699e-02
3.089999999999999969e-01,-2.831817140087235507e-01,1.072321407746827937e-01,9.648425829280839194e-02
3.099999999999999978e-01,-1.072350887508628919e-01,-1.585270583319981774e-01,1.600546502048777187e-01
3.109999999999999987e-01,1.810945184507545824e-01,-1.986735435603762534e-01,5.465910892475997485e-02
3.119999999999999996e-01,2.536055682092027697e-01,-1.846573780322520800e-02,-1.402747864578580694e-01
3.130000000000000004e-01,-1.492412286735946350e-02,2.237622948282521618e-01,-1.140700161376994870e-01
3.140000000000000013e-01,-2.632244010233089626e-01,1.326625973513705647e-01,1.285019194573136167e-02
3.150000000000000022e-01,-1.652122463778085693e-01,-9.496200909721921879e-02,1.694833539062418071e-01
3.160000000000000031e-01,1.493913244121429229e-01,-2.111479622851941962e-01,9.248617050822161012e-02
3.170000000000000040e-01,2.567916878727295460e-01,-6.017635451019395787e-02,-7.480429116152559343e-02
3.180000000000000049e-01,5.046825745891777432e-02,1.679296183706761314e-01,-1.743974320055056149e-01
3.190000000000000058e-01,-2.493870241346345662e-01,1.898312597534549950e-01,-3.658325313311033833e-02
3.200000000000000067e-01,-2.133758710305916628e-01,-3.870805679023883034e-02,1.476079871236030960e-01
3.210000000000000075e-01,5.656791531303824450e-02,-2.167910852009635736e-01,1.343435701817107808e-01
3.220000000000000084e-01,2.588272214180486475e-01,-7.772632648491149820e-02,-3.172135096850645097e-02
3.230000000000000093e-01,1.058745109415178964e-01,1.452376247900806772e-01,-1.603640779287500151e-01
3.240000000000000102e-01,-1.481489306434375930e-01,2.148535761499940078e-01,-8.738253356050416920e-02
3.250000000000000111e-01,-2.587164028776596791e-01,-4.779742113101930617e-03,1.094873413728241068e-01
3.260000000000000120e-01,-9.406152756264837735e-04,-1.817194612376865082e-01,1.643893186204317403e-01
3.270000000000000129e-01,2.467571502526615668e-01,-1.200638531310724150e-01,3.345008453538324093e-03
3.280000000000000138e-01,1.909886160711703751e-01,1.067701724492108178e-01,-1.399376201331990477e-01
3.290000000000000147e-01,-1.088217046036459718e-01,2.136657847240130415e-01,-1.307737787558069520e-01
3.300000000000000155e-01,-2.743067952831103606e-01,4.939061926064211572e-02,3.902138152274540334e-02
3.310000000000000164e-01,-8.055728978910162152e-02,-1.842338665231035566e-01,1.450394714267895235e-01
3.320000000000000173e-01,1.986012139815309663e-01,-1.643484134954319442e-01,4.920222162502264213e-02
3.330000000000000182e-01,2.264578489403094308e-01,7.217153629123744529e-02,-9.468445723166916961e-02
3.340000000000000191e-01,-3.850532976986720951e-02,2.273952716771099336e-01,-1.691938426379718530e-01
3.350000000000000200e-01,-2.667086664385640571e-01,9.937437131987775230e-02,-8.178587295280150340e-03
3.360000000000000209e-01,-1.520283086218317259e-01,-1.502542841115075412e-01,1.562527090518224804e-01
3.370000000000000218e-01,1.350988772736662347e-01,-2.195158768951175621e-01,1.279094821728785081e-01
3.380000000000000226e-01,2.616870539482433755e-01,1.249686841056145241e-02,-5.493954084141575850e-02
3.390000000000000235e-01,4.135640308693993433e-02,2.063150222953201718e-01,-1.678666886336382946e-01
3.400000000000000244e-01,-2.273880964744705580e-01,1.411826931371426008e-01,-6.737064824141787700e-02
3.410000000000000253e-01,-1.956346874631164079e-01,-1.051280551658140550e-01,1.223490299669315468e-01
3.420000000000000262e-01,7.467419665209346080e-02,-2.387917460772698841e-01,1.506071482383558591e-01
3.430000000000000271e-01,2.612178614885817263e-01,-3.342155874520701120e-02,-8.147369867377458061e-04
3.439999999999999725e-01,9.868726507862386754e-02,1.900783963354936990e-01,-1.468135844395150325e-01
3.449999999999999734e-01,-1.832506236356030715e-01,1.547193813310250299e-01,-9.449717432813134477e-02
3.459999999999999742e-01,-2.498520240161904993e-01,-7.868034178271686441e-02,6.742351428635579014e-02
3.469999999999999751e-01,1.859220818410669759e-02,-1.978627095493635246e-01,1.656383084016390672e-01
3.479999999999999760e-01,2.440015077945820177e-01,-1.047189495939907788e-01,5.918035262383743167e-02
3.489999999999999769e-01,1.805053091974818946e-01,1.516909939957720999e-01,-1.185924734907837508e-01
3.499999999999999778e-01,-1.065666658546740864e-01,2.089722904302656614e-01,-1.386609961058609397e-01
3.509999999999999787e-01,-2.829400059551741564e-01,-6.124314955563598360e-03,1.490894313202803523e-02
3.519999999999999796e-01,-6.973934210590777838e-02,-2.057861656215163870e-01,1.552016039567048755e-01
3.529999999999999805e-01,2.134920355408884696e-01,-1.278211724643836811e-01,1.007446314102652951e-01
3.539999999999999813e-01,2.547474986637090488e-01,1.341035235210432386e-01,-7.930816541014969190e-02
3.549999999999999822e-01,-1.850895038518833233e-02,2.155228824710532787e-01,-1.682799884557200920e-01
3.559999999999999831e-01,-2.468289288197419440e-01,4.435353510590891307e-02,-2.930895430385869679e-02
3.569999999999999840e-01,-1.534922555083434725e-01,-1.802545645131887753e-01,1.260089745888101909e-01
3.579999999999999849e-01,1.512256723194637942e-01,-1.714486603598817382e-01,1.406915079029191218e-01
3.589999999999999858e-01,2.389252707207570325e-01,8.790083612589380535e-02,-1.465389309626558868e-02
3.599999999999999867e-01,5.058129079702711195e-02,2.194798491994312539e-01,-1.567934876902814245e-01
3.609999999999999876e-01,-2.374831067249305316e-01,9.185698733101531344e-02,-9.120199330546420458e-02
3.619999999999999885e-01,-2.017719031267962149e-01,-1.642000754094587733e-01,8.535494565523681076e-02
3.629999999999999893e-01,8.443312343532821673e-02,-1.888574616108129045e-01,1.575354872885607049e-01
3.639999999999999902e-01,2.724338196565661563e-01,1.821067542408856977e-03,2.828518330829598096e-02
3.649999999999999911e-01,1.091826320301538394e-01,2.149301906263366146e-01,-1.454398203911666243e-01
3.659999999999999920e-01,-1.867844449163681420e-01,1.435019445186119791e-01,-1.283366349777160798e-01
3.669999999999999929e-01,-2.439512918412466980e-01,-1.226766638044614194e-01,3.730579093342064473e-02
3.679999999999999938e-01,8.347102895560076091e-03,-2.114686925806786577e-01,1.524350849321139401e-01
3.689999999999999947e-01,2.663792768018911628e-01,-4.060374170877401913e-03,9.208312635576768046e-02
3.699999999999999956e-01,1.598852807613962146e-01,1.947984523546041069e-01,-1.147206200719031594e-01
3.709999999999999964e-01,-1.350668590018916926e-01,1.645080852155917650e-01,-1.598075399310409372e-01
3.719999999999999973e-01,-2.658101424899166343e-01,-8.180718649276411125e-02,-2.245688602743590653e-02
3.729999999999999982e-01,-5.958378783419338021e-02,-1.949007844879462048e-01,1.337288039455968580e-01
3.739999999999999991e-01,2.440566777963824319e-01,-5.250267758222190023e-02,1.226208141615612451e-01
3.750000000000000000e-01,2.292637716983119411e-01,1.691919298648575654e-01,-4.107179001635440779e-02
3.760000000000000009e-01,-6.588091847978200244e-02,1.801749434214300616e-01,-1.595807071537675148e-01
3.770000000000000018e-01,-2.688754238690780896e-01,-3.262915035142617548e-02,-8.603380963697773720e-02
3.780000000000000027e-01,-1.272220184988108460e-01,-1.963843433042390119e-01,9.537229889737745825e-02
3.790000000000000036e-01,1.571809760209018914e-01,-1.164815264851455784e-01,1.424457642498191678e-01
3.800000000000000044e-01,2.511785772327631006e-01,1.251291842028561807e-01,9.418658507574922956e-04
3.810000000000000053e-01,9.974185387120963753e-03,1.918166840655975425e-01,-1.473909728751160442e-01
3.820000000000000062e-01,-2.530360401072576093e-01,4.468805099063033123e-03,-1.046694821407071208e-01
3.830000000000000071e-01,-1.800069469244957865e-01,-1.910186929943285539e-01,5.797067291275965345e-02
3.840000000000000080e-01,8.290686029366033105e-02,-1.433626732414089444e-01,1.535106832520438669e-01
3.850000000000000089e-01,2.649768361989867649e-01,8.231693179382837400e-02,7.446515525549007863e-02
3.860000000000000098e-01,9.888829128046841555e-02,2.107521791738437289e-01,-1.140082899727338922e-01
3.870000000000000107e-01,-2.103771889608117562e-01,6.806662297703501563e-02,-1.553544773094412967e-01
3.880000000000000115e-01,-2.377657310965873294e-01,-1.527343428234693157e-01,-1.531556507031284556e-02
3.890000000000000124e-01,4.149230325272165731e-02,-1.783351599453099623e-01,1.619288139392081050e-01
3.900000000000000133e-01,2.608553327753910245e-01,3.905714487097881882e-02,1.081557982590578282e-01
3.910000000000000142e-01,1.719128383128613324e-01,2.173506558768021901e-01,-5.617215908691639698e-02
3.920000000000000151e-01,-1.395827363173005875e-01,1.032471246599911130e-01,-1.751661229311194945e-01
3.930000000000000160e-01,-2.547121839888056849e-01,-1.352354266049661802e-01,-4.690297059151973813e-02
3.940000000000000169e-01,-7.145270385426066850e-02,-1.941412046021209203e-01,1.446512487140709791e-01
3.950000000000000178e-01,2.369568837193212485e-01,-1.829466113140026939e-02,1.456015204260956986e-01
3.960000000000000187e-01,2.237039274826490010e-01,2.187004996902658926e-01,-1.724057514134799338e-02
3.970000000000000195e-01,-8.116896476150151085e-02,1.330160795346754521e-01,-1.533172598589219449e-01
3.980000000000000204e-01,-2.740413361141318949e-01,-1.104295323616061308e-01,-1.028702699504302903e-01
3.990000000000000213e-01,-1.317592031730442925e-01,-1.930129975357104399e-01,7.232001891061778931e-02
4.000000000000000222e-01,1.661072393983946682e-01,-5.716620976019361894e-02,1.568666766831880166e-01
4.010000000000000231e-01,2.662725538934930802e-01,1.887648295763604267e-01,4.729339243580892027e-02
4.020000000000000240e-01,-4.279217840848711929e-03,1.899557025207288530e-01,-1.157828241918533035e-01
4.030000000000000249e-01,-2.390174424628709882e-01,-5.559410982919830990e-02,-1.465534566705614938e-01
4.040000000000000258e-01,-1.789346241658337500e-01,-1.934029444320347346e-01,2.818186691062272639e-02
4.050000000000000266e-01,1.262230121226342316e-01,-1.015285751836360745e-01,1.594775203079706605e-01
4.060000000000000275e-01,2.923412087790199232e-01,1.568573237276595367e-01,8.024067896098482922e-02
4.069999999999999729e-01,8.011644957680773282e-02,1.987800138900367164e-01,-8.573161640822678231e-02
4.079999999999999738e-01,-2.114149678656247200e-01,-3.331908767059352846e-03,-1.634070050110646988e-01
4.089999999999999747e-01,-2.416248784829435892e-01,-2.163505901901286443e-01,-2.764545145524980804e-02
4.099999999999999756e-01,3.344293630394268302e-02,-1.277492562381035146e-01,1.278234512075184237e-01
4.109999999999999765e-01,2.539685251866933280e-01,1.059358611550902246e-01,1.279759612135599744e-01
4.119999999999999774e-01,1.434862968465428767e-01,1.970618380341219444e-01,-6.502018498888216536e-02
4.129999999999999782e-01,-1.521308485625516849e-01,2.361116858100087770e-02,-1.686949504729743365e-01
4.139999999999999791e-01,-2.589953311789403023e-01,-1.538803156759225577e-01,-8.478159533911536205e-02
4.149999999999999800e-01,-4.071043808993368707e-02,-1.645353954833780052e-01,1.118867936860576673e-01
4.159999999999999809e-01,2.296354827602561655e-01,5.169946794227859438e-02,1.703917778205231714e-01
4.169999999999999818e-01,2.208122039300562112e-01,2.214867867126902590e-01,1.376188715526776435e-02
4.179999999999999827e-01,-7.917946683551746467e-02,9.791819398787397766e-02,-1.461513188929232099e-01
4.189999999999999836e-01,-2.724565040284289141e-01,-1.496745047947373453e-01,-1.319287151568989402e-01
4.199999999999999845e-01,-1.117006716374574909e-01,-1.986374235719764458e-01,3.698856331198852737e-02
4.209999999999999853e-01,1.870695995518827925e-01,-1.259512573071796399e-02,1.678228384735745149e-01
4.219999999999999862e-01,2.443322196674517777e-01,2.162851524151394034e-01,8.420578285416854825e-02
4.229999999999999871e-01,-6.379288563318259546e-03,1.381152603057919648e-01,-1.311964416995558547e-01
4.239999999999999880e-01,-2.383321789993514406e-01,-1.090427791433847549e-01,-1.453057899308421441e-01
4.249999999999999889e-01,-1.844338347427205149e-01,-2.207194154790015350e-01,1.699827670040016114e-02
4.259999999999999898e-01,1.188299648671317515e-01,-6.256609253449796348e-02,1.580904183805893759e-01
4.269999999999999907e-01,2.849784716863487111e-01,1.874734930466454008e-01,1.121141804567396399e-01
4.279999999999999916e-01,7.845961995383711474e-02,1.546614781130273286e-01,-5.532838271109922351e-02
4.289999999999999925e-01,-2.337879170925454275e-01,-7.146526289150800793e-02,-1.650090700533316246e-01
4.299999999999999933e-01,-2.262073909689703843e-01,-2.095626710849074481e-01,-6.375638215913764784e-02
4.309999999999999942e-01,2.619775661846820286e-02,-9.590054816768567303e-02,1.103308659853848989e-01
4.319999999999999951e-01,2.786452206059951697e-01,1.702222593768158709e-01,1.379286892928497654e-01
4.329999999999999960e-01,1.442446113124515872e-01,1.995715096050350024e-01,-6.461525294477830222e-03
4.339999999999999969e-01,-1.496588929129603340e-01,-2.650793548347957565e-03,-1.398190889865701947e-01
4.349999999999999978e-01,-2.617298563196813199e-01,-1.890649707258314771e-01,-1.041268020307405950e-01
4.359999999999999987e-01,-6.441718128916063511e-03,-1.360357034096722484e-01,5.170659524401536450e-02
4.369999999999999996e-01,2.387328998551700443e-01,1.075187079680123975e-01,1.515353615662180797e-01
4.380000000000000004e-01,2.219997387505670550e-01,2.002702778009817774e-01,4.793815494349788764e-02
4.390000000000000013e-01,-1.008597329784684110e-01,4.308708665927608872e-02,-1.186944062721738136e-01
4.400000000000000022e-01,-2.749619808515554320e-01,-1.816801149099732671e-01,-1.347734995850232431e-01
4.410000000000000031e-01,-1.078663222844125635e-01,-1.603019429829403153e-01,1.223578896109543158e-02
4.420000000000000040e-01,2.042831715725378361e-01,6.942996788993799351e-02,1.338838892384075774e-01
4.430000000000000049e-01,2.357040211674425456e-01,2.229794431387695786e-01,8.791853728380374933e-02
4.440000000000000058e-01,-2.739506829428858120e-02,7.243166856315935709e-02,-7.627909084397577200e-02
4.450000000000000067e-01,-2.266644193401048946e-01,-1.488418409628453898e-01,-1.588256296880410090e-01
4.460000000000000075e-01,-1.651907823807129694e-01,-1.895793886364645631e-01,-9.249142046304920095e-03
4.470000000000000084e-01,1.395883143473075350e-01,2.746416340279829449e-02,1.352040713312362141e-01
4.480000000000000093e-01,2.688347008010077421e-01,2.168138198343723122e-01,1.234247457513795443e-01
4.490000000000000102e-01,7.175622174635988559e-02,1.300887485893187645e-01,-3.488394809589002304e-02
4.500000000000000111e-01,-2.170031594367264061e-01,-1.148946933426756023e-01,-1.481664953696307241e-01
4.510000000000000120e-01,-2.125221487289422895e-01,-1.981394592627958862e-01,-8.751788353421816047e-02
4.520000000000000129e-01,7.835310885093896283e-02,-3.939393061951414893e-02,6.323342541407363238e-02
4.530000000000000138e-01,2.446562274761926448e-01,1.749063720436357938e-01,1.673389298946627579e-01
4.540000000000000147e-01,1.433919743662835922e-01,1.596053884297703451e-01,3.624621470557128772e-02
4.550000000000000155e-01,-1.656011821460987854e-01,-7.498700863081693424e-02,-1.549128062665053041e-01
4.560000000000000164e-01,-2.517911343714200889e-01,-2.066554883949304755e-01,-1.283307079663119077e-01
4.570000000000000173e-01,-3.138167008932288282e-02,-7.903723316903048246e-02,4.490010879480063610e-02
4.580000000000000182e-01,2.295066311575956752e-01,1.668423868661806642e-01,1.419805764529428471e-01
4.590000000000000191e-01,1.800543656806149473e-01,1.908366884554517362e-01,7.362045272552025788e-02
4.600000000000000200e-01,-1.031527959211102075e-01,-9.973481374042436967e-03,-9.628241192383797664e-02
4.610000000000000209e-01,-2.796179202630737493e-01,-2.108428932080544937e-01,-1.459357982132972464e-01
4.620000000000000218e-01,-8.709369212246224901e-02,-1.086133697544148097e-01,-2.821102435049043650e-02
4.630000000000000226e-01,1.969626895942937217e-01,1.266788001534906172e-01,1.502168461066993865e-01
4.640000000000000235e-01,2.591584914275920082e-01,2.123906334318587941e-01,1.232969907428094342e-01
4.650000000000000244e-01,-2.237485050296681224e-02,1.203389940932392960e-02,-6.146151154191589056e-02
4.660000000000000253e-01,-2.639571200019734665e-01,-1.962703170026591781e-01,-1.674296732327630599e-01
4.670000000000000262e-01,-1.401376483733406952e-01,-1.385543765555522500e-01,-6.846412538061467934e-02
4.680000000000000271e-01,1.338773129838822240e-01,6.457700402500733683e-02,1.129826699899654369e-01
4.689999999999999725e-01,2.790150525387868341e-01,2.081758287565247945e-01,1.559666795585921417e-01
4.699999999999999734e-01,1.811519847791391927e-02,6.295665375023896948e-02,1.135215975145701696e-02
4.709999999999999742e-01,-2.371602110536941699e-01,-1.554980493303299016e-01,-1.286988827966392412e-01
4.719999999999999751e-01,-2.147500118871889518e-01,-1.815099129800928357e-01,-8.976824171318166512e-02
4.729999999999999760e-01,6.807398038385299721e-02,3.307400984916061132e-02,7.551954101234824301e-02
4.739999999999999769e-01,2.722919306906467773e-01,2.088197477294099769e-01,1.693324243181166811e-01
4.749999999999999778e-01,1.209630258378936452e-01,1.067183319640390843e-01,6.105436803899757375e-02
4.759999999999999787e-01,-1.678976188128853964e-01,-1.301098007268234602e-01,-1.390993787504214430e-01
4.769999999999999796e-01,-2.456077875350268502e-01,-2.027791436795997881e-01,-1.339798353811709475e-01
4.779999999999999805e-01,-1.595451594365490666e-02,-1.761435029451723436e-02,-1.574610963379286660e-02
4.789999999999999813e-01,2.339193046337245396e-01,1.786039146259243982e-01,1.495534907190365081e-01
4.799999999999999822e-01,1.826091052145535076e-01,1.385769479636743684e-01,1.115299990492634591e-01
4.809999999999999831e-01,-1.019758702188560961e-01,-1.037093897221506994e-01,-7.346189868643349108e-02
4.819999999999999840e-01,-2.727901985986775357e-01,-2.099044585276010066e-01,-1.590485777520315169e-01
4.829999999999999849e-01,-1.013474768329685610e-01,-8.900712943021579782e-02,-5.716591932956074928e-02
4.839999999999999858e-01,2.166878720830380245e-01,1.559069253191102122e-01,1.306694376736007579e-01
4.849999999999999867e-01,2.470486329599081710e-01,1.748731250923080405e-01,1.309619727506025622e-01
4.859999999999999876e-01,-3.911478714160115944e-02,-2.436815135707754224e-02,-1.352274481753554941e-02
4.869999999999999885e-01,-2.775139408552764198e-01,-1.920417387648290786e-01,-1.684197418603693430e-01
4.879999999999999893e-01,-1.595922699560971825e-01,-1.062435059361507006e-01,-9.844534037559694861e-02
4.889999999999999902e-01,1.520993092799504398e-01,1.305177069135077250e-01,8.697600326266323456e-02
4.899999999999999911e-01,2.621797159507131547e-01,2.058918333451982552e-01,1.829054970189424589e-01
4.909999999999999920e-01,4.656465884310679454e-02,8.569659813472962906e-03,5.160257300688431137e-02
4.919999999999999929e-01,-2.408081067805289410e-01,-1.905970651274322414e-01,-1.325968007505589630e-01
4.929999999999999938e-01,-2.011973255954228879e-01,-1.475181203692198240e-01,-1.663721766026047544e-01
4.939999999999999947e-01,7.062832197759490171e-02,9.590238848942346517e-02,3.323210124005375465e-02
4.949999999999999956e-01,2.567130613530869132e-01,2.277398002970587310e-01,1.561703154654732195e-01
4.959999999999999964e-01,1.117498136844345125e-01,6.017665132506387626e-02,9.074608982219385667e-02
4.969999999999999973e-01,-1.769771496568509905e-01,-1.687925091475469264e-01,-8.919872692606785336e-02
4.979999999999999982e-01,-2.468200847482972804e-01,-1.806132314180841358e-01,-1.528556848713545913e-01
4.989999999999999991e-01,4.404420445170202821e-03,5.145535641845697117e-02,-1.443328624869965639e-02
5.000000000000000000e-01,2.660884423956451084e-01,2.281193383674374187e-01,1.138533839782928520e-01
5.010000000000000009e-01,1.871164769584428567e-01,7.985223231784815967e-02,1.206484793199209399e-01
5.020000000000000018e-01,-1.261900943885934379e-01,-1.541735070357762027e-01,-4.689289671049736569e-02
5.030000000000000027e-01,-2.662735481713438546e-01,-1.896759539636710401e-01,-1.587785928011694603e-01
5.040000000000000036e-01,-6.998118664772587372e-02,-8.509500773411652133e-03,-8.817278143537696233e-02
5.050000000000000044e-01,2.313963989145501055e-01,2.053963261979694643e-01,8.650802821296503520e-02
5.060000000000000053e-01,2.320472026436166957e-01,1.367664979429659144e-01,1.519459129560229715e-01
5.070000000000000062e-01,-4.188235091095943857e-02,-8.964789540301371096e-02,1.822921840341025154e-02
5.080000000000000071e-01,-2.652080033252942615e-01,-2.042000203289738858e-01,-1.391639488773820377e-01
5.090000000000000080e-01,-1.406875879225180925e-01,-4.169398156864608657e-02,-1.279679379496026226e-01
5.100000000000000089e-01,1.636184852284898461e-01,1.733469608512338833e-01,7.416233089445024851e-02
5.110000000000000098e-01,2.570526020137170464e-01,1.648302799506783933e-01,1.705449804419285620e-01
5.120000000000000107e-01,3.439386673329367788e-02,-6.870051014182469717e-02,8.815299962767229880e-02
5.130000000000000115e-01,-2.492557852521616046e-01,-2.206896179568360039e-01,-1.220154744065293367e-01
5.140000000000000124e-01,-2.089353866101439916e-01,-9.830406047847486950e-02,-1.756341237450441406e-01
5.150000000000000133e-01,8.605904037756002822e-02,1.574373127452674270e-01,-7.619699944209527148e-03
5.160000000000000142e-01,2.924862387521048324e-01,2.034566271217932154e-01,1.441814027540319898e-01
5.170000000000000151e-01,1.130836973194102452e-01,-1.681250992890840745e-03,1.052807094510818664e-01
5.180000000000000160e-01,-1.909937475281723585e-01,-2.090949857809689671e-01,-5.587262864526991446e-02
5.190000000000000169e-01,-2.530721213114436874e-01,-1.364321197456191126e-01,-1.638293406110670480e-01
5.200000000000000178e-01,2.120112170019324699e-02,1.184557877125307079e-01,-6.525888844443251957e-02
5.210000000000000187e-01,2.773278045187345109e-01,2.182195735297639549e-01,1.115217138032949806e-01
5.220000000000000195e-01,1.661530432910067190e-01,4.932854503130556373e-02,1.238762397236079782e-01
5.230000000000000204e-01,-1.313927281625503207e-01,-1.710839580642559699e-01,-7.534820744510271374e-04
5.240000000000000213e-01,-2.825294598721925787e-01,-1.680937422791854430e-01,-1.501319840284738305e-01
5.250000000000000222e-01,-8.047406932347118957e-02,4.652135338586136509e-02,-9.512985792606974689e-02
5.260000000000000231e-01,2.272097450713603528e-01,2.284065754695738804e-01,7.725214376828055951e-02
5.270000000000000240e-01,2.240466890137090272e-01,8.847039957359985329e-02,1.577450991559992410e-01
5.280000000000000249e-01,-5.109628702857828275e-02,-1.575875498804064356e-01,4.458140285360397137e-02
5.290000000000000258e-01,-2.659793725196042402e-01,-2.034157698174241524e-01,-1.264633520321263305e-01
5.300000000000000266e-01,-1.573168863726830402e-01,1.886608800327006438e-02,-1.499636733634416297e-01
5.310000000000000275e-01,1.550715656273853604e-01,2.114490801727365310e-01,1.394896644167805018e-02
5.320000000000000284e-01,2.652890279080671876e-01,1.461098031387420004e-01,1.631572696149421742e-01
5.330000000000000293e-01,2.230828472955794992e-02,-9.445005632059944034e-02,9.876942653957451745e-02
5.340000000000000302e-01,-2.354878456728425329e-01,-1.855937626298913290e-01,-9.057532654835497021e-02
5.350000000000000311e-01,-1.890757019652262172e-01,-6.432553952494493577e-02,-1.545399991632541992e-01
5.360000000000000320e-01,1.219757633770730404e-01,1.748380056227476775e-01,-3.635058377458349338e-02
5.370000000000000329e-01,2.646559262090540376e-01,1.623688429914233178e-01,1.292314087051598392e-01
5.380000000000000338e-01,7.218668210429883547e-02,-6.790811137044379386e-02,1.362616930331049525e-01
5.390000000000000346e-01,-2.047940294771486425e-01,-2.178766000287437055e-01,-3.201549389407828961e-02
5.400000000000000355e-01,-2.539136935038030507e-01,-9.509799553816637718e-02,-1.633738393257235244e-01
5.410000000000000364e-01,2.011101446108495838e-02,1.591676456741495660e-01,-1.008516324256837765e-01
5.420000000000000373e-01,2.542985064962216546e-01,2.020303103077417950e-01,8.229539856467046888e-02
5.430000000000000382e-01,1.517544788604976158e-01,-2.826344137406096649e-03,1.570116261880586950e-01
5.440000000000000391e-01,-1.217943592749927417e-01,-2.252158567296341785e-01,1.984098869709483015e-02
5.450000000000000400e-01,-2.703651406196785900e-01,-1.175281938440916885e-01,-1.392942571941752361e-01
5.460000000000000409e-01,-4.092700028024755243e-02,1.141836495134225804e-01,-1.153007769096309199e-01
5.470000000000000417e-01,2.341928176236429959e-01,2.062237080327223027e-01,4.444235586913110325e-02
5.480000000000000426e-01,2.241694655619981547e-01,3.375505275464493055e-02,1.493075958141607262e-01
5.490000000000000435e-01,-9.287317488885099559e-02,-1.933925975068802872e-01,1.006558197926432779e-01
5.500000000000000444e-01,-2.682718797900823238e-01,-1.509273245142274400e-01,-9.435741963098992491e-02
5.510000000000000453e-01,-1.285063420918209631e-01,8.176571770054079369e-02,-1.685630773674952620e-01
5.520000000000000462e-01,1.852308131388482326e-01,2.166424244523531550e-01,-8.216752007706473390e-03
5.530000000000000471e-01,2.550500587327571567e-01,9.135004685723448203e-02,1.623207325945308366e-01
5.540000000000000480e-01,-3.255846145192780716e-03,-1.591137473906679978e-01,1.047534150895517435e-01
5.550000000000000488e-01,-2.578686340739032579e-01,-1.975443573349375259e-01,-4.915304271337301439e-02
5.560000000000000497e-01,-1.966492480362755646e-01,1.264014991461476743e-02,-1.549591148846663768e-01
5.570000000000000506e-01,1.071755073949891141e-01,2.001503824771241336e-01,-6.048704430726681985e-02
5.580000000000000515e-01,2.614129724959849410e-01,1.156840903212051769e-01,8.270168224233415133e-02
5.590000000000000524e-01,8.133357710371023896e-02,-1.112759075148787025e-01,1.547179204232198568e-01
5.600000000000000533e-01,-2.096066702141699267e-01,-2.058665871967492456e-01,1.047402042700257101e-02
5.610000000000000542e-01,-2.568696573566665031e-01,-3.440552622220745260e-02,-1.543946825477412743e-01
5.620000000000000551e-01,5.444625837434922955e-02,1.909728142235040393e-01,-1.222185120853283430e-01
5.629999999999999449e-01,2.418375884231191708e-01,1.729796888726327642e-01,6.098239065270356918e-02
5.639999999999999458e-01,1.524177912779473842e-01,-9.700548451407570161e-02,1.713613580117482604e-01
5.649999999999999467e-01,-1.465888960729644919e-01,-2.335711406014236158e-01,7.899488275953023275e-02
5.659999999999999476e-01,-2.510011772176228839e-01,-8.050000435377020758e-02,-1.236663254519124455e-01
5.669999999999999485e-01,-4.323920689612838902e-02,1.632271562710586599e-01,-1.428749449257194215e-01
5.679999999999999494e-01,2.381786905505544893e-01,1.858631344919156325e-01,-1.016809145284294606e-02
5.689999999999999503e-01,2.140983102769207225e-01,-3.405880897913273614e-02,1.682070675618198285e-01
5.699999999999999512e-01,-6.997671149465246876e-02,-1.751950543383349879e-01,1.175813262883776966e-01
5.709999999999999520e-01,-2.710159023475453011e-01,-1.006184060857924639e-01,-9.000557193095594377e-02
5.719999999999999529e-01,-1.110643011252012979e-01,9.278472487716862838e-02,-1.658673701555962721e-01
5.729999999999999538e-01,1.762977356036130316e-01,1.987418594042094366e-01,-6.461972534132293111e-02
5.739999999999999547e-01,2.447626115554876192e-01,1.013788415659029260e-02,1.132256040968511179e-01
5.749999999999999556e-01,-8.614981828767532754e-03,-2.052273501959413216e-01,1.528210874483996728e-01
5.759999999999999565e-01,-2.363188926810836643e-01,-1.414159080969021876e-01,-1.166702114769268238e-03
5.769999999999999574e-01,-1.925472568294710196e-01,8.657273474928138535e-02,-1.519477248689288518e-01
5.779999999999999583e-01,1.185925603767159081e-01,2.180628278284175714e-01,-1.084368322237171112e-01
5.789999999999999591e-01,2.739572155816441534e-01,6.238277459494042526e-02,6.747230701394867081e-02
5.799999999999999600e-01,7.763252375209962752e-02,-1.647230102505549687e-01,1.606663507726116269e-01
5.809999999999999609e-01,-2.270251611842005468e-01,-1.902149943415256395e-01,4.483939457290466585e-02
5.819999999999999618e-01,-2.270871707050175492e-01,2.670908230574299894e-02,-1.073380151749771527e-01
5.829999999999999627e-01,4.535493100730637883e-02,2.221121490409734833e-01,-1.468423041659128458e-01
5.839999999999999636e-01,2.512781474226110090e-01,1.092696541537117871e-01,2.533686156999854014e-02
5.849999999999999645e-01,1.403975520026094215e-01,-1.429595007796450323e-01,1.381377767030549097e-01
5.859999999999999654e-01,-1.824925095349998749e-01,-1.964338073002847296e-01,8.973917692325354689e-02
5.869999999999999662e-01,-2.467242987138862920e-01,-2.254789548959614670e-02,-7.896482991196274170e-02
5.879999999999999671e-01,-3.814302886736825604e-02,1.896840900546742370e-01,-1.522126937661482105e-01
5.889999999999999680e-01,2.384589948776842938e-01,1.463091212068814706e-01,-2.203008377411368873e-02
5.899999999999999689e-01,1.947023070861038097e-01,-9.608385241348495198e-02,1.501476698977174951e-01
5.909999999999999698e-01,-8.896185726964264684e-02,-1.952690439921960786e-01,1.210858933614685357e-01
5.919999999999999707e-01,-2.749329340881283557e-01,-5.161440916822865321e-02,-4.140010348588098188e-02
5.929999999999999716e-01,-1.042176021942481379e-01,1.708275161913901941e-01,-1.640019728406187927e-01
5.939999999999999725e-01,1.875766282091652637e-01,1.703717601926382219e-01,-8.098498341655792354e-02
5.949999999999999734e-01,2.420710331802251591e-01,-4.758156781065821239e-02,1.116414166836792732e-01
5.959999999999999742e-01,-1.749180395073613239e-02,-1.974627011587739012e-01,1.392175726713941741e-01
5.969999999999999751e-01,-2.663621332810043318e-01,-9.327879570086251848e-02,2.324399459739259072e-02
5.979999999999999760e-01,-1.669967091607329202e-01,1.324528713225749110e-01,-1.541108156239398286e-01
5.989999999999999769e-01,1.345014493402536260e-01,1.894237653162322288e-01,-1.154857142660992014e-01
5.999999999999999778e-01,2.831440744812475097e-01,-1.353552999105891476e-02,4.747255727139694514e-02
6.009999999999999787e-01,6.280663889322606053e-02,-1.818060360146715737e-01,1.397019531028735606e-01
6.019999999999999796e-01,-2.171560143383500785e-01,-1.433377480671485793e-01,7.140494186313592340e-02
6.029999999999999805e-01,-2.191817362494703214e-01,1.089275351168867978e-01,-1.064985746590126625e-01
6.039999999999999813e-01,5.677500722591294346e-02,2.268651925046132334e-01,-1.524524936438153011e-01
6.049999999999999822e-01,2.601889292166096324e-01,4.438202137757705362e-02,-6.856338926345375423e-03
6.059999999999999831e-01,1.265488594159288882e-01,-1.781815465771372231e-01,1.454930859170651680e-01
6.069999999999999840e-01,-1.808413734262086792e-01,-1.740636802657314075e-01,1.272864039289418325e-01
6.079999999999999849e-01,-2.657312727398238317e-01,4.693366352776089795e-02,-7.100359813698929601e-02
6.089999999999999858e-01,-3.039126391600074223e-02,2.220209995799044544e-01,-1.752418670006433976e-01
6.099999999999999867e-01,2.498491682209344478e-01,9.000254051670021627e-02,-5.339235931390654694e-02
6.109999999999999876e-01,1.875003871234923736e-01,-1.597016752360889136e-01,1.093370083683080640e-01
6.119999999999999885e-01,-1.087530882802681537e-01,-2.027341696531939075e-01,1.519966130385448644e-01
6.129999999999999893e-01,-2.574005376137830647e-01,8.444538602998647239e-03,-4.846163110841602076e-03
6.139999999999999902e-01,-7.669705518356920160e-02,1.831874631090346373e-01,-1.554093372765407988e-01
6.149999999999999911e-01,2.024576434676440828e-01,1.423040094308478110e-01,-9.655528837574703371e-02
6.159999999999999920e-01,2.233749646316919024e-01,-1.102215408640317140e-01,6.808742861811870051e-02
6.169999999999999929e-01,-1.416115789200295128e-02,-2.093045125593742117e-01,1.642908894885832805e-01
6.179999999999999938e-01,-2.683310652898637239e-01,-3.970250872127839559e-02,4.201538336718257938e-02
6.189999999999999947e-01,-1.677953354143220388e-01,1.644013197559019701e-01,-1.094951059489446821e-01
6.199999999999999956e-01,1.313825839229505188e-01,1.766394630469900473e-01,-1.582750070996151726e-01
6.209999999999999964e-01,2.602238625057516908e-01,-7.219223622109009753e-02,1.564101456579458302e-02
6.219999999999999973e-01,5.046615678969698648e-02,-2.099921483344924789e-01,1.370030924925181304e-01
6.229999999999999982e-01,-2.341905944039526510e-01,-9.559322564424251045e-02,1.110323218341800616e-01
6.239999999999999991e-01,-2.123226515007564652e-01,1.627572366346662358e-01,-9.016538604495084874e-02
6.250000000000000000e-01,8.599656850607691194e-02,1.954431086005258555e-01,-1.589097492422081592e-01
6.260000000000000009e-01,2.700694395561912819e-01,-1.689640165815456396e-02,-3.955948615496960447e-02
6.270000000000000018e-01,1.287259073590636682e-01,-1.936494139956303207e-01,1.255804662675215622e-01
6.280000000000000027e-01,-1.878173194874479257e-01,-1.224827205203422587e-01,1.404638059589068677e-01
6.290000000000000036e-01,-2.559818604817421517e-01,9.252993573547128869e-02,-3.086497509696863734e-02
6.300000000000000044e-01,-1.689878263116130356e-03,2.248626017515239495e-01,-1.512979505211430320e-01
6.310000000000000053e-01,2.505709055792831874e-01,3.620819638742159979e-02,-9.995849384632156387e-02
6.320000000000000062e-01,1.838637732177180184e-01,-1.780147303931174374e-01,8.788278401764890169e-02
6.330000000000000071e-01,-1.076327167075552815e-01,-1.622514952332945182e-01,1.486155173156904208e-01
6.340000000000000080e-01,-2.748846704227566606e-01,7.701093379526242899e-02,3.019170508381930490e-02
6.350000000000000089e-01,-5.346614900848429414e-02,2.131411461761131831e-01,-1.385152567406064406e-01
6.360000000000000098e-01,2.145490177348001737e-01,8.198533263904836388e-02,-1.264410996797624143e-01
6.370000000000000107e-01,2.309999903707082025e-01,-1.472168879248871298e-01,4.299566053520879200e-02
6.380000000000000115e-01,-4.374841528290350501e-02,-1.909498651064361896e-01,1.704294473351548600e-01
6.390000000000000124e-01,-2.622360835074455943e-01,1.356814606068175617e-02,1.015200442646975593e-01
6.400000000000000133e-01,-1.699962497872186673e-01,1.889173015898844565e-01,-9.378660739497964027e-02
6.410000000000000142e-01,1.392403348875024816e-01,1.329018744873438906e-01,-1.699957174606818444e-01
6.420000000000000151e-01,2.542643250612294237e-01,-1.343905213895991990e-01,-4.424605111141898493e-03
6.430000000000000160e-01,2.300464315703808216e-02,-2.133097357041090214e-01,1.311868985600713466e-01
6.440000000000000169e-01,-2.600630888859986611e-01,-3.427194531249792842e-02,1.323536127386582828e-01
6.450000000000000178e-01,-2.047103708301815372e-01,1.840553029842289523e-01,-3.897682345469344334e-02
6.460000000000000187e-01,1.071057337861539976e-01,1.607890018379226349e-01,-1.741633228759932872e-01
6.470000000000000195e-01,2.573290634931932330e-01,-8.211358941752455731e-02,-6.118101710460724374e-02
6.480000000000000204e-01,1.123328812500456464e-01,-2.062227096056463149e-01,9.416194557571230805e-02
6.490000000000000213e-01,-1.905165892480974454e-01,-5.270629881228654223e-02,1.386595795163766687e-01
6.500000000000000222e-01,-2.619556990031027821e-01,1.532076925311528226e-01,8.764399827167495063e-03
6.510000000000000231e-01,1.964099032201487363e-02,1.920634112214812395e-01,-1.588260426160982008e-01
6.520000000000000240e-01,2.380161510794844004e-01,-4.335313642748484658e-02,-1.055570513040987868e-01
6.530000000000000249e-01,1.850500022183774740e-01,-2.090388619821879623e-01,6.494326895407460942e-02
6.540000000000000258e-01,-1.402877932316002885e-01,-1.136740536672802837e-01,1.519465667188631408e-01
6.550000000000000266e-01,-2.792021252739296244e-01,1.233419961556103811e-01,7.739635198730585031e-02
6.560000000000000275e-01,-6.261143088174178639e-02,2.041472058126831968e-01,-1.058112175961474916e-01
6.570000000000000284e-01,2.162108769605279313e-01,3.388806588337672267e-03,-1.525541657155826958e-01
6.580000000000000293e-01,2.219349660553558146e-01,-2.034205235418766466e-01,1.308394008232370044e-02
6.590000000000000302e-01,-6.814626206147116061e-02,-1.729109356431382527e-01,1.527278243579344164e-01
6.600000000000000311e-01,-2.531332798107387982e-01,8.058110867991305493e-02,1.010184441578751563e-01
6.610000000000000320e-01,-1.303921601514622108e-01,2.291949456177870548e-01,-6.839934544592266019e-02
6.620000000000000329e-01,1.581423165089179406e-01,6.115254573732893661e-02,-1.402772213008082192e-01
6.630000000000000338e-01,2.662198841523279458e-01,-1.768307386193921915e-01,-5.706306314382780798e-02
6.640000000000000346e-01,2.091321736750340748e-02,-1.914902038508131399e-01,1.203477866346411435e-01
6.650000000000000355e-01,-2.294812478782549958e-01,4.689102543867113698e-02,1.290359800597806472e-01
6.660000000000000364e-01,-2.083522113671629206e-01,2.088320565517389760e-01,-2.062218374331357615e-02
6.670000000000000373e-01,1.109807174536959762e-01,1.111432932837481125e-01,-1.733441281896911934e-01
6.680000000000000382e-01,2.607967330213276091e-01,-9.829936526190763413e-02,-9.470048039466726075e-02
6.690000000000000391e-01,1.053624126962699192e-01,-1.996232294573312971e-01,7.786308670240038587e-02
6.700000000000000400e-01,-1.982855722857768677e-01,-2.072609723606766517e-03,1.520132409610453761e-01
6.710000000000000409e-01,-2.407380002541469888e-01,1.809590612609101312e-01,2.954644433337351092e-02
6.720000000000000417e-01,2.604847295006490829e-02,1.348136693487860249e-01,-1.101609945123212531e-01
6.730000000000000426e-01,2.592397706950662073e-01,-8.787909292228733571e-02,-1.567296561237302988e-01
6.740000000000000435e-01,1.611659704702059215e-01,-2.090261832358067950e-01,4.730518387279628034e-02
6.750000000000000444e-01,-1.261045752980084200e-01,-6.682622101837211448e-02,1.639640267630284864e-01
6.760000000000000453e-01,-2.514334856964953180e-01,1.740862964021264170e-01,9.276275138526347830e-02
6.770000000000000462e-01,-6.177211432529292057e-02,1.998410722824203178e-01,-7.761858159423212777e-02
6.780000000000000471e-01,2.120296730304447042e-01,-6.624993877352867988e-02,-1.558865486952313584e-01
6.790000000000000480e-01,1.991321515830105360e-01,-1.960313600785538179e-01,-2.681028463412891277e-02
6.800000000000000488e-01,-7.488100287028329194e-02,-9.549889221052176858e-02,1.411738858541451980e-01
6.810000000000000497e-01,-2.414139426335801253e-01,1.255809909561838578e-01,1.262180081276770005e-01
6.820000000000000506e-01,-1.428882042022623644e-01,2.127800915490571099e-01,-5.537542875796454267e-02
6.830000000000000515e-01,1.679882547744894761e-01,7.743672801097891203e-03,-1.584124525566427411e-01
6.840000000000000524e-01,2.697426932866638927e-01,-1.976154448104891770e-01,-8.343628322113272322e-02
6.850000000000000533e-01,1.734556352347340832e-02,-1.260389353231968212e-01,1.045561045810297907e-01
6.860000000000000542e-01,-2.297892109556039231e-01,1.002682131509315538e-01,1.524116226049267997e-01
6.870000000000000551e-01,-1.884890190623906558e-01,2.252335884901910945e-01,1.168232669982527568e-02
6.879999999999999449e-01,9.722179113012356655e-02,4.638646071063529108e-02,-1.457579910031141235e-01
6.889999999999999458e-01,2.753291194408029607e-01,-1.760114735363670357e-01,-1.053899323522770604e-01
6.899999999999999467e-01,9.839418992313017642e-02,-2.029647511183473862e-01,4.003051976768171732e-02
6.909999999999999476e-01,-2.000386992558813026e-01,5.360368958231559455e-02,1.661598628912127062e-01
6.919999999999999485e-01,-2.240884432753991740e-01,2.016571198656958441e-01,6.323321578328099102e-02
6.929999999999999494e-01,3.391279392198205678e-02,1.075676152910286787e-01,-1.149234047291313593e-01
6.939999999999999503e-01,2.591836611657273304e-01,-1.399720958291511830e-01,-1.405376063454871760e-01
6.949999999999999512e-01,1.670110625544590777e-01,-1.895413439547405932e-01,-5.703473241675449321e-03
6.959999999999999520e-01,-1.549046166951932035e-01,-1.260451060483993788e-02,1.533966763667489464e-01
6.969999999999999529e-01,-2.758158717942833515e-01,1.921853993033270092e-01,1.300293050497337011e-01
6.979999999999999538e-01,-4.296184374850355037e-02,1.565228222472309083e-01,-5.999401394750216582e-02
6.989999999999999547e-01,2.241569783738095734e-01,-9.990836982561819568e-02,-1.593599277262111036e-01
6.999999999999999556e-01,2.062366887186868336e-01,-2.152943865255899647e-01,-4.236722053573232366e-02
7.009999999999999565e-01,-6.222481335259941182e-02,-7.108142256939575798e-02,1.023096671807364744e-01
7.019999999999999574e-01,-2.632550373759995344e-01,1.862867003465545068e-01,1.290633617517481790e-01
7.029999999999999583e-01,-1.039136967646909770e-01,1.577131964536598041e-01,-1.475548921543892895e-02
7.039999999999999591e-01,1.687722226950802429e-01,-5.116940106850019487e-02,-1.493882447308569894e-01
7.049999999999999600e-01,2.525517752311550179e-01,-2.153728492440498410e-01,-1.010621098490214198e-01
7.059999999999999609e-01,6.253620336144823447e-03,-9.256614739981620932e-02,6.379042552473103422e-02
7.069999999999999618e-01,-2.519161558272512980e-01,1.452830234093135109e-01,1.381718660689880696e-01
7.079999999999999627e-01,-1.664342310082120580e-01,2.053799429337536675e-01,2.869415672216872604e-02
7.089999999999999636e-01,1.295573398117431108e-01,-5.247804758024691638e-03,-1.316883494678195710e-01
7.099999999999999645e-01,2.524030696402515539e-01,-1.870435519268188185e-01,-1.375816817622198263e-01
7.109999999999999654e-01,6.886985729965375280e-02,-1.421980435632758111e-01,1.799916764196778790e-02
7.119999999999999662e-01,-2.105649062130216242e-01,1.025533962228730445e-01,1.412494955860334467e-01
7.129999999999999671e-01,-2.474362823304595282e-01,2.297243953374915049e-01,9.895754353603353204e-02
7.139999999999999680e-01,4.428317129219049714e-02,3.528691524488718201e-02,-6.973079600780458798e-02
7.149999999999999689e-01,2.859134448674476858e-01,-1.887334999598612451e-01,-1.613956091757422495e-01
7.159999999999999698e-01,1.451598913701295235e-01,-1.771424924788135846e-01,-4.874459613272955766e-02
7.169999999999999707e-01,-1.601437307431310964e-01,5.090147808046216471e-02,1.337609960374341878e-01
7.179999999999999716e-01,-2.563163329139827584e-01,2.096075302241094673e-01,1.400823170982755106e-01
7.189999999999999725e-01,-3.369026708042052037e-02,7.164791399175529651e-02,-2.715023070786709222e-02
7.199999999999999734e-01,2.062640915510469408e-01,-1.409620835475071388e-01,-1.709598390871757967e-01
7.209999999999999742e-01,2.039652900715244466e-01,-1.906574110035942626e-01,-8.813021198367805564e-02
7.219999999999999751e-01,-1.006218637548152023e-01,2.831743787256311290e-02,8.608534541461175527e-02
7.229999999999999760e-01,-2.612985777181765501e-01,2.136381303857555758e-01,1.654716400707907098e-01
7.239999999999999769e-01,-1.038266600810274221e-01,1.296303612762436108e-01,2.246733112040855129e-02
7.249999999999999778e-01,1.846450203726236194e-01,-1.180612495335807283e-01,-1.569121927118783955e-01
7.259999999999999787e-01,2.589711133398192033e-01,-2.089568217809099071e-01,-1.250025054365417887e-01
7.269999999999999796e-01,-3.913942523089739174e-03,-3.228609391509729143e-02,5.840563000341029987e-02
7.279999999999999805e-01,-2.494206305044577299e-01,1.768475788433837292e-01,1.738055317494527630e-01
7.289999999999999813e-01,-1.531644059071903263e-01,1.593805709997054010e-01,7.548129092514502259e-02
7.299999999999999822e-01,1.202379762369038957e-01,-5.194512651034612766e-02,-9.555924143289060146e-02
7.309999999999999831e-01,2.538213748657624502e-01,-2.054260916617108301e-01,-1.637945512406758786e-01
7.319999999999999840e-01,7.896380175461163720e-02,-8.924238808767666342e-02,3.293913333535078338e-03
7.329999999999999849e-01,-2.090144334667672354e-01,1.602783846047397820e-01,1.400914026440213678e-01
7.339999999999999858e-01,-2.194100412651075749e-01,2.021049534353588084e-01,1.110538245144968156e-01
7.349999999999999867e-01,2.286308482551024576e-02,-2.111544191357904443e-02,-3.488503212748508830e-02
7.359999999999999876e-01,2.368547924692229745e-01,-1.983456858349436913e-01,-1.553848802301858179e-01
7.369999999999999885e-01,1.622564481117966528e-01,-1.238537211314604813e-01,-7.945843302557194232e-02
7.379999999999999893e-01,-1.548680152936278420e-01,1.017040075770882512e-01,1.047391501041471940e-01
7.389999999999999902e-01,-2.474118783017515422e-01,2.080851870968086770e-01,1.412616151787560170e-01
7.399999999999999911e-01,1.191177675778464472e-02,4.545603005272370878e-02,1.054417005804173663e-02
7.409999999999999920e-01,2.382041626480290719e-01,-2.011947004456552390e-01,-1.627874794057119212e-01
7.419999999999999929e-01,2.023595246139765491e-01,-1.672239042120699237e-01,-1.277151537901385359e-01
7.429999999999999938e-01,-1.004184691495815102e-01,1.011311414969897071e-01,5.382793176988014128e-02
7.439999999999999947e-01,-2.715006675942722159e-01,2.048058564056989828e-01,1.564831698414610728e-01
7.449999999999999956e-01,-9.179708686098714265e-02,7.355406079066317826e-02,5.843019356086202182e-02
7.459999999999999964e-01,1.930477857199136560e-01,-1.569836471245431297e-01,-1.084591780628431368e-01
7.469999999999999973e-01,2.321264421305074266e-01,-1.863484384794336091e-01,-1.467436377457539409e-01
7.479999999999999982e-01,-4.043583100425186816e-02,5.395357395672229633e-02,2.046078592253905426e-02
7.489999999999999991e-01,-2.495406126671227964e-01,2.090485824055777764e-01,1.415985604462255965e-01
7.500000000000000000e-01,-1.616610277989273536e-01,1.203626477762078095e-01,1.075698066768479427e-01
7.510000000000000009e-01,1.260588933512905851e-01,-1.135865646870213713e-01,-7.304003571794179250e-02
7.520000000000000018e-01,2.618684080715218965e-01,-2.044935497006604153e-01,-1.501650353200783272e-01
7.530000000000000027e-01,6.538966821043015742e-02,-1.857764067057873780e-02,-5.674553518144022368e-02
7.540000000000000036e-01,-2.245663659898931575e-01,1.997761545813471762e-01,1.313572394601850157e-01
7.550000000000000044e-01,-2.308101483520461905e-01,1.775772657109309927e-01,1.590960710432552938e-01
7.560000000000000053e-01,6.502989543745883727e-02,-7.162064635604802054e-02,-1.749995508057825347e-02
7.570000000000000062e-01,2.766998296210308461e-01,-2.219726508616758909e-01,-1.558602476100892364e-01
7.580000000000000071e-01,1.400673253044812661e-01,-5.941265723904397972e-02,-1.078528329454667839e-01
7.590000000000000080e-01,-1.880327748608369709e-01,1.646603573990472746e-01,6.843531162218671748e-02
7.600000000000000089e-01,-2.315446058830952225e-01,1.843691737307181500e-01,1.583674636926081236e-01
7.610000000000000098e-01,-2.147763876813509748e-02,-2.113591887384744586e-02,2.612696135696657151e-02
7.620000000000000107e-01,2.541105441685283517e-01,-2.123115936033800333e-01,-1.085378826548860781e-01
7.630000000000000115e-01,1.928213300572800826e-01,-1.000847985060546314e-01,-1.394112478318362547e-01
7.640000000000000124e-01,-1.111131565057868753e-01,1.335702309164764900e-01,1.791281681462914346e-02
7.650000000000000133e-01,-2.845946424577597278e-01,2.296429939249876873e-01,1.688437551594469122e-01
7.660000000000000142e-01,-9.587762013027353869e-02,1.276588070530260827e-02,1.160024685161129276e-01
7.670000000000000151e-01,1.915367691266390560e-01,-1.823393996263772410e-01,-5.728368418185254135e-02
7.680000000000000160e-01,2.449058137182900108e-01,-1.682111481065557690e-01,-1.455152742669634236e-01
7.690000000000000169e-01,-7.517108707048776942e-03,9.100062393121401139e-02,-2.330527090700533835e-02
7.700000000000000178e-01,-2.777278198783458274e-01,2.065469888439759039e-01,1.379001079277364927e-01
7.710000000000000187e-01,-1.611179644632083074e-01,5.742339327530626009e-02,1.192767154589380041e-01
7.720000000000000195e-01,1.457458050995647791e-01,-1.756693334579193799e-01,-3.949707388735604341e-02
7.730000000000000204e-01,2.685873310418278592e-01,-1.817226649892634549e-01,-1.606782193508838330e-01
7.740000000000000213e-01,4.113158895971893991e-02,3.031035981766540960e-02,-6.898459600068876374e-02
7.750000000000000222e-01,-2.329957792387312432e-01,2.084875484886062891e-01,1.204228520462351376e-01
7.760000000000000231e-01,-2.107948876550579109e-01,1.056281394900128595e-01,1.684148584502868362e-01
7.770000000000000240e-01,7.138478909951799511e-02,-1.333767471772739910e-01,-5.263345339491455784e-04
7.780000000000000249e-01,2.682464207831823932e-01,-2.037478057103102314e-01,-1.604127531765397741e-01
7.790000000000000258e-01,1.324649930925495545e-01,-1.028388053814763455e-02,-1.120015728613622114e-01
7.800000000000000266e-01,-1.793029650247733586e-01,1.963580153249184779e-01,3.484846575286836695e-02
7.810000000000000275e-01,-2.444394118144682104e-01,1.457357629024179091e-01,1.643629664440388882e-01
7.820000000000000284e-01,2.267524359867524250e-02,-9.078783192214671949e-02,6.932138560218445433e-02
7.830000000000000293e-01,2.538004037584326578e-01,-2.151842392893439648e-01,-9.533033392542272777e-02
7.840000000000000302e-01,1.901236074973702006e-01,-7.221390369997081338e-02,-1.672799351758032238e-01
7.850000000000000311e-01,-1.185611958119737602e-01,1.631716175011427017e-01,-1.106478833945451906e-02
7.860000000000000320e-01,-2.516698460124237591e-01,1.878549744043097880e-01,1.181405082638835174e-01
7.870000000000000329e-01,-8.799044324448086762e-02,-5.211270131028882674e-02,1.056616959812299028e-01
7.880000000000000338e-01,2.169330233019282905e-01,-2.334258973245235125e-01,-6.201405881587534336e-02
7.890000000000000346e-01,2.188278425798275140e-01,-1.173357089847202189e-01,-1.642020598243102147e-01
7.900000000000000355e-01,-3.844856998391189135e-02,1.271290186715732518e-01,-5.276971925057492158e-02
7.910000000000000364e-01,-2.444829910541966855e-01,1.945848655726148957e-01,1.178133822636505124e-01
7.920000000000000373e-01,-1.366969678554941503e-01,-1.503034197453344441e-02,1.536384988716597566e-01
7.930000000000000382e-01,1.735077183400506318e-01,-2.189823843406911441e-01,7.559201204081207430e-04
7.940000000000000391e-01,2.405535511216499167e-01,-1.314927950383104338e-01,-1.391018660528396400e-01
7.950000000000000400e-01,4.038738781685049378e-02,1.198548295057964980e-01,-1.080677437603976970e-01
7.960000000000000409e-01,-2.311151565519652673e-01,2.047234367667396804e-01,6.675570846646103340e-02
7.970000000000000417e-01,-2.159569075837115271e-01,3.330007452312094829e-02,1.332375724080379908e-01
7.980000000000000426e-01,8.212431535460525123e-02,-1.773538937686946204e-01,5.172655605604201817e-02
7.990000000000000435e-01,2.578503228291294525e-01,-1.786598478474537288e-01,-1.270532264994881644e-01
8.000000000000000444e-01,1.064643880776661305e-01,4.937624842532551545e-02,-1.371599863045816770e-01
8.010000000000000453e-01,-1.882508592377415968e-01,2.127238474831606163e-01,1.867076485812384570e-02
8.020000000000000462e-01,-2.420136980850487729e-01,9.777770522956100163e-02,1.520210557512335636e-01
8.030000000000000471e-01,3.073536360114607815e-03,-1.201088483865359047e-01,1.039280976675661938e-01
8.040000000000000480e-01,2.663598230491260876e-01,-2.198568621673414047e-01,-6.418143337412839100e-02
8.050000000000000488e-01,1.705697124025115918e-01,1.907103795640268523e-02,-1.499682221143633920e-01
8.060000000000000497e-01,-1.263924372832330723e-01,1.915629977148064766e-01,-4.138591864600289771e-02
8.070000000000000506e-01,-2.708119077882386039e-01,1.522906656092606892e-01,1.442483212288961092e-01
8.080000000000000515e-01,-6.794023755703135214e-02,-1.066946876852289255e-01,1.397811659664555395e-01
8.090000000000000524e-01,2.121080139957384481e-01,-1.904652890870858484e-01,-2.628908679456408437e-02
8.100000000000000533e-01,2.100345780132852058e-01,-4.693896845148898267e-02,-1.515815283582255812e-01
8.110000000000000542e-01,-6.662666645722520320e-02,1.845229214786529848e-01,-1.030159858534450412e-01
8.120000000000000551e-01,-2.664956356753566680e-01,1.644630064561346250e-01,8.391313551281272265e-02
8.129999999999999449e-01,-1.315425369307871573e-01,-6.709862032805781473e-02,1.731132776307140186e-01
8.139999999999999458e-01,1.647546214300510403e-01,-2.090398199412031588e-01,3.218502154588680914e-02
8.149999999999999467e-01,2.488965898033568547e-01,-8.992343980341649390e-02,-1.403160988733595238e-01
8.159999999999999476e-01,2.225752545229318924e-02,1.583817656461996570e-01,-1.320194978607301395e-01
8.169999999999999485e-01,-2.327770204420154532e-01,1.946940925239123710e-01,3.802232048006610327e-02
8.179999999999999494e-01,-2.003081592669126443e-01,-3.947973377116813926e-03,1.589726297647499897e-01
8.189999999999999503e-01,9.485147479439161311e-02,-2.057729111043545556e-01,6.931722727544294138e-02
8.199999999999999512e-01,2.758915989534166391e-01,-1.216321086611013846e-01,-1.040988355221804246e-01
8.209999999999999520e-01,9.336808851456726566e-02,1.161222312448325772e-01,-1.631556112697479799e-01
8.219999999999999529e-01,-2.013949242662091965e-01,1.956939413451920518e-01,-1.426098035318304307e-02
8.229999999999999538e-01,-2.416784572565048583e-01,2.386572858154253213e-02,1.482718648073010348e-01
8.239999999999999547e-01,1.594555642226896247e-02,-1.695799264436554099e-01,1.165397935145678215e-01
8.249999999999999556e-01,2.581565866451431268e-01,-1.706911197107292832e-01,-4.181948411251575071e-02
8.259999999999999565e-01,1.752430766599229750e-01,6.086114763519361037e-02,-1.689679288184100237e-01
8.269999999999999574e-01,-1.404841967837458516e-01,2.031725450549420053e-01,-7.322818285500133639e-02
8.279999999999999583e-01,-2.409899967893412431e-01,9.246420364721846807e-02,1.059140765390309963e-01
8.289999999999999591e-01,-5.100841692853066295e-02,-1.625913780059841940e-01,1.454148778983579415e-01
8.299999999999999600e-01,2.486961572759965600e-01,-1.846038626216997269e-01,1.115158952895921231e-03
8.309999999999999609e-01,2.212370174864150552e-01,9.786645245617000329e-04,-1.427095628948626405e-01
8.319999999999999618e-01,-7.375981025602310059e-02,1.850763690621134161e-01,-1.213162485279478259e-01
8.329999999999999627e-01,-2.694459656792732583e-01,1.374000758569576264e-01,7.748605018934397182e-02
8.339999999999999636e-01,-1.168443899303889255e-01,-9.458391235835010569e-02,1.701225431987189174e-01
8.349999999999999645e-01,1.693891370017049647e-01,-2.009206649940985245e-01,5.409437349758020042e-02
8.359999999999999654e-01,2.577135187974828878e-01,-2.584498899731133004e-02,-1.017134256215225102e-01
8.369999999999999662e-01,9.585023466585731663e-03,1.995352574537996027e-01,-1.636947496953659875e-01
8.379999999999999671e-01,-2.591418512710860766e-01,1.489932438967824235e-01,-5.176645048934074358e-03
8.389999999999999680e-01,-1.978423062795450771e-01,-7.439873974021270209e-02,1.403735830003839113e-01
8.399999999999999689e-01,1.193051045920046627e-01,-2.073592195566500707e-01,1.083543369371371412e-01
8.409999999999999698e-01,2.830720593591655732e-01,-7.694459825675185882e-02,-7.080134461923213995e-02
8.419999999999999707e-01,8.730293360421066684e-02,1.564976980906233051e-01,-1.406530253784791795e-01
8.429999999999999716e-01,-2.070944717820464576e-01,1.997797084629995557e-01,-5.624089874044513326e-02
8.439999999999999725e-01,-2.072308878736106030e-01,-1.018445697743920395e-02,1.272987818008489980e-01
8.449999999999999734e-01,2.067503618394565812e-02,-1.989591040596385141e-01,1.464010517967664904e-01
8.459999999999999742e-01,2.423117721511902634e-01,-1.227757308854068724e-01,-1.615491780795018026e-02
8.469999999999999751e-01,1.588435518607784480e-01,1.220526393608821342e-01,-1.606479326580164402e-01
8.479999999999999760e-01,-1.445164596572341142e-01,2.067417546271661799e-01,-1.088630241212143329e-01
8.489999999999999769e-01,-2.726120470832021359e-01,1.981628970450929547e-02,9.136435073898936665e-02
8.499999999999999778e-01,-4.948404307737667984e-02,-1.935427735721519382e-01,1.651161736268966784e-01
8.509999999999999787e-01,2.416940584124951386e-01,-1.622559747658476603e-01,3.786310239449488385e-02
8.519999999999999796e-01,2.240137900314664587e-01,9.087939013646086084e-02,-1.270849236716647956e-01
8.529999999999999805e-01,-8.367006083716999054e-02,2.290557602405304538e-01,-1.231343559568642138e-01
8.539999999999999813e-01,-2.880347735155315281e-01,8.766284847943808800e-02,5.528055749445696943e-03
8.549999999999999822e-01,-1.284458661806695545e-01,-1.665554600451452649e-01,1.386415232147821530e-01
8.559999999999999831e-01,1.764298530772202833e-01,-1.927996195064505258e-01,9.876100847801989879e-02
8.569999999999999840e-01,2.447953668952699835e-01,2.332601562223267366e-02,-8.559236988298710158e-02
8.579999999999999849e-01,6.099724787277670084e-03,2.171256480525967092e-01,-1.573979696016608310e-01
8.589999999999999858e-01,-2.489534639416032258e-01,1.256769006627912466e-01,-2.134413539775416313e-02
8.599999999999999867e-01,-1.768324630682700516e-01,-1.491385464540140038e-01,1.280045699295963846e-01
8.609999999999999876e-01,1.252250178865263464e-01,-2.014774356393653210e-01,1.218462292622589233e-01
8.619999999999999885e-01,2.593196165589748414e-01,-7.975976216858891160e-03,-4.407485539156600490e-02
8.629999999999999893e-01,8.294441591734988406e-02,1.895051006131161231e-01,-1.708072559722151329e-01
8.639999999999999902e-01,-2.265043649490351974e-01,1.579174669892357830e-01,-9.426877853338191948e-02
8.649999999999999911e-01,-2.460252350771299501e-01,-9.250742339100770373e-02,1.079876681856777737e-01
8.659999999999999920e-01,5.337388799286355706e-02,-2.132697605880102820e-01,1.568537771246123480e-01
8.669999999999999929e-01,2.788532598470068180e-01,-5.682359996690482945e-02,2.110240920414579308e-02
8.679999999999999938e-01,1.430320028350985095e-01,1.417393374406125395e-01,-1.619917924736595238e-01
8.689999999999999947e-01,-1.436135317913399267e-01,1.829769744428776657e-01,-1.093843956204012813e-01
8.699999999999999956e-01,-2.682255293581160549e-01,-3.900679010836489990e-02,4.109378244074723963e-02
8.709999999999999964e-01,-3.400940428730773318e-02,-2.154238520706037163e-01,1.407091523264500377e-01
8.719999999999999973e-01,2.370354153217955340e-01,-1.012864999736253491e-01,7.551841005006151852e-02
8.729999999999999982e-01,1.954737361700154830e-01,1.266308860500916511e-01,-1.117282488373739363e-01
8.739999999999999991e-01,-8.733400714013166144e-02,2.111941990484418330e-01,-1.310376049407468435e-01
8.750000000000000000e-01,-2.808804127602816947e-01,-8.765553791188341118e-03,9.651148805113271426e-04
8.760000000000000009e-01,-1.066976452161076533e-01,-1.807752782615009435e-01,1.716304462125676777e-01
8.770000000000000018e-01,1.991463367353676073e-01,-1.290171190892338560e-01,1.079705408765898322e-01
8.780000000000000027e-01,2.544642277795285956e-01,9.422783363068144846e-02,-6.572500565591357646e-02
8.790000000000000036e-01,-2.809267879212569430e-02,2.240369343141922764e-01,-1.761632952728551249e-01
8.800000000000000044e-01,-2.453444850328619364e-01,3.767967419575352084e-02,-7.903119103669739576e-02
8.810000000000000053e-01,-1.566268938623287810e-01,-1.717362938946092044e-01,1.292790152892959454e-01
8.820000000000000062e-01,1.395360964386561375e-01,-1.721075584308105755e-01,1.472810711826441077e-01
8.830000000000000071e-01,2.609952337747111217e-01,3.397235789153978114e-02,-9.040190991639978496e-03
8.840000000000000080e-01,6.405409522898689034e-02,2.158756381760746357e-01,-1.447545242981065072e-01
8.850000000000000089e-01,-2.215469941681104948e-01,1.041363271725732342e-01,-9.204057846769207740e-02
8.860000000000000098e-01,-2.173975603313388072e-01,-1.354283342851003991e-01,6.539971372551145468e-02
8.870000000000000107e-01,7.215942547972453713e-02,-1.871434229738332122e-01,1.640163719300213319e-01
8.880000000000000115e-01,2.576213063986234619e-01,-1.204222516645576425e-02,5.385799278343197938e-02
8.890000000000000124e-01,1.348868332296712380e-01,2.239531899993550679e-01,-1.313858493383617820e-01
8.900000000000000133e-01,-1.767001798131097590e-01,1.377947485898732838e-01,-1.434452469358447058e-01
8.910000000000000142e-01,-2.597810417292350516e-01,-9.322930050834306315e-02,1.545822419941130302e-02
8.920000000000000151e-01,-1.455226446270856296e-02,-2.041130089636188083e-01,1.550531367969152086e-01
8.930000000000000160e-01,2.326363271248494680e-01,-6.113954697052674525e-02,1.006699868127446940e-01
8.940000000000000169e-01,1.967669992348760333e-01,1.783544222428518067e-01,-8.675755700733676912e-02
8.950000000000000178e-01,-9.653389979706307467e-02,1.806932804592681352e-01,-1.545814956494362125e-01
8.960000000000000187e-01,-2.698665018004748339e-01,-4.405325213063542023e-02,-5.336168854563116265e-02
8.970000000000000195e-01,-9.712238092112893129e-02,-2.152169497335648940e-01,1.271299946718779661e-01
8.980000000000000204e-01,2.016229109826364330e-01,-1.022729542325582358e-01,1.477245781668141966e-01
8.990000000000000213e-01,2.404768233641626229e-01,1.366589917356715034e-01,-3.069852635905023774e-02
9.000000000000000222e-01,-1.432208389650865658e-02,2.092290678600837450e-01,-1.548601003615335814e-01
9.010000000000000231e-01,-2.723647399955561044e-01,-9.254346391174691697e-03,-8.045628921066502737e-02
9.020000000000000240e-01,-1.439547399111195669e-01,-1.980733589045788612e-01,9.108501029783803993e-02
9.030000000000000249e-01,1.490378930311139771e-01,-1.393829210550086573e-01,1.582862847626335945e-01
9.040000000000000258e-01,2.448600375818092700e-01,1.064473950287330717e-01,1.398891106651223466e-02
9.050000000000000266e-01,3.109724878647466759e-02,2.157295614998155919e-01,-1.418236036208774253e-01
9.060000000000000275e-01,-2.332681337787122500e-01,4.472913230757704500e-02,-1.142146813905786096e-01
9.070000000000000284e-01,-1.992587029502559670e-01,-1.952338897240764592e-01,3.577659041617591018e-02
9.080000000000000293e-01,8.899535403346028883e-02,-1.695950653138476039e-01,1.390278860798701832e-01
9.090000000000000302e-01,2.649846557089000076e-01,5.853487944887496297e-02,6.573528919015007854e-02
9.100000000000000311e-01,1.183186979909671699e-01,2.004816736472819216e-01,-1.230258000914943306e-01
9.110000000000000320e-01,-1.762996960319241357e-01,8.191791369468176542e-02,-1.565679532203952118e-01
9.120000000000000329e-01,-2.546139842033723344e-01,-1.552566254398422274e-01,-6.797514202915931180e-04
9.130000000000000338e-01,-8.135379295168932573e-03,-1.889408529734446784e-01,1.691460189038024309e-01
9.140000000000000346e-01,2.434722729951979692e-01,2.712000378170992265e-02,1.098103834033076348e-01
9.150000000000000355e-01,1.684909080404119464e-01,2.023923853204029066e-01,-4.586903361256333689e-02
9.160000000000000364e-01,-1.133183072759907095e-01,1.234642498256164900e-01,-1.610607171027772233e-01
9.170000000000000373e-01,-2.945550803545893825e-01,-1.183813927963367069e-01,-7.154311607125614370e-02
9.180000000000000382e-01,-9.101682023382329234e-02,-1.833477050305955536e-01,1.072152262830799035e-01
9.190000000000000391e-01,2.126756323391779391e-01,-1.431892369319212252e-02,1.461856881625020199e-01
9.200000000000000400e-01,2.367010908717339934e-01,2.031375839986453991e-01,9.743068544132621467e-03
9.210000000000000409e-01,-4.386825813696397514e-02,1.680980445931444245e-01,-1.433263647176971078e-01
9.220000000000000417e-01,-2.709424192115112984e-01,-6.825219961075233710e-02,-1.200696119945329488e-01
9.230000000000000426e-01,-1.614332147104942383e-01,-2.161190639428512417e-01,6.969349615649117480e-02
9.240000000000000435e-01,1.494571871770167260e-01,-9.040175549770475272e-02,1.558667998241064223e-01
9.250000000000000444e-01,2.554218162891158661e-01,1.600692899569359784e-01,5.738996583632655080e-02
9.260000000000000453e-01,4.073395792882933408e-02,2.045931228938657198e-01,-1.200887138717790931e-01
9.270000000000000462e-01,-2.248368180908790204e-01,-7.735842994559194268e-03,-1.336774948304219335e-01
9.280000000000000471e-01,-2.131330975753884804e-01,-2.055857549994034861e-01,-6.223795765563071118e-03
9.290000000000000480e-01,8.023513021847746007e-02,-1.236136375850535180e-01,1.720083473929634177e-01
9.300000000000000488e-01,2.724735475457852329e-01,1.059105019300770056e-01,1.008021542879032478e-01
9.310000000000000497e-01,1.108362489688929503e-01,2.013378994861264315e-01,-5.887697358945825910e-02
9.320000000000000506e-01,-1.971569947716988735e-01,1.206061797164250521e-02,-1.690336840493175397e-01
9.330000000000000515e-01,-2.348966959650851394e-01,-1.945894451367616296e-01,-4.451336848385642475e-02
9.340000000000000524e-01,9.007668072318300578e-03,-1.541442147118768924e-01,1.321846769137106914e-01
9.350000000000000533e-01,2.646377087335622935e-01,7.535678533961764902e-02,1.505345289726981728e-01
9.360000000000000542e-01,1.738936723924773553e-01,2.142097323595454073e-01,-2.653043140534498689e-02
9.370000000000000551e-01,-1.120431541284987731e-01,7.080909444094383998e-02,-1.480643886990984093e-01
9.379999999999999449e-01,-2.561926990961030381e-01,-1.736166981443080792e-01,-9.969516623030780234e-02
9.389999999999999458e-01,-1.170844980277737230e-01,-1.899675400364106426e-01,7.128738494077202503e-02
9.399999999999999467e-01,2.173259077578935661e-01,2.587655978153700909e-02,1.663304494917109688e-01
9.409999999999999476e-01,2.171484882214751166e-01,1.991223908623910022e-01,4.605242094936332770e-02
9.419999999999999485e-01,-5.163894775315883839e-02,1.275121148861266263e-01,-1.526248460501251070e-01
9.429999999999999494e-01,-2.727995440345233891e-01,-1.271481391606768263e-01,-1.486848611903579531e-01
9.439999999999999503e-01,-1.385961938210796551e-01,-2.144365296912712215e-01,2.685591860593930860e-02
9.449999999999999512e-01,1.748790366219694914e-01,-3.277455437972467273e-02,1.543886558003643161e-01
9.459999999999999520e-01,2.732034170349668112e-01,1.919650863457186551e-01,8.006640253805888396e-02
9.469999999999999529e-01,4.671668768093196339e-02,1.406718747065120456e-01,-1.095577787181259144e-01
9.479999999999999538e-01,-2.272507145202993240e-01,-8.156283277483572514e-02,-1.504336798040575018e-01
9.489999999999999547e-01,-2.185607026457381530e-01,-2.222355033473387975e-01,-3.469706576488582050e-02
9.499999999999999556e-01,7.871992096205593370e-02,-6.505730242686777465e-02,1.364512455950711023e-01
9.509999999999999565e-01,2.755726513545054268e-01,1.697393244631611453e-01,1.165752864632332436e-01
9.519999999999999574e-01,1.026433784052970116e-01,2.011057504248213446e-01,-2.368347413738981083e-02
9.529999999999999583e-01,-2.108812680315322041e-01,-4.069314179723959590e-02,-1.483852667210269483e-01
9.539999999999999591e-01,-2.290779155450202442e-01,-2.070753896188467780e-01,-8.837325217413156964e-02
9.549999999999999600e-01,1.849769449155862916e-02,-1.224725040258430875e-01,1.022190235667695124e-01
9.559999999999999609e-01,2.561821470444548554e-01,1.244859351637732786e-01,1.530640641906683141e-01
9.569999999999999618e-01,1.655412153699369060e-01,1.993585436536906563e-01,3.152747768969559744e-02
9.579999999999999627e-01,-1.427450399098985356e-01,1.444112404602484502e-02,-1.502140321934253564e-01
9.589999999999999636e-01,-2.682678078558777823e-01,-1.849965064344435695e-01,-1.330859655255086926e-01
9.599999999999999645e-01,-7.915522506216300658e-02,-1.422914863572283806e-01,5.313410468098524186e-02
9.609999999999999654e-01,2.308078656741424095e-01,7.268055262547190587e-02,1.364844562166318276e-01
9.619999999999999662e-01,1.987893428350880343e-01,2.211173708054503806e-01,8.330868874717044237e-02
9.629999999999999671e-01,-4.441738850139207578e-02,6.857719315536721372e-02,-1.134984907719694402e-01
9.639999999999999680e-01,-2.560604423883186542e-01,-1.651178653214066538e-01,-1.603307058573911204e-01
9.649999999999999689e-01,-1.267726226154403391e-01,-1.757681295547308953e-01,-8.995772388837013772e-03
9.659999999999999698e-01,1.683562066829047132e-01,4.284911317706638356e-02,1.383319527090423884e-01
9.669999999999999707e-01,2.538636745333868738e-01,2.219574806334002615e-01,9.765238327782985173e-02
9.679999999999999716e-01,2.475482055164260342e-02,1.227007926769507901e-01,-4.841045690999982998e-02
9.689999999999999725e-01,-2.606426812061775067e-01,-1.345496552825323489e-01,-1.625893541162576894e-01
9.699999999999999734e-01,-1.943473749910013260e-01,-1.965435361916902934e-01,-7.691768060579287636e-02
9.709999999999999742e-01,8.730691696349657249e-02,-1.178147361764741476e-03,1.218474811497879395e-01
9.719999999999999751e-01,2.657153750727458963e-01,2.053831513782437834e-01,1.617133057022799025e-01
9.729999999999999760e-01,8.832081734083643831e-02,1.403021384782941472e-01,-4.195815701407232950e-03
9.739999999999999769e-01,-2.238256275884366320e-01,-8.260485734877945352e-02,-1.490065761531666477e-01
9.749999999999999778e-01,-2.374698985383247862e-01,-2.034524459152600717e-01,-1.049176925395824689e-01
9.759999999999999787e-01,4.244640161357025182e-02,-4.958841589547892392e-02,8.317586946601834841e-02
9.769999999999999796e-01,2.695640936168914314e-01,1.559461350776262245e-01,1.598796003155478762e-01
9.779999999999999805e-01,1.550876758325182569e-01,1.699020935858525927e-01,5.407367123819969285e-02
9.789999999999999813e-01,-1.415174559567020651e-01,-5.847866708656540569e-02,-1.297449899754921643e-01
9.799999999999999822e-01,-2.558145222034237110e-01,-1.961589110814827008e-01,-1.475373397263589625e-01
9.809999999999999831e-01,-4.887663679738740719e-02,-1.206059373326452272e-01,2.877653288231581466e-02
9.819999999999999840e-01,2.254371349772781030e-01,1.429723499976428003e-01,1.538624245288185977e-01
9.829999999999999849e-01,2.132597736293886936e-01,1.977246135399016169e-01,1.009905203222357939e-01
9.839999999999999858e-01,-5.992230376424979160e-02,-3.751392835650666814e-03,-7.043927902439231503e-02
9.849999999999999867e-01,-2.744163599333424575e-01,-2.041710114990708258e-01,-1.457227009650917948e-01
9.859999999999999876e-01,-1.272873972339682580e-01,-1.411807912017044031e-01,-2.186450259682575642e-02
9.869999999999999885e-01,1.769179800529694091e-01,1.008784254396661584e-01,1.226523822612278630e-01
9.879999999999999893e-01,2.608223664553575571e-01,2.028726370999666961e-01,1.375302612325285945e-01
9.889999999999999902e-01,1.755627433979761688e-03,3.956826139923581842e-02,-2.308459546282549957e-02
9.899999999999999911e-01,-2.464332250183163542e-01,-1.790899278292320540e-01,-1.726780441634498120e-01
9.909999999999999920e-01,-1.713944407228537026e-01,-1.868178574422910132e-01,-7.818392029013053468e-02
9.919999999999999929e-01,1.254950241831521707e-01,5.002340432000560583e-02,8.751578988647024104e-02
9.929999999999999938e-01,2.718445990372458376e-01,2.084932453774896444e-01,1.614801288125057577e-01
9.939999999999999947e-01,7.974539168218554297e-02,8.829362497292106426e-02,1.249034513084009389e-02
9.949999999999999956e-01,-2.138154185378394190e-01,-1.362764515499405304e-01,-1.334329459891280267e-01
9.959999999999999964e-01,-2.065196220531910487e-01,-1.895747445471969161e-01,-1.326704989191172246e-01
9.969999999999999973e-01,2.762593083339736147e-02,2.539563932030545947e-03,2.752925270426452575e-02
9.979999999999999982e-01,2.529156963652984258e-01,1.942825404495676644e-01,1.615248339301283420e-01
9.989999999999999991e-01,1.483883423557018078e-01,1.318925579696194617e-01,8.919739506828683329e-02
1.000000000000000000e+00,-1.445907141610109359e-01,-1.234748426862171816e-01,-1.020379824993613016e-01
1.000999999999999890e+00,-2.474575163349124474e-01,-2.028510925790752983e-01,-1.593049966222359615e-01
1.002000000000000002e+00,-3.864402273650636988e-02,-4.134052580841874464e-02,-1.136119658576403152e-02
1.002999999999999892e+00,2.204850734604355267e-01,1.817304158603696984e-01,1.465379314479098305e-01
1.004000000000000004e+00,2.093757074320615197e-01,1.608355833722819594e-01,9.395721784680016730e-02
1.004999999999999893e+00,-9.237376024167032185e-02,-5.692248217044748593e-02,-4.457398422009566097e-02
1.006000000000000005e+00,-2.835830632019539777e-01,-2.147447606422587807e-01,-1.595945272167174078e-01
1.006999999999999895e+00,-1.113602614062613599e-01,-8.612560432166005420e-02,-6.622593589157492466e-02
1.008000000000000007e+00,1.819461877669370786e-01,1.489282635853109715e-01,1.201857218878190636e-01
1.008999999999999897e+00,2.463875209873748473e-01,1.935610277153003156e-01,1.593546586988884295e-01
1.010000000000000009e+00,1.000577946993768536e-02,-1.671587804501439498e-02,7.447544329640434259e-03
1.010999999999999899e+00,-2.563738960942124057e-01,-1.892702101985418994e-01,-1.448580242269734975e-01
1.012000000000000011e+00,-1.719783900753119599e-01,-1.306697961655330364e-01,-1.061311711353887244e-01
1.012999999999999901e+00,1.149851511079987287e-01,1.049405510019291443e-01,6.798176565439094376e-02
1.014000000000000012e+00,2.594276010574512181e-01,2.129703180955359876e-01,1.750466908032926316e-01
1.014999999999999902e+00,6.021289543974722713e-02,4.298808037260408443e-02,4.222303188117052658e-02
1.016000000000000014e+00,-2.110743891382269311e-01,-1.931355743944782044e-01,-1.255496496549314001e-01
1.016999999999999904e+00,-2.343591485563081833e-01,-1.689121761528209753e-01,-1.623136427144850069e-01
1.018000000000000016e+00,4.986714311713745518e-02,5.380691992230453996e-02,2.356845461909582232e-02
1.018999999999999906e+00,2.794229415220853552e-01,2.169919925591695387e-01,1.511485428152591348e-01
1.020000000000000018e+00,1.262732787129604850e-01,1.040581649721094432e-01,1.098777534366373737e-01
1.020999999999999908e+00,-1.503413970011173162e-01,-1.377309351538270055e-01,-7.306852130169438908e-02
1.022000000000000020e+00,-2.572487348227383008e-01,-2.003329060677490059e-01,-1.587425058587881577e-01
1.022999999999999909e+00,-3.203689182468336810e-02,2.491383931153409725e-02,-4.774593849833180109e-02
1.024000000000000021e+00,2.519057788703727430e-01,1.980409686771686106e-01,1.200758021619553056e-01
1.024999999999999911e+00,1.903048007407706910e-01,1.199743668473193942e-01,1.696805875969669974e-01
1.026000000000000023e+00,-9.384986645583889842e-02,-1.049624604118630095e-01,-2.046144677151854122e-02
1.026999999999999913e+00,-2.891632658670516554e-01,-1.945876375124574731e-01,-1.649738998549044877e-01
1.028000000000000025e+00,-8.839703009495485098e-02,-1.664584789922383956e-02,-1.127133931379349085e-01
1.028999999999999915e+00,2.001200786887915029e-01,1.818565769330911241e-01,9.716911322690675867e-02
1.030000000000000027e+00,2.476626091706053689e-01,1.680182708262590030e-01,1.663287640512892129e-01
1.030999999999999917e+00,-2.820560904114356032e-02,-6.992137524385202973e-02,4.142887795853366500e-02
1.032000000000000028e+00,-2.560591902502766803e-01,-2.185715515425185884e-01,-1.320498903461469753e-01
1.032999999999999918e+00,-1.879675343029086343e-01,-5.726707427756827506e-02,-1.486612305471412543e-01
1.034000000000000030e+00,1.480235020498287812e-01,1.811078968077629581e-01,2.874395143765600888e-02
1.034999999999999920e+00,2.768797676800726637e-01,1.911568461385689810e-01,1.653966154679478995e-01
1.036000000000000032e+00,5.326910876950514268e-02,-9.291923653717910209e-03,9.757736305836652024e-02
1.036999999999999922e+00,-2.102351504257047032e-01,-1.912718469631423668e-01,-8.334147568842098508e-02
1.038000000000000034e+00,-2.191913195294254990e-01,-1.095729265707634792e-01,-1.616595005745244118e-01
1.038999999999999924e+00,6.260661205635381643e-02,1.119957761172891697e-01,-4.852901545434420288e-02
1.040000000000000036e+00,2.520994668697397190e-01,2.148500905582371723e-01,1.529068479282441051e-01
1.040999999999999925e+00,1.414923152685957919e-01,3.477587860854845087e-02,1.311134003847524987e-01
1.042000000000000037e+00,-1.653843082614089577e-01,-1.951767231896940069e-01,-2.337002817503485916e-02
1.042999999999999927e+00,-2.532230335125528753e-01,-1.643116889900540778e-01,-1.568735329034263437e-01
1.044000000000000039e+00,7.518181231717865030e-03,9.687249936036586295e-02,-8.035519362563599277e-02
1.044999999999999929e+00,2.324669924072036986e-01,2.142132941973825533e-01,9.651638529085181106e-02
1.046000000000000041e+00,1.904405897003940140e-01,6.380239827418897336e-02,1.386981978631772749e-01
1.046999999999999931e+00,-1.110310599903484990e-01,-1.539357083510066726e-01,6.932649273142771351e-03
1.048000000000000043e+00,-2.447234909716833884e-01,-1.827095647398861433e-01,-1.523869637160220336e-01
1.048999999999999932e+00,-8.888692480834543830e-02,3.040100437823991045e-02,-1.069896583513414573e-01
1.050000000000000044e+00,1.843076436728162126e-01,2.160057202436239665e-01,5.264260000372388698e-02
1.050999999999999934e+00,2.435597515362586118e-01,1.345729697093371313e-01,1.464246114695873235e-01
1.052000000000000046e+00,-8.250696653841281536e-03,-1.372934145444214549e-01,5.213220526240339853e-02
1.052999999999999936e+00,-2.521055058886627065e-01,-2.072746619218434061e-01,-1.134639621562102130e-01
1.054000000000000048e+00,-1.500442242611952637e-01,-3.062532156203849262e-02,-1.571085808297629227e-01
1.054999999999999938e+00,1.347883980448605079e-01,2.223628730896239358e-01,-7.121407084492475253e-03
1.056000000000000050e+00,2.498248716121777846e-01,1.474215394100319987e-01,1.605318116351625024e-01
1.056999999999999940e+00,5.683752245555779431e-02,-7.129486280940021403e-02,1.277168668808836560e-01
1.058000000000000052e+00,-2.434521641381378887e-01,-2.300442062986369218e-01,-8.655264660201150706e-02
1.058999999999999941e+00,-2.090684791788784413e-01,-7.073230321624147943e-02,-1.785930054116943722e-01
1.060000000000000053e+00,6.463935712136180400e-02,1.654107655464872040e-01,-5.061226832691259614e-02
1.060999999999999943e+00,2.775390303017759575e-01,1.803305302075638994e-01,1.342775052733943264e-01
1.062000000000000055e+00,8.159901711570365090e-02,-4.312404761093010380e-02,1.369484488906847486e-01
1.062999999999999945e+00,-1.832435756576228369e-01,-2.076686671211755431e-01,-2.109785110370445901e-02
1.064000000000000057e+00,-2.405329584050428515e-01,-1.073866371530453612e-01,-1.467485956146549475e-01
1.064999999999999947e+00,-3.797634702120001454e-02,1.351786275229950318e-01,-1.128475332344875404e-01
1.066000000000000059e+00,2.531961367559801279e-01,2.093604704223790414e-01,6.191976829220280365e-02
1.066999999999999948e+00,1.997116396965447904e-01,-6.938094042781494612e-04,1.569180110105310721e-01
1.068000000000000060e+00,-1.161683026860924339e-01,-2.058712009523726849e-01,4.501510588498107424e-02
1.068999999999999950e+00,-2.631312312454234803e-01,-1.296141467559219218e-01,-1.499786787136817012e-01
1.070000000000000062e+00,-7.582696876879731207e-02,9.024166245940064279e-02,-1.623816761389160201e-01
1.070999999999999952e+00,2.009784480217536307e-01,2.213882682855348172e-01,8.848602843538002152e-03
1.072000000000000064e+00,2.170973446789261074e-01,6.243679075364188397e-02,1.522704619918526792e-01
1.072999999999999954e+00,-5.696155535706785844e-02,-1.824648148775606105e-01,7.631731037409608676e-02
1.074000000000000066e+00,-2.741144684034186318e-01,-1.650998210275227696e-01,-8.281608228203624078e-02
1.074999999999999956e+00,-1.524926682560979185e-01,4.989724686792247621e-02,-1.590503382607951488e-01
1.076000000000000068e+00,1.584590751147267051e-01,2.327837574073590710e-01,-4.320587443325325100e-02
1.076999999999999957e+00,2.557985206815832635e-01,9.668401923336120141e-02,1.179454215353602925e-01
1.078000000000000069e+00,3.281536640590528020e-02,-1.452176653468930378e-01,1.367098638362439500e-01
1.078999999999999959e+00,-2.316203786276616050e-01,-2.120830635645450102e-01,-2.975925099175359342e-02
1.080000000000000071e+00,-2.200324748297557420e-01,-5.276427836885435717e-04,-1.610680862890042919e-01
1.080999999999999961e+00,8.701218788267379989e-02,2.031663738508005246e-01,-8.657945287160695447e-02
1.082000000000000073e+00,2.794740598816815580e-01,1.354695893125623940e-01,9.522953369690743963e-02
1.082999999999999963e+00,1.211490376304288075e-01,-1.128921922065055511e-01,1.513678906931791579e-01
1.084000000000000075e+00,-1.756304053771211848e-01,-2.238011342681130167e-01,2.295931445299954216e-02
1.084999999999999964e+00,-2.713753982750515270e-01,-5.194805267318456515e-02,-1.370147637059981605e-01
1.086000000000000076e+00,1.412345749942619556e-02,1.929878110212744358e-01,-1.239099052906424414e-01
1.086999999999999966e+00,2.536692492897289486e-01,1.659176857059206922e-01,3.964913971730392450e-02
1.088000000000000078e+00,1.889959547995359868e-01,-6.124488378390675197e-02,1.470041894168322150e-01
1.088999999999999968e+00,-1.240579871801090195e-01,-2.244940093003270076e-01,7.549631566015542472e-02
1.090000000000000080e+00,-2.630207225550686978e-01,-8.926817889250401872e-02,-1.022093251650019324e-01
1.090999999999999970e+00,-6.344608676105364942e-02,1.394458038210097117e-01,-1.389092067289207366e-01
1.092000000000000082e+00,2.005383117859606823e-01,1.973838694607067679e-01,-1.354930840515939511e-02
1.092999999999999972e+00,2.085117394697134918e-01,-1.154967217500975536e-02,1.591370133446840807e-01
1.094000000000000083e+00,-5.869238479219012622e-02,-2.047878118990758833e-01,1.139819985247160772e-01
1.094999999999999973e+00,-2.562169638379522829e-01,-1.291883671797553201e-01,-6.333905024043041954e-02
1.096000000000000085e+00,-1.277702844491432066e-01,1.039638377958087834e-01,-1.557473184419857770e-01
1.096999999999999975e+00,1.683241604125097768e-01,2.140344560376620520e-01,-6.830606416547359283e-02
1.098000000000000087e+00,2.584538662788361529e-01,3.411536469497188084e-02,1.102021976208591991e-01
1.098999999999999977e+00,2.079199740874213692e-02,-1.840749076792163597e-01,1.385007193283842308e-01
1.100000000000000089e+00,-2.544682009290931135e-01,-1.712746210250794265e-01,1.529313650955860943e-02
1.100999999999999979e+00,-2.085742306444215433e-01,6.129952543852423136e-02,-1.396316831077439868e-01
1.102000000000000091e+00,8.298519223078085205e-02,2.076917787013411454e-01,-1.162695432052883449e-01
1.102999999999999980e+00,2.788110446061774494e-01,8.431006314384774381e-02,4.697706058606124224e-02
1.104000000000000092e+00,1.051930845551984212e-01,-1.396849389776663175e-01,1.611371969302416718e-01
1.104999999999999982e+00,-1.928160928804687479e-01,-1.869180054838985583e-01,3.356942791205023285e-02
1.106000000000000094e+00,-2.391937635941591977e-01,1.939352934571435608e-02,-1.176463756044605208e-01
1.106999999999999984e+00,2.844301950590153241e-02,2.210245928525238490e-01,-1.471046787358679386e-01
1.108000000000000096e+00,2.652513821424055673e-01,1.315026263434986298e-01,8.736983505986598356e-03
1.108999999999999986e+00,1.819906751249552868e-01,-1.228170866525481186e-01,1.499148593086235270e-01
1.110000000000000098e+00,-1.382997345881895879e-01,-2.189197176482615970e-01,1.044593739478331396e-01
1.110999999999999988e+00,-2.721996836892129901e-01,-4.951858660019924085e-02,-7.194493287068128018e-02
1.112000000000000099e+00,-4.677571158745953001e-02,1.863823219882725923e-01,-1.595047756922873261e-01
1.112999999999999989e+00,2.101798013345572147e-01,1.629794376952744261e-01,-3.338335770393824342e-02
1.114000000000000101e+00,2.389631396936103269e-01,-7.064012786364623486e-02,1.290014604178898183e-01
1.114999999999999991e+00,-7.511114682434813505e-02,-2.175617836311590225e-01,1.549332973774873168e-01
1.116000000000000103e+00,-2.901049070687969911e-01,-9.664027468079205985e-02,2.418550386882851544e-04
1.116999999999999993e+00,-1.275994329783869397e-01,1.502657321933550394e-01,-1.360823784100090861e-01
1.118000000000000105e+00,1.672268315034268482e-01,1.882776223562366846e-01,-9.680828162484596267e-02
1.118999999999999995e+00,2.538269349538538888e-01,-1.155162827701907216e-02,9.174249823470473353e-02
1.120000000000000107e+00,2.417969552919843265e-02,-1.944936922497241261e-01,1.654764090970282930e-01
1.120999999999999996e+00,-2.321775382159131373e-01,-1.312241719092589742e-01,3.557690982389661444e-02
1.122000000000000108e+00,-1.959097412403281446e-01,1.071251644858893237e-01,-1.386895222089490898e-01
1.122999999999999998e+00,1.183790528386819418e-01,2.131440939388003220e-01,-1.400065816797320950e-01
1.124000000000000110e+00,2.683767376353689005e-01,2.325135155039882023e-02,1.164309660252998979e-02
1.125000000000000000e+00,8.607447963476178021e-02,-1.819822713477531606e-01,1.740732350245652871e-01
1.125999999999999890e+00,-2.072072066384299804e-01,-1.414491222790846547e-01,8.181980514661355008e-02
1.127000000000000002e+00,-2.249644584279424098e-01,6.565084563971085307e-02,-1.050277243277910055e-01
1.127999999999999892e+00,1.958977425205342404e-02,2.169538935196579921e-01,-1.432821974113332453e-01
1.129000000000000004e+00,2.634286413049278242e-01,8.413134776553388150e-02,-2.045153398502905923e-02
1.129999999999999893e+00,1.527500740814576874e-01,-1.486292110829444124e-01,1.551185662380125396e-01
1.131000000000000005e+00,-1.505742446089489428e-01,-1.928575774776756790e-01,1.138685893537243338e-01
1.131999999999999895e+00,-2.682502603290932708e-01,2.046825131038797901e-02,-5.867608192555513053e-02
1.133000000000000007e+00,-4.791625388574533712e-02,2.159385342635138094e-01,-1.448950644730243043e-01
1.133999999999999897e+00,2.374366748977504438e-01,1.191404136362254895e-01,-9.207198487227823136e-02
1.135000000000000009e+00,2.156123064452809268e-01,-1.215118439794043714e-01,1.079317768740609002e-01
1.135999999999999899e+00,-6.392270151908882592e-02,-2.065646276326651709e-01,1.280156293342067375e-01
1.137000000000000011e+00,-2.617782255210206466e-01,-4.252553357748427298e-02,-3.425443369180121173e-03
1.137999999999999901e+00,-1.267338119199873103e-01,2.045359061379723731e-01,-1.492806627735116520e-01
1.139000000000000012e+00,1.721789434911625560e-01,1.411878902123692159e-01,-1.247942139428533243e-01
1.139999999999999902e+00,2.604146560356626061e-01,-8.041700904023424412e-02,4.823519427694461514e-02
1.141000000000000014e+00,2.600302671393934020e-02,-2.244733214875963001e-01,1.542279188853957761e-01
1.141999999999999904e+00,-2.375640851737178261e-01,-6.091384974876402902e-02,7.231373955746107918e-02
1.143000000000000016e+00,-1.946621117972382187e-01,1.590878954682541369e-01,-1.066137770158442216e-01
1.143999999999999906e+00,1.178988401326873242e-01,1.685968082589305028e-01,-1.528427634657397449e-01
1.145000000000000018e+00,2.485382750483414449e-01,-3.886205150047497558e-02,5.331014404510656980e-03
1.145999999999999908e+00,8.555926388787950254e-02,-2.053026266837839342e-01,1.300426642696027868e-01
1.147000000000000020e+00,-2.011776849814756185e-01,-1.040515313274032738e-01,1.258378410614466869e-01
1.147999999999999909e+00,-2.245169092948751388e-01,1.406336869251868515e-01,-5.585111000775359186e-02
1.149000000000000021e+00,5.455798998968026253e-02,2.173059869142171807e-01,-1.683028022999530915e-01
1.149999999999999911e+00,2.305179040682730218e-01,6.992218624823160790e-03,-6.148089842151981121e-02
1.151000000000000023e+00,1.306946646427665226e-01,-2.067637819480907524e-01,1.285474253220056928e-01
1.151999999999999913e+00,-1.584799478446116405e-01,-1.339399273055418282e-01,1.503031788189431450e-01
1.153000000000000025e+00,-2.676730056061840113e-01,9.806619615781141108e-02,-4.780957054955868590e-03
1.153999999999999915e+00,-2.284413502537681329e-02,2.186809190052042273e-01,-1.551644951260254257e-01
1.155000000000000027e+00,2.515125934076865022e-01,6.470990855490348082e-02,-9.846532434964169744e-02
1.155999999999999917e+00,1.910386152614493294e-01,-1.786402374390111403e-01,7.889913281664656663e-02
1.157000000000000028e+00,-6.430701104815060576e-02,-1.843615805006107722e-01,1.637919179641016965e-01
1.157999999999999918e+00,-2.887067058940281372e-01,4.677886683006243773e-02,4.734166678987582200e-02
1.159000000000000030e+00,-1.017687800883647770e-01,2.367602080378881646e-01,-1.327728785383253396e-01
1.159999999999999920e+00,1.884660692298083529e-01,1.195216186515880158e-01,-1.302871266394148853e-01
1.161000000000000032e+00,2.303600455426233762e-01,-1.385121317599275481e-01,2.649859671975682632e-02
1.161999999999999922e+00,-4.053873936326971190e-03,-2.131210578281849954e-01,1.576444013362100771e-01
1.163000000000000034e+00,-2.535369306311989757e-01,-1.410583664372391278e-03,8.109462090491523223e-02
1.163999999999999924e+00,-1.783981367802437989e-01,1.760490502066447138e-01,-8.034792638590149139e-02
1.165000000000000036e+00,1.342821584053911499e-01,1.400350579132304263e-01,-1.706083721333047643e-01
1.165999999999999925e+00,2.808914532440224820e-01,-1.047704278736812100e-01,-5.113864215223525717e-02
1.167000000000000037e+00,5.897756993619425459e-02,-2.108998079437582607e-01,1.504683036683339137e-01
1.167999999999999927e+00,-2.207909809091180842e-01,-5.746524062359478074e-02,1.303723533701691417e-01
1.169000000000000039e+00,-2.443333970075477479e-01,1.745225936878777029e-01,-3.812454895286272738e-02
1.169999999999999929e+00,5.679080156538569846e-02,1.812013705256942386e-01,-1.560883698035003819e-01
1.171000000000000041e+00,2.743730363073563217e-01,-4.300642631608291716e-02,-8.163000847560500373e-02
1.171999999999999931e+00,1.087845749630843156e-01,-2.178720413418309410e-01,7.485686463989575656e-02
1.173000000000000043e+00,-1.677784604674496527e-01,-1.018957301626298440e-01,1.570434426283633944e-01
1.173999999999999932e+00,-2.398727803096669386e-01,1.500757328119453893e-01,3.773572914292631919e-02
1.175000000000000044e+00,-1.802185169796371306e-02,1.897867855032064344e-01,-1.369225787282681850e-01
1.175999999999999934e+00,2.346195997168119829e-01,-5.100697539449910480e-03,-1.391650463884268607e-01
1.177000000000000046e+00,2.029565607788900161e-01,-1.935350018943421957e-01,5.602678721104702858e-02
1.177999999999999936e+00,-1.006140777944869030e-01,-1.323372047050408451e-01,1.531116548743099715e-01
1.179000000000000048e+00,-3.021640116124248432e-01,9.453535348028073437e-02,7.542891905042102552e-02
1.179999999999999938e+00,-9.826829280324833604e-02,2.066843072090094879e-01,-1.177618940341646353e-01
