time,acc_x,acc_y,acc_z
0.000000000000000000e+00,1.574253513542591965e-01,1.344949702981599327e-01,7.683785093134713751e-02
1.000000000000000021e-03,1.678470726547123260e-01,1.439577934484875810e-01,8.928279960514796942e-02
2.000000000000000042e-03,1.772210500830637414e-01,1.520556068845357600e-01,9.754245013034196221e-02
3.000000000000000062e-03,1.914838750138778412e-01,1.585808848206291533e-01,9.887988169256477222e-02
4.000000000000000083e-03,1.869789512152869315e-01,1.578593888674081347e-01,1.106844926765891274e-01
5.000000000000000104e-03,1.925425696586400282e-01,1.492877965880755053e-01,1.163291496856363461e-01
6.000000000000000125e-03,2.027677470999554032e-01,1.520957851835980645e-01,1.225706690288519973e-01
7.000000000000000146e-03,1.945108999720445431e-01,1.528822585317523575e-01,1.266518584829862404e-01
8.000000000000000167e-03,2.006672560752566226e-01,1.522190033709423240e-01,1.148680440707892658e-01
8.999999999999999320e-03,1.911697218279345412e-01,1.517775350163278469e-01,1.218523694375461680e-01
1.000000000000000021e-02,1.782644945735435971e-01,1.401232940519550885e-01,1.190561187621431843e-01
1.099999999999999936e-02,1.766024306373368269e-01,1.313151302144491273e-01,1.098862769072115192e-01
1.200000000000000025e-02,1.686746594488383322e-01,1.312872360855528442e-01,9.928932342551391454e-02
1.299999999999999940e-02,1.534462747989993048e-01,1.220757466075571562e-01,1.036952805720229992e-01
1.400000000000000029e-02,1.612209323970633656e-01,9.310824169807670192e-02,9.167944105822389833e-02
1.499999999999999944e-02,1.292549499724595097e-01,8.080485424574697373e-02,9.662448359659356334e-02
1.600000000000000033e-02,1.246904531821780293e-01,8.228366455175957495e-02,9.550836963119256617e-02
1.700000000000000122e-02,1.081148373818214270e-01,5.380940330673103511e-02,7.081185157898456373e-02
1.799999999999999864e-02,8.386183631793794890e-02,5.077586819465819412e-02,6.552684193263026702e-02
1.899999999999999953e-02,7.263031699914587747e-02,4.120646209728737186e-02,5.426437865872142663e-02
2.000000000000000042e-02,5.659670554985935659e-02,2.821467465235276764e-02,4.656821735163970549e-02
2.100000000000000130e-02,3.517148208751204319e-02,5.899049294541690476e-03,3.556625885088126465e-02
2.199999999999999872e-02,1.668006874530852945e-02,-5.263498569784163562e-03,2.023906937687106056e-02
2.299999999999999961e-02,3.886829953668465118e-04,-1.158593809759271044e-02,1.704851183270314138e-02
2.400000000000000050e-02,-3.003515605195416008e-02,-3.400782002755311367e-02,-5.926132889122420842e-04
2.500000000000000139e-02,-3.971223513598449995e-02,-4.662534876506965742e-02,-6.864060695478015409e-03
2.599999999999999881e-02,-5.745906752936379147e-02,-6.665448903287517213e-02,-1.563810993179623465e-02
2.699999999999999969e-02,-7.462013549613005781e-02,-8.656874044576207128e-02,-3.132922216188456510e-02
2.800000000000000058e-02,-9.232148157075754924e-02,-9.362642065340071040e-02,-4.827935343593806050e-02
2.900000000000000147e-02,-1.231066250436014947e-01,-1.126623413680200858e-01,-5.910463080474405440e-02
2.999999999999999889e-02,-1.242244137805919996e-01,-1.181195874097114712e-01,-6.525398526989269199e-02
3.099999999999999978e-02,-1.544611380909484966e-01,-1.213438768709620835e-01,-7.672803085440410564e-02
3.200000000000000067e-02,-1.576261939569564841e-01,-1.333196301374514892e-01,-8.489673258359478614e-02
3.300000000000000155e-02,-1.681866409120153227e-01,-1.478545191733400821e-01,-8.701108298127728513e-02
3.400000000000000244e-02,-1.728179826072455960e-01,-1.430741380457317968e-01,-1.014853705420795532e-01
3.500000000000000333e-02,-1.854764558950101339e-01,-1.509691192134130500e-01,-8.778422162033538978e-02
3.599999999999999728e-02,-1.974246958088652082e-01,-1.527500197479335631e-01,-1.167944619449704513e-01
3.699999999999999817e-02,-1.921642271926157775e-01,-1.653550431105455798e-01,-1.156525377297877716e-01
3.799999999999999906e-02,-1.898637052660972491e-01,-1.477901913722544369e-01,-1.172197074455801208e-01
3.899999999999999994e-02,-2.034040571426311839e-01,-1.590282706593163231e-01,-1.159144167783394686e-01
4.000000000000000083e-02,-1.895343377462672674e-01,-1.505466359397014953e-01,-1.023213737996567785e-01
4.100000000000000172e-02,-1.910526551360344494e-01,-1.532304421848868781e-01,-1.097419206944737491e-01
4.200000000000000261e-02,-1.937560062975898778e-01,-1.471799546386502178e-01,-1.193126008365169854e-01
4.299999999999999656e-02,-1.863828822484357994e-01,-1.427663287206177301e-01,-1.171064082080737062e-01
4.399999999999999745e-02,-1.727875177433921550e-01,-1.200547636134287888e-01,-1.084876312917584518e-01
4.499999999999999833e-02,-1.630145160441699714e-01,-1.169598321531819390e-01,-1.110682065055641210e-01
4.599999999999999922e-02,-1.568470114841432894e-01,-1.062284372971993435e-01,-9.038872271421023730e-02
4.700000000000000011e-02,-1.414901443400981285e-01,-9.799500338958505585e-02,-8.844672346031394461e-02
4.800000000000000100e-02,-1.253257976991867806e-01,-7.676564578148999118e-02,-9.119104378795934995e-02
4.900000000000000189e-02,-1.161231128606987906e-01,-6.475047985429016606e-02,-7.882027286348206041e-02
5.000000000000000278e-02,-9.756325543034201353e-02,-5.523864021043720096e-02,-7.086699387370469505e-02
5.099999999999999672e-02,-7.992830607572018464e-02,-3.483267030489582000e-02,-4.822426239857657143e-02
5.199999999999999761e-02,-6.565676897797016742e-02,-2.933737739219060420e-02,-3.828949724592056736e-02
5.299999999999999850e-02,-4.572043247473489558e-02,-4.589309425775633250e-03,-3.169200473846989219e-02
5.399999999999999939e-02,-2.036606409905136750e-02,-1.020601492755122616e-03,-2.905999214934596245e-02
5.500000000000000028e-02,1.576598924077004821e-03,1.979468386140920480e-02,-1.416621457802618583e-02
5.600000000000000117e-02,1.297292861643391942e-02,4.751751214811685692e-02,-3.121301788357226659e-03
5.700000000000000205e-02,3.565400067096956976e-02,4.268715433870872572e-02,1.292890590307109108e-02
5.800000000000000294e-02,5.642597144882792459e-02,7.325884781367303367e-02,6.013084473818474177e-03
5.899999999999999689e-02,8.146266534133284054e-02,8.667322880366672144e-02,2.365783392836909652e-02
5.999999999999999778e-02,9.391274774743427201e-02,9.683098419020945424e-02,3.646646349895922568e-02
6.099999999999999867e-02,1.191787876773990063e-01,1.072579326507988595e-01,3.628338254072022845e-02
6.199999999999999956e-02,1.275522628403576997e-01,1.159787953905573321e-01,6.197435854561741952e-02
6.300000000000000044e-02,1.432524899900795845e-01,1.289987391017270446e-01,6.310276194531801164e-02
6.400000000000000133e-02,1.527882507023937131e-01,1.378368037867168661e-01,7.690864374593350816e-02
6.500000000000000222e-02,1.691719118902813568e-01,1.459738946472722010e-01,8.577793142795094028e-02
6.600000000000000311e-02,1.703054740793530364e-01,1.529180291273161685e-01,9.018910343153459241e-02
6.700000000000000400e-02,1.756036020593428615e-01,1.582079221669767111e-01,1.012243056629536647e-01
6.800000000000000488e-02,1.950080850129709276e-01,1.486116310844304567e-01,1.070351548710903322e-01
6.900000000000000577e-02,1.958051010141264869e-01,1.451044783386929715e-01,1.029762860046343903e-01
7.000000000000000666e-02,1.932900868520785187e-01,1.589040851358138329e-01,1.107801345051847297e-01
7.099999999999999367e-02,1.999726291229320385e-01,1.611539642893104751e-01,1.229763050541250041e-01
7.199999999999999456e-02,1.967607042325856814e-01,1.499747932766373748e-01,1.167639391449497299e-01
7.299999999999999545e-02,1.924019470099775919e-01,1.488985590391674052e-01,1.215636493189999751e-01
7.399999999999999634e-02,1.975513968418431687e-01,1.363084611383561517e-01,1.114230915752807555e-01
7.499999999999999722e-02,1.850064581390325480e-01,1.406152701857509013e-01,1.136221678231391502e-01
7.599999999999999811e-02,1.868805093346028734e-01,1.308609942585757802e-01,1.124335436597535126e-01
7.699999999999999900e-02,1.708745627211999130e-01,1.152376922405602133e-01,1.035510836054294587e-01
7.799999999999999989e-02,1.665050427108520081e-01,1.076241856222356214e-01,1.146510007654298752e-01
7.900000000000000078e-02,1.407731631921067539e-01,8.832725273964026069e-02,1.032653787117666783e-01
8.000000000000000167e-02,1.333115919144053363e-01,7.439823575942801359e-02,8.311995095317704918e-02
8.100000000000000255e-02,1.149097951704395881e-01,6.181221559012546607e-02,9.224245386879301178e-02
8.200000000000000344e-02,9.346511997130781124e-02,3.894495797934725140e-02,6.863347404781447447e-02
8.300000000000000433e-02,8.104691913847311691e-02,3.497782695962370347e-02,7.386915322413424578e-02
8.400000000000000522e-02,5.999654439012203772e-02,1.483216603686365181e-02,4.477463832771731711e-02
8.500000000000000611e-02,4.558868920569557337e-02,1.564010789849033106e-02,4.300834384839237468e-02
8.599999999999999312e-02,1.985734404151759391e-02,-1.019947317068257975e-02,3.610856516003165678e-02
8.699999999999999400e-02,7.985476067704206857e-03,-2.390155236648987616e-02,3.111949767036898892e-02
8.799999999999999489e-02,-1.577122810877195150e-02,-4.196020955858353191e-02,1.249835060594650139e-02
8.899999999999999578e-02,-4.104724550451822190e-02,-6.397313975950043308e-02,3.723682248457160088e-03
8.999999999999999667e-02,-5.250347870943310874e-02,-6.449636100790044624e-02,-1.103284256819389748e-02
9.099999999999999756e-02,-8.115051499235388655e-02,-8.584952582386959352e-02,-2.718925569311993889e-02
9.199999999999999845e-02,-8.908879540746400538e-02,-8.772868923784575557e-02,-3.784602180507999625e-02
9.299999999999999933e-02,-1.117144678558867482e-01,-1.081128900260752562e-01,-4.246532842462641399e-02
9.400000000000000022e-02,-1.140019003974498402e-01,-1.095143381295606844e-01,-4.538469809255128717e-02
9.500000000000000111e-02,-1.311082145798348753e-01,-1.313125737866538689e-01,-6.302842586618444265e-02
9.600000000000000200e-02,-1.574999236686171755e-01,-1.357768525098631274e-01,-7.835875729293055592e-02
9.700000000000000289e-02,-1.705345334506066790e-01,-1.438802696215534804e-01,-8.363863621804246140e-02
9.800000000000000377e-02,-1.725078538768472225e-01,-1.586741457146383094e-01,-9.170063624761479182e-02
9.900000000000000466e-02,-1.856149692322185685e-01,-1.562050213704267720e-01,-9.852447328471805599e-02
1.000000000000000056e-01,-1.973908846527394068e-01,-1.532636898821286009e-01,-1.051622875703304150e-01
1.010000000000000064e-01,-1.939438084864854306e-01,-1.624092781167628952e-01,-1.098464974430335833e-01
1.019999999999999934e-01,-2.070065440737452467e-01,-1.601527418367222066e-01,-1.131645614644395115e-01
1.029999999999999943e-01,-2.015183311974256541e-01,-1.501859269314901046e-01,-1.260386922148661326e-01
1.039999999999999952e-01,-1.887831269703708903e-01,-1.598601541149637373e-01,-1.163784978033620132e-01
1.049999999999999961e-01,-1.955207423161547386e-01,-1.486599696466836262e-01,-1.256977089981372586e-01
1.059999999999999970e-01,-1.952923296987469914e-01,-1.528141399085169994e-01,-1.111592397465674814e-01
1.069999999999999979e-01,-1.917898910794020584e-01,-1.372009181134816180e-01,-1.238077135396453976e-01
1.079999999999999988e-01,-1.731606422543620905e-01,-1.235130221490301772e-01,-1.084515370485447244e-01
1.089999999999999997e-01,-1.711819468885824036e-01,-1.152859713388361407e-01,-1.071028761081007918e-01
1.100000000000000006e-01,-1.509035004928685475e-01,-1.049824823992167172e-01,-1.033046006912946291e-01
1.110000000000000014e-01,-1.461393142871899586e-01,-8.804865213040720395e-02,-9.539873644154299448e-02
1.120000000000000023e-01,-1.341436756622569615e-01,-7.172180086139882949e-02,-9.282648184043262862e-02
1.130000000000000032e-01,-1.178555363353962909e-01,-6.887994947095708864e-02,-8.173828785879172498e-02
1.140000000000000041e-01,-1.063916860988295826e-01,-4.282397220917028013e-02,-8.345559417790884837e-02
1.150000000000000050e-01,-7.963736566322474064e-02,-3.849537325354435158e-02,-8.015308605538287723e-02
1.160000000000000059e-01,-7.193434937470515045e-02,-2.220010906279253418e-02,-7.355707598760048704e-02
1.170000000000000068e-01,-3.682025173332258150e-02,-1.401973069558860993e-03,-5.115857244741893461e-02
1.179999999999999938e-01,-2.689012614036756163e-02,1.268976246229745579e-03,-3.603832842258675867e-02
1.189999999999999947e-01,-7.048211436562109786e-03,3.377036147725291648e-02,-3.740558248573536831e-02
1.199999999999999956e-01,1.603454415497002419e-02,3.253028466653728329e-02,-2.626028378526278073e-02
1.209999999999999964e-01,3.497599982160668614e-02,5.467396827258485387e-02,3.120437034256346234e-03
1.219999999999999973e-01,5.716322142412447183e-02,6.972723566529145933e-02,1.361959270115549979e-02
1.229999999999999982e-01,7.152734542439012633e-02,8.418505757136091061e-02,1.637359559332774231e-02
1.239999999999999991e-01,8.745278098165326641e-02,9.444477192080608097e-02,2.492327861648132789e-02
1.250000000000000000e-01,1.007413461696209794e-01,1.240135340435961075e-01,3.434564411445967941e-02
1.260000000000000009e-01,1.180903764384882704e-01,1.235164605235737900e-01,4.050490009194460117e-02
1.270000000000000018e-01,1.292208026799377407e-01,1.365665340098700942e-01,5.424972200217800106e-02
1.280000000000000027e-01,1.411803987965852270e-01,1.429230279617863530e-01,6.719043306345567901e-02
1.290000000000000036e-01,1.667016401535176273e-01,1.450265293324722038e-01,9.350316591872705196e-02
1.300000000000000044e-01,1.780754754217685198e-01,1.584324541519127050e-01,8.485852044949121487e-02
1.310000000000000053e-01,1.767903260116336639e-01,1.625021676268988968e-01,9.079333061676408967e-02
1.320000000000000062e-01,1.806910967555341307e-01,1.621881992292518171e-01,1.016150252237286028e-01
1.330000000000000071e-01,2.001105887026286556e-01,1.574267748156744362e-01,9.264760300096314127e-02
1.340000000000000080e-01,1.948152482369080452e-01,1.602392184155642108e-01,1.070355329230204544e-01
1.350000000000000089e-01,1.970800733126186199e-01,1.543697767678030852e-01,1.125613469198427780e-01
1.360000000000000098e-01,1.961964712185319815e-01,1.441547641503963806e-01,1.133355173469465516e-01
1.370000000000000107e-01,1.913572995677089439e-01,1.498513377605286689e-01,1.261065855684062320e-01
1.380000000000000115e-01,2.005045291230177773e-01,1.309744522118058696e-01,1.148601150492508521e-01
1.390000000000000124e-01,1.842527177477991662e-01,1.383595361798617418e-01,1.161523334754725190e-01
1.400000000000000133e-01,1.813862084779298833e-01,1.334868217835268878e-01,1.101494508556847829e-01
1.409999999999999865e-01,1.735058548044845772e-01,1.172796757703076231e-01,1.102060504629231441e-01
1.419999999999999873e-01,1.625347853898958528e-01,9.293807200729671536e-02,1.023151480364707377e-01
1.429999999999999882e-01,1.436210481161726005e-01,9.051265198469121698e-02,1.062465578030278718e-01
1.439999999999999891e-01,1.378671230127078429e-01,8.270717201334372437e-02,9.665064318073628147e-02
1.449999999999999900e-01,1.125310122849514372e-01,5.484741431333668010e-02,8.803630755425463639e-02
1.459999999999999909e-01,1.052124523618688245e-01,5.320399936196826274e-02,8.241475305347921443e-02
1.469999999999999918e-01,7.597073345417876267e-02,3.892785399298499122e-02,7.143716140225918332e-02
1.479999999999999927e-01,6.756725210736337639e-02,2.205396504086137507e-02,5.889389495176687583e-02
1.489999999999999936e-01,3.461531752155577041e-02,5.844146668769590637e-03,6.026875925405694029e-02
1.499999999999999944e-01,2.933655573543586179e-02,-9.274508972570701809e-03,5.209215139731141614e-02
1.509999999999999953e-01,9.377343492200996763e-03,-3.910613557243604321e-02,3.211882724511672116e-02
1.519999999999999962e-01,-2.228763003901317735e-02,-4.914945414529064277e-02,2.146153457382502308e-02
1.529999999999999971e-01,-1.717460014842023264e-02,-5.500553415940330482e-02,2.097503506124919967e-02
1.539999999999999980e-01,-3.898724884029870774e-02,-6.076606003770083919e-02,5.474793482299133290e-03
1.549999999999999989e-01,-6.825772349625117141e-02,-8.286923673888967057e-02,1.052289306259120150e-03
1.559999999999999998e-01,-8.735682161154358083e-02,-1.018979130964474539e-01,-1.655180657982796913e-02
1.570000000000000007e-01,-9.694313288365950798e-02,-1.079968971574151726e-01,-4.098217136712481445e-02
1.580000000000000016e-01,-1.140067740370147992e-01,-1.245880877522742847e-01,-3.350780749284511251e-02
1.590000000000000024e-01,-1.212369488578575322e-01,-1.352054499055692638e-01,-6.272102497552584088e-02
1.600000000000000033e-01,-1.402437514202457269e-01,-1.472162706229819262e-01,-6.080656336108085369e-02
1.610000000000000042e-01,-1.601125042849539382e-01,-1.475308898740803343e-01,-6.695749815668662619e-02
1.620000000000000051e-01,-1.707112411820474740e-01,-1.542076406405135658e-01,-7.092351693838812310e-02
1.630000000000000060e-01,-1.772709525019269539e-01,-1.559246849253240752e-01,-7.829075049235391381e-02
1.640000000000000069e-01,-1.969889026074808369e-01,-1.566755352680468949e-01,-9.772278855477845028e-02
1.650000000000000078e-01,-1.819467088425660573e-01,-1.600066497395853937e-01,-1.056004672232646324e-01
1.660000000000000087e-01,-1.829179754074911624e-01,-1.582576308867534309e-01,-1.065338722479184375e-01
1.670000000000000095e-01,-2.011679869717583058e-01,-1.610639704899705926e-01,-1.086325407541999105e-01
1.680000000000000104e-01,-1.993163836316124704e-01,-1.475948282874820494e-01,-1.200711957193082158e-01
1.690000000000000113e-01,-1.992812480506426509e-01,-1.353813952045143654e-01,-1.214254596458278629e-01
1.700000000000000122e-01,-1.823778934147872455e-01,-1.387645086447583664e-01,-1.190415179625958081e-01
1.710000000000000131e-01,-1.922266991343788423e-01,-1.317438851455195736e-01,-1.222691736122835104e-01
1.719999999999999862e-01,-1.809100596240663106e-01,-1.249791867850885141e-01,-1.327190945425630042e-01
1.729999999999999871e-01,-1.636168930034149205e-01,-1.091117376928772975e-01,-1.230656639477520492e-01
1.739999999999999880e-01,-1.587400506578622583e-01,-9.964564597048775063e-02,-1.047525853085527481e-01
1.749999999999999889e-01,-1.437095677729035570e-01,-9.225008751608199109e-02,-1.054157874924691457e-01
1.759999999999999898e-01,-1.418898460437818254e-01,-8.072374112838308358e-02,-9.227390621005457372e-02
1.769999999999999907e-01,-1.122866131893959923e-01,-6.655273228103451844e-02,-8.098039134352368051e-02
1.779999999999999916e-01,-1.041719466802275562e-01,-4.656975293743916694e-02,-8.976333573922051778e-02
1.789999999999999925e-01,-8.776724004723610029e-02,-3.275304746363907893e-02,-7.464953909241414665e-02
1.799999999999999933e-01,-7.879500029898958702e-02,-1.205876208001977791e-02,-7.491402304457074612e-02
1.809999999999999942e-01,-3.463805273556035819e-02,3.792965690509873377e-03,-5.161435883696722376e-02
1.819999999999999951e-01,-3.581127228644203492e-02,2.028182958516239892e-02,-5.249699354318525246e-02
1.829999999999999960e-01,-9.889713354738793524e-03,3.121064603774227619e-02,-4.638851708819772407e-02
1.839999999999999969e-01,8.285617035530172883e-03,5.141015291118267855e-02,-3.321781770768883479e-02
1.849999999999999978e-01,1.509341403557777975e-02,5.646301011888636007e-02,-1.707350884124221591e-02
1.859999999999999987e-01,3.544893702158268683e-02,7.729791253565823639e-02,-1.042399676130328565e-02
1.869999999999999996e-01,6.021922585524903254e-02,8.762280847812020657e-02,1.021334238082422657e-02
1.880000000000000004e-01,7.134148009632641785e-02,1.000603900830595999e-01,1.164865219025399898e-02
1.890000000000000013e-01,8.423806432360850249e-02,1.129521757028351808e-01,2.497356942950022460e-02
1.900000000000000022e-01,1.158628889992607131e-01,1.233106167561245359e-01,4.075163049329905834e-02
1.910000000000000031e-01,1.220425686756550637e-01,1.213359439689661867e-01,5.060366797470704919e-02
1.920000000000000040e-01,1.430897318802343554e-01,1.445766603408907558e-01,6.303040440821053303e-02
1.930000000000000049e-01,1.490721662540109016e-01,1.561523694594625089e-01,6.619531762802477459e-02
1.940000000000000058e-01,1.649326456782589101e-01,1.565362233106268319e-01,6.975181685000499121e-02
1.950000000000000067e-01,1.716830030446064026e-01,1.675538146402106021e-01,8.556968127944124258e-02
1.960000000000000075e-01,1.851486777257310978e-01,1.647710846818146724e-01,8.391786161082136208e-02
1.970000000000000084e-01,1.962636545752260986e-01,1.643069305802220825e-01,1.008266876646621568e-01
1.980000000000000093e-01,1.925894173456808578e-01,1.658635510510487188e-01,1.067862911187544700e-01
1.990000000000000102e-01,1.968903182554199438e-01,1.519060918529729631e-01,1.145196627733664485e-01
2.000000000000000111e-01,2.013301181206914592e-01,1.505399594689051102e-01,1.146114492833410353e-01
2.010000000000000120e-01,1.985784640228493714e-01,1.509144537577132295e-01,1.165662891857598416e-01
2.020000000000000129e-01,2.044111529091381108e-01,1.444379943810017164e-01,1.268682197972640369e-01
2.030000000000000138e-01,1.767525015718449388e-01,1.417465056989917482e-01,1.149196914331521435e-01
2.039999999999999869e-01,1.834368577974466452e-01,1.122682594497139141e-01,1.175432320243805090e-01
2.049999999999999878e-01,1.637498143585739974e-01,1.152828532098062186e-01,1.303494044946634234e-01
2.059999999999999887e-01,1.728974275236976055e-01,9.531102366739396814e-02,1.189217028630058515e-01
2.069999999999999896e-01,1.494129679331626104e-01,9.257577819572282429e-02,1.163343779182213211e-01
2.079999999999999905e-01,1.399574179271925733e-01,7.367821651022297968e-02,1.037410150292834843e-01
2.089999999999999913e-01,1.221282872106956158e-01,5.867932093484976713e-02,1.010286948115903388e-01
2.099999999999999922e-01,1.109195356387541326e-01,4.811158498697156588e-02,9.743623172575130442e-02
2.109999999999999931e-01,8.597902407199821406e-02,3.230754164004442236e-02,7.323391158947478718e-02
2.119999999999999940e-01,8.216538835841648292e-02,1.422509670008787440e-02,7.483157741500172377e-02
2.129999999999999949e-01,5.691511713432715475e-02,2.706986779151356916e-04,7.006712288632972740e-02
2.139999999999999958e-01,3.842344754240735460e-02,-2.371090177340093308e-02,5.665134360238353872e-02
2.149999999999999967e-01,2.098025242180613301e-02,-3.275929289273195322e-02,5.281573862828858185e-02
2.159999999999999976e-01,6.267165886050370983e-03,-4.324268991502557696e-02,3.467612918457497334e-02
2.169999999999999984e-01,-6.384541094532724184e-03,-5.220991494587279291e-02,2.083565361838644533e-02
2.179999999999999993e-01,-3.975862338091909476e-02,-7.828317996683060997e-02,1.820583694222483589e-02
2.190000000000000002e-01,-5.247951143584017597e-02,-9.730939484890593905e-02,-2.877167718591655717e-03
2.200000000000000011e-01,-6.870709725417614711e-02,-1.020578971646724231e-01,-1.784822836630785628e-02
2.210000000000000020e-01,-1.046695347862050263e-01,-1.246712532304067311e-01,-1.367888333152296118e-02
2.220000000000000029e-01,-1.132657724625718565e-01,-1.223930121904243939e-01,-3.388222047892378713e-02
2.230000000000000038e-01,-1.221913725635484504e-01,-1.356900351144273154e-01,-4.065367738280530746e-02
2.240000000000000047e-01,-1.423589447385914808e-01,-1.406045611450535415e-01,-5.156738841282166447e-02
2.250000000000000056e-01,-1.587338132097681487e-01,-1.479670442049081935e-01,-6.548073698779022234e-02
2.260000000000000064e-01,-1.616474054672182581e-01,-1.491560017046223152e-01,-6.865926329285650109e-02
2.270000000000000073e-01,-1.708854835465122013e-01,-1.578437687826071412e-01,-7.458063039929942184e-02
2.280000000000000082e-01,-1.704656838259047402e-01,-1.669276815523469126e-01,-9.057491198152418932e-02
2.290000000000000091e-01,-1.908714565170374911e-01,-1.598574923558656879e-01,-1.073085221885427820e-01
2.300000000000000100e-01,-1.873602669929760600e-01,-1.590235961035009193e-01,-1.072822681896780511e-01
2.310000000000000109e-01,-1.945659101202631691e-01,-1.526966420181241901e-01,-1.109588661595860976e-01
2.320000000000000118e-01,-1.955442924592453724e-01,-1.541216586310166503e-01,-1.205499422955547961e-01
2.330000000000000127e-01,-1.939763848138810753e-01,-1.404914286559956482e-01,-1.124171874034439605e-01
2.340000000000000135e-01,-1.898064449529027753e-01,-1.475407377687515953e-01,-1.151107229728712406e-01
2.349999999999999867e-01,-1.840519974799739167e-01,-1.393963051903502337e-01,-1.147237123503238032e-01
2.359999999999999876e-01,-1.838293561117196606e-01,-1.177120116686398016e-01,-1.174649182059672586e-01
2.369999999999999885e-01,-1.767746063210511864e-01,-1.011919260614138893e-01,-1.177971710892537632e-01
2.379999999999999893e-01,-1.661020303676953302e-01,-1.029402344636504568e-01,-1.103937953006036560e-01
2.389999999999999902e-01,-1.514029238349055562e-01,-8.746408799160426684e-02,-1.160797073901635446e-01
2.399999999999999911e-01,-1.411388392625404220e-01,-7.286030673904304866e-02,-1.034673625881171455e-01
2.409999999999999920e-01,-1.237395938600036466e-01,-5.608290418831983482e-02,-9.812460729063912646e-02
2.419999999999999929e-01,-1.145085256306142690e-01,-5.481954035616410509e-02,-9.705471668850686184e-02
2.429999999999999938e-01,-9.720894039404671949e-02,-3.136581561806393859e-02,-7.781155206327207419e-02
2.439999999999999947e-01,-7.818390473225547699e-02,-1.648140440596121414e-02,-7.965482620612279741e-02
2.449999999999999956e-01,-5.187535828442708247e-02,-2.085697327855881513e-04,-7.178012023501914585e-02
2.459999999999999964e-01,-5.037380919930174034e-02,2.116610786352681947e-02,-6.480565113020665680e-02
2.469999999999999973e-01,-2.376205791099800235e-02,3.480849170927677316e-02,-5.605824098334400568e-02
2.479999999999999982e-01,-3.638146763807260692e-04,4.991893970799370084e-02,-4.586591551232686165e-02
2.489999999999999991e-01,1.503710535299148700e-02,6.499235046225365631e-02,-2.776374749043343526e-02
2.500000000000000000e-01,4.057885711982574251e-02,7.508791808106574095e-02,-2.870461873015640528e-02
2.510000000000000009e-01,5.306292574644490972e-02,8.733733059702374069e-02,-1.799555320483478896e-02
2.520000000000000018e-01,6.742242518769844817e-02,1.028907537709092546e-01,6.940837979816077280e-03
2.530000000000000027e-01,1.007412776610390748e-01,1.124703938998514730e-01,1.156654041439278413e-02
2.540000000000000036e-01,9.800210695345808187e-02,1.248022959681437949e-01,2.929618686590957158e-02
2.550000000000000044e-01,1.230860245309288586e-01,1.331515026587965500e-01,3.992102891725077263e-02
2.560000000000000053e-01,1.399276630284137513e-01,1.371120159675817407e-01,5.575312002002644207e-02
2.570000000000000062e-01,1.494232658346921205e-01,1.487090064383720378e-01,6.471640981868777287e-02
2.580000000000000071e-01,1.511853141608612838e-01,1.583104931743857247e-01,7.759545780330621978e-02
2.590000000000000080e-01,1.712468874752228476e-01,1.616350258062835554e-01,7.310600893704748138e-02
2.600000000000000089e-01,1.886633368014044021e-01,1.574124487946492457e-01,7.972339099258331230e-02
2.610000000000000098e-01,1.876933258921905934e-01,1.529022386030839120e-01,7.952452718488639549e-02
2.620000000000000107e-01,1.847934802152196576e-01,1.502714029798403461e-01,8.319764851810301787e-02
2.630000000000000115e-01,1.966863657437538382e-01,1.482697215486495634e-01,1.031154378207012751e-01
2.640000000000000124e-01,2.042008897931263389e-01,1.615969518560040064e-01,1.064577312687735450e-01
2.650000000000000133e-01,1.967772828187928091e-01,1.428156695903969875e-01,1.137371607264055090e-01
2.660000000000000142e-01,1.870631025790990276e-01,1.402413730639370526e-01,1.169148694178536729e-01
2.670000000000000151e-01,1.925445708750018192e-01,1.299823941145143436e-01,1.166906331354519710e-01
2.680000000000000160e-01,1.921157905671115329e-01,1.286042499381974125e-01,1.275567814399243272e-01
2.690000000000000169e-01,1.746438916696694543e-01,9.863798381061635034e-02,1.230990761287106966e-01
2.700000000000000178e-01,1.725887083390870158e-01,9.283256625442019849e-02,1.248185889273878690e-01
2.710000000000000187e-01,1.537892355604494055e-01,9.154426694952132182e-02,1.203153328115148246e-01
2.720000000000000195e-01,1.559417165965670260e-01,6.961309960331514557e-02,1.097322500448283389e-01
2.730000000000000204e-01,1.299378316189744864e-01,5.938357239803156162e-02,1.044598062429131918e-01
2.740000000000000213e-01,1.104569230289302317e-01,5.457153064976295875e-02,1.009650333812860679e-01
2.750000000000000222e-01,1.049501609929497231e-01,2.930957265191119071e-02,9.491845051666240873e-02
2.760000000000000231e-01,9.296037998279187142e-02,3.683668253573221633e-03,8.215308697220849443e-02
2.770000000000000240e-01,6.445600456353341168e-02,-2.418656871742866192e-04,7.696803365255383556e-02
2.780000000000000249e-01,4.828235317367774587e-02,-1.039418446083635941e-02,6.372151202809779591e-02
2.790000000000000258e-01,2.785749061074055052e-02,-2.919179796686411157e-02,5.661950315017243163e-02
2.800000000000000266e-01,1.170578521612141917e-02,-4.644266933759902405e-02,4.723758225310924902e-02
2.810000000000000275e-01,-8.586753569038723180e-03,-6.596441429614972873e-02,4.227583508274584262e-02
2.819999999999999729e-01,-2.292181717172741065e-02,-7.628662271940293838e-02,2.677168891525801356e-02
2.829999999999999738e-01,-5.952804727596709006e-02,-9.555060831003008015e-02,1.889404141052300826e-02
2.839999999999999747e-01,-7.827371572548069700e-02,-1.085144074261060465e-01,3.951459374556049418e-03
2.849999999999999756e-01,-8.132381766891086383e-02,-1.148985791362249625e-01,-4.797908735125550744e-03
2.859999999999999765e-01,-9.358226414857272191e-02,-1.338695878641844583e-01,-1.153472321329989357e-02
2.869999999999999774e-01,-1.199508882226429651e-01,-1.352100378137811865e-01,-3.839666715312272521e-02
2.879999999999999782e-01,-1.344106514188178614e-01,-1.440663179113167436e-01,-3.807051119833526620e-02
2.889999999999999791e-01,-1.610183946066837679e-01,-1.526293582100700097e-01,-5.111609268667759859e-02
2.899999999999999800e-01,-1.668155791088133388e-01,-1.605650922553294169e-01,-5.991410149824665660e-02
2.909999999999999809e-01,-1.667265545146190686e-01,-1.635795518373042434e-01,-6.777882220500654198e-02
2.919999999999999818e-01,-1.822806112525225120e-01,-1.478150835828610232e-01,-7.562408828298239349e-02
2.929999999999999827e-01,-1.997209015239001240e-01,-1.489661387710491391e-01,-9.387683975553635929e-02
2.939999999999999836e-01,-1.930057404275611621e-01,-1.653743757904547751e-01,-9.222821986701297547e-02
2.949999999999999845e-01,-1.860168050920840976e-01,-1.589401058917190301e-01,-9.386394100462262802e-02
2.959999999999999853e-01,-2.009739368837236695e-01,-1.496187717997740363e-01,-1.111802656821455626e-01
2.969999999999999862e-01,-1.964128277067248018e-01,-1.433043955424929961e-01,-1.044221133586748090e-01
2.979999999999999871e-01,-1.876820670059644314e-01,-1.300571495764521746e-01,-1.141178399884875544e-01
2.989999999999999880e-01,-1.982868987732030741e-01,-1.239751104459101833e-01,-1.102698783267611476e-01
2.999999999999999889e-01,-1.852903978935998286e-01,-1.235548972098762660e-01,-1.188381749885714517e-01
3.009999999999999898e-01,-1.747530712151333931e-01,-1.024273918323571342e-01,-1.224917052355210534e-01
3.019999999999999907e-01,-1.736204077474906016e-01,-9.657538582773352032e-02,-1.135118248382269296e-01
3.029999999999999916e-01,-1.455687191507635814e-01,-7.727115490421442023e-02,-1.125268413502033549e-01
3.039999999999999925e-01,-1.448117468658811635e-01,-6.484507631144097173e-02,-1.138651584720464238e-01
3.049999999999999933e-01,-1.347194245452166539e-01,-4.445019839116520072e-02,-1.094019201330787006e-01
3.059999999999999942e-01,-1.240784179978879215e-01,-4.055144113532457850e-02,-1.026239333983598040e-01
3.069999999999999951e-01,-1.120145208201874798e-01,-2.151458555422687893e-02,-9.326547312702057613e-02
3.079999999999999960e-01,-8.868416686592399401e-02,-1.247296745898609019e-02,-8.274492046321785255e-02
3.089999999999999969e-01,-8.018323741792025838e-02,7.428221383952575071e-03,-7.571491283346779011e-02
3.099999999999999978e-01,-4.590089508526961487e-02,2.520770301288076040e-02,-8.233263056173349692e-02
3.109999999999999987e-01,-3.286140669906304629e-02,3.137826217191163475e-02,-6.323506264673908750e-02
3.119999999999999996e-01,-7.530804564309919423e-03,5.676427240548298503e-02,-4.772869284638338316e-02
3.130000000000000004e-01,1.148328272726106348e-03,6.798836469248063785e-02,-3.937503677899118620e-02
3.140000000000000013e-01,1.809670956206417200e-02,8.716436736124046070e-02,-2.124663189647629444e-02
3.150000000000000022e-01,3.902169142800743229e-02,9.089019813772170053e-02,-2.837291581055522566e-02
3.160000000000000031e-01,6.529182112743649180e-02,9.335659176971768114e-02,-9.095604801497370398e-03
3.170000000000000040e-01,7.274803389791528740e-02,1.192433553877532970e-01,5.612891430889024175e-03
3.180000000000000049e-01,9.330346970592602596e-02,1.264788300540315436e-01,1.807438095134041370e-02
3.190000000000000058e-01,1.166870322341433536e-01,1.305583831085049829e-01,3.213357879806761491e-02
3.200000000000000067e-01,1.357450847739038735e-01,1.511652436796505072e-01,4.065251435478432762e-02
3.210000000000000075e-01,1.528459346534535301e-01,1.453261216862599403e-01,4.958541673843528536e-02
3.220000000000000084e-01,1.469021481538980711e-01,1.560728483666400379e-01,5.220181037592610401e-02
3.230000000000000093e-01,1.665241620353716534e-01,1.580231280927377746e-01,6.643942925209828099e-02
3.240000000000000102e-01,1.742177532338046453e-01,1.548270982056013378e-01,7.144345554244682650e-02
3.250000000000000111e-01,1.844706994355586882e-01,1.585025607636611211e-01,8.032828124141343229e-02
3.260000000000000120e-01,1.928318123754877988e-01,1.527540749981466384e-01,9.473114613127787964e-02
3.270000000000000129e-01,1.960419547208223368e-01,1.423299847159852360e-01,9.776897041023381585e-02
3.280000000000000138e-01,1.974376502189745253e-01,1.424573850918763873e-01,9.679153448654639891e-02
3.290000000000000147e-01,1.950270812549729504e-01,1.473415392651566957e-01,1.024882244506456208e-01
3.300000000000000155e-01,1.943130384211452510e-01,1.383113497374219569e-01,1.112990877534162926e-01
3.310000000000000164e-01,2.005701215854501229e-01,1.175910272824415292e-01,1.159571122395608722e-01
3.320000000000000173e-01,1.821329415378818151e-01,1.119609446363477173e-01,1.194134731825067519e-01
3.330000000000000182e-01,1.765200465509968730e-01,1.035062951970198708e-01,1.218976216219894160e-01
3.340000000000000191e-01,1.721740065283746401e-01,9.798475152907862307e-02,1.200640354550312067e-01
3.350000000000000200e-01,1.608473266610317420e-01,7.946861248035112790e-02,1.108292155344201696e-01
3.360000000000000209e-01,1.474783489210085008e-01,7.445861482670478038e-02,9.707810667560415330e-02
3.370000000000000218e-01,1.359027531620333185e-01,5.167519646440657533e-02,1.109697985426843780e-01
3.380000000000000226e-01,1.205369912478394673e-01,4.079739136907088032e-02,1.037312248712908558e-01
3.390000000000000235e-01,1.054214018516469731e-01,1.408222814399240179e-02,1.074212879258377579e-01
3.400000000000000244e-01,9.328151984453297851e-02,7.369652759274396801e-03,9.756319507487004605e-02
3.410000000000000253e-01,8.143864104531278736e-02,-5.091724554022349428e-03,8.892394486893326344e-02
3.420000000000000262e-01,5.234523612036604684e-02,-2.795079267792069735e-02,7.280986581677652281e-02
3.430000000000000271e-01,3.487094565592147727e-02,-2.881521174507140071e-02,5.988355901892896543e-02
3.439999999999999725e-01,1.152180711866147671e-02,-5.449190322909620160e-02,5.858042700163371835e-02
3.449999999999999734e-01,5.526132346401730656e-03,-6.531065276049495549e-02,5.466665384545048301e-02
3.459999999999999742e-01,-2.800825178583964126e-02,-8.554917053824052930e-02,3.423336514528747820e-02
3.469999999999999751e-01,-5.177304978619587383e-02,-1.002752307331937348e-01,2.342824269953198285e-02
3.479999999999999760e-01,-6.131724288995321626e-02,-1.015039131231646463e-01,8.041007647101704875e-03
3.489999999999999769e-01,-7.215192253722656213e-02,-1.191395517822963351e-01,1.068945168873572859e-03
3.499999999999999778e-01,-9.622551722719165090e-02,-1.264293967757636195e-01,-5.090053353793035432e-03
3.509999999999999787e-01,-1.188984285157035914e-01,-1.373687127784783135e-01,-1.715007949688346703e-02
3.519999999999999796e-01,-1.377728154944777295e-01,-1.423881861012954997e-01,-3.272279441449416765e-02
3.529999999999999805e-01,-1.376965982218227580e-01,-1.527460004690510686e-01,-4.324474040930934016e-02
3.539999999999999813e-01,-1.573148887009025720e-01,-1.418879339082130542e-01,-5.176166633354140068e-02
3.549999999999999822e-01,-1.533092824552121647e-01,-1.482930564282921304e-01,-5.491706109207981218e-02
3.559999999999999831e-01,-1.835642852186689378e-01,-1.556571637891420723e-01,-6.905309436044931859e-02
3.569999999999999840e-01,-1.767434891705112199e-01,-1.582018637997902044e-01,-8.158400753120749471e-02
3.579999999999999849e-01,-1.910672287934843394e-01,-1.541072332228402841e-01,-9.598766208408171519e-02
3.589999999999999858e-01,-1.922930452124285705e-01,-1.498957388838821903e-01,-8.569149511544869868e-02
3.599999999999999867e-01,-2.008123363276696494e-01,-1.481736305760950612e-01,-1.066179775102077398e-01
3.609999999999999876e-01,-1.932649889423721234e-01,-1.498410228491070806e-01,-1.068855882837337762e-01
3.619999999999999885e-01,-1.975410082651598287e-01,-1.377572816726574667e-01,-1.167115689231623399e-01
3.629999999999999893e-01,-2.007988122993059898e-01,-1.229696700789547348e-01,-1.129120961293594294e-01
3.639999999999999902e-01,-1.852722631459443048e-01,-1.035668665713271874e-01,-1.187495625540836014e-01
3.649999999999999911e-01,-1.853892608681121379e-01,-1.057390793330907214e-01,-1.144635585839288289e-01
3.659999999999999920e-01,-1.814932400040226990e-01,-1.010945792016432060e-01,-1.181850004015598810e-01
3.669999999999999929e-01,-1.680447910652571319e-01,-8.032265605348977433e-02,-1.129615200566457395e-01
3.679999999999999938e-01,-1.489946779596617865e-01,-7.186283421208299049e-02,-1.208353179517594606e-01
3.689999999999999947e-01,-1.438303104244490760e-01,-5.828320246193575971e-02,-1.068980609560918199e-01
3.699999999999999956e-01,-1.243981521857078221e-01,-4.067035002320817938e-02,-1.171292956681482395e-01
3.709999999999999964e-01,-1.077249317465520245e-01,-2.301318591335408878e-02,-1.066653917779641636e-01
3.719999999999999973e-01,-9.724155092725619842e-02,5.661082372542152082e-03,-9.738130221123693364e-02
3.729999999999999982e-01,-7.117992328117803136e-02,8.740812969511815161e-03,-9.537071198782651194e-02
3.739999999999999991e-01,-4.743646274807053476e-02,2.988061470851388624e-02,-8.277043543877675436e-02
3.750000000000000000e-01,-4.900982246950896792e-02,4.485600416922894129e-02,-7.215099370383418198e-02
3.760000000000000009e-01,-3.104634764096569910e-02,5.492149604729656270e-02,-6.692527311515687749e-02
3.770000000000000018e-01,4.615092657667392226e-03,7.411374747691072684e-02,-5.173654432260357816e-02
3.780000000000000027e-01,1.499120770620539396e-02,7.977496701782896271e-02,-3.786779131738486626e-02
3.790000000000000036e-01,4.473022998236184794e-02,9.852523937937167353e-02,-2.812138525601342795e-02
3.800000000000000044e-01,5.448550803277685262e-02,1.144722211743195994e-01,-2.122039273952799204e-02
3.810000000000000053e-01,7.354135327296522362e-02,1.256026907822714866e-01,-1.018313671726743357e-02
3.820000000000000062e-01,9.517294450552200857e-02,1.288014357156600231e-01,8.094397262947530857e-04
3.830000000000000071e-01,1.235051995691170967e-01,1.377541175402207108e-01,5.576174545034600499e-03
3.840000000000000080e-01,1.234285242053179549e-01,1.481462317747988811e-01,3.095284118170071180e-02
3.850000000000000089e-01,1.422620142974028445e-01,1.598775970814377834e-01,3.500428060866687952e-02
3.860000000000000098e-01,1.570054418908569394e-01,1.564337938466094646e-01,4.691473504217925222e-02
3.870000000000000107e-01,1.714066805389257153e-01,1.573786310730777294e-01,7.183601091499183799e-02
3.880000000000000115e-01,1.690543984952705414e-01,1.494474567271872889e-01,6.980239235941186615e-02
3.890000000000000124e-01,1.899757355601283670e-01,1.600564542213254726e-01,6.602183719647788940e-02
3.900000000000000133e-01,1.944486861453948445e-01,1.472348206688966488e-01,8.560138611674995845e-02
3.910000000000000142e-01,1.916494006143575346e-01,1.470047478011032305e-01,9.129918435272714461e-02
3.920000000000000151e-01,1.961694716218067847e-01,1.469084669725753134e-01,1.063971485440531051e-01
3.930000000000000160e-01,1.991190884782914616e-01,1.391321837490942792e-01,1.028758018698803234e-01
3.940000000000000169e-01,1.997174619174528765e-01,1.238481695007078581e-01,1.112671497882463806e-01
3.950000000000000178e-01,1.898234540259614578e-01,1.230846802976689608e-01,1.059029962776803641e-01
3.960000000000000187e-01,1.809043470673615261e-01,1.131636460399875616e-01,1.114455179811850022e-01
3.970000000000000195e-01,1.930584818818658344e-01,1.148485336181654937e-01,1.192092031404842212e-01
3.980000000000000204e-01,1.683920406630756150e-01,8.663372959938717144e-02,1.273001485664666810e-01
3.990000000000000213e-01,1.771021939841531390e-01,7.526734661451461861e-02,1.135043408423863365e-01
4.000000000000000222e-01,1.589148097967609252e-01,6.746776488880763811e-02,1.061830514235768685e-01
4.010000000000000231e-01,1.399490231157264619e-01,6.073692964732994859e-02,1.047687448410625916e-01
4.020000000000000240e-01,1.296322496245469746e-01,2.915904727304848010e-02,1.144689333493772998e-01
4.030000000000000249e-01,1.057855246590721499e-01,1.752280023375778206e-02,1.069605423705101283e-01
4.040000000000000258e-01,1.033810359284516311e-01,1.269715086752402911e-02,9.636406504018725505e-02
4.050000000000000266e-01,7.597973343400622748e-02,-3.405216412983314185e-03,9.205136838632024809e-02
4.060000000000000275e-01,7.002903050634304294e-02,-3.727631907779960230e-02,8.580332282905753227e-02
4.069999999999999729e-01,2.399333248914510899e-02,-5.129552990423418002e-02,7.558268846275187358e-02
4.079999999999999738e-01,3.041351393610709775e-02,-5.404173367007750889e-02,7.498706152042894368e-02
4.089999999999999747e-01,2.310219478181209981e-03,-7.742395832047660464e-02,5.436737328782146467e-02
4.099999999999999756e-01,-1.075961962154596031e-02,-8.564829819291758239e-02,5.205098332308420728e-02
4.109999999999999765e-01,-3.246845247538904938e-02,-1.040659973608392130e-01,3.839315369091583080e-02
4.119999999999999774e-01,-4.888792003924877921e-02,-1.069052217731967791e-01,2.949155175909854917e-02
4.129999999999999782e-01,-6.661110794943586599e-02,-1.104364512372584400e-01,1.050928601256397379e-02
4.139999999999999791e-01,-8.480341303929855856e-02,-1.311230468734792542e-01,-1.784478129000008524e-03
4.149999999999999800e-01,-1.103843772002146006e-01,-1.426781714715166793e-01,2.091554464283232762e-03
4.159999999999999809e-01,-1.217351758684461077e-01,-1.493219455462546919e-01,-2.206254710534724314e-02
4.169999999999999818e-01,-1.343329976190511810e-01,-1.587941677850602806e-01,-3.175860224569518331e-02
4.179999999999999827e-01,-1.539469141574182631e-01,-1.577216161442806519e-01,-4.460426966047607855e-02
4.189999999999999836e-01,-1.559508236972414474e-01,-1.578411946368928342e-01,-5.717882324756569379e-02
4.199999999999999845e-01,-1.739905686767398985e-01,-1.673698324553067607e-01,-6.366090050511716281e-02
4.209999999999999853e-01,-1.969536942638078492e-01,-1.649534870021266419e-01,-7.087864937452778569e-02
4.219999999999999862e-01,-1.902882399141705427e-01,-1.568232263587661657e-01,-7.972344487908182564e-02
4.229999999999999871e-01,-1.970410432767021047e-01,-1.443499477818955823e-01,-9.500636558496171336e-02
4.239999999999999880e-01,-1.991944003553919873e-01,-1.472178864037443080e-01,-9.481481153804482975e-02
4.249999999999999889e-01,-1.882319587143827244e-01,-1.365405492500444684e-01,-9.807186987184450533e-02
4.259999999999999898e-01,-2.015249211115782979e-01,-1.389122703495828670e-01,-1.104966837419975589e-01
4.269999999999999907e-01,-1.905760202180668272e-01,-1.313128039042070760e-01,-1.146329191976264567e-01
4.279999999999999916e-01,-2.010227707441936129e-01,-9.729452035643702812e-02,-1.133965249385121138e-01
4.289999999999999925e-01,-1.801625019249118997e-01,-1.094377174063889541e-01,-1.206941421183360674e-01
4.299999999999999933e-01,-1.811443776457442867e-01,-8.966412236752145659e-02,-1.206417904943924146e-01
4.309999999999999942e-01,-1.728406714060225224e-01,-7.327748174681036897e-02,-1.134236041278852830e-01
4.319999999999999951e-01,-1.542822980831423663e-01,-5.774084170050447495e-02,-1.220354668305956430e-01
4.329999999999999960e-01,-1.431452631752968274e-01,-5.600538477809254706e-02,-1.129217894922081161e-01
4.339999999999999969e-01,-1.247965908531993018e-01,-2.142765368006097418e-02,-1.086066149883721799e-01
4.349999999999999978e-01,-1.091797661915826223e-01,-2.432587287110448207e-02,-1.015898172549326572e-01
4.359999999999999987e-01,-1.008313309758958748e-01,-6.192335765724758974e-03,-1.013007002970574000e-01
4.369999999999999996e-01,-8.348079552176425333e-02,1.838819439374314579e-02,-1.008922536827031452e-01
4.380000000000000004e-01,-6.624016639679559948e-02,3.169716317262625399e-02,-8.861470803898588433e-02
4.390000000000000013e-01,-4.403049176647608198e-02,4.672255774939305939e-02,-9.821750434951631581e-02
4.400000000000000022e-01,-2.472606075080107171e-02,5.180580959166627281e-02,-7.150438660250399425e-02
4.410000000000000031e-01,-7.448095985766067795e-03,7.494972510253061770e-02,-6.431598839592980732e-02
4.420000000000000040e-01,1.585257791305859365e-02,9.085256568531958898e-02,-5.993956284176150257e-02
4.430000000000000049e-01,2.348313361935320392e-02,1.051870156847852927e-01,-4.460326985307733194e-02
4.440000000000000058e-01,5.494733461886237152e-02,1.045556573133760575e-01,-2.992210785399416345e-02
4.450000000000000067e-01,7.562288434058136999e-02,1.289292430267829637e-01,-1.491604474148253319e-02
4.460000000000000075e-01,8.391265349543122753e-02,1.323931394939668327e-01,-8.928107613707733300e-03
4.470000000000000084e-01,9.928202973404544329e-02,1.494618009525443270e-01,-1.205867044242326606e-03
4.480000000000000093e-01,1.201835676268148689e-01,1.416273012130519204e-01,1.816300346243239494e-02
4.490000000000000102e-01,1.375341149872895408e-01,1.639246905733822979e-01,1.776382598467520987e-02
4.500000000000000111e-01,1.476577334277653641e-01,1.449157866908157566e-01,2.878170620249145134e-02
4.510000000000000120e-01,1.560922302286343322e-01,1.511856386307414146e-01,3.267968546968667842e-02
4.520000000000000129e-01,1.746493415098950563e-01,1.600310156516495663e-01,6.328091160202499454e-02
4.530000000000000138e-01,1.796917737489368283e-01,1.629727680780992394e-01,7.207175155724528104e-02
4.540000000000000147e-01,1.814943315540862578e-01,1.618755121542174713e-01,7.682587232122607690e-02
4.550000000000000155e-01,1.993512681748227655e-01,1.547585019034806164e-01,8.341487855737325652e-02
4.560000000000000164e-01,1.917230726127346907e-01,1.365686983968409929e-01,8.345739482081980520e-02
4.570000000000000173e-01,2.000965324902255482e-01,1.282011085786318449e-01,9.593255146765534980e-02
4.580000000000000182e-01,2.000371686683229955e-01,1.343842808764273977e-01,8.780307822756887315e-02
4.590000000000000191e-01,1.960058996126926301e-01,1.200303799269460958e-01,9.940027771203112372e-02
4.600000000000000200e-01,1.920530782598273423e-01,1.156502512425235801e-01,1.110544486098225536e-01
4.610000000000000209e-01,1.906183066893889777e-01,1.095874879334254592e-01,1.229161339121512819e-01
4.620000000000000218e-01,1.861794946904311854e-01,8.166392067412127365e-02,1.179960990397976167e-01
4.630000000000000226e-01,1.682219172268015206e-01,7.200050937189175770e-02,1.106960867990526148e-01
4.640000000000000235e-01,1.711029191455709642e-01,5.554227585685243135e-02,1.109767322585571703e-01
4.650000000000000244e-01,1.431965998389712891e-01,4.062959569328471188e-02,1.209865645134731854e-01
4.660000000000000253e-01,1.356699558532683814e-01,3.304076253797240403e-02,1.193963137159217980e-01
4.670000000000000262e-01,1.130212068237159556e-01,2.479405378614553748e-02,1.101275532545338554e-01
4.680000000000000271e-01,1.029433464416992378e-01,3.071367364096858760e-03,1.178672435264179474e-01
4.689999999999999725e-01,8.983487538975494513e-02,-2.481487879435134714e-02,1.040448152390429232e-01
4.699999999999999734e-01,5.712327345446095023e-02,-2.109124921512006354e-02,9.002360653699446880e-02
4.709999999999999742e-01,4.736349626286618514e-02,-3.962543121496089199e-02,8.415436798275695296e-02
4.719999999999999751e-01,2.904267125144011433e-02,-6.007595338777757532e-02,7.597925312170512868e-02
4.729999999999999760e-01,1.433143994119402340e-02,-6.374964034834310067e-02,6.286489088661498248e-02
4.739999999999999769e-01,-9.799129167184754061e-03,-7.846950725657129977e-02,5.409075615687505140e-02
4.749999999999999778e-01,-3.556481236483818864e-02,-1.096690079831924847e-01,4.608732083468079083e-02
4.759999999999999787e-01,-4.963532150938614051e-02,-1.219238064443764619e-01,3.005265754553736179e-02
4.769999999999999796e-01,-7.396706355241998432e-02,-1.181890272631082872e-01,2.704697646508718786e-02
4.779999999999999805e-01,-7.832061892207381470e-02,-1.381944443478822782e-01,6.788181737861812351e-03
4.789999999999999813e-01,-1.014053044419089000e-01,-1.400793400599105454e-01,-1.090152139702746381e-03
4.799999999999999822e-01,-1.149577455086974731e-01,-1.392575483835707117e-01,-6.825613644906675277e-03
4.809999999999999831e-01,-1.314178390259120588e-01,-1.516759694652954904e-01,-1.482769370853562370e-02
4.819999999999999840e-01,-1.491021980719627327e-01,-1.633576566382702322e-01,-3.396645820738560667e-02
4.829999999999999849e-01,-1.537418734326022607e-01,-1.564015623103807151e-01,-4.642487781854826023e-02
4.839999999999999858e-01,-1.602876851801415536e-01,-1.559446368613368883e-01,-5.534669423547939476e-02
4.849999999999999867e-01,-1.801013674501169004e-01,-1.493108410786097573e-01,-6.517102427855321622e-02
4.859999999999999876e-01,-1.873947516651695289e-01,-1.495868747059070081e-01,-6.840749709528515243e-02
4.869999999999999885e-01,-1.849593664857603903e-01,-1.593384238891528415e-01,-8.880897589180465623e-02
4.879999999999999893e-01,-1.910055033771780875e-01,-1.404738417240597725e-01,-9.223947738486250325e-02
4.889999999999999902e-01,-1.988137927287783324e-01,-1.409259171082861972e-01,-9.906032665630275236e-02
4.899999999999999911e-01,-2.024611887606964644e-01,-1.321242872764962772e-01,-1.002195029546148891e-01
4.909999999999999920e-01,-1.936009075440445482e-01,-1.116201562778528222e-01,-1.060466828178439208e-01
4.919999999999999929e-01,-1.901297087220083226e-01,-1.151602587171435127e-01,-9.705987275555624794e-02
4.929999999999999938e-01,-1.899437232125024966e-01,-1.036330383133781813e-01,-1.181935449177715647e-01
4.939999999999999947e-01,-1.789310950189510196e-01,-9.021907051375184505e-02,-1.152706226247200705e-01
4.949999999999999956e-01,-1.722969594996216769e-01,-7.349478256964463163e-02,-1.196962537698967877e-01
4.959999999999999964e-01,-1.641481433803496093e-01,-6.223035374627545330e-02,-1.186899095405264115e-01
4.969999999999999973e-01,-1.441622157162779083e-01,-4.276488099570086715e-02,-1.191994570790536195e-01
4.979999999999999982e-01,-1.503307420330267374e-01,-2.895808424833970843e-02,-1.141249499005993484e-01
4.989999999999999991e-01,-1.250251911632342394e-01,-1.375991629384493153e-02,-1.013678195977602420e-01
5.000000000000000000e-01,-1.031270224737650260e-01,7.904684778305236595e-03,-1.104918610613554453e-01
5.010000000000000009e-01,-9.753474195116175471e-02,1.394674607584691500e-02,-9.577047094621025936e-02
5.020000000000000018e-01,-7.181141146206064529e-02,2.818313937274456379e-02,-1.137800722027191985e-01
5.030000000000000027e-01,-6.028720708062059591e-02,4.757580904295335283e-02,-8.510235622424487667e-02
5.040000000000000036e-01,-3.841200341523426376e-02,6.476544159603873918e-02,-7.989717331774288944e-02
5.050000000000000044e-01,-1.652482702759720118e-02,7.447163534849005062e-02,-7.570832306165148351e-02
5.060000000000000053e-01,-1.893573911688722520e-03,9.204383791860726305e-02,-7.775993885023529950e-02
5.070000000000000062e-01,3.232476637163413796e-02,1.038169350633677546e-01,-5.432016959337020862e-02
5.080000000000000071e-01,3.241055047002973366e-02,1.194243060201646417e-01,-3.523935502526742009e-02
5.090000000000000080e-01,6.108617883178448643e-02,1.241671500162029179e-01,-3.364541558623353884e-02
5.100000000000000089e-01,8.620477428981979107e-02,1.390848370857843130e-01,-2.984712794214201478e-02
5.110000000000000098e-01,8.932445114138970466e-02,1.491414844290258612e-01,-7.821387132622471122e-03
5.120000000000000107e-01,1.231122573795681158e-01,1.397423230117298132e-01,1.630379364513587573e-02
5.130000000000000115e-01,1.305811369746058825e-01,1.476532362522544606e-01,1.732946560401076638e-03
5.140000000000000124e-01,1.365043221581805077e-01,1.473500411924617004e-01,3.655214384344265821e-02
5.150000000000000133e-01,1.603240070794419436e-01,1.650757862573111745e-01,3.328279043761941947e-02
5.160000000000000142e-01,1.610676392320505024e-01,1.477739841277879718e-01,3.848750267265472341e-02
5.170000000000000151e-01,1.744859613168975032e-01,1.653309204845226921e-01,6.090567526915380281e-02
5.180000000000000160e-01,1.875422718492459895e-01,1.476920939035617497e-01,5.670583632041700795e-02
5.190000000000000169e-01,1.868696027880294708e-01,1.501100619745848463e-01,8.637599502102487337e-02
5.200000000000000178e-01,2.111298055160836240e-01,1.461494871997783274e-01,8.268583170245435987e-02
5.210000000000000187e-01,2.062138191373895091e-01,1.340242213539759308e-01,8.782751160219197384e-02
5.220000000000000195e-01,1.899328367291579223e-01,1.368236338255163220e-01,9.671145675439253575e-02
5.230000000000000204e-01,1.940835309714182000e-01,1.157075059688870006e-01,1.148756563810888476e-01
5.240000000000000213e-01,1.961166491451191984e-01,1.107678674907649069e-01,1.168293802701574902e-01
5.250000000000000222e-01,1.884895907045424923e-01,1.096606547693660672e-01,1.108369751381790835e-01
5.260000000000000231e-01,1.695038684645653049e-01,8.197754557521602647e-02,1.129496704239422444e-01
5.270000000000000240e-01,1.686690519341227656e-01,6.995242943230416122e-02,1.229001810022473662e-01
5.280000000000000249e-01,1.675840877678927698e-01,5.485438469853500670e-02,1.279083823704378065e-01
5.290000000000000258e-01,1.475330448022094953e-01,3.358588766426114092e-02,1.289263539991639396e-01
5.300000000000000266e-01,1.368380232850578138e-01,2.527684970706740863e-02,1.217723330946137578e-01
5.310000000000000275e-01,1.318999501712372346e-01,1.190392892400666570e-02,1.063499091506648897e-01
5.320000000000000284e-01,1.055297509683524870e-01,-5.630358206827813794e-03,1.043750293971858201e-01
5.330000000000000293e-01,9.839801236725741196e-02,-1.829050454942873424e-02,9.894191530802122492e-02
5.340000000000000302e-01,7.664350238214261146e-02,-3.990977892701910029e-02,1.034452577904980963e-01
5.350000000000000311e-01,6.051587256095705691e-02,-5.021092790692951308e-02,9.567449539374396628e-02
5.360000000000000320e-01,3.184102642547362305e-02,-6.470919297822295968e-02,8.822640484676412542e-02
5.370000000000000329e-01,1.397223030107594063e-02,-7.222197237571825745e-02,8.212271661840254977e-02
5.380000000000000338e-01,1.968917161119226183e-03,-9.646427636360110913e-02,6.768515021418197719e-02
5.390000000000000346e-01,-1.241754224653697850e-02,-1.128667902225332226e-01,5.475138136301582054e-02
5.400000000000000355e-01,-3.802510421719858258e-02,-1.118953219202064586e-01,4.853367144325965860e-02
5.410000000000000364e-01,-4.787896876703224419e-02,-1.173895006987595163e-01,3.601580116459868197e-02
5.420000000000000373e-01,-7.707866082984005107e-02,-1.343875168968064193e-01,2.355603861764091547e-02
5.430000000000000382e-01,-9.839459708706251029e-02,-1.367711541857834778e-01,1.553516073961664842e-02
5.440000000000000391e-01,-1.018154314012278266e-01,-1.453161550639582023e-01,4.138363988952900412e-03
5.450000000000000400e-01,-1.182053217288524666e-01,-1.467573384482294407e-01,-1.290333824326966514e-02
5.460000000000000409e-01,-1.357314611444703778e-01,-1.547178281395360233e-01,-2.678068260129064931e-02
5.470000000000000417e-01,-1.463708294554266764e-01,-1.448913110559414963e-01,-3.859492484017266328e-02
5.480000000000000426e-01,-1.688694073314963018e-01,-1.538423408912035217e-01,-3.945875449042880734e-02
5.490000000000000435e-01,-1.701333827505634444e-01,-1.652888515698119065e-01,-4.581794013517419967e-02
5.500000000000000444e-01,-1.688856579643986944e-01,-1.485896248053414914e-01,-6.571120603103791646e-02
5.510000000000000453e-01,-1.897658963058304060e-01,-1.589754869461875719e-01,-7.570631222832868712e-02
5.520000000000000462e-01,-1.983628309816050372e-01,-1.336483165178838362e-01,-7.404196086591843806e-02
5.530000000000000471e-01,-2.007984588203464982e-01,-1.274162662448254379e-01,-9.314112226237236669e-02
5.540000000000000480e-01,-1.988291708113848200e-01,-1.225602513657340215e-01,-8.694073286248495125e-02
5.550000000000000488e-01,-1.995310534217286658e-01,-1.272462115694777962e-01,-1.012104085487548211e-01
5.560000000000000497e-01,-1.804689367197859773e-01,-1.006858671905296737e-01,-1.153802058540111669e-01
5.570000000000000506e-01,-1.934368240102810332e-01,-9.965865169037950444e-02,-1.013714569878590571e-01
5.580000000000000515e-01,-1.884746425367554157e-01,-9.753252928972758196e-02,-1.160306399030925778e-01
5.590000000000000524e-01,-1.739201168229073391e-01,-7.283265767735590257e-02,-1.153953380587467159e-01
5.600000000000000533e-01,-1.617502848290137962e-01,-5.001465807671807290e-02,-1.239457943075876478e-01
5.610000000000000542e-01,-1.450869730833015125e-01,-3.890473019321595560e-02,-1.130300142212798675e-01
5.620000000000000551e-01,-1.416446791539586747e-01,-2.903042281046677026e-02,-1.147643747189660418e-01
5.629999999999999449e-01,-1.175553625278181885e-01,-5.838347617310784762e-03,-1.079627453151995875e-01
5.639999999999999458e-01,-1.059133457569815390e-01,-4.195943128939805603e-03,-1.182340683598339937e-01
5.649999999999999467e-01,-1.026227518729816296e-01,2.279784459856787696e-02,-1.092955132115577266e-01
5.659999999999999476e-01,-7.366249079603058580e-02,3.024458902893685519e-02,-9.855652449623526767e-02
5.669999999999999485e-01,-5.641975851418302296e-02,4.867205177840178837e-02,-9.615470908490715563e-02
5.679999999999999494e-01,-3.929185123471435476e-02,6.766269422769374819e-02,-9.529792216872391697e-02
5.689999999999999503e-01,-2.312896107399195836e-02,7.499585138447388555e-02,-7.975543923533946755e-02
5.699999999999999512e-01,-2.444266217805016704e-03,9.334673156804637606e-02,-6.063992202358825523e-02
5.709999999999999520e-01,2.128640805785439807e-02,1.065241047711997513e-01,-6.410208887112930909e-02
5.719999999999999529e-01,3.054233847939984842e-02,1.181434049675854914e-01,-5.079220775710899249e-02
5.729999999999999538e-01,6.930147031221768616e-02,1.233663390334854559e-01,-3.602533889554201257e-02
5.739999999999999547e-01,7.325285541977245851e-02,1.389418678086268011e-01,-2.862012209100640164e-02
5.749999999999999556e-01,8.794419899306554766e-02,1.457692646120705426e-01,-2.751294145348000958e-02
5.759999999999999565e-01,1.113414097735317271e-01,1.475722988706917038e-01,-1.336337363298806952e-02
5.769999999999999574e-01,1.181835236728451949e-01,1.547749150458241352e-01,5.938583558427665970e-03
5.779999999999999583e-01,1.301328236503965508e-01,1.562044192610933246e-01,1.151964574791633326e-02
5.789999999999999591e-01,1.536546225600846916e-01,1.506598345259770044e-01,2.762184765290917957e-02
5.799999999999999600e-01,1.559088175087957884e-01,1.523384839753060827e-01,3.091517192459402111e-02
5.809999999999999609e-01,1.693264325078586430e-01,1.529750870979824651e-01,4.203362282203629979e-02
5.819999999999999618e-01,1.755904448956796815e-01,1.590591488604519155e-01,3.963446447873693324e-02
5.829999999999999627e-01,1.874649412645546243e-01,1.482785319914737554e-01,5.567643313965998930e-02
5.839999999999999636e-01,1.903481097801268951e-01,1.397087143818028510e-01,7.305342250996726960e-02
5.849999999999999645e-01,1.927522841268767551e-01,1.498545869726343183e-01,8.752821445431299696e-02
5.859999999999999654e-01,2.074752215136348998e-01,1.346192113124823064e-01,9.068648984917764000e-02
5.869999999999999662e-01,1.978481792400154093e-01,1.232175565333031853e-01,8.821709976678626663e-02
5.879999999999999671e-01,1.852595106334129771e-01,1.055618899260781784e-01,1.131177488972852363e-01
5.889999999999999680e-01,1.930115387955927964e-01,9.901446461706767121e-02,1.157160034369821011e-01
5.899999999999999689e-01,1.867612840259822715e-01,8.034737607706080031e-02,1.091033334134864502e-01
5.909999999999999698e-01,1.870786798092402559e-01,6.974668093209993036e-02,1.222768834464965787e-01
5.919999999999999707e-01,1.565574861597560374e-01,5.785948853819743165e-02,1.265174254499513706e-01
5.929999999999999716e-01,1.491625354863187758e-01,3.429839407232906923e-02,1.216232215145486156e-01
5.939999999999999725e-01,1.496744799287298144e-01,2.394146390579590319e-02,1.199634763414555993e-01
5.949999999999999734e-01,1.305742555807974381e-01,-4.313220435725732826e-03,1.170125944333716278e-01
5.959999999999999742e-01,1.202367617375933728e-01,1.552535645500592067e-03,1.187280608239671686e-01
5.969999999999999751e-01,9.483746419320177035e-02,-3.121999883276366586e-02,1.113138814111472724e-01
5.979999999999999760e-01,7.983413930956864690e-02,-3.700060484344904616e-02,1.073099066781545291e-01
5.989999999999999769e-01,6.188479417168082225e-02,-5.722717186871218581e-02,9.836474474532035106e-02
5.999999999999999778e-01,4.399147674581262851e-02,-7.015388963202735806e-02,9.325925808372299841e-02
6.009999999999999787e-01,2.983890129583844503e-02,-8.450565905459678229e-02,8.310105214489763026e-02
6.019999999999999796e-01,1.084545221177429276e-02,-1.043331585459618543e-01,7.541283304189873304e-02
6.029999999999999805e-01,-2.186198690862587932e-02,-1.114734758113386931e-01,6.827139201104620581e-02
6.039999999999999813e-01,-3.206279660599093556e-02,-1.155304096137230591e-01,5.695637375162920790e-02
6.049999999999999822e-01,-4.631032234839754097e-02,-1.305346888057678512e-01,4.377465296029731806e-02
6.059999999999999831e-01,-6.118888134668826889e-02,-1.292534840824898223e-01,3.757310754572634748e-02
6.069999999999999840e-01,-9.117270717149959791e-02,-1.351073940532464268e-01,2.810982270385332590e-02
6.079999999999999849e-01,-1.014945833594383950e-01,-1.500226914039524406e-01,1.058483148648436262e-02
6.089999999999999858e-01,-1.228631176137185560e-01,-1.544783941802674310e-01,3.769395422767641678e-03
6.099999999999999867e-01,-1.440128826219394809e-01,-1.548358558430947274e-01,7.671078642122378501e-04
6.109999999999999876e-01,-1.508634991697745398e-01,-1.677700789140302018e-01,-5.224127912150234102e-03
6.119999999999999885e-01,-1.509149328633542786e-01,-1.573251680761091897e-01,-2.461394379189837944e-02
6.129999999999999893e-01,-1.745017668317777049e-01,-1.611508297074617235e-01,-3.523424721172385699e-02
6.139999999999999902e-01,-1.742529084509119031e-01,-1.475919375078538209e-01,-4.322562179098243806e-02
6.149999999999999911e-01,-1.949946784836747715e-01,-1.527880416109028694e-01,-6.138816144182838996e-02
6.159999999999999920e-01,-1.954446882630007098e-01,-1.476555231772717913e-01,-6.572010248413599764e-02
6.169999999999999929e-01,-1.911888250979946746e-01,-1.336856874617897151e-01,-7.102783548030980332e-02
6.179999999999999938e-01,-1.987521697818937227e-01,-1.236213341701812851e-01,-8.498862757064061524e-02
6.189999999999999947e-01,-1.969194865479961531e-01,-1.151072508075289408e-01,-1.042107157091643199e-01
6.199999999999999956e-01,-1.994907600759924238e-01,-1.022117788265458072e-01,-1.067869117884461400e-01
6.209999999999999964e-01,-1.902519437185059559e-01,-9.629420505282404452e-02,-1.008896001985988555e-01
6.219999999999999973e-01,-1.832140982934539475e-01,-7.335168977062012097e-02,-1.032142726661057358e-01
6.229999999999999982e-01,-1.728761473091685041e-01,-6.679477373193655476e-02,-1.152226289884602933e-01
6.239999999999999991e-01,-1.827359696450258364e-01,-5.253581845428262342e-02,-1.199427123003531659e-01
6.250000000000000000e-01,-1.602044214380675402e-01,-3.818546692506970264e-02,-1.177756510068378032e-01
6.260000000000000009e-01,-1.517640888738520655e-01,-1.907837857920322358e-02,-1.255965788764667468e-01
6.270000000000000018e-01,-1.311338188600543464e-01,-6.495190816123984877e-03,-1.140294195287985118e-01
6.280000000000000027e-01,-1.266920789684068960e-01,1.614756125888044958e-02,-1.058407733693886854e-01
6.290000000000000036e-01,-9.290888095938490410e-02,2.254615849705075836e-02,-1.134913403264972559e-01
6.300000000000000044e-01,-8.761838216781289712e-02,3.697044383745490964e-02,-1.060337537611591163e-01
6.310000000000000053e-01,-6.883036086393108655e-02,4.594576876904589435e-02,-9.715259306574966502e-02
6.320000000000000062e-01,-4.132195373079795148e-02,7.288322663374606492e-02,-9.214147963670540897e-02
6.330000000000000071e-01,-3.137883185595981977e-02,8.918776123033704539e-02,-9.141871111419580531e-02
6.340000000000000080e-01,-1.710505910889133577e-02,1.015962658814132946e-01,-7.950723030486946119e-02
6.350000000000000089e-01,5.324692568875951347e-03,9.779405451042168240e-02,-8.452219594815667258e-02
6.360000000000000098e-01,3.762880782377622108e-02,1.130126905619357885e-01,-6.227738380040744731e-02
6.370000000000000107e-01,4.829563647659668862e-02,1.223962438018140475e-01,-4.790360305858985118e-02
6.380000000000000115e-01,5.448357686363804187e-02,1.456769343886823165e-01,-3.409842969191057699e-02
6.390000000000000124e-01,7.917091920686443463e-02,1.448118320319773666e-01,-3.237312694096288607e-02
6.400000000000000133e-01,9.723245576797936995e-02,1.542743992029170230e-01,-2.271693120555199480e-02
6.410000000000000142e-01,1.141242237443658991e-01,1.563075782404138303e-01,-2.259111367063417961e-02
6.420000000000000151e-01,1.315755971614521180e-01,1.577309758862005806e-01,2.689555986953008626e-03
6.430000000000000160e-01,1.483724431937721855e-01,1.591274116281906903e-01,1.721650172602308404e-02
6.440000000000000169e-01,1.489892493521758898e-01,1.498944578423991592e-01,2.933217237224433963e-02
6.450000000000000178e-01,1.719089508360367169e-01,1.667860172581767386e-01,3.645224781631499489e-02
6.460000000000000187e-01,1.660927471720531068e-01,1.440195112639397201e-01,4.350126365782685384e-02
6.470000000000000195e-01,1.949692650116796599e-01,1.440775278446315977e-01,6.076803304228269031e-02
6.480000000000000204e-01,1.912379560740340156e-01,1.428882457121951888e-01,5.213374102410470168e-02
6.490000000000000213e-01,1.927618257338972740e-01,1.421769602817943567e-01,6.618391250079741495e-02
6.500000000000000222e-01,1.954557531886900457e-01,1.307448775828025933e-01,9.288578654590676220e-02
6.510000000000000231e-01,2.019823839973635959e-01,1.152586993570527130e-01,9.295791544256157279e-02
6.520000000000000240e-01,1.977857581752818228e-01,1.031293008765136049e-01,9.225027936185348221e-02
6.530000000000000249e-01,1.826575296942076210e-01,9.364201014318510041e-02,9.088926494682880719e-02
6.540000000000000258e-01,1.947275704219932624e-01,8.494014134187419240e-02,1.088161092055767026e-01
6.550000000000000266e-01,1.822671313175170671e-01,6.436233528968386686e-02,1.161897958043965617e-01
6.560000000000000275e-01,1.741855281668382993e-01,4.837648499949683684e-02,1.098952849254433012e-01
6.570000000000000284e-01,1.622866599804523580e-01,3.828302439456549716e-02,1.145992188512447996e-01
6.580000000000000293e-01,1.503374154281361952e-01,2.295792066763157474e-02,1.199925730532582918e-01
6.590000000000000302e-01,1.384476271870297981e-01,1.446484190760455660e-02,1.210029202884882193e-01
6.600000000000000311e-01,1.176996549833829731e-01,-4.138506164776673338e-03,1.214496191809590619e-01
6.610000000000000320e-01,1.013368800747557197e-01,-2.554267516036551680e-02,1.164748884876804225e-01
6.620000000000000329e-01,8.852431367748547775e-02,-3.754010133607497968e-02,1.017073000603108957e-01
6.630000000000000338e-01,6.685824943249209229e-02,-5.410329321181367446e-02,1.014031170983740876e-01
6.640000000000000346e-01,4.473966672057905214e-02,-7.151980039532047917e-02,1.035837782256030237e-01
6.650000000000000355e-01,3.260183410747101440e-02,-8.498704058585807020e-02,9.392213397455585755e-02
6.660000000000000364e-01,1.228607920646130475e-02,-9.894301736222151089e-02,8.616294400676120790e-02
6.670000000000000373e-01,-2.298012643512271132e-03,-1.104338652248703645e-01,7.723792428089149009e-02
6.680000000000000382e-01,-2.924022548426279816e-02,-1.289076622695357055e-01,7.346196803802457209e-02
6.690000000000000391e-01,-4.851780059212172647e-02,-1.150985262493087052e-01,4.969355660697954979e-02
6.700000000000000400e-01,-6.617344237968303400e-02,-1.231391105037492467e-01,4.802387103635903653e-02
6.710000000000000409e-01,-8.332856504814523113e-02,-1.418091517878710406e-01,4.722493903660301279e-02
6.720000000000000417e-01,-9.589559562621664812e-02,-1.616787427951389133e-01,2.181678775783683563e-02
6.730000000000000426e-01,-1.061346276068242250e-01,-1.606076009254041037e-01,2.257937924031507351e-02
6.740000000000000435e-01,-1.276399467252289366e-01,-1.619062447799400339e-01,-7.072359346077573133e-03
6.750000000000000444e-01,-1.345145108362830189e-01,-1.554233139344436965e-01,-2.023292277196300955e-03
6.760000000000000453e-01,-1.555903495155071536e-01,-1.647687045012033169e-01,-2.190021679742210070e-02
6.770000000000000462e-01,-1.639917999856119746e-01,-1.567088864644499147e-01,-2.577113934906618414e-02
6.780000000000000471e-01,-1.723324281390206103e-01,-1.588333216308522589e-01,-3.012091283910725212e-02
6.790000000000000480e-01,-1.887545908880847723e-01,-1.461013145105440614e-01,-5.859650411994792030e-02
6.800000000000000488e-01,-1.867254682021231293e-01,-1.422556411436381729e-01,-5.461553590773639971e-02
6.810000000000000497e-01,-1.935581813059259748e-01,-1.381875249902780045e-01,-7.394298464224456635e-02
6.820000000000000506e-01,-1.958225620564887082e-01,-1.191531639570554552e-01,-7.805947917910538436e-02
6.830000000000000515e-01,-1.895603077280649806e-01,-1.216580742784565683e-01,-8.802854384110489483e-02
6.840000000000000524e-01,-1.961462882284903120e-01,-1.040084129388336442e-01,-1.021743075158904335e-01
6.850000000000000533e-01,-2.011383199879937245e-01,-1.054577563192981293e-01,-1.058567902796380689e-01
6.860000000000000542e-01,-1.915994186220188189e-01,-7.945191347026907269e-02,-1.094978671243090201e-01
6.870000000000000551e-01,-1.875022296556132506e-01,-6.613179157647341988e-02,-1.256271655727773662e-01
6.879999999999999449e-01,-1.570623374106395187e-01,-5.188356186393503627e-02,-1.123094784261122192e-01
6.889999999999999458e-01,-1.674787246454387535e-01,-4.135163218267035035e-02,-1.176476792369217789e-01
6.899999999999999467e-01,-1.496489223429711968e-01,-1.963517441770468164e-02,-1.206775118762448418e-01
6.909999999999999476e-01,-1.347155985652764010e-01,-4.751478245820269907e-04,-1.112460801621995427e-01
6.919999999999999485e-01,-1.210385232462642402e-01,1.043433480834301576e-02,-1.071746881080394426e-01
6.929999999999999494e-01,-1.087417360546384104e-01,2.201965791660936977e-02,-1.101460166577496319e-01
6.939999999999999503e-01,-9.069338641172079718e-02,4.974663189916343764e-02,-1.056230174061866534e-01
6.949999999999999512e-01,-7.639603031823326285e-02,6.305685785958381473e-02,-1.177710780452592282e-01
6.959999999999999520e-01,-4.755797169232247462e-02,7.304530132072627191e-02,-1.059912958735248073e-01
6.969999999999999529e-01,-4.526478055022185171e-02,8.444876634141293414e-02,-9.454307313493481857e-02
6.979999999999999538e-01,-1.620217673852364718e-02,9.687621385342581881e-02,-8.848394213327991087e-02
6.989999999999999547e-01,-1.527359767550607325e-03,1.081015977879939277e-01,-8.175958895206862642e-02
6.999999999999999556e-01,1.657881369320917189e-02,1.266190906756437529e-01,-7.622390691014631348e-02
7.009999999999999565e-01,3.822048722514655855e-02,1.273953066945197610e-01,-6.842050652503821329e-02
7.019999999999999574e-01,6.066984436404667530e-02,1.351553703186001709e-01,-6.013719994229754784e-02
7.029999999999999583e-01,7.621904795583508974e-02,1.449166344829251052e-01,-3.999941551738241813e-02
7.039999999999999591e-01,8.241825861876750370e-02,1.446874893313991328e-01,-1.821544546478335441e-02
7.049999999999999600e-01,1.019392648271291030e-01,1.560861097325769997e-01,-2.546262596981761078e-02
7.059999999999999609e-01,1.228834386622325303e-01,1.556006475088897445e-01,-1.324605970321248403e-02
7.069999999999999618e-01,1.418683205726887497e-01,1.681903198635131824e-01,9.802753505137694681e-03
7.079999999999999627e-01,1.549693083269219063e-01,1.622074744311238215e-01,1.751461814165387876e-02
7.089999999999999636e-01,1.649581386261321225e-01,1.660348673773207051e-01,1.753436833936404191e-02
7.099999999999999645e-01,1.701084965257217141e-01,1.472518863730765959e-01,3.522812429469548978e-02
7.109999999999999654e-01,1.785985602424163543e-01,1.511243053654549029e-01,4.105238443202896548e-02
7.119999999999999662e-01,1.906097393654115069e-01,1.410884674667715055e-01,5.719427923420498938e-02
7.129999999999999671e-01,1.926286777850671483e-01,1.438511745429769950e-01,6.086450471275922647e-02
7.139999999999999680e-01,1.970531609966748310e-01,1.198268032267631733e-01,6.731456266517239773e-02
7.149999999999999689e-01,2.020537390935366329e-01,1.156152139029797132e-01,8.149768531128336047e-02
7.159999999999999698e-01,2.011412315342371027e-01,9.578240711783539418e-02,9.233838217338485865e-02
7.169999999999999707e-01,2.064981425221771583e-01,8.866012506647108493e-02,9.436570122109481928e-02
7.179999999999999716e-01,1.815506901673547557e-01,8.872357825481262672e-02,9.978406422151991917e-02
7.189999999999999725e-01,1.857256994788959170e-01,6.711863930916156518e-02,1.047222995894748765e-01
7.199999999999999734e-01,1.827792241008273366e-01,4.989698815520621916e-02,1.063683492013906273e-01
7.209999999999999742e-01,1.722730179436405273e-01,3.298733573277520120e-02,1.155919428978606917e-01
7.219999999999999751e-01,1.520403739023966083e-01,2.605144208060616168e-02,1.104590613415815659e-01
7.229999999999999760e-01,1.453155651659053527e-01,1.267295417417671662e-02,1.227532325414834730e-01
7.239999999999999769e-01,1.360393799260825043e-01,-1.170563743336105675e-02,1.295033026479603666e-01
7.249999999999999778e-01,1.209387306740889040e-01,-3.621854956410772153e-02,1.170780190828548672e-01
7.259999999999999787e-01,9.595577797466964265e-02,-5.016134832315779363e-02,1.144934480027991197e-01
7.269999999999999796e-01,7.938706017353314159e-02,-5.712145735758982629e-02,1.151779532031613901e-01
7.279999999999999805e-01,7.350992721936414065e-02,-7.296271838653510533e-02,1.014930569788460302e-01
7.289999999999999813e-01,3.522745390430868234e-02,-8.335664993255854915e-02,1.061389562711344409e-01
7.299999999999999822e-01,2.635179315653182405e-02,-9.602825798752859243e-02,8.352310796325482234e-02
7.309999999999999831e-01,-1.718568942333002390e-03,-1.107733280447496665e-01,8.930907440207000447e-02
7.319999999999999840e-01,-1.464752230647223263e-02,-1.212041691705934149e-01,8.019501521627804552e-02
7.329999999999999849e-01,-2.895811127468353452e-02,-1.339969661606003615e-01,7.119924999529264609e-02
7.339999999999999858e-01,-4.768007501957485100e-02,-1.454711810473049705e-01,6.006119028503544705e-02
7.349999999999999867e-01,-7.137906110519394443e-02,-1.446573956956632157e-01,5.103630594339973042e-02
7.359999999999999876e-01,-8.094470279154200587e-02,-1.532934836668377043e-01,3.310442419595976266e-02
7.369999999999999885e-01,-9.657927323305884326e-02,-1.592566907894460149e-01,3.475721079301795358e-02
7.379999999999999893e-01,-1.253643582700528780e-01,-1.647791366055435802e-01,2.186768817860514427e-02
7.389999999999999902e-01,-1.409923673543579392e-01,-1.558091379824529665e-01,4.426012553744591849e-03
7.399999999999999911e-01,-1.516590084948182260e-01,-1.527763484252543102e-01,-8.123683005330837800e-03
7.409999999999999920e-01,-1.658995725920356101e-01,-1.535145664663036535e-01,-1.993972576155191023e-02
7.419999999999999929e-01,-1.803479806837129940e-01,-1.510515476379842570e-01,-3.102212647132275569e-02
7.429999999999999938e-01,-1.748363962375478198e-01,-1.371659116531514788e-01,-4.222536563376309143e-02
7.439999999999999947e-01,-1.934254863710213324e-01,-1.356038320357119686e-01,-5.379605868010456371e-02
7.449999999999999956e-01,-2.022875932875727312e-01,-1.377200496014724662e-01,-5.725173076217740520e-02
7.459999999999999964e-01,-1.917976067771845761e-01,-1.336963674917625855e-01,-6.401288344842299971e-02
7.469999999999999973e-01,-1.965741826089912048e-01,-1.083652466015483928e-01,-7.472366346447031904e-02
7.479999999999999982e-01,-2.022225978325483398e-01,-1.131308173037452597e-01,-1.017783136043782233e-01
7.489999999999999991e-01,-2.003193212856211325e-01,-8.394972534575645406e-02,-9.085144711065200329e-02
7.500000000000000000e-01,-2.073640496251546450e-01,-7.808204331285785449e-02,-1.035431302865983533e-01
7.510000000000000009e-01,-1.943573700469155840e-01,-5.400680798278138794e-02,-1.073769386234782325e-01
7.520000000000000018e-01,-1.851851895929414737e-01,-4.617930735500478528e-02,-1.073749411485268590e-01
7.530000000000000027e-01,-1.674130231772581745e-01,-2.774354083377937596e-02,-1.113105295455964761e-01
7.540000000000000036e-01,-1.550859771123855313e-01,-2.234100654303008276e-02,-1.101283259828883948e-01
7.550000000000000044e-01,-1.540768962710478140e-01,2.306193067080663725e-03,-1.140848396252684971e-01
7.560000000000000053e-01,-1.306201174578682789e-01,1.660996253292978952e-02,-1.161583821556059909e-01
7.570000000000000062e-01,-1.256489326797311790e-01,2.995183490268826104e-02,-1.246958036951121285e-01
7.580000000000000071e-01,-1.081799832744070600e-01,4.345708362862708146e-02,-1.166517931992856472e-01
7.590000000000000080e-01,-8.485899426031343062e-02,5.512489521454069091e-02,-1.125734607593602554e-01
7.600000000000000089e-01,-6.910333620205708072e-02,8.166734037615232256e-02,-1.105326220028148426e-01
7.610000000000000098e-01,-5.059922983371090838e-02,8.720354235927033071e-02,-9.200157157857809243e-02
7.620000000000000107e-01,-2.885615623528221124e-02,1.063209105734815585e-01,-1.045445166409760401e-01
7.630000000000000115e-01,-8.542027764046234914e-03,1.111232561282847336e-01,-9.512954599163836455e-02
7.640000000000000124e-01,1.643159998185120957e-02,1.306300187071555430e-01,-8.140211085083925990e-02
7.650000000000000133e-01,3.429954537027708750e-02,1.346303639039040656e-01,-7.267635032527799965e-02
7.660000000000000142e-01,4.366641245722984593e-02,1.418698704309618031e-01,-6.813189467942065702e-02
7.670000000000000151e-01,6.809891345626112313e-02,1.502632524783815149e-01,-5.719975121315033773e-02
7.680000000000000160e-01,8.805016365727212635e-02,1.573994676240455526e-01,-4.739256995219458257e-02
7.690000000000000169e-01,1.092729521700350342e-01,1.585181311809347460e-01,-3.385252538360149915e-02
7.700000000000000178e-01,1.200741958406514598e-01,1.597275942699137585e-01,-3.131088323513481902e-02
7.710000000000000187e-01,1.282597888987370705e-01,1.603263413729865139e-01,-1.565632682988654656e-02
7.720000000000000195e-01,1.413499159433509456e-01,1.599212810286287090e-01,2.465217694912653478e-03
7.730000000000000204e-01,1.531103828236632658e-01,1.608228409688337579e-01,3.719379806845164228e-04
7.740000000000000213e-01,1.601654307095458918e-01,1.573484227472673191e-01,1.223821104265890476e-02
7.750000000000000222e-01,1.774243096242668905e-01,1.447465757032564138e-01,2.701726948626329353e-02
7.760000000000000231e-01,1.772518388330783790e-01,1.357524503307027119e-01,3.941782992645843919e-02
7.770000000000000240e-01,1.951193463667556804e-01,1.316360678351281843e-01,5.778486152064373632e-02
7.780000000000000249e-01,1.989012460570001861e-01,1.303125606764960476e-01,6.230133874670818611e-02
7.790000000000000258e-01,1.933064565004343760e-01,9.937529312067565346e-02,7.843775994810590901e-02
7.800000000000000266e-01,1.938781437956068332e-01,1.063700367910879324e-01,8.663344468018689681e-02
7.810000000000000275e-01,1.853696064147066502e-01,8.857014730806714309e-02,9.043849812883215933e-02
7.820000000000000284e-01,1.897374318106908597e-01,8.657077915286258418e-02,9.294650609684618203e-02
7.830000000000000293e-01,1.874610948422430479e-01,5.792475392360279390e-02,1.015627432360667048e-01
7.840000000000000302e-01,1.779386233383729587e-01,5.112092497799828467e-02,1.183748578055359157e-01
7.850000000000000311e-01,1.650932741629593803e-01,2.497095655787320151e-02,1.131140081068938569e-01
7.860000000000000320e-01,1.592461471661231198e-01,9.591793526348533702e-03,1.100918501186972792e-01
7.870000000000000329e-01,1.596022560418023928e-01,-1.625628375516533289e-02,1.254216207707086750e-01
7.880000000000000338e-01,1.403573379503779417e-01,-2.126083719013046811e-02,1.137873505347777175e-01
7.890000000000000346e-01,1.243773214772291857e-01,-3.834181631752438951e-02,1.106359224172460687e-01
7.900000000000000355e-01,1.026864890906245276e-01,-4.977501488112005823e-02,1.180607730774716757e-01
7.910000000000000364e-01,9.027418622897147304e-02,-6.182460210132290773e-02,9.875870615622278637e-02
7.920000000000000373e-01,7.327470885376648202e-02,-7.730864101335802041e-02,1.158064066965639738e-01
7.930000000000000382e-01,4.633744181886871594e-02,-9.571357218898365882e-02,1.106197858200093087e-01
7.940000000000000391e-01,3.322424038919650352e-02,-1.059217542906754628e-01,1.081952992324756585e-01
7.950000000000000400e-01,1.823186027888804711e-02,-1.158714462198977280e-01,9.812921527191367788e-02
7.960000000000000409e-01,-8.229032411430473731e-03,-1.200786803022121929e-01,7.338502710082026037e-02
7.970000000000000417e-01,-3.148507360700072283e-02,-1.326615149710162478e-01,8.477312154032183578e-02
7.980000000000000426e-01,-5.444717386915639418e-02,-1.385161140971677973e-01,6.554451693138579893e-02
7.990000000000000435e-01,-5.580977456461882341e-02,-1.494771482117196737e-01,6.564353085109653207e-02
8.000000000000000444e-01,-7.934504677768097758e-02,-1.495936856982542362e-01,5.246116731768048214e-02
8.010000000000000453e-01,-9.853841615055206060e-02,-1.622206379761150785e-01,4.939014719209435661e-02
8.020000000000000462e-01,-1.120840187329902732e-01,-1.482157122781901093e-01,3.011935045926646820e-02
8.030000000000000471e-01,-1.284608720551303207e-01,-1.688980062713636987e-01,1.750165228871880529e-02
8.040000000000000480e-01,-1.457292290186514849e-01,-1.454406206861152406e-01,-1.241845595615150184e-03
8.050000000000000488e-01,-1.535956094557434648e-01,-1.507275945950709295e-01,-2.456423958383936561e-03
8.060000000000000497e-01,-1.787049872815518470e-01,-1.457853645871823312e-01,-1.676736538130641635e-02
8.070000000000000506e-01,-1.725937226943242697e-01,-1.570035347662380731e-01,-1.890664024059459519e-02
8.080000000000000515e-01,-1.846389435765939391e-01,-1.264440541538978113e-01,-4.201734227410330175e-02
8.090000000000000524e-01,-1.862470379702193535e-01,-1.350973761941582918e-01,-4.927365004776752822e-02
8.100000000000000533e-01,-1.967278496956913203e-01,-1.132551350489344605e-01,-5.841216692366613117e-02
8.110000000000000542e-01,-1.993657951297070352e-01,-1.073971059497386693e-01,-6.202294896910519328e-02
8.120000000000000551e-01,-1.985198336928267471e-01,-9.846533446996438843e-02,-7.826490357006685161e-02
8.129999999999999449e-01,-2.018904530372701012e-01,-9.277796892308844134e-02,-8.126748773012149041e-02
8.139999999999999458e-01,-1.894332346817634849e-01,-6.380680481855327546e-02,-9.590332347586971729e-02
8.149999999999999467e-01,-1.902433251320719276e-01,-5.271421145138997788e-02,-9.614753058483770098e-02
8.159999999999999476e-01,-1.815038198784257595e-01,-4.274975401322457513e-02,-1.096173887964716348e-01
8.169999999999999485e-01,-1.758489062637230982e-01,-3.788149212771380059e-02,-1.104189566127006666e-01
8.179999999999999494e-01,-1.698643407733012867e-01,-2.388545612055935005e-02,-1.146789399001529458e-01
8.189999999999999503e-01,-1.516695318182716135e-01,8.285244166425058399e-03,-1.182165428011465041e-01
8.199999999999999512e-01,-1.405605276058997655e-01,1.264561552192550870e-02,-1.234710209392899105e-01
8.209999999999999520e-01,-1.197309757152403703e-01,3.901834720410309737e-02,-1.184247975314132867e-01
8.219999999999999529e-01,-1.089813041870048294e-01,5.173631887871341789e-02,-1.229216538469641296e-01
8.229999999999999538e-01,-8.248776920302665350e-02,6.557394555437615069e-02,-1.160942374484310730e-01
8.239999999999999547e-01,-7.145652681664686756e-02,8.056949160018918310e-02,-1.059821799712053064e-01
8.249999999999999556e-01,-3.604479070630667997e-02,9.382993256530711146e-02,-1.057534635358138436e-01
8.259999999999999565e-01,-3.489120828210864889e-02,9.644457041142386056e-02,-1.106223689588559378e-01
8.269999999999999574e-01,-1.231436461305264116e-02,1.114015929762713630e-01,-8.734441112894887616e-02
8.279999999999999583e-01,-3.521681117546069262e-03,1.410053707301680836e-01,-9.207810160824612955e-02
8.289999999999999591e-01,2.345395215750063073e-02,1.336053253620144154e-01,-9.157514470814746843e-02
8.299999999999999600e-01,4.458388629032608574e-02,1.440114086694385120e-01,-6.682955282723425372e-02
8.309999999999999609e-01,5.122664604739358973e-02,1.419213636759618646e-01,-7.407490689613939472e-02
8.319999999999999618e-01,6.903456156454865211e-02,1.503190146501044155e-01,-5.175538222722249337e-02
8.329999999999999627e-01,9.794526459893614090e-02,1.522031623088598018e-01,-4.009446867057428476e-02
8.339999999999999636e-01,1.082102682690658096e-01,1.593066586632040094e-01,-2.663177219812118066e-02
8.349999999999999645e-01,1.274014854636406069e-01,1.627723777932469085e-01,-2.256199388378946416e-02
8.359999999999999654e-01,1.461702006495574913e-01,1.597027295338253605e-01,-2.026210348478079890e-02
8.369999999999999662e-01,1.607967050769217587e-01,1.470896088923439038e-01,1.601155834305996407e-03
8.379999999999999671e-01,1.723721672362047708e-01,1.464958145134433454e-01,8.154118909217217270e-03
8.389999999999999680e-01,1.800420845019244376e-01,1.343401365554045823e-01,1.940148905283903963e-02
8.399999999999999689e-01,1.825013849867642424e-01,1.406120428405015776e-01,2.783071494081473460e-02
8.409999999999999698e-01,2.027359997328284369e-01,1.212803709890361153e-01,5.038055754132546304e-02
8.419999999999999707e-01,1.878913947260926198e-01,1.256779490204609773e-01,5.189181342482597492e-02
8.429999999999999716e-01,1.906575222450800633e-01,1.124848250284846557e-01,5.617566060863568578e-02
8.439999999999999725e-01,1.937416691098050869e-01,9.807231178415078132e-02,8.203007188720777554e-02
8.449999999999999734e-01,2.060483035709512467e-01,8.684697713915917605e-02,7.911916896330299653e-02
8.459999999999999742e-01,1.986506897229587676e-01,7.753483290508185466e-02,8.644432650075069280e-02
8.469999999999999751e-01,1.874054489726638406e-01,6.139631645116554182e-02,9.896096675244822616e-02
8.479999999999999760e-01,1.790085431610710376e-01,4.575389683874930141e-02,1.074373594371544338e-01
8.489999999999999769e-01,1.614033872358577870e-01,2.957349201740567396e-02,1.003605781755486787e-01
8.499999999999999778e-01,1.644072070777607142e-01,5.006385230719773496e-03,1.100383466261801030e-01
8.509999999999999787e-01,1.618891662788147223e-01,-1.703155535864766743e-02,1.076532054427573187e-01
8.519999999999999796e-01,1.393912665527398953e-01,-2.068245251226105003e-02,1.140882479061486737e-01
8.529999999999999805e-01,1.244002092274306831e-01,-3.204929333371158567e-02,1.168349984364274313e-01
8.539999999999999813e-01,1.135353082878689523e-01,-5.196190957587473042e-02,1.166714376482738957e-01
8.549999999999999822e-01,8.769214352239872168e-02,-6.412906887405118994e-02,1.259862439719703631e-01
8.559999999999999831e-01,7.007396720579923965e-02,-7.611062008520613764e-02,1.149946348526722228e-01
8.569999999999999840e-01,6.271018794447041911e-02,-8.950213524826786116e-02,1.145582342680157295e-01
8.579999999999999849e-01,3.861686985039115838e-02,-1.059824632754920448e-01,1.117743466704596567e-01
8.589999999999999858e-01,1.214552947150111112e-02,-1.061394564417008496e-01,9.883983706176757700e-02
8.599999999999999867e-01,9.659930563058229114e-03,-1.303637939993040618e-01,9.220967888469193408e-02
8.609999999999999876e-01,-2.899242979195254186e-02,-1.451107918466192359e-01,1.005312111628261507e-01
8.619999999999999885e-01,-4.046840888295931415e-02,-1.352863006210781593e-01,7.285684637667144692e-02
8.629999999999999893e-01,-6.619689887516215510e-02,-1.590936644438419589e-01,7.980668263516339789e-02
8.639999999999999902e-01,-7.191348303978292722e-02,-1.552173013933790258e-01,6.595584305558289950e-02
8.649999999999999911e-01,-8.815884691141304130e-02,-1.512037663105996466e-01,5.525962436731012700e-02
8.659999999999999920e-01,-1.012866341534750386e-01,-1.548065251183825541e-01,3.646648015820670719e-02
8.669999999999999929e-01,-1.276310274734775152e-01,-1.631458534226815082e-01,1.922579488236581674e-02
8.679999999999999938e-01,-1.387543606051145906e-01,-1.617452831766658938e-01,1.390353255014640209e-02
8.689999999999999947e-01,-1.477405012793106542e-01,-1.537117720909228491e-01,5.669704750601511738e-03
8.699999999999999956e-01,-1.628365507820567493e-01,-1.451519287731450614e-01,-8.161839684957103783e-03
8.709999999999999964e-01,-1.816245788479049772e-01,-1.507948938920052051e-01,-2.039735182022641563e-02
8.719999999999999973e-01,-1.820884546701146411e-01,-1.367364947448987400e-01,-1.772523448017413947e-02
8.729999999999999982e-01,-1.816146605992428609e-01,-1.194334516381951733e-01,-4.194433595449646029e-02
8.739999999999999991e-01,-1.929324075234579439e-01,-1.239791277858382362e-01,-4.532908737884445982e-02
8.750000000000000000e-01,-1.930799527074623934e-01,-1.063132482763981951e-01,-5.984713678068213916e-02
8.760000000000000009e-01,-1.984316390005350372e-01,-9.574456000878381334e-02,-6.585122875185314695e-02
8.770000000000000018e-01,-2.015031746230366017e-01,-7.114669120767827537e-02,-8.015849634839124216e-02
8.780000000000000027e-01,-1.979338339061468832e-01,-6.581552336813424608e-02,-7.519100980431696335e-02
8.790000000000000036e-01,-1.717009858376146447e-01,-5.633418093734510884e-02,-1.000241470160897900e-01
8.800000000000000044e-01,-1.886934684900771764e-01,-3.831355095283126705e-02,-1.008653892153031639e-01
8.810000000000000053e-01,-1.839813607580508270e-01,-2.908718854526344544e-02,-1.072888737134111981e-01
8.820000000000000062e-01,-1.709300720187646450e-01,-1.208179589780877805e-02,-1.097033459315698706e-01
8.830000000000000071e-01,-1.510394967840239522e-01,7.221062913718465787e-03,-1.137232909444894496e-01
8.840000000000000080e-01,-1.335514122176545138e-01,3.239624612745393289e-02,-1.067033019863057874e-01
8.850000000000000089e-01,-1.244728343208459653e-01,4.856908634442410472e-02,-1.151855629022782018e-01
8.860000000000000098e-01,-1.051810523038215484e-01,5.669495043694337821e-02,-1.228430759827983665e-01
8.870000000000000107e-01,-1.005076411603800512e-01,6.561187446318886285e-02,-1.229373807050460204e-01
8.880000000000000115e-01,-8.482150984804900928e-02,7.895094091876245224e-02,-1.298121635054645118e-01
8.890000000000000124e-01,-5.732744554247119068e-02,9.589308698802621878e-02,-1.073477016943569506e-01
8.900000000000000133e-01,-3.358084897786930284e-02,1.102164520070566117e-01,-1.123607655316145870e-01
8.910000000000000142e-01,-2.946786481974415089e-02,1.204013852902050402e-01,-1.043954944600322399e-01
8.920000000000000151e-01,-6.053232525365481557e-04,1.262727607974582777e-01,-9.334174223114015401e-02
8.930000000000000160e-01,9.828241504897682404e-03,1.387098166383210762e-01,-9.872412033379905638e-02
8.940000000000000169e-01,3.767571737793320302e-02,1.416978813691407713e-01,-7.741424685968348318e-02
8.950000000000000178e-01,5.117265006137315664e-02,1.514403832539259753e-01,-7.361794618716861749e-02
8.960000000000000187e-01,7.385360228282368544e-02,1.387790158578158517e-01,-6.968837468529130719e-02
8.970000000000000195e-01,9.273654395139206696e-02,1.605840328534210160e-01,-5.823250663535075450e-02
8.980000000000000204e-01,1.059623391638048889e-01,1.591921279043980175e-01,-3.544981595351687914e-02
8.990000000000000213e-01,1.252193251333329760e-01,1.482326587264619910e-01,-4.461957956837186989e-02
9.000000000000000222e-01,1.324091681319346792e-01,1.596802183466860536e-01,-2.682226078555127388e-02
9.010000000000000231e-01,1.539138929800059341e-01,1.510546004564150557e-01,-1.442142842963671859e-02
9.020000000000000240e-01,1.676576951634906332e-01,1.493621832634486890e-01,-1.522129910423678173e-03
9.030000000000000249e-01,1.806355695490873270e-01,1.473368956036178457e-01,7.138222964066524151e-03
9.040000000000000258e-01,1.859727812530758140e-01,1.260939658709183397e-01,2.645506029562489508e-02
9.050000000000000266e-01,1.930566543915962219e-01,1.272097958979908905e-01,2.436371364601892797e-02
9.060000000000000275e-01,1.940845463868124676e-01,1.184538219618650745e-01,4.094567343342050969e-02
9.070000000000000284e-01,1.866419277523501952e-01,1.004436556968064803e-01,5.861015283976699769e-02
9.080000000000000293e-01,1.962100174751267023e-01,8.733463060373179709e-02,6.822664189248943412e-02
9.090000000000000302e-01,2.008894532724845861e-01,7.122369146963637709e-02,7.299307924926443092e-02
9.100000000000000311e-01,1.964705660252361596e-01,7.381745310096321511e-02,7.561372856272226273e-02
9.110000000000000320e-01,2.000944025358104839e-01,5.330267406305843475e-02,9.069086137653376012e-02
9.120000000000000329e-01,1.809165146141133995e-01,3.003572800047749417e-02,1.006585524930382336e-01
9.130000000000000338e-01,1.808421814706527297e-01,1.862098096047380344e-02,1.003891951080507633e-01
9.140000000000000346e-01,1.696506649192080773e-01,5.286986622400281083e-03,1.142137187532785980e-01
9.150000000000000355e-01,1.531669371978131022e-01,-1.661331471135359117e-02,1.134017389398195158e-01
9.160000000000000364e-01,1.402229953647050054e-01,-8.759931385973586740e-03,1.145696468047193439e-01
9.170000000000000373e-01,1.284175270724488560e-01,-3.191171345819707877e-02,1.196910407003443505e-01
9.180000000000000382e-01,1.174047906602169039e-01,-4.799815823741161031e-02,1.171976049975853862e-01
9.190000000000000391e-01,1.016231976612734372e-01,-7.265336443781418574e-02,1.222411968830702661e-01
9.200000000000000400e-01,8.696204779701940946e-02,-8.384686851011298458e-02,1.199786635854812322e-01
9.210000000000000409e-01,6.702559597805468616e-02,-8.732040041136150677e-02,1.130864294301174577e-01
9.220000000000000417e-01,5.237316752576658130e-02,-1.123556425456260360e-01,1.117219247658159387e-01
9.230000000000000426e-01,2.271984714195587202e-02,-1.194018617726565479e-01,1.039463753016162118e-01
9.240000000000000435e-01,1.980577178369658312e-02,-1.395793473231478621e-01,9.873702978673408459e-02
9.250000000000000444e-01,-2.331310845344854946e-03,-1.359578169023057392e-01,9.649162699258778675e-02
9.260000000000000453e-01,-3.448502121561251854e-02,-1.495713584972286347e-01,9.020049099512707225e-02
9.270000000000000462e-01,-6.034885828524552687e-02,-1.496157978465500749e-01,9.450813085992763873e-02
9.280000000000000471e-01,-7.481297212310174249e-02,-1.450368348357209125e-01,7.510195950605307036e-02
9.290000000000000480e-01,-8.442930464667651458e-02,-1.528396500995370388e-01,7.253593929408259922e-02
9.300000000000000488e-01,-1.053063389043936010e-01,-1.736859420762852657e-01,5.239739364356352236e-02
9.310000000000000497e-01,-1.181329515320597295e-01,-1.618402389121338103e-01,4.144313961758682580e-02
9.320000000000000506e-01,-1.324516773500820366e-01,-1.547680024867896798e-01,3.348435252069113105e-02
9.330000000000000515e-01,-1.465536566705100685e-01,-1.526195398463110198e-01,2.979704927309827917e-02
9.340000000000000524e-01,-1.602573683608925492e-01,-1.527356845121347340e-01,8.354208466871664712e-03
9.350000000000000533e-01,-1.759232878816521239e-01,-1.525575840092984747e-01,-1.886695061496665698e-03
9.360000000000000542e-01,-1.887978238200116454e-01,-1.303016142971087088e-01,-1.215692950721558412e-02
9.370000000000000551e-01,-1.861301179098117375e-01,-1.282005854815712331e-01,-1.577325009701297312e-02
9.379999999999999449e-01,-1.837098964910379717e-01,-1.213431510448937378e-01,-4.528007564672022200e-02
9.389999999999999458e-01,-1.977357939469856773e-01,-9.058027940765590869e-02,-4.992922637129372510e-02
9.399999999999999467e-01,-1.957325666557593602e-01,-9.854178187981518788e-02,-6.772176815424933716e-02
9.409999999999999476e-01,-1.962589460354191573e-01,-8.181662960747115854e-02,-7.671356613217004961e-02
9.419999999999999485e-01,-1.884592910165895918e-01,-5.583412927964154920e-02,-7.372334690527539147e-02
9.429999999999999494e-01,-1.916523753074743097e-01,-4.909272891497284963e-02,-8.446721229553667831e-02
9.439999999999999503e-01,-1.771540489070768942e-01,-3.287480776758221201e-02,-8.907968374864409788e-02
9.449999999999999512e-01,-1.873583133080088114e-01,-2.921549863013354204e-02,-1.008090690758338542e-01
9.459999999999999520e-01,-1.697624579425562330e-01,-7.723074772461493986e-03,-1.114767093195300762e-01
9.469999999999999529e-01,-1.629413777857838252e-01,2.071447860377199912e-02,-1.077227504243579714e-01
9.479999999999999538e-01,-1.410774714843905098e-01,2.148449265232528493e-02,-1.191825838751341265e-01
9.489999999999999547e-01,-1.321818092450092741e-01,4.185992111007387495e-02,-1.181666906293305092e-01
9.499999999999999556e-01,-1.212424436822518853e-01,6.251831716465089395e-02,-1.233628274372397943e-01
9.509999999999999565e-01,-1.066402642035546161e-01,8.022992208728660368e-02,-1.172884824611338112e-01
9.519999999999999574e-01,-8.237654074830831619e-02,8.538017809460393681e-02,-1.210227471264845728e-01
9.529999999999999583e-01,-6.876395973971088926e-02,1.004250321331878332e-01,-1.264649696943182244e-01
9.539999999999999591e-01,-5.683648424239359787e-02,1.081116884794520450e-01,-1.105428442140919398e-01
9.549999999999999600e-01,-2.672710083616536975e-02,1.122228272498195650e-01,-1.091719354907924322e-01
9.559999999999999609e-01,-1.989498126300150854e-02,1.331688792422282275e-01,-1.149725529518725725e-01
9.569999999999999618e-01,4.466512768399430629e-03,1.352096122758837393e-01,-9.709884927909388785e-02
9.579999999999999627e-01,3.189912531261971523e-02,1.389294340455212440e-01,-8.565563550565299944e-02
9.589999999999999636e-01,4.399913368355928833e-02,1.526281544840625282e-01,-8.625107700681959588e-02
9.599999999999999645e-01,6.609309859147839694e-02,1.540373822633419598e-01,-8.171235432762784245e-02
9.609999999999999654e-01,8.782729053068775993e-02,1.511144559631642792e-01,-7.278818068767455018e-02
9.619999999999999662e-01,9.919302806286423024e-02,1.643960956223000092e-01,-6.175031508125906898e-02
9.629999999999999671e-01,1.161400913728608403e-01,1.510705498676001568e-01,-4.440009214891493111e-02
9.639999999999999680e-01,1.362135555648081586e-01,1.601449112331564395e-01,-4.182129065790002320e-02
9.649999999999999689e-01,1.479116219684153133e-01,1.530096841608933333e-01,-2.520163269904003231e-02
9.659999999999999698e-01,1.546074916807776145e-01,1.447715871781298236e-01,-2.149192622295888894e-02
9.669999999999999707e-01,1.574323459880154763e-01,1.508958157990642202e-01,-4.213553432448789542e-03
9.679999999999999716e-01,1.692495350468638804e-01,1.422915120855290094e-01,1.801737240471169843e-02
9.689999999999999725e-01,1.849320078377418852e-01,1.260508707477889789e-01,3.295714554140076469e-02
9.699999999999999734e-01,1.803930129155980056e-01,1.198442208994407870e-01,2.348362199373022277e-02
9.709999999999999742e-01,1.962731889368835303e-01,1.033682650922315566e-01,4.584128532795216787e-02
9.719999999999999751e-01,2.048584252833232089e-01,8.686850873489949942e-02,4.993310906350470479e-02
9.729999999999999760e-01,2.000886466645211137e-01,6.949129433187470339e-02,6.010815339284224235e-02
9.739999999999999769e-01,1.977395939602610286e-01,5.413821207394223928e-02,6.775838583936558135e-02
9.749999999999999778e-01,1.986410376135803735e-01,5.074847413187717760e-02,7.848419887824049923e-02
9.759999999999999787e-01,1.929371977704588126e-01,3.057371015855428475e-02,9.519925494687007939e-02
9.769999999999999796e-01,1.849388658331428958e-01,2.312372122418458395e-02,9.254964488614342288e-02
9.779999999999999805e-01,1.693360402891048444e-01,-1.536392637673099793e-03,1.049443083547751954e-01
9.789999999999999813e-01,1.621710533675211618e-01,-6.937132063510129815e-03,1.080715456505878247e-01
9.799999999999999822e-01,1.516354895442446615e-01,-2.597013088689208160e-02,1.120839336131236874e-01
9.809999999999999831e-01,1.389566271023997823e-01,-4.710834613952333966e-02,1.133763443329781351e-01
9.819999999999999840e-01,1.254952565862286207e-01,-6.068501502581283291e-02,1.147321390563660615e-01
9.829999999999999849e-01,9.808147519582209595e-02,-6.957881326230334895e-02,1.098104803221225806e-01
9.839999999999999858e-01,8.378247359209600731e-02,-8.812047504224530814e-02,1.261967014828644651e-01
9.849999999999999867e-01,6.580699821773842995e-02,-8.989393554474331416e-02,1.137574666792299932e-01
9.859999999999999876e-01,5.576010126303710540e-02,-1.052174190982677060e-01,1.218684750943056228e-01
9.869999999999999885e-01,2.985025907667221423e-02,-1.261843150248961043e-01,1.137753476413784909e-01
9.879999999999999893e-01,1.677108405242521902e-02,-1.419252490222737140e-01,1.126542395454624979e-01
9.889999999999999902e-01,9.259824261753566571e-03,-1.320810087898057761e-01,9.977736836613976257e-02
9.899999999999999911e-01,-2.056136833054290555e-02,-1.526837094446029386e-01,9.898758058014818506e-02
9.909999999999999920e-01,-4.674720145896842094e-02,-1.591968948992828758e-01,9.465185967322931049e-02
9.919999999999999929e-01,-5.966443042971022320e-02,-1.557446446025498588e-01,1.000831325986743514e-01
9.929999999999999938e-01,-7.962262642664502676e-02,-1.544518235660506389e-01,6.342134025874031356e-02
9.939999999999999947e-01,-1.008148751474915589e-01,-1.634573362862067891e-01,5.937597001115182960e-02
9.949999999999999956e-01,-1.155374830994278790e-01,-1.609140269610165042e-01,4.966704100227795765e-02
9.959999999999999964e-01,-1.243426593875284619e-01,-1.593423098820941353e-01,3.671749858986897430e-02
9.969999999999999973e-01,-1.411877452043565906e-01,-1.526445988214473470e-01,2.325108453454198532e-02
9.979999999999999982e-01,-1.644554887779522412e-01,-1.476390687980761174e-01,1.712402702584275155e-02
9.989999999999999991e-01,-1.647759902495036788e-01,-1.342770094524107227e-01,1.806859855039247287e-02
1.000000000000000000e+00,-1.804379510280376686e-01,-1.251796616899088499e-01,5.639447087479988220e-03
1.000999999999999890e+00,-1.851449718887862028e-01,-1.199082818511458398e-01,-1.496235149087493319e-02
1.002000000000000002e+00,-1.839799132620457689e-01,-1.032716418887062171e-01,-3.034650153072144391e-02
1.002999999999999892e+00,-1.934156888048638168e-01,-9.825676682512826665e-02,-4.437830411778072998e-02
1.004000000000000004e+00,-1.900476547079615053e-01,-9.391936590614820279e-02,-5.121161751465464623e-02
1.004999999999999893e+00,-1.977750234837050147e-01,-7.455880163417943907e-02,-5.041527035072616153e-02
1.006000000000000005e+00,-1.937536715396325215e-01,-6.069669381706357253e-02,-6.098063923111927270e-02
1.006999999999999895e+00,-1.979368534358793008e-01,-4.729141206599708075e-02,-8.028115332087229494e-02
1.008000000000000007e+00,-1.841509061245706624e-01,-2.885365185394278553e-02,-8.147803010834353543e-02
1.008999999999999897e+00,-1.788409357948781142e-01,-1.223435754189561124e-02,-8.655937774678405805e-02
1.010000000000000009e+00,-1.799935696559985254e-01,4.395318036379885704e-03,-9.958819676964104917e-02
1.010999999999999899e+00,-1.723605909939312508e-01,2.243659299126537360e-02,-1.045597359399220161e-01
1.012000000000000011e+00,-1.525720448763800696e-01,2.421031706852184995e-02,-1.171892246617055461e-01
1.012999999999999901e+00,-1.452679072544798278e-01,4.973340594214153976e-02,-1.040064116763468327e-01
1.014000000000000012e+00,-1.190621332675676075e-01,6.112581868304287763e-02,-1.226504278658167441e-01
1.014999999999999902e+00,-1.103957766593728768e-01,7.874753789014898864e-02,-1.237063340199614919e-01
1.016000000000000014e+00,-9.345595356930029574e-02,9.061520342941266348e-02,-1.099329010669600620e-01
1.016999999999999904e+00,-7.247365938949731912e-02,1.012976399927924265e-01,-1.207450479148338002e-01
1.018000000000000016e+00,-6.249417096407732658e-02,1.212033657774738704e-01,-1.236322054273397975e-01
1.018999999999999906e+00,-3.980310270074700896e-02,1.307306018820451332e-01,-1.127115257027791473e-01
1.020000000000000018e+00,-1.700838706601891584e-02,1.287998465280690563e-01,-1.207939093447083778e-01
1.020999999999999908e+00,2.379690926093474754e-03,1.568529394689223144e-01,-1.056113107681322522e-01
1.022000000000000020e+00,1.489016028130119365e-02,1.488613023079146114e-01,-1.022212944090162556e-01
1.022999999999999909e+00,3.510311919089671023e-02,1.495543941207191641e-01,-9.394051901411623606e-02
1.024000000000000021e+00,5.832823885097224853e-02,1.627177676623679792e-01,-9.058338150273846645e-02
1.024999999999999911e+00,7.790078885487929095e-02,1.551659325983464899e-01,-8.142503029519891633e-02
1.026000000000000023e+00,1.020863561616917603e-01,1.636899139113451584e-01,-6.468134643951839458e-02
1.026999999999999913e+00,1.122437733613508709e-01,1.606283766504092159e-01,-5.992296265862641358e-02
1.028000000000000025e+00,1.256630375237582364e-01,1.510206534499378139e-01,-4.569830474972918360e-02
1.028999999999999915e+00,1.384486194983398089e-01,1.537582297492930683e-01,-4.514571210598736922e-02
1.030000000000000027e+00,1.510692528228353426e-01,1.547253458404563020e-01,-1.905315227550816518e-02
1.030999999999999917e+00,1.676490242915785189e-01,1.388856284336232871e-01,-2.183631553822711416e-02
1.032000000000000028e+00,1.702398030960324826e-01,1.349355339339708137e-01,-2.373027174284703198e-03
1.032999999999999918e+00,1.821882607625696926e-01,1.232815997625472393e-01,1.487917198493992309e-02
1.034000000000000030e+00,1.854572958069566901e-01,1.178341954574602668e-01,1.504078527455139994e-02
1.034999999999999920e+00,1.904391153751439913e-01,1.035892819302311890e-01,2.682813755558375451e-02
1.036000000000000032e+00,2.009241186735106488e-01,8.410756960176538066e-02,3.398580866205952455e-02
1.036999999999999922e+00,2.013965502597502011e-01,8.170984159652842915e-02,5.653497929453549231e-02
1.038000000000000034e+00,1.991187152870137478e-01,6.073338020836578643e-02,6.499340350982146797e-02
1.038999999999999924e+00,2.043581572490581477e-01,4.332450179734938234e-02,7.493871976543325930e-02
1.040000000000000036e+00,1.900784124528690222e-01,3.372027828153637691e-02,7.767553579544049513e-02
1.040999999999999925e+00,1.782518084432714589e-01,1.986440158417040330e-02,9.595314228628820663e-02
1.042000000000000037e+00,1.873209054293381859e-01,-1.040227512108255880e-03,1.067767407025515536e-01
1.042999999999999927e+00,1.597496231822856660e-01,-1.577290436528361317e-02,1.120368576376004760e-01
1.044000000000000039e+00,1.554736049915089457e-01,-1.899794758848124751e-02,9.902905711121354204e-02
1.044999999999999929e+00,1.427747791027154378e-01,-4.537579777521841967e-02,1.168556601736186890e-01
1.046000000000000041e+00,1.254107960198374561e-01,-5.834623476960088678e-02,1.159370939252291205e-01
1.046999999999999931e+00,1.095895027316194648e-01,-7.347551019436147912e-02,1.265602459527126467e-01
1.048000000000000043e+00,1.023436671257199754e-01,-8.730171294965312356e-02,1.290205294268612357e-01
1.048999999999999932e+00,8.105291702799798104e-02,-1.081322400296630404e-01,1.092027595920299493e-01
1.050000000000000044e+00,5.889494875136931651e-02,-1.137445006947325754e-01,1.191740644182465725e-01
1.050999999999999934e+00,3.671676234056738680e-02,-1.265626632740422530e-01,1.197548844217787567e-01
1.052000000000000046e+00,3.350900750388596111e-02,-1.306398892075955886e-01,1.045736566296954773e-01
1.052999999999999936e+00,7.893486967871307311e-03,-1.393761859256613667e-01,1.053790328107550994e-01
1.054000000000000048e+00,-1.629253052415436873e-02,-1.513476318620417815e-01,1.150786407963619584e-01
1.054999999999999938e+00,-3.041423631748188527e-02,-1.662917732609835719e-01,1.033812897066223591e-01
1.056000000000000050e+00,-5.016950555059473960e-02,-1.572055685519885282e-01,8.867909677470740826e-02
1.056999999999999940e+00,-7.877486290702875871e-02,-1.612689027088541061e-01,7.808107172893551107e-02
1.058000000000000052e+00,-9.949563567211031079e-02,-1.547286725747644420e-01,6.900195679945345106e-02
1.058999999999999941e+00,-1.050535137007612835e-01,-1.521112968120479914e-01,6.059657732743702063e-02
1.060000000000000053e+00,-1.170134767307145773e-01,-1.532584659257534843e-01,5.644853788071180906e-02
1.060999999999999943e+00,-1.264429449060883726e-01,-1.435850719315540647e-01,4.287543275719712943e-02
1.062000000000000055e+00,-1.630559260787160514e-01,-1.529888918975690904e-01,3.476914447598034030e-02
1.062999999999999945e+00,-1.694017294080000791e-01,-1.316763733528796831e-01,2.647587679441958802e-02
1.064000000000000057e+00,-1.759855993328318380e-01,-1.247898055167331599e-01,3.378752459489771376e-03
1.064999999999999947e+00,-1.880458963057943245e-01,-1.127922402145883213e-01,-7.884375779531101885e-03
1.066000000000000059e+00,-1.907171918607864225e-01,-1.166308612262327571e-01,-7.858814985003627698e-03
1.066999999999999948e+00,-1.970299658012774902e-01,-8.656831107804366376e-02,-2.718372530235918863e-02
1.068000000000000060e+00,-1.887944585636610884e-01,-7.960399368522358410e-02,-2.605091913827704483e-02
1.068999999999999950e+00,-1.972956723754558384e-01,-8.161904928617691457e-02,-4.932095003925100751e-02
1.070000000000000062e+00,-1.966003102488098064e-01,-7.767027802683867943e-02,-5.577961672862857823e-02
1.070999999999999952e+00,-1.933879129067513081e-01,-4.717940822498220554e-02,-7.506280279376961739e-02
1.072000000000000064e+00,-1.919494599523917933e-01,-1.611325247191737128e-02,-7.612606018108238060e-02
1.072999999999999954e+00,-1.820593373452894237e-01,-2.270113743817261248e-02,-8.949239525755944835e-02
1.074000000000000066e+00,-1.799077006000387724e-01,2.543443752257736837e-03,-9.049732019932846261e-02
1.074999999999999956e+00,-1.570329114651549118e-01,2.262505628868872673e-02,-9.494571152581809947e-02
1.076000000000000068e+00,-1.497133192830706894e-01,2.848261171436767408e-02,-1.042101253874583300e-01
1.076999999999999957e+00,-1.430033312444173033e-01,5.495688263787269767e-02,-1.015429179457229270e-01
1.078000000000000069e+00,-1.294959808821536384e-01,7.102503701858740859e-02,-1.110718021437373804e-01
1.078999999999999959e+00,-1.200377773302885587e-01,7.562427664934832927e-02,-1.145557486233069466e-01
1.080000000000000071e+00,-9.347875301922067837e-02,8.228083580054680601e-02,-1.222709063319623868e-01
1.080999999999999961e+00,-9.065329788144123324e-02,9.514554434218558399e-02,-1.220007941283890590e-01
1.082000000000000073e+00,-7.129958503612628118e-02,1.138976926963182479e-01,-1.162517184629699163e-01
1.082999999999999963e+00,-3.329316629915991810e-02,1.325660403925794650e-01,-1.057710407158093391e-01
1.084000000000000075e+00,-3.031038558861066587e-02,1.261261373104217709e-01,-1.123626368633197925e-01
1.084999999999999964e+00,-1.658255640524599131e-02,1.468110934098899034e-01,-1.018963087525241312e-01
1.086000000000000076e+00,-7.600613781909493737e-03,1.474892538699092426e-01,-1.153350946506346703e-01
1.086999999999999966e+00,2.186341920367554023e-02,1.569919808988694820e-01,-1.124576079568332804e-01
1.088000000000000078e+00,4.486691945521357333e-02,1.595888858083682749e-01,-9.161365750953055775e-02
1.088999999999999968e+00,6.890722228951624839e-02,1.554968089530894548e-01,-9.420028106909097976e-02
1.090000000000000080e+00,8.957589436738003230e-02,1.628203802429183389e-01,-7.198080644554090413e-02
1.090999999999999970e+00,9.774912476127840810e-02,1.507553960829436657e-01,-6.832227325464305945e-02
1.092000000000000082e+00,1.217591171192757837e-01,1.599287788491291495e-01,-6.305979281994482377e-02
1.092999999999999972e+00,1.378439687207501929e-01,1.483796040963625273e-01,-4.803455600596216041e-02
1.094000000000000083e+00,1.488960513238328232e-01,1.525554509192649510e-01,-3.552677608785490687e-02
1.094999999999999973e+00,1.541406972876659398e-01,1.446234474609163212e-01,-2.303546774843195574e-02
1.096000000000000085e+00,1.724604661732045685e-01,1.266976361469585033e-01,-1.117696378928297561e-02
1.096999999999999975e+00,1.786243278736627804e-01,1.168613969995035695e-01,-6.334140471331093335e-03
1.098000000000000087e+00,1.760534094835196073e-01,1.063908135828566387e-01,-2.718630509981504275e-04
1.098999999999999977e+00,1.897978825236863454e-01,9.934692290931232406e-02,2.722256074156119421e-02
1.100000000000000089e+00,1.935712395775774086e-01,8.044683031505779625e-02,2.624416696437073190e-02
1.100999999999999979e+00,1.935033872652513753e-01,6.954433730542376735e-02,4.545452582582725637e-02
1.102000000000000091e+00,2.011716786647849697e-01,6.216062978468979427e-02,5.184706598229006647e-02
1.102999999999999980e+00,1.916848103787697488e-01,4.241093408020216865e-02,6.009544031531587061e-02
1.104000000000000092e+00,1.893849392132097853e-01,3.063260918569537736e-02,7.347431989846042732e-02
1.104999999999999982e+00,1.817191863052899092e-01,2.493146957268897734e-03,8.580047681622991751e-02
1.106000000000000094e+00,1.733640691282996305e-01,-1.019345859077244038e-02,9.000800516060285250e-02
1.106999999999999984e+00,1.661952124568592537e-01,-2.620936366265049638e-02,9.412715459495592241e-02
1.108000000000000096e+00,1.612642546283118983e-01,-3.622355384348324020e-02,9.687583711711265921e-02
1.108999999999999986e+00,1.512692841843940594e-01,-5.102223589753620420e-02,1.059349845332197698e-01
1.110000000000000098e+00,1.351709581505111391e-01,-7.354622173328721757e-02,1.038134852865243846e-01
1.110999999999999988e+00,1.368782803056381725e-01,-8.215846061734639882e-02,1.082231763352339698e-01
1.112000000000000099e+00,1.138062570762453374e-01,-9.738810739647228709e-02,1.143436831379614216e-01
1.112999999999999989e+00,8.874818604836340330e-02,-1.068242039130619936e-01,1.273073323617342489e-01
1.114000000000000101e+00,6.913264821941762783e-02,-1.070440196171632968e-01,1.210466498804042418e-01
1.114999999999999991e+00,4.561880007169403367e-02,-1.204822023988455781e-01,1.116624078475802473e-01
1.116000000000000103e+00,2.796635905743749539e-02,-1.366006252736682580e-01,1.273072906338980903e-01
1.116999999999999993e+00,3.147375535767670245e-03,-1.490492231810841561e-01,1.090637950048032323e-01
1.118000000000000105e+00,-2.953246117264172414e-03,-1.485101303616691848e-01,1.050275773269955665e-01
1.118999999999999995e+00,-2.540060329050292803e-02,-1.545424530120567408e-01,1.070938418366752520e-01
1.120000000000000107e+00,-4.425444680950495896e-02,-1.566143046029657981e-01,9.977715913982877771e-02
1.120999999999999996e+00,-6.554543000054198487e-02,-1.555018558385321270e-01,9.035299164999534283e-02
1.122000000000000108e+00,-8.297944404159227072e-02,-1.622741182961584816e-01,7.495005966975641643e-02
1.122999999999999998e+00,-9.237820047497347087e-02,-1.569014854538540726e-01,7.043284267259217191e-02
1.124000000000000110e+00,-1.195198228399512036e-01,-1.601694475841465848e-01,5.661709847259450978e-02
1.125000000000000000e+00,-1.177160731923535819e-01,-1.478707586319057965e-01,5.995845094532640390e-02
1.125999999999999890e+00,-1.458882434991919941e-01,-1.404344245982915573e-01,4.870269499016655762e-02
1.127000000000000002e+00,-1.641063630514061067e-01,-1.400480397351180628e-01,4.263726428951594011e-02
1.127999999999999892e+00,-1.717756052093699637e-01,-1.327290306918416651e-01,2.165469577555124633e-02
1.129000000000000004e+00,-1.727509324650977618e-01,-1.220738178958074016e-01,2.540289378742296902e-03
1.129999999999999893e+00,-1.878566750455898382e-01,-1.039949581554989316e-01,-6.580167067222101413e-04
1.131000000000000005e+00,-1.917852492015562071e-01,-1.035385703105383415e-01,-1.006877316968969767e-02
1.131999999999999895e+00,-1.889868212353612575e-01,-7.822317722216205749e-02,-2.492842168197944436e-02
1.133000000000000007e+00,-1.941128475988660729e-01,-6.751663469113777793e-02,-3.999784880605108256e-02
1.133999999999999897e+00,-1.997891677037331726e-01,-5.521019668732690677e-02,-4.565913848034067191e-02
1.135000000000000009e+00,-1.910527693479990574e-01,-4.438448982629014661e-02,-5.700121799002980105e-02
1.135999999999999899e+00,-1.979339583111929812e-01,-2.567756749420097712e-02,-5.838769735815142053e-02
1.137000000000000011e+00,-1.827080731722096063e-01,7.317020759453795242e-04,-6.859535616939188563e-02
1.137999999999999901e+00,-1.926835734814416612e-01,6.382631367651000510e-03,-9.005316933364257426e-02
1.139000000000000012e+00,-1.714313187098327473e-01,2.623998318877445585e-02,-9.813402923324568428e-02
1.139999999999999902e+00,-1.525480337753180871e-01,4.609462346358154938e-02,-8.984551215104236155e-02
1.141000000000000014e+00,-1.522656622225459777e-01,5.013781380816570432e-02,-1.057896653039390039e-01
1.141999999999999904e+00,-1.392293625822261793e-01,6.711701249293001992e-02,-1.140310706507437211e-01
1.143000000000000016e+00,-1.276784349773948668e-01,8.315994998405092098e-02,-1.064428412003870367e-01
1.143999999999999906e+00,-9.830744386435501248e-02,9.652454459911254114e-02,-1.034879621383016229e-01
1.145000000000000018e+00,-9.493946011050692635e-02,1.053778613281393384e-01,-1.130121261868962806e-01
1.145999999999999908e+00,-6.278714263717423416e-02,1.246588107363525710e-01,-1.207992145733575717e-01
1.147000000000000020e+00,-4.912533885239074583e-02,1.266569901799246833e-01,-1.142681874829965388e-01
1.147999999999999909e+00,-2.863464277478438083e-02,1.374382232669810466e-01,-1.243600409511069482e-01
1.149000000000000021e+00,-2.315453142102870399e-02,1.492389269726578649e-01,-1.146311719710161603e-01
1.149999999999999911e+00,-1.928361675503011997e-03,1.527905096405461904e-01,-1.047359821455865064e-01
1.151000000000000023e+00,1.718662002834305327e-02,1.566348331803891214e-01,-1.085061060417697038e-01
1.151999999999999913e+00,4.521051548975337647e-02,1.587434754517279278e-01,-1.040252955286092018e-01
1.153000000000000025e+00,5.560031578925320878e-02,1.535054513406744481e-01,-8.448953289827718094e-02
1.153999999999999915e+00,7.371735833456356801e-02,1.594460016493742249e-01,-8.614694498809843948e-02
1.155000000000000027e+00,1.001837267874210180e-01,1.585867543509130173e-01,-7.227637882203297170e-02
1.155999999999999917e+00,1.074555719120772329e-01,1.541056579692826889e-01,-7.620346527711228946e-02
1.157000000000000028e+00,1.251912872328399540e-01,1.471435237455984979e-01,-5.773313301527670249e-02
1.157999999999999918e+00,1.496845527881905391e-01,1.407569195360358072e-01,-5.026951112349528628e-02
1.159000000000000030e+00,1.550896783320104555e-01,1.487902253831549504e-01,-4.151914974956886356e-02
1.159999999999999920e+00,1.598195144464049644e-01,1.259729510338666036e-01,-3.438895979802338021e-02
1.161000000000000032e+00,1.802906566303673908e-01,1.287275685761126998e-01,-1.651963903434459577e-02
1.161999999999999922e+00,1.909888887711334582e-01,9.655923656513043518e-02,-1.242339693668791448e-02
1.163000000000000034e+00,1.929301777405903473e-01,1.020010174422041616e-01,3.519200728254935628e-03
1.163999999999999924e+00,1.850314175702338637e-01,8.218799974640539352e-02,1.453479123401156536e-02
1.165000000000000036e+00,2.031323688553745566e-01,6.221483570724352374e-02,2.774745961480596865e-02
1.165999999999999925e+00,1.970930677330034464e-01,4.600397054921990386e-02,4.251553751087167043e-02
1.167000000000000037e+00,2.074548169458144964e-01,3.892253996582602932e-02,4.753381540889915075e-02
1.167999999999999927e+00,1.920913772714340217e-01,2.697909832568190502e-02,5.969217706441403565e-02
1.169000000000000039e+00,1.919287836770749989e-01,8.723145706381317879e-03,7.500028789989736377e-02
1.169999999999999929e+00,1.739301016645394826e-01,-1.002811121713336091e-02,8.038893908055354254e-02
1.171000000000000041e+00,1.710449739411299130e-01,-2.124397978396758147e-02,8.549130617398051357e-02
1.171999999999999931e+00,1.550094218180326222e-01,-4.189279139505033833e-02,9.350477182440711243e-02
1.173000000000000043e+00,1.569311103443688238e-01,-4.121791539199985699e-02,1.013372709827878165e-01
1.173999999999999932e+00,1.295865131652264857e-01,-7.171714610781282362e-02,1.084815919186373628e-01
1.175000000000000044e+00,1.289528901829522511e-01,-8.732572398851945472e-02,1.042800531495344379e-01
1.175999999999999934e+00,1.008638749160049308e-01,-9.594006294483145569e-02,1.096330786725782241e-01
1.177000000000000046e+00,9.837355438167459665e-02,-1.157518008051940522e-01,1.130917918166976371e-01
1.177999999999999936e+00,7.590332907772914806e-02,-1.198955578822935852e-01,1.167682239710097075e-01
1.179000000000000048e+00,5.530402180376144811e-02,-1.185128625850928180e-01,1.239962235544544572e-01
1.179999999999999938e+00,4.217731753996849242e-02,-1.383019670441064386e-01,1.388591152787581329e-01
1.181000000000000050e+00,1.387334310397530558e-02,-1.328107124604579747e-01,1.142378415174617329e-01
