time,acc_x,acc_y,acc_z
0.000000000000000000e+00,2.296042414800930354e-01,3.167176495206101144e-02,2.576812184167211472e-01
1.000000000000000021e-03,-8.214704767988433021e-02,-2.217448411759728732e-01,1.100325223311302003e-01
2.000000000000000042e-03,-5.556810200216386608e-01,-5.648961257271786218e-01,-2.033020514638687049e-01
3.000000000000000062e-03,-8.387395501476535564e-01,-7.064005996232288753e-01,-4.334253146088439257e-01
4.000000000000000083e-03,-6.750651572867573114e-01,-5.474670172660104361e-01,-3.767851761201624905e-01
5.000000000000000104e-03,-2.519124588116011254e-01,-2.351732914267540275e-01,-1.210128861001477235e-01
6.000000000000000125e-03,2.517202012406404704e-02,-4.969396475200142660e-02,9.498606221055155840e-02
7.000000000000000146e-03,-8.034090420680738143e-02,-1.742594332680133251e-01,7.805647992575782956e-02
8.000000000000000167e-03,-4.961307957028018301e-01,-4.877090495185378849e-01,-1.637950255910837483e-01
8.999999999999999320e-03,-8.730599786866261036e-01,-7.010377512706813530e-01,-4.394503232955668248e-01
1.000000000000000021e-02,-8.799594994267839754e-01,-6.459714695268743423e-01,-5.383907486982584256e-01
1.099999999999999936e-02,-5.421173631586496677e-01,-3.580234814847377822e-01,-3.598163308632764679e-01
1.200000000000000025e-02,-1.557777455701086777e-01,-9.209764362656794323e-02,-9.824565149851048618e-02
1.299999999999999940e-02,-5.167677916435129554e-02,-1.004870034941144491e-01,2.438629863152599192e-02
1.400000000000000029e-02,-3.420035406185480964e-01,-3.312771411618088968e-01,-1.037574537669602726e-01
1.499999999999999944e-02,-7.500937973224235389e-01,-5.910753081640163220e-01,-3.922744193231442744e-01
1.600000000000000033e-02,-9.132798852025832970e-01,-6.244174010986437429e-01,-5.690234422051362317e-01
1.700000000000000122e-02,-7.059917985913886085e-01,-4.046455436514415083e-01,-5.171714076650988368e-01
1.799999999999999864e-02,-3.041690247944455749e-01,-1.040468136945225802e-01,-2.709048335877748404e-01
1.899999999999999953e-02,-4.857664647972657901e-02,1.992760698502057601e-02,-5.156083951168604490e-02
2.000000000000000042e-02,-1.436621789529796411e-01,-1.168859405939377122e-01,-5.301885216861321887e-02
2.100000000000000130e-02,-4.974709900972906218e-01,-3.763340681079779815e-01,-2.505446344234988909e-01
2.199999999999999872e-02,-7.620797527990116338e-01,-4.907899686182209398e-01,-4.907859648830250054e-01
2.299999999999999961e-02,-7.062956232270923840e-01,-3.607983181323331512e-01,-5.482508674898997070e-01
2.400000000000000050e-02,-3.588841416794713579e-01,-7.131237400758549949e-02,-3.685445136874572203e-01
2.500000000000000139e-02,-4.203622354130727087e-03,1.452550421227623290e-01,-1.182454513411086289e-01
2.599999999999999881e-02,6.343780566791452913e-02,1.099904686779234475e-01,1.495113341940482871e-02
2.699999999999999969e-02,-1.709342566315726897e-01,-8.496366416925883736e-02,-9.132648385668162838e-02
2.800000000000000058e-02,-4.909389345413351924e-01,-2.748147293881668674e-01,-3.116219063277793078e-01
2.900000000000000147e-02,-5.712287017743848949e-01,-2.399434589392442918e-01,-4.519378843003410418e-01
2.999999999999999889e-02,-3.410829179101023678e-01,-5.296249488459985402e-04,-3.914980892160443426e-01
3.099999999999999978e-02,4.448565683213229205e-02,2.429122249277295975e-01,-1.591733583245448502e-01
3.200000000000000067e-02,2.613618936497798528e-01,3.139905202009932728e-01,5.370162871384136227e-02
3.300000000000000155e-02,1.611064109476237904e-01,1.737295098213993139e-01,6.328865959311587297e-02
3.400000000000000244e-02,-1.233255911474556710e-01,-1.991140777006342524e-02,-7.969913194746497398e-02
3.500000000000000333e-02,-3.049652571435196857e-01,-8.006948864655211162e-02,-2.752429234151294590e-01
3.599999999999999728e-02,-2.158009726970870068e-01,7.403296746255469407e-02,-3.178293634752681340e-01
3.699999999999999817e-02,1.015257215046923012e-01,3.218733037937822616e-01,-1.606241743894150642e-01
3.799999999999999906e-02,3.996551974022690690e-01,4.551499810920485167e-01,7.297569336090072023e-02
3.899999999999999994e-02,4.528601547139968764e-01,4.174683580841459518e-01,2.005454697417424215e-01
4.000000000000000083e-02,2.410264960501208031e-01,2.216422744791858579e-01,1.341269319580721819e-01
4.100000000000000172e-02,-9.015711847339609756e-04,9.256432284690864487e-02,-4.771360080677382320e-02
4.200000000000000261e-02,-5.383996666435804379e-02,1.417487197139397637e-01,-1.709200562688035774e-01
4.299999999999999656e-02,1.675562995694813428e-01,3.505488212241384960e-01,-1.104634699826823330e-01
4.399999999999999745e-02,4.768149850442472970e-01,5.413051924031374584e-01,9.368007534852590412e-02
4.499999999999999833e-02,6.549288629286239560e-01,5.549172999714053756e-01,2.813135373142940932e-01
4.599999999999999922e-02,5.461631423942409080e-01,4.132030589219765626e-01,3.157785142649431886e-01
4.700000000000000011e-02,2.938847661626728391e-01,2.372549453962496668e-01,1.903926797035720431e-01
4.800000000000000100e-02,1.335220217750780203e-01,1.889520975323954466e-01,2.096194007800518747e-02
4.900000000000000189e-02,2.072932144089508488e-01,3.116794184870820272e-01,-2.768232463725095807e-02
5.000000000000000278e-02,4.677933210352120952e-01,4.927667823335907249e-01,1.099582053331054632e-01
5.099999999999999672e-02,7.127364205226139893e-01,5.888858676932067215e-01,3.098167065511601148e-01
5.199999999999999761e-02,7.294489324668014252e-01,5.137022427640565159e-01,4.262637830100538539e-01
5.299999999999999850e-02,5.357470677567637285e-01,3.316274142253320956e-01,3.649165434202354397e-01
5.399999999999999939e-02,3.004072018161204616e-01,2.058603939555808393e-01,2.151944143043006130e-01
5.500000000000000028e-02,2.247673565916157301e-01,2.295396395394364575e-01,9.443106627540752418e-02
5.600000000000000117e-02,3.991784208585272831e-01,3.710175771922268328e-01,1.208904567564751675e-01
5.700000000000000205e-02,6.337955954125406022e-01,5.037165553236226945e-01,2.724385490364178430e-01
5.800000000000000294e-02,7.502648612667986994e-01,4.961709287579476602e-01,4.347371941283772467e-01
5.899999999999999689e-02,6.481629137719890910e-01,3.326018816266805844e-01,4.552819595889264770e-01
5.999999999999999778e-02,4.014053483667979205e-01,1.637216023282969113e-01,3.461631919873287000e-01
6.099999999999999867e-02,2.299038754712448007e-01,1.065496241629683288e-01,1.898892479855872617e-01
6.199999999999999956e-02,2.601613966172996451e-01,1.861020562306845427e-01,1.247423440582223764e-01
6.300000000000000044e-02,4.350569501083879076e-01,3.258767713251093379e-01,2.027503794320046071e-01
6.400000000000000133e-02,6.141757582148732464e-01,3.769877825357504375e-01,3.571654484088095383e-01
6.500000000000000222e-02,6.043404457176223543e-01,2.880621063855091091e-01,4.462493564014786140e-01
6.600000000000000311e-02,4.194687683509772946e-01,9.510835923944110926e-02,4.037567456962564694e-01
6.700000000000000400e-02,1.868456622516675436e-01,-3.550383931223675960e-02,2.583784962225295079e-01
6.800000000000000488e-02,8.146735390472516214e-02,-3.722672280099817432e-02,1.280602417811691485e-01
6.900000000000000577e-02,1.751844361114451298e-01,8.625402038443959196e-02,1.113630571984746132e-01
7.000000000000000666e-02,3.472157892714331506e-01,1.846857855096387946e-01,2.111860469839100807e-01
7.099999999999999367e-02,4.382731134397768735e-01,1.635263122946805925e-01,3.392326821254111335e-01
7.199999999999999456e-02,3.396417766823901507e-01,1.003096735107397892e-02,3.634449712024853674e-01
7.299999999999999545e-02,1.089004549323720206e-01,-1.734294131009805617e-01,2.713756231850167344e-01
7.399999999999999634e-02,-7.457582248367358724e-02,-2.387934444016057978e-01,1.128088267572082415e-01
7.499999999999999722e-02,-1.188072538862410127e-01,-1.746111358630466903e-01,2.625536177485259318e-02
7.599999999999999811e-02,1.991055050060511894e-02,-5.444547001388174573e-02,5.541379689518239476e-02
7.699999999999999900e-02,1.611598424110937955e-01,2.696495850926436226e-03,1.476879476209065623e-01
7.799999999999999989e-02,1.752915914454213353e-01,-8.786740568785830763e-02,2.365118933789219502e-01
7.900000000000000078e-02,4.885274660039277787e-03,-2.552476930243811615e-01,2.078288212150936620e-01
8.000000000000000167e-02,-2.238926330809786203e-01,-4.040321565319542341e-01,6.944933790813659358e-02
8.100000000000000255e-02,-3.533427840363074779e-01,-4.018213729228761188e-01,-6.649392999714902330e-02
8.200000000000000344e-02,-3.052200914975138901e-01,-2.725203112800552718e-01,-1.135119476535142863e-01
8.300000000000000433e-02,-1.398134330336321396e-01,-1.435404591554245157e-01,-4.793563489698054320e-02
8.400000000000000522e-02,-3.694886594171766653e-02,-1.493853129305835747e-01,5.403730773457125769e-02
8.500000000000000611e-02,-9.610354839838063101e-02,-2.949268114435061316e-01,7.898889576415508984e-02
8.599999999999999312e-02,-3.159229618796859929e-01,-4.744306506983045346e-01,1.802290269541934400e-02
8.699999999999999400e-02,-5.053600629179817449e-01,-5.399963560341802804e-01,-1.257250543405840637e-01
8.799999999999999489e-02,-5.525546569287436149e-01,-4.576428217639292306e-01,-2.240304918145313018e-01
8.899999999999999578e-02,-4.313647466039841061e-01,-2.904371977057384480e-01,-2.453372931925784095e-01
8.999999999999999667e-02,-2.711696110809730942e-01,-1.889950208888659389e-01,-1.526447794003457925e-01
9.099999999999999756e-02,-2.134069942442286538e-01,-2.680179221280574176e-01,-6.774134947540122464e-02
9.199999999999999845e-02,-3.373264005991664094e-01,-4.553179950281307509e-01,-6.261608034126332767e-02
9.299999999999999933e-02,-5.462959736158761181e-01,-5.720346400373432783e-01,-1.503645165192627475e-01
9.400000000000000022e-02,-6.894117419337526531e-01,-5.565360180050499261e-01,-2.828673347580381581e-01
9.500000000000000111e-02,-6.376742493423137592e-01,-3.793913797986684933e-01,-3.420395485692681592e-01
9.600000000000000200e-02,-4.524010147899475975e-01,-2.189717818493554513e-01,-3.225914495271134941e-01
9.700000000000000289e-02,-2.903345934534266037e-01,-1.827140397713334641e-01,-2.282196590141228054e-01
9.800000000000000377e-02,-2.961632172947521457e-01,-3.241736872008370574e-01,-1.485341167660600981e-01
9.900000000000000466e-02,-4.668060930779878159e-01,-4.910269618384927592e-01,-1.700386627878066881e-01
1.000000000000000056e-01,-6.638244181677666056e-01,-5.369218193751230661e-01,-2.763225251432538387e-01
1.010000000000000064e-01,-7.084482944241871083e-01,-3.990102791789721381e-01,-3.979491814446901032e-01
1.019999999999999934e-01,-5.692726647589210209e-01,-1.782426762847384438e-01,-4.099330620960181526e-01
1.029999999999999943e-01,-3.415462497484483273e-01,-6.157230174193072114e-02,-3.348002196535061481e-01
1.039999999999999952e-01,-2.015726602992110872e-01,-1.222554644995104411e-01,-2.222918588466147038e-01
1.049999999999999961e-01,-2.961845404517442493e-01,-3.047245107373660611e-01,-1.667181663099915334e-01
1.059999999999999970e-01,-4.848545925678405810e-01,-4.276652336196162807e-01,-2.235243125992408264e-01
1.069999999999999979e-01,-6.285408289097619283e-01,-3.549470715575154811e-01,-3.358667836915478766e-01
1.079999999999999988e-01,-5.738150475408300144e-01,-1.286469788197615871e-01,-4.102097829856640732e-01
1.089999999999999997e-01,-3.341949348340044756e-01,8.771482599997264262e-02,-3.836759804082800485e-01
1.100000000000000006e-01,-9.790569505567121855e-02,1.079139335966896457e-01,-2.735631118397481298e-01
1.110000000000000014e-01,-5.234297062341566886e-02,-5.561908701645878333e-02,-1.518710149275195598e-01
1.120000000000000023e-01,-2.159028378624700539e-01,-2.382488644966828106e-01,-1.155054140559176185e-01
1.130000000000000032e-01,-4.263701613215105102e-01,-2.534071045551634094e-01,-1.941363112225530929e-01
1.140000000000000041e-01,-4.649922894774332627e-01,-4.494365591254968068e-02,-3.098025545990834018e-01
1.150000000000000050e-01,-2.771770577089414100e-01,2.108134625723765421e-01,-3.599302145503455730e-01
1.160000000000000059e-01,9.365790993102585116e-03,3.413778058581704022e-01,-2.747484576644012577e-01
1.170000000000000068e-01,1.797192042849458105e-01,2.228876142121059833e-01,-1.258178184174676972e-01
1.179999999999999938e-01,1.289170765457691159e-01,5.801176066971465602e-03,-8.608091218897131330e-03
1.189999999999999947e-01,-9.675493409585293747e-02,-1.041031312407582343e-01,-1.729078107950008519e-02
1.199999999999999956e-01,-2.629546620356550402e-01,1.725368598831662770e-02,-1.247030602171570884e-01
1.209999999999999964e-01,-1.780767935863552809e-01,2.911246159414834778e-01,-2.296377186563745287e-01
1.219999999999999973e-01,9.801223309412378237e-02,5.081563888784924599e-01,-2.191482627312383025e-01
1.229999999999999982e-01,3.780116324908787684e-01,4.720921203774314234e-01,-1.009380494402586509e-01
1.239999999999999991e-01,4.468262814109197345e-01,2.493105318266165271e-01,6.977453241245311355e-02
1.250000000000000000e-01,2.578907865803380384e-01,4.230259007351371697e-02,1.456986677191501600e-01
1.260000000000000009e-01,3.512473894454683828e-03,5.999591236775783654e-02,8.039244736275054370e-02
1.270000000000000018e-01,-6.522761250219437368e-02,3.107101597263473569e-01,-5.016040811465484472e-02
1.280000000000000027e-01,1.471931624078363365e-01,5.880660770606263021e-01,-1.167927792594762870e-01
1.290000000000000036e-01,4.932977605708949720e-01,6.598384734392993556e-01,-5.441493608872770282e-02
1.300000000000000044e-01,6.731359877408465975e-01,4.483520230646264593e-01,1.182243152377798617e-01
1.310000000000000053e-01,5.831421555469595841e-01,1.900523630908966255e-01,2.574076901058787170e-01
1.320000000000000062e-01,2.874486839366555690e-01,6.728247999873859797e-02,2.885500190686666189e-01
1.330000000000000071e-01,8.623386899115728643e-02,2.427123363144864931e-01,1.543510886150912809e-01
1.340000000000000080e-01,1.609520344606455988e-01,5.541985726792705291e-01,1.912063492558228883e-02
1.350000000000000089e-01,4.800416182937589649e-01,7.198852951866283600e-01,7.239961027869994993e-03
1.360000000000000098e-01,7.753884360736651438e-01,5.899777282202415263e-01,1.287202621238028033e-01
1.370000000000000107e-01,7.965695910837520266e-01,2.718935146610994003e-01,3.239327052151065867e-01
1.380000000000000115e-01,5.361840825075576689e-01,5.921396849850808081e-02,4.141564130111797803e-01
1.390000000000000124e-01,2.081035586513376723e-01,1.164087489921937363e-01,3.561032047140173518e-01
1.400000000000000133e-01,1.215438619271498460e-01,3.978072645908902749e-01,1.968314870083284485e-01
1.409999999999999865e-01,3.557442910314420614e-01,6.681655284977171538e-01,6.835943379916657736e-02
1.419999999999999873e-01,7.146573193618969144e-01,6.288154371347138838e-01,1.213072818266193453e-01
1.429999999999999882e-01,8.654140332942769076e-01,3.384855740892594445e-01,2.961509682698702517e-01
1.439999999999999891e-01,7.013028129907349362e-01,-4.716456058448764655e-04,4.601012009713233986e-01
1.449999999999999900e-01,3.306657943058503579e-01,-5.868822889638276863e-02,4.776989491726504333e-01
1.459999999999999909e-01,6.553173536662823540e-02,1.669917282106164746e-01,3.242581090075769001e-01
1.469999999999999918e-01,1.555503397006108290e-01,4.779645462224959007e-01,1.420826041890875246e-01
1.479999999999999927e-01,4.941114663441916743e-01,5.752575978182693506e-01,8.574646150207500261e-02
1.489999999999999936e-01,7.867934465095299812e-01,3.398693947825318085e-01,2.077433297357835773e-01
1.499999999999999944e-01,7.512117999871602558e-01,-4.897504644932946377e-02,4.099369012392476974e-01
1.509999999999999953e-01,3.877370969850895688e-01,-2.476141943458675665e-01,5.021705260747075794e-01
1.519999999999999962e-01,-1.672150280988511303e-02,-1.192168179630447578e-01,4.208274743959961040e-01
1.529999999999999971e-01,-1.063647929424860611e-01,2.312529165206893556e-01,2.052551957389664450e-01
1.539999999999999980e-01,1.534071724395535408e-01,4.272872079886999575e-01,5.090575874987428306e-02
1.549999999999999989e-01,5.339172901356775691e-01,2.940494800994541968e-01,5.934252115490393914e-02
1.559999999999999998e-01,6.533337836663832832e-01,-9.892501284961305319e-02,2.480266538611053118e-01
1.570000000000000007e-01,3.938932154982456857e-01,-4.190945150300525168e-01,4.249940664423050851e-01
1.580000000000000016e-01,-6.902009489277517729e-02,-4.133566935795469077e-01,4.292471289045921012e-01
1.590000000000000024e-01,-3.465412987273270851e-01,-1.002163603883582527e-01,2.489651686238276151e-01
1.600000000000000033e-01,-2.316510298626528463e-01,2.137533810946120605e-01,1.203565773992005053e-02
1.610000000000000042e-01,1.664411992695569720e-01,2.178373819183937743e-01,-7.657982255224321522e-02
1.620000000000000051e-01,4.487037426585049893e-01,-1.180037022736934449e-01,3.539574684147001743e-02
1.630000000000000060e-01,3.347924654351827622e-01,-5.285760322888969354e-01,2.562832503052633881e-01
1.640000000000000069e-01,-9.860211034950912279e-02,-6.502994342251815496e-01,3.570181563902373179e-01
1.650000000000000078e-01,-5.309475137133095046e-01,-4.000608214466297441e-01,2.437490427300571527e-01
1.660000000000000087e-01,-5.847678452767587354e-01,-2.801434575677560698e-02,-6.811796316263252736e-03
1.670000000000000095e-01,-2.403053649587509610e-01,1.361121563711357174e-01,-2.127552109981297457e-01
1.680000000000000104e-01,1.643946586303495494e-01,-1.055582259448258203e-01,-1.970299248103655754e-01
1.690000000000000113e-01,2.401231398341579781e-01,-5.393636554775181891e-01,-4.636589433985733840e-04
1.700000000000000122e-01,-9.346404168511232569e-02,-7.907412951693946201e-01,1.989134157890665444e-01
1.710000000000000131e-01,-6.009974220432536818e-01,-6.490207149342951398e-01,2.109408432548947887e-01
1.719999999999999862e-01,-8.437602334703940832e-01,-2.482521409362965781e-01,-4.863639880821214040e-03
1.729999999999999871e-01,-6.323057957496224235e-01,5.277114020713975784e-02,-2.831515092290421975e-01
1.739999999999999880e-01,-1.740772457030740350e-01,-4.312310361846136142e-02,-3.944459022357026390e-01
1.749999999999999889e-01,1.127669837868454789e-01,-4.448568826314279190e-01,-2.583226511153702831e-01
1.759999999999999898e-01,-4.169851891156767937e-02,-8.127414426013305215e-01,-1.805464592511727903e-02
1.769999999999999907e-01,-5.459274605196801078e-01,-8.022729119584285362e-01,1.124806826765454015e-01
1.779999999999999916e-01,-9.570291405570534593e-01,-4.176560324715079542e-01,-1.721512291130163292e-03
1.789999999999999925e-01,-9.218174488157027113e-01,-2.067906119228914846e-02,-2.810516534068510097e-01
1.799999999999999933e-01,-4.803943657030206316e-01,5.367537312587740417e-02,-4.944468485657470547e-01
1.809999999999999942e-01,-4.229094067581262023e-02,-2.732125955804107220e-01,-4.777897910670789172e-01
1.819999999999999951e-01,2.584807646733193118e-02,-6.954928487383140734e-01,-2.448598816735010342e-01
1.829999999999999960e-01,-3.744860217696042159e-01,-8.344310487828923151e-01,-3.997162958773895630e-03
1.839999999999999969e-01,-8.832629601796742058e-01,-5.276148411118477544e-01,1.604020893078719409e-02
1.849999999999999978e-01,-1.054228377755233481e+00,-5.756756059243603452e-02,-2.062686165892229917e-01
1.859999999999999987e-01,-7.142820134770040408e-01,1.967939493041725996e-01,-4.935804469894838342e-01
1.869999999999999996e-01,-1.693974191896757964e-01,-2.035418564416670729e-03,-5.977770695492753417e-01
1.880000000000000004e-01,1.139436901044468958e-01,-4.458516187357702831e-01,-4.320431297574879315e-01
1.890000000000000013e-01,-1.151223482933704384e-01,-7.304443725688957167e-01,-1.440940235025400529e-01
1.900000000000000022e-01,-6.309855742763049724e-01,-5.586908718076211144e-01,2.159835898870874488e-02
1.910000000000000031e-01,-9.836349135118223064e-01,-7.500702393178566851e-02,-9.240588033935610845e-02
1.920000000000000040e-01,-8.257600656414456619e-01,3.155241104032532884e-01,-3.870565617298873384e-01
1.930000000000000049e-01,-2.933238177287940673e-01,2.819665989018110830e-01,-5.879627156233226959e-01
1.940000000000000058e-01,1.927357059713752929e-01,-1.306538300114058193e-01,-5.454663896892084640e-01
1.950000000000000067e-01,1.926354156345497781e-01,-5.150458913248601167e-01,-2.723499636848945027e-01
1.960000000000000075e-01,-2.531473521447091257e-01,-5.131838988752145392e-01,1.604528586671143814e-02
1.970000000000000084e-01,-7.441473966888690894e-01,-8.302073791412376003e-02,4.815270620976062899e-02
1.980000000000000093e-01,-8.026821608939697095e-01,4.156551867564661773e-01,-1.847356392235141032e-01
1.990000000000000102e-01,-3.502850834262928315e-01,5.509894042859831975e-01,-4.674068280384509610e-01
2.000000000000000111e-01,2.371128192859754125e-01,2.369433772929077087e-01,-5.654328421832673923e-01
2.010000000000000120e-01,4.909265391603326867e-01,-2.275758904555791051e-01,-3.491562281341062390e-01
2.020000000000000129e-01,1.969111069300798211e-01,-3.921818490498338861e-01,-1.201199677528572499e-02
2.030000000000000138e-01,-3.620114937131009292e-01,-7.689668651051850823e-02,1.778236104425218456e-01
2.039999999999999869e-01,-6.386509353681977252e-01,4.418278305696027863e-01,6.380829598386834889e-02
2.049999999999999878e-01,-3.848319523083462701e-01,7.502470455413133843e-01,-2.427360726088663989e-01
2.059999999999999887e-01,2.494934593842453585e-01,5.547275829657406510e-01,-4.559070509815619232e-01
2.069999999999999896e-01,6.968135774065120636e-01,7.941531389148993869e-02,-3.816772012989416707e-01
2.079999999999999905e-01,6.208203116960407941e-01,-2.460223706689323442e-01,-5.328732728624010345e-02
2.089999999999999913e-01,9.916580628095088279e-02,-1.030432433502739969e-01,2.706016026755280190e-01
2.099999999999999922e-01,-3.765655698488274417e-01,4.058545118855919065e-01,3.044045856901604896e-01
2.109999999999999931e-01,-3.432256727227359638e-01,8.288386685538177145e-01,5.313445213432789471e-02
2.119999999999999940e-01,1.878194468674502238e-01,8.157777316175867099e-01,-2.560865658686020119e-01
2.129999999999999949e-01,7.931695146901163174e-01,3.633475813015362155e-01,-3.330797929541934876e-01
2.139999999999999958e-01,9.532051806829464624e-01,-7.754887406823193774e-02,-8.789183157888605380e-02
2.149999999999999967e-01,5.504826976417572792e-01,-1.317115136532352737e-01,2.730983330500914019e-01
2.159999999999999976e-01,-3.668331686739368519e-02,2.878615742589530901e-01,4.650267801994707462e-01
2.169999999999999984e-01,-2.713873958569592015e-01,7.882391463392908193e-01,3.434102903695142039e-01
2.179999999999999993e-01,9.334462577118342319e-02,9.502581919810898503e-01,1.893943433128332174e-02
2.190000000000000002e-01,7.339406468289357832e-01,5.868085946580845480e-01,-2.143359422134234193e-01
2.200000000000000011e-01,1.111354595087843844e+00,6.472877093929732539e-02,-1.190911193847649513e-01
2.210000000000000020e-01,9.084071076359856445e-01,-1.748729855260916233e-01,2.142749882089366176e-01
2.220000000000000029e-01,3.033972834933686968e-01,9.082924467100993160e-02,5.334619000640096198e-01
2.230000000000000038e-01,-1.482346708705141458e-01,6.234344829763414086e-01,5.685444945698270303e-01
2.240000000000000047e-01,-6.187811308488733869e-02,9.240599325122335062e-01,2.818507482789016638e-01
2.250000000000000056e-01,5.321222074617797393e-01,7.210376445455711769e-01,-3.459212317031579165e-02
2.260000000000000064e-01,1.083206908940275159e+00,1.755651512197240749e-01,-1.272148202226215108e-01
2.270000000000000073e-01,1.122806504822872586e+00,-2.299983558141095175e-01,1.276998573298576967e-01
2.280000000000000082e-01,6.015923549693769079e-01,-1.438794613913940423e-01,5.019975222375196999e-01
2.290000000000000091e-01,-4.673259807406548311e-02,3.360395921511574180e-01,6.858820169506326669e-01
2.300000000000000100e-01,-2.086516059541103085e-01,7.711246753719350755e-01,5.276639614477567353e-01
2.310000000000000109e-01,2.189958842759225088e-01,7.276161024782306086e-01,1.576554011958583579e-01
2.320000000000000118e-01,8.529236637822498190e-01,2.399910176711276821e-01,-9.744488810262801060e-02
2.330000000000000127e-01,1.131467330286966000e+00,-2.644424559865122260e-01,-4.181677985885867699e-03
2.340000000000000135e-01,7.754188020825627525e-01,-3.875099928328682442e-01,3.474530935661141462e-01
2.349999999999999867e-01,8.715661296105260691e-02,-5.448622028205613380e-03,6.600548175721071553e-01
2.359999999999999876e-01,-3.364851988389388482e-01,5.056933355993273871e-01,6.530799638284309205e-01
2.369999999999999885e-01,-1.639363114406776900e-01,6.435786187948095982e-01,3.331541866600057911e-01
2.379999999999999893e-01,4.502924533148159325e-01,2.781423476245710180e-01,-4.111396735576893641e-02
2.389999999999999902e-01,9.353234485013522947e-01,-3.003073273379458508e-01,-1.288465124715106325e-01
2.399999999999999911e-01,8.247067610836152918e-01,-5.994236312954446255e-01,1.222440747053941679e-01
2.409999999999999920e-01,1.945717172658799621e-01,-3.702552002106436757e-01,4.923328807222314141e-01
2.419999999999999929e-01,-4.333105802754312896e-01,1.610578355183578947e-01,6.545764598705897663e-01
2.429999999999999938e-01,-5.229804427814281897e-01,4.795551848260853900e-01,4.443730600653953422e-01
2.439999999999999947e-01,-2.747056305411714819e-02,2.780175197652285934e-01,5.093492121869413330e-02
2.449999999999999956e-01,5.827801888663034502e-01,-2.916193556054185176e-01,-2.193205586694609299e-01
2.459999999999999964e-01,7.333502538695174655e-01,-7.389751816679763774e-01,-1.345562334061085608e-01
2.469999999999999973e-01,2.689284540081604558e-01,-6.894730990702163664e-01,2.201474645050105761e-01
2.479999999999999982e-01,-4.494462672999472441e-01,-2.012676332755394260e-01,5.191333574894081426e-01
2.489999999999999991e-01,-8.071029297297749316e-01,2.529169917215120522e-01,4.817568676218969004e-01
2.500000000000000000e-01,-5.159182708481434565e-01,2.535173080389829248e-01,1.260323212612873278e-01
2.510000000000000009e-01,1.248735921123206305e-01,-2.333466055545893314e-01,-2.624637888322859380e-01
2.520000000000000018e-01,5.329415837942714784e-01,-7.794896773694934833e-01,-3.538077965938830061e-01
2.530000000000000027e-01,2.988559336296243707e-01,-9.009008180532356302e-01,-9.273166804128070428e-02
2.540000000000000036e-01,-3.776740604630690612e-01,-5.224561193730088426e-01,2.798047110406426397e-01
2.550000000000000044e-01,-9.468900051534523410e-01,1.859300404219780753e-02,4.184190072528375937e-01
2.560000000000000053e-01,-9.257227632062218214e-01,2.144315770044067648e-01,1.811626963356471054e-01
2.570000000000000062e-01,-3.445541151164059346e-01,-1.150865062716626280e-01,-2.345817412855857043e-01
2.580000000000000071e-01,2.408695681304884595e-01,-6.792697381529122502e-01,-5.093747559830473781e-01
2.590000000000000080e-01,3.022876822770130811e-01,-9.884765007419925587e-01,-3.933168076493187004e-01
2.600000000000000089e-01,-2.449854663721476589e-01,-7.510982039336354665e-01,-2.739716406975603244e-02
2.610000000000000098e-01,-9.414281888963526024e-01,-1.804506526233632113e-01,2.661994781645230512e-01
2.620000000000000107e-01,-1.176417469139810157e+00,1.843636952423788611e-01,2.069648810039422249e-01
2.630000000000000115e-01,-7.524026817572944115e-01,3.738871550997423937e-02,-1.683138503688898779e-01
2.640000000000000124e-01,-8.530626099520126349e-02,-4.903701460273174884e-01,-5.422844644744790887e-01
2.650000000000000133e-01,2.526708880031393045e-01,-9.242518024660006937e-01,-6.142234332772892325e-01
2.660000000000000142e-01,-5.799211065659592296e-02,-8.530076402806844316e-01,-3.393524845187064209e-01
2.670000000000000151e-01,-7.445555311580837055e-01,-3.455875745515201714e-01,5.034300494895408568e-02
2.680000000000000160e-01,-1.210880525849930445e+00,1.681470364392230465e-01,1.856696809960889094e-01
2.690000000000000169e-01,-1.037596670661761422e+00,2.269898537273602190e-01,-4.577354745448299067e-02
2.700000000000000178e-01,-3.760737557730415292e-01,-2.042600507335323723e-01,-4.761284589944045909e-01
2.710000000000000187e-01,1.808148308951532390e-01,-7.199853928726772656e-01,-7.229045507891214140e-01
2.720000000000000195e-01,1.569028662853653167e-01,-8.299392543184080928e-01,-5.777850381257836343e-01
2.730000000000000204e-01,-4.221259606401996933e-01,-4.219493678320914709e-01,-1.958986562459036074e-01
2.740000000000000213e-01,-1.043027463302861557e+00,1.555946434619168428e-01,1.190205275493513987e-01
2.750000000000000222e-01,-1.130554081193757776e+00,4.018414952313377198e-01,6.371160172489971629e-02
2.760000000000000231e-01,-6.054758084080053004e-01,1.313118355759232692e-01,-2.953414104916315397e-01
2.770000000000000240e-01,1.064340166394583537e-01,-4.104051098735820302e-01,-6.620074952128470747e-01
2.780000000000000249e-01,3.671149997312237456e-01,-6.924119124058611963e-01,-7.060298629801231574e-01
2.790000000000000258e-01,-1.968693656961396227e-02,-4.425804290054471402e-01,-3.809430262899495823e-01
2.800000000000000266e-01,-6.869463061437238727e-01,1.332601638155087864e-01,1.561834573004335612e-02
2.810000000000000275e-01,-1.027988594609177353e+00,5.504396857191975467e-01,1.629343329047178712e-01
2.819999999999999729e-01,-7.097984676995070519e-01,4.595260817881150484e-01,-7.926367037890641454e-02
2.829999999999999738e-01,7.910512752082165394e-03,-4.101562492408519778e-02,-4.763899198319631045e-01
2.839999999999999747e-01,5.283883480921042208e-01,-4.597995019995305688e-01,-6.920467782289947412e-01
2.849999999999999756e-01,4.113115365102640308e-01,-4.064304691697495642e-01,-5.122854429085432759e-01
2.859999999999999765e-01,-2.064036298065939079e-01,1.156298936168402014e-01,-1.064446908161846284e-01
2.869999999999999774e-01,-7.507204908125277854e-01,6.215655274666996855e-01,2.283005641288323173e-01
2.879999999999999782e-01,-6.992664818497037471e-01,7.255785280711017915e-01,1.703048636227276202e-01
2.889999999999999791e-01,-6.433246109032829396e-02,3.290083576345972372e-01,-1.914403780251846821e-01
2.899999999999999800e-01,6.112084103576268523e-01,-1.769723056462527422e-01,-5.402350480454599646e-01
2.909999999999999809e-01,7.601675850448139649e-01,-3.073387484939391068e-01,-5.432935491352610669e-01
2.919999999999999818e-01,3.086222218261678862e-01,6.262279903111984958e-02,-1.975413832204002684e-01
2.929999999999999827e-01,-3.352903272300534199e-01,6.301133506966041242e-01,2.309528596707353942e-01
2.939999999999999836e-01,-5.613665640424910785e-01,8.917599697578695306e-01,3.605698987935744837e-01
2.949999999999999845e-01,-1.343830516996417368e-01,6.398860325022682760e-01,1.221404840427061655e-01
2.959999999999999853e-01,5.885537627119916682e-01,1.062922942816884042e-01,-2.618027715581756620e-01
2.969999999999999862e-01,9.984423243707105655e-01,-1.982625763576996991e-01,-4.531511368701654496e-01
2.979999999999999871e-01,7.645524355340833633e-01,-1.019059939889943416e-02,-2.556419458292390479e-01
2.989999999999999880e-01,1.036282660378948089e-01,5.228518997781211874e-01,1.810820615178452830e-01
2.999999999999999889e-01,-3.554875836414546630e-01,9.317367634411838351e-01,4.865532186915424995e-01
3.009999999999999898e-01,-1.859631171133056260e-01,8.418702059813045757e-01,4.228608633879802903e-01
3.019999999999999907e-01,4.671474049046730470e-01,3.418978548235325765e-01,5.799894836762451572e-02
3.029999999999999916e-01,1.055271952123777446e+00,-9.866523130169489730e-02,-2.638106510492655432e-01
3.039999999999999925e-01,1.077599796291282219e+00,-1.049142234787878436e-01,-2.561573161232157392e-01
3.049999999999999933e-01,5.315943430896622468e-01,3.392183600740471539e-01,9.383603843801620326e-02
3.059999999999999942e-01,-9.401638573162322821e-02,8.188520022126911657e-01,5.015905021471595004e-01
3.069999999999999951e-01,-2.135133480106012893e-01,9.107666539330862010e-01,6.252452316588633652e-01
3.079999999999999960e-01,2.722084137758162270e-01,5.043329372819950196e-01,3.655687385187149085e-01
3.089999999999999969e-01,9.346944685703791889e-01,-2.100847302719334453e-02,-2.226853310821698753e-02
3.099999999999999978e-01,1.216082621698408417e+00,-2.206442368714319757e-01,-2.027528737889230381e-01
3.109999999999999987e-01,8.482252558024386824e-01,7.899264848816422990e-02,-1.448841212538105362e-03
3.119999999999999996e-01,1.627594206811313615e-01,5.902595273894049033e-01,4.182601142672643380e-01
3.130000000000000004e-01,-2.225793379548268724e-01,8.234443899014057822e-01,6.979213063411756623e-01
3.140000000000000013e-01,7.692145355957038209e-03,5.712109016057198563e-01,5.961683724148280072e-01
3.150000000000000022e-01,6.373104976262967680e-01,3.001660133471378486e-02,2.115361748303727640e-01
3.160000000000000031e-01,1.124900625946352317e+00,-3.337479921697857344e-01,-1.073122546313580172e-01
3.170000000000000040e-01,1.000884547555612514e+00,-1.904827787121164684e-01,-8.117996649681122334e-02
3.180000000000000049e-01,3.828945828172493626e-01,2.652200868928081823e-01,2.475084491400298958e-01
3.190000000000000058e-01,-1.991227738127213098e-01,6.218889716173702231e-01,6.299274095511839811e-01
3.200000000000000067e-01,-2.510630354157318833e-01,5.409069785503066718e-01,7.159766124879269888e-01
3.210000000000000075e-01,2.565309362554903938e-01,6.220026874390713334e-02,4.288826562988249935e-01
3.220000000000000084e-01,8.438714024750049170e-01,-4.123031050867514424e-01,2.814882362619564732e-02
3.230000000000000093e-01,9.717365327836513522e-01,-4.619132225645606327e-01,-1.508625780442552078e-01
3.240000000000000102e-01,5.084813440408322283e-01,-9.384225579721852672e-02,4.201879878806421414e-02
3.250000000000000111e-01,-1.600874902959112389e-01,3.431205049859596956e-01,4.401189483375818612e-01
3.260000000000000120e-01,-4.862782635082681382e-01,4.343348853910662943e-01,6.778215934830241762e-01
3.270000000000000129e-01,-1.934933034890216064e-01,6.145768315489656686e-02,5.412589104146858787e-01
3.280000000000000138e-01,4.191584860967956239e-01,-4.563881959037613401e-01,1.520931645309781810e-01
3.290000000000000147e-01,7.734061881006377703e-01,-6.854598560067273194e-01,-1.678249205328343485e-01
3.300000000000000155e-01,5.378294469920388288e-01,-4.353653237539143461e-01,-1.598502936797603080e-01
3.310000000000000164e-01,-1.080003370711599964e-01,3.092996093743444891e-02,1.646811360229520071e-01
3.320000000000000173e-01,-6.393776852578024750e-01,2.715060459183454289e-01,5.162611446437902485e-01
3.330000000000000182e-01,-6.040771798699917650e-01,5.876104017651247180e-02,5.532906606378621417e-01
3.340000000000000191e-01,-6.665655368352828292e-02,-4.422810890890571667e-01,2.533485757879967437e-01
3.350000000000000200e-01,4.460548819135788379e-01,-7.733459996303015949e-01,-1.661878815436423074e-01
3.360000000000000209e-01,4.591465034859584238e-01,-6.898380182948091743e-01,-3.277380051039436304e-01
3.370000000000000218e-01,-6.604798798851298225e-02,-2.726034378632252730e-01,-1.240543823512985505e-01
3.380000000000000226e-01,-6.927145074923316548e-01,1.005214577400350279e-01,2.246265823624391811e-01
3.390000000000000235e-01,-8.828416795642808346e-01,6.259543362453326432e-02,4.403280026369536526e-01
3.400000000000000244e-01,-5.331756255205211126e-01,-3.626864671575366628e-01,2.877662615745071317e-01
3.410000000000000253e-01,4.462155296392823767e-02,-7.800146447553634177e-01,-1.034563244548923205e-01
3.420000000000000262e-01,3.064603642733197963e-01,-8.407419667377606931e-01,-4.203452625409450638e-01
3.430000000000000271e-01,2.420237985118401346e-03,-4.948598430232126200e-01,-3.979439344024157665e-01
3.439999999999999725e-01,-6.342051415733495068e-01,-5.323262134756759356e-02,-8.061629192365574181e-02
3.449999999999999734e-01,-1.038991675870581943e+00,7.571787409200052277e-02,2.236643434216874782e-01
3.459999999999999742e-01,-8.894304753384337792e-01,-2.080612487545428768e-01,2.585156974957222853e-01
3.469999999999999751e-01,-3.358256870564271246e-01,-6.517487683129501441e-01,-4.605482177921987885e-02
3.479999999999999760e-01,1.176189159575500714e-01,-8.486309878427688025e-01,-4.365257144443626669e-01
3.489999999999999769e-01,5.981727017655260464e-02,-6.273486234143502704e-01,-5.773327400788279551e-01
3.499999999999999778e-01,-4.740621505781775213e-01,-1.724919654546692438e-01,-3.749844977053128914e-01
3.509999999999999787e-01,-9.973579105681915635e-01,9.432994057910938646e-02,-2.172938473448084162e-02
3.519999999999999796e-01,-1.065499957805226661e+00,-2.157679892759183787e-02,1.685466509876996366e-01
3.529999999999999805e-01,-6.450164248155630942e-01,-4.368017071576431043e-01,1.002008145226152870e-02
3.539999999999999813e-01,-7.238103570971503309e-02,-7.250859981364623508e-01,-3.365312161623325582e-01
3.549999999999999822e-01,1.093162760257390953e-01,-6.444086045610101232e-01,-6.284486170990921661e-01
3.559999999999999831e-01,-2.335174001113379250e-01,-2.243389036847195095e-01,-5.871407070852419086e-01
3.569999999999999840e-01,-7.679127695951313282e-01,1.556067915239360833e-01,-2.683832808819441862e-01
3.579999999999999849e-01,-1.064316831419362064e+00,1.822795165284827046e-01,3.668667169719856680e-02
3.589999999999999858e-01,-8.052326842799247819e-01,-1.348561129978976258e-01,5.650835104236330564e-02
3.599999999999999867e-01,-2.387180201305205141e-01,-4.975371959356447715e-01,-2.096559030661419298e-01
3.609999999999999876e-01,1.676931085167130409e-01,-5.413739249438280776e-01,-5.586713000194438727e-01
3.619999999999999885e-01,5.459279255392641278e-02,-2.185889461020016911e-01,-6.710653138995927858e-01
3.629999999999999893e-01,-4.435169850443839712e-01,1.932157874737357450e-01,-4.604907521871133835e-01
3.639999999999999902e-01,-8.632007842726050484e-01,3.661183328497937817e-01,-1.083190919769685401e-01
3.649999999999999911e-01,-8.104883846883108589e-01,1.750670695313737701e-01,9.220982878882695577e-02
3.659999999999999920e-01,-3.279999771469169767e-01,-1.988269065792256096e-01,-4.436895885885198260e-02
3.669999999999999929e-01,2.023209883848655910e-01,-3.637782537638613589e-01,-3.869668555796596521e-01
3.679999999999999938e-01,3.160490490633988681e-01,-1.765189960226769550e-01,-6.202976870210479277e-01
3.689999999999999947e-01,-2.454633326310521474e-02,2.329766429608340073e-01,-5.483728749505712985e-01
3.699999999999999956e-01,-5.040240304168769336e-01,5.229642051673079051e-01,-2.197752489632464057e-01
3.709999999999999964e-01,-6.600069659070132433e-01,4.577496885080746813e-01,8.902464413401094123e-02
3.719999999999999973e-01,-3.379312590502322466e-01,1.235448030882490833e-01,1.216397612623679320e-01
3.729999999999999982e-01,2.083324820675207800e-01,-1.515145363563280001e-01,-1.303251150743989228e-01
3.739999999999999991e-01,5.323395118597714637e-01,-9.208821823195136036e-02,-4.461356449548690151e-01
3.750000000000000000e-01,3.809403555875219283e-01,2.512698914632112701e-01,-5.202625433294134627e-01
3.760000000000000009e-01,-8.607740742440594950e-02,5.884295698670826136e-01,-2.834154686436743953e-01
3.770000000000000018e-01,-3.980082522301053860e-01,6.577516141700969765e-01,5.357172545318590606e-02
3.780000000000000027e-01,-2.908055386615063242e-01,3.930717410973120773e-01,2.457263645816038511e-01
3.790000000000000036e-01,2.032654024928407799e-01,7.729916997221501773e-02,1.245220964846513317e-01
3.800000000000000044e-01,6.577167431227857186e-01,-1.030701289183468504e-02,-1.699244690527670354e-01
3.810000000000000053e-01,6.944873379419080894e-01,2.260344954504514836e-01,-3.748055728205524351e-01
3.820000000000000062e-01,3.361698530080649006e-01,5.801805898075533818e-01,-2.825117681389897606e-01
3.830000000000000071e-01,-8.579044062964769068e-02,7.339010259486377086e-01,2.726294007163574534e-02
3.840000000000000080e-01,-1.468862393272755695e-01,5.827693283851412831e-01,3.080239568804499228e-01
3.850000000000000089e-01,1.874595144911846978e-01,2.539103273727014720e-01,3.417908743814841444e-01
3.860000000000000098e-01,6.761649277856838225e-01,5.333447916436979269e-02,1.147690385880195812e-01
3.870000000000000107e-01,8.815386671904167359e-01,1.637315193813074776e-01,-1.619933730733844612e-01
3.880000000000000115e-01,6.775655535125675311e-01,4.720825096142373112e-01,-2.192083468674948243e-01
3.890000000000000124e-01,2.375399830475943830e-01,7.040535146183923843e-01,3.612104388132278583e-03
3.900000000000000133e-01,-1.467650397660245389e-02,6.585721885865383207e-01,3.272165867716393950e-01
3.910000000000000142e-01,1.444474851792450776e-01,3.715651062221472789e-01,4.996250466730466910e-01
3.920000000000000151e-01,5.709539191135090119e-01,8.966166451774613966e-02,3.734897951104039771e-01
3.930000000000000160e-01,9.101957882632834007e-01,5.983387946343675379e-02,8.943008666338658763e-02
3.940000000000000169e-01,8.735206405451312328e-01,2.798906566366206050e-01,-8.598841108329449701e-02
3.950000000000000178e-01,4.944756239105286832e-01,5.466880175359634109e-01,-6.893120063818460909e-03
3.960000000000000187e-01,1.168814022676711167e-01,6.010198240095514510e-01,2.713595873758072319e-01
3.970000000000000195e-01,7.340799062893034466e-02,3.870383570982243171e-01,5.146335367265192362e-01
3.980000000000000204e-01,3.846402891735036800e-01,8.106580317141443004e-02,5.335818596425128124e-01
3.990000000000000213e-01,7.846613173570740063e-01,-5.623073864506756420e-02,3.211480870413784272e-01
4.000000000000000222e-01,8.979986876848681243e-01,6.458869148650728254e-02,7.159628143226146046e-02
4.010000000000000231e-01,6.392730241255710766e-01,3.175189848143015192e-01,1.827679531739986700e-03
4.020000000000000240e-01,2.235762817027140970e-01,4.431835470138392186e-01,1.809771687130257434e-01
4.030000000000000249e-01,-1.503611148298696857e-03,3.248173256179929802e-01,4.512760906891453150e-01
4.040000000000000258e-01,1.452635186378172516e-01,4.450173142366337792e-02,5.845258577855163562e-01
4.050000000000000266e-01,4.991235087169777485e-01,-1.915068245930186264e-01,4.651311045573857661e-01
4.060000000000000275e-01,7.476549233301457154e-01,-1.738804943678514403e-01,2.008774348736642179e-01
4.069999999999999729e-01,6.340896365989648897e-01,2.882247109977165156e-02,1.798250977936571154e-02
4.079999999999999738e-01,2.534419866466870452e-01,2.146449425657169230e-01,7.470434389288112265e-02
4.089999999999999747e-01,-7.995182938990473553e-02,1.960390387405666068e-01,3.082567105333609003e-01
4.099999999999999756e-01,-1.147497814302557567e-01,-3.818242336554134725e-02,5.080873282884953435e-01
4.109999999999999765e-01,1.435770147112142570e-01,-2.881242753265786383e-01,5.063187377928262123e-01
4.119999999999999774e-01,4.517104238322288134e-01,-3.908270640438080146e-01,2.898335843883539931e-01
4.129999999999999782e-01,4.913853604416214549e-01,-2.448094361501451099e-01,4.698963949255741818e-02
4.139999999999999791e-01,2.211720589630567224e-01,-4.269076707467286957e-02,-2.515534000201511897e-02
4.149999999999999800e-01,-1.580735215925172243e-01,3.539998522315048607e-02,1.200107975240123359e-01
4.159999999999999809e-01,-3.348363394204644794e-01,-9.488930115793700604e-02,3.415278231251217544e-01
4.169999999999999818e-01,-2.003986169186089406e-01,-3.431352098795243388e-01,4.308843414039390529e-01
4.179999999999999827e-01,9.810936972811755419e-02,-5.132033519538793387e-01,3.067984372955597783e-01
4.189999999999999836e-01,2.656620444015390103e-01,-4.667408248208121391e-01,6.156356553432703466e-02
4.199999999999999845e-01,1.393911146901051501e-01,-2.781837290794314521e-01,-1.136317244681995520e-01
4.209999999999999853e-01,-2.216073315892970186e-01,-1.242060116703162936e-01,-8.177093600143194030e-02
4.219999999999999862e-01,-4.924839127955153995e-01,-1.603225623491513485e-01,1.072483024114498640e-01
4.229999999999999871e-01,-5.057950222660114736e-01,-3.705108532120975351e-01,2.707327815743820199e-01
4.239999999999999880e-01,-2.787986269260225858e-01,-5.493899153537405988e-01,2.642034568347693679e-01
4.249999999999999889e-01,-2.274787790673745563e-02,-5.877065836155642709e-01,6.946708670968500254e-02
4.259999999999999898e-01,-3.789685449733266789e-03,-4.430766137675749561e-01,-1.746722065525630752e-01
4.269999999999999907e-01,-2.582245254664785605e-01,-2.524534094195817202e-01,-2.456568176208976106e-01
4.279999999999999916e-01,-5.682481016304929966e-01,-1.880629597920093210e-01,-1.342561008415348589e-01
4.289999999999999925e-01,-7.034808858506496065e-01,-3.057278036221905970e-01,5.596822134008709593e-02
4.299999999999999933e-01,-5.678685396416567333e-01,-4.891031043678610857e-01,1.361684273268985446e-01
4.309999999999999942e-01,-2.964016827842458901e-01,-5.831039842416513297e-01,3.038714099993582510e-02
4.319999999999999951e-01,-1.523145354848019495e-01,-5.141133923179163068e-01,-1.934458152117185248e-01
4.329999999999999960e-01,-2.589158830504859066e-01,-3.139355091929503239e-01,-3.483684874924556918e-01
4.339999999999999969e-01,-5.358050545930544972e-01,-1.781581451537438965e-01,-3.405554264168710321e-01
4.349999999999999978e-01,-7.471833935041498620e-01,-1.997456648368661491e-01,-1.701958402929340530e-01
4.359999999999999987e-01,-7.276704275594882976e-01,-3.470907952418584297e-01,-2.918152302692891137e-02
4.369999999999999996e-01,-4.982940370705532529e-01,-4.716453107146069135e-01,-2.874708800956984195e-02
4.380000000000000004e-01,-2.763102392828730158e-01,-4.663833330414281497e-01,-1.828660244416721870e-01
4.390000000000000013e-01,-2.289442446495431605e-01,-3.216221597999882609e-01,-3.791768290289736498e-01
4.400000000000000022e-01,-4.192013948530221024e-01,-1.299959002986695866e-01,-4.487367177712842103e-01
4.410000000000000031e-01,-6.491496045202201914e-01,-6.487880509772850357e-02,-3.575205680980398926e-01
4.420000000000000040e-01,-7.389900156574482626e-01,-1.336489789016650775e-01,-1.779217522037774279e-01
4.430000000000000049e-01,-5.966401666934242343e-01,-2.724452288611509676e-01,-9.470227680151674376e-02
4.440000000000000058e-01,-3.365384572728863932e-01,-3.359906889058371093e-01,-1.615692363952534183e-01
4.450000000000000067e-01,-1.840961320607880369e-01,-2.430389178096523939e-01,-3.407903940460782488e-01
4.460000000000000075e-01,-2.374219395032072522e-01,-5.678157711998547269e-02,-4.599178745446249605e-01
4.470000000000000084e-01,-4.243326312759060914e-01,8.372034753880390479e-02,-4.441744897100236011e-01
4.480000000000000093e-01,-5.781515394960342613e-01,9.213371529521888204e-02,-3.123559755792585380e-01
4.490000000000000102e-01,-5.491621985873180734e-01,-2.761348958228218575e-02,-1.655580006289699146e-01
4.500000000000000111e-01,-3.288428232877845803e-01,-1.255342507191533896e-01,-1.217388577054435150e-01
4.510000000000000120e-01,-9.250503583095442961e-02,-1.143706083638118126e-01,-2.303920322771763618e-01
4.520000000000000129e-01,-2.895924952925719303e-02,4.248431964442718478e-02,-3.805149278993982809e-01
4.530000000000000138e-01,-1.293027836769848893e-01,2.169259248517611816e-01,-4.281685036266320576e-01
4.540000000000000147e-01,-3.093093325990578513e-01,2.866459272221994481e-01,-3.541025817570142564e-01
4.550000000000000155e-01,-3.663655189918793020e-01,2.278191681667853796e-01,-1.886454417192243160e-01
4.560000000000000164e-01,-2.465957837758780413e-01,1.001105582833267393e-01,-8.629057618535679319e-02
4.570000000000000173e-01,3.085734126997752291e-03,3.493438499703855477e-02,-1.139892318500647928e-01
4.580000000000000182e-01,1.737438517342315969e-01,1.237486272731689596e-01,-2.183086910676791392e-01
4.590000000000000191e-01,1.699885550527165945e-01,2.957400619541320497e-01,-3.300840140094734032e-01
4.600000000000000200e-01,2.124553918279269496e-02,4.376174944237005704e-01,-3.170142449337882140e-01
4.610000000000000209e-01,-1.157517453537817292e-01,4.436816802799283255e-01,-1.862499588976529175e-01
4.620000000000000218e-01,-9.557969857363952937e-02,3.071482209464793112e-01,-3.274783854359712698e-02
4.630000000000000226e-01,1.044307836194771633e-01,1.823533014944402619e-01,3.333005348821596603e-02
4.640000000000000235e-01,3.228002315309407289e-01,1.914145418108504915e-01,-3.299536682773632212e-02
4.650000000000000244e-01,4.159173782923360485e-01,3.110210365718690251e-01,-1.444553592046920187e-01
4.660000000000000253e-01,3.511246067220316625e-01,4.845557529415235321e-01,-1.964363004969207627e-01
4.670000000000000262e-01,1.749252602583885041e-01,5.494320389627996848e-01,-1.362750524378802119e-01
4.680000000000000271e-01,9.439099015967508666e-02,4.828391506429179914e-01,-3.133161034526498172e-03
4.689999999999999725e-01,1.764744026483807959e-01,3.160210310316473592e-01,1.212842018939347399e-01
4.699999999999999734e-01,3.975130761790822143e-01,2.115784634624189864e-01,1.398446723532380254e-01
4.709999999999999742e-01,5.713350873702582877e-01,2.721419244995066378e-01,5.140015127107281506e-02
4.719999999999999751e-01,5.798231887642053550e-01,4.400354777059149458e-01,-2.569313210706762607e-02
4.729999999999999760e-01,4.485278099175351585e-01,5.642982632547918209e-01,-3.003095187203912858e-02
4.739999999999999769e-01,2.790447488904914120e-01,5.429712369502773806e-01,5.393420841403952920e-02
4.749999999999999778e-01,2.416486738684728852e-01,3.719876631033041114e-01,1.966728537577018265e-01
4.759999999999999787e-01,3.935228558095743567e-01,2.024466103731399347e-01,2.757703583374575551e-01
4.769999999999999796e-01,6.104628293384436466e-01,1.677343523094451117e-01,2.608149725598838398e-01
4.779999999999999805e-01,7.079184064011017075e-01,2.887641219508456647e-01,1.519028785007224824e-01
4.789999999999999813e-01,6.218373869579952862e-01,4.595632179481141111e-01,8.279340184819548865e-02
4.799999999999999822e-01,4.328381400970634507e-01,5.162421620078450069e-01,1.085266651933281673e-01
4.809999999999999831e-01,2.776692006445403149e-01,3.758267799193129033e-01,2.104582743334195705e-01
4.819999999999999840e-01,3.133040615979627574e-01,1.606231687902254790e-01,3.490974680254387286e-01
4.829999999999999849e-01,4.874177987496619013e-01,1.480478357561597347e-02,3.806605274555082130e-01
4.839999999999999858e-01,6.679937286980882627e-01,7.996303561931437931e-02,3.152589720306315790e-01
4.849999999999999867e-01,6.794371369687776108e-01,2.556407360634192494e-01,2.168359555130226768e-01
4.859999999999999876e-01,4.975407361703380049e-01,3.687390329041633219e-01,1.510042296994537903e-01
4.869999999999999885e-01,2.870462540147146191e-01,3.131111648829685290e-01,1.961041679532020410e-01
4.879999999999999893e-01,1.831323382247667386e-01,8.924419667054023231e-02,3.249088782504060413e-01
4.889999999999999902e-01,2.783191350964147048e-01,-1.341495033734386166e-01,4.083342333027595861e-01
4.899999999999999911e-01,4.699079315600208084e-01,-1.664084881418315676e-01,4.131366266754618044e-01
4.909999999999999920e-01,5.856972748414992491e-01,-1.742119457951360473e-02,3.026043859020273175e-01
4.919999999999999929e-01,4.963559193149830184e-01,1.773014303902649136e-01,1.827348508551599193e-01
4.929999999999999938e-01,2.490296319793975643e-01,1.968442066088604558e-01,1.628378653889840100e-01
4.939999999999999947e-01,2.701798369761083951e-02,1.291325371809772318e-02,2.336032079793516070e-01
4.949999999999999956e-01,3.798761074922939705e-03,-2.533093241096703863e-01,3.479545092085025715e-01
4.959999999999999964e-01,1.861862102647915684e-01,-3.915375326764730657e-01,4.121194505644653616e-01
4.969999999999999973e-01,3.678228356156805212e-01,-2.949707672135312708e-01,3.458492226701679884e-01
4.979999999999999982e-01,3.807742767941457718e-01,-7.060769940568888126e-02,2.055064284708631728e-01
4.989999999999999991e-01,1.683485243694530786e-01,6.253976760371587895e-02,1.101016703464084145e-01
5.000000000000000000e-01,-1.129649068533842421e-01,-5.481954103964661873e-02,1.127424548854278064e-01
5.010000000000000009e-01,-2.599341572512169907e-01,-3.184129050310930964e-01,2.073093226068743467e-01
5.020000000000000018e-01,-1.563195670579198004e-01,-5.351877448394917192e-01,2.912004091801324579e-01
5.030000000000000027e-01,5.591682084075355608e-02,-5.179280917655945116e-01,3.154225494491157966e-01
5.040000000000000036e-01,1.915759232819351232e-01,-3.022759860585266245e-01,1.991076476172829457e-01
5.050000000000000044e-01,8.046866199821478549e-02,-8.225656198696254529e-02,5.278265938650403277e-02
5.060000000000000053e-01,-2.070530500552629771e-01,-7.806287688048688111e-02,-2.264859925676723784e-02
5.070000000000000062e-01,-4.708465686967741592e-01,-3.171671635481476126e-01,1.625894148086558591e-02
5.080000000000000071e-01,-4.979641562826683243e-01,-5.933653676912733488e-01,1.168653064250462642e-01
5.090000000000000080e-01,-2.773762509502496476e-01,-6.688482951477721095e-01,2.053444591281430032e-01
5.100000000000000089e-01,-4.543797708585245454e-02,-4.980115196812631151e-01,1.630093935426882301e-01
5.110000000000000098e-01,-1.293913424734615888e-02,-2.188624252699673256e-01,8.209697598163378379e-03
5.120000000000000107e-01,-2.503501833373107388e-01,-7.735229094814270734e-02,-1.315685350836622303e-01
5.130000000000000115e-01,-5.698990857110723951e-01,-2.378858918527119171e-01,-1.682070476029945139e-01
5.140000000000000124e-01,-7.229379331184384583e-01,-5.361814135326140596e-01,-8.829217126919368386e-02
5.150000000000000133e-01,-5.808542444183484310e-01,-6.990553436711742785e-01,3.495975772372954954e-02
5.160000000000000142e-01,-2.943410799401676714e-01,-5.996896529571770218e-01,6.824946643236066979e-02
5.170000000000000151e-01,-1.135782101027219271e-01,-2.823624804515752484e-01,-2.373152473491764447e-02
5.180000000000000160e-01,-2.204399399943255955e-01,-4.750405175427709070e-02,-2.005965980855550779e-01
5.190000000000000169e-01,-5.453037308486631263e-01,-8.660955947959644852e-02,-3.214895233022682652e-01
5.200000000000000178e-01,-8.101525124702541047e-01,-3.641985834215040740e-01,-2.824495821421080244e-01
5.210000000000000187e-01,-7.858708332867699875e-01,-6.276329170262453516e-01,-1.551140541954352803e-01
5.220000000000000195e-01,-4.946088301867810344e-01,-6.192430140643658820e-01,-4.063392650382668947e-02
5.230000000000000204e-01,-1.964075170358536293e-01,-3.218549246144582487e-01,-6.364367366827190786e-02
5.240000000000000213e-01,-1.442457956661440943e-01,1.608817569226383970e-02,-2.150981001582037422e-01
5.250000000000000222e-01,-3.903956897839470086e-01,1.097851941960455713e-01,-3.724308337234412125e-01
5.260000000000000231e-01,-7.437896009868372182e-01,-1.164850108218258434e-01,-4.418652671588735870e-01
5.270000000000000240e-01,-8.540188782091990838e-01,-4.104946129643322617e-01,-3.402970204739096949e-01
5.280000000000000249e-01,-6.339488402614896767e-01,-5.246761910357777836e-01,-1.621220566159172205e-01
5.290000000000000258e-01,-2.359876834182940142e-01,-3.114055869443149716e-01,-8.396315163280870797e-02
5.300000000000000266e-01,-2.703444664979445106e-02,7.343041057576656094e-02,-1.646080503196780953e-01
5.310000000000000275e-01,-1.507274764396437094e-01,3.085707839190436896e-01,-3.664711913853913594e-01
5.320000000000000284e-01,-4.919640845681813590e-01,1.965756257867552481e-01,-4.921209459037222400e-01
5.330000000000000293e-01,-7.577755009668751818e-01,-1.381061989020968828e-01,-4.511490379613766200e-01
5.340000000000000302e-01,-6.578596849715883099e-01,-3.580595758481665003e-01,-2.671514592034894275e-01
5.350000000000000311e-01,-2.776418763112595833e-01,-2.546253625893323824e-01,-1.149249363940739038e-01
5.360000000000000320e-01,8.470534298479866220e-02,1.140457539176917834e-01,-8.984995080861235550e-02
5.370000000000000329e-01,1.294490446503999970e-01,4.672015749808391405e-01,-2.469497086339067227e-01
5.380000000000000338e-01,-1.589512191628368598e-01,4.781599943333620928e-01,-4.307619842897284501e-01
5.390000000000000346e-01,-5.113288516403666772e-01,1.718853839749117374e-01,-4.914054377130037121e-01
5.400000000000000355e-01,-5.728160758663620733e-01,-1.456125308449155442e-01,-3.469700893180709400e-01
5.410000000000000364e-01,-2.669107124272577236e-01,-1.664313410497995638e-01,-1.379691442748019192e-01
5.420000000000000373e-01,1.867232124834147522e-01,1.403739174521677346e-01,-6.319714452549431670e-03
5.430000000000000382e-01,4.179705442637282053e-01,5.366638841131033955e-01,-7.953500966902987690e-02
5.440000000000000391e-01,2.389830722472672808e-01,6.994390203716132071e-01,-2.616221179174768041e-01
5.450000000000000400e-01,-1.373849206581518601e-01,4.589858948174734277e-01,-4.165248304286673364e-01
5.460000000000000409e-01,-3.794148895364627960e-01,8.439535475503268103e-02,-3.568330298503481490e-01
5.470000000000000417e-01,-2.237849655989256614e-01,-9.294605911919624763e-02,-1.511475217736044652e-01
5.480000000000000426e-01,2.273518437921472346e-01,1.008877319280597346e-01,6.619722411572012688e-02
5.490000000000000435e-01,6.226251225666118438e-01,5.338982397672563662e-01,1.208261026205646738e-01
5.500000000000000444e-01,6.232055897230802666e-01,8.114393844190410654e-01,-4.745956129223304759e-02
5.510000000000000453e-01,2.530948445822474024e-01,6.854126599774077455e-01,-2.416347760693809688e-01
5.520000000000000462e-01,-1.277647672654272648e-01,2.887646119253571286e-01,-3.120277396102218992e-01
5.530000000000000471e-01,-1.635231590580339400e-01,-3.938848844333488197e-02,-1.545151943285834051e-01
5.540000000000000480e-01,2.254343427129671396e-01,2.415955521775346032e-02,1.141053769536249235e-01
5.550000000000000488e-01,7.000767618406283921e-01,4.190240475708676970e-01,2.630575302810647664e-01
5.560000000000000497e-01,8.844339570634959236e-01,8.031249651226225472e-01,2.043124979480760439e-01
5.570000000000000506e-01,6.173255796454799604e-01,8.142333176833292940e-01,-2.000236389928494729e-02
5.580000000000000515e-01,1.611079782349447709e-01,4.392579919793219712e-01,-1.782900739725432893e-01
5.590000000000000524e-01,-8.337872005949102661e-02,2.711521032380824828e-02,-1.310123156070439610e-01
5.600000000000000533e-01,1.414546496415460541e-01,-8.813016199345141688e-02,1.189244729478714790e-01
5.610000000000000542e-01,6.479917945647136746e-01,2.069314584663208278e-01,3.673462242510007192e-01
5.620000000000000551e-01,9.930760901840756105e-01,6.346100144573391111e-01,4.175383434177032393e-01
5.629999999999999449e-01,8.968406178956885855e-01,7.998985183129669885e-01,2.233346820060371773e-01
5.639999999999999458e-01,4.368783595306803824e-01,5.340089363703696135e-01,-9.008728674364459591e-04
5.649999999999999467e-01,1.048972623409516122e-02,5.293060031730956877e-02,-7.761645198943581403e-02
5.659999999999999476e-01,1.071587847834684290e-02,-2.082403900787905271e-01,9.034155378170243000e-02
5.669999999999999485e-01,4.397236648777412826e-01,-6.001382450532493501e-02,3.718525270975568953e-01
5.679999999999999494e-01,9.191792132882194988e-01,3.673890626429803796e-01,5.403644044599812402e-01
5.689999999999999503e-01,1.014158622520235919e+00,6.664676706310683763e-01,4.675304139918654567e-01
5.699999999999999512e-01,6.296846491368243148e-01,5.231239759548079737e-01,1.959480047791040402e-01
5.709999999999999520e-01,8.081957213838132648e-02,6.091143624970594278e-02,-6.683649821412228006e-03
5.719999999999999529e-01,-1.310235780354762625e-01,-3.589867380923596474e-01,3.997770019375446182e-02
5.729999999999999538e-01,1.423468766920807094e-01,-3.485528297580661738e-01,2.933602860431505088e-01
5.739999999999999547e-01,6.565253049432783206e-01,2.857691014236997396e-02,5.476566951476710132e-01
5.749999999999999556e-01,9.507925565214985220e-01,4.424488127638275259e-01,5.874989462090935977e-01
5.759999999999999565e-01,7.282593334807061503e-01,4.675505552022665712e-01,3.622153591561547703e-01
5.769999999999999574e-01,1.581743418478585572e-01,6.506924396588596726e-02,7.816740370716326880e-02
5.779999999999999583e-01,-2.782256534859814945e-01,-4.293169155822012528e-01,-2.346927956508588695e-02
5.789999999999999591e-01,-2.129777803875176345e-01,-5.962737702450719990e-01,1.466561479127971301e-01
5.799999999999999600e-01,2.644644483029299220e-01,-3.170298304724581961e-01,4.340042775289076338e-01
5.809999999999999609e-01,7.142237101297826962e-01,1.521003557422904440e-01,6.025873934101370066e-01
5.819999999999999618e-01,7.077942941703319057e-01,3.422093974371552827e-01,4.789349852471240787e-01
5.829999999999999627e-01,2.126050468840359475e-01,7.142764659401497351e-02,1.703105889857195188e-01
5.839999999999999636e-01,-3.684330563879048559e-01,-4.585207809593522810e-01,-6.432375249188936051e-02
5.849999999999999645e-01,-5.494661585662006242e-01,-7.824668553588647324e-01,-3.139242776642076765e-02
5.859999999999999654e-01,-1.984055259781045133e-01,-6.424609758235533263e-01,2.328812352779779382e-01
5.869999999999999662e-01,3.521177232544306368e-01,-1.588340321787831411e-01,4.826574063918056545e-01
5.879999999999999671e-01,5.676620741704564432e-01,1.995108489149265973e-01,4.927089452838565031e-01
5.889999999999999680e-01,2.396308425573901446e-01,8.371572412145204811e-02,2.411002000923954114e-01
5.899999999999999689e-01,-3.897437496611120822e-01,-3.897452349059860599e-01,-9.293730854351567316e-02
5.909999999999999698e-01,-7.869693624756737282e-01,-8.438604345401723439e-01,-2.096284135694541639e-01
5.919999999999999707e-01,-6.427021688278367062e-01,-8.464138281009755405e-01,-2.778269029344294927e-02
5.929999999999999716e-01,-8.933593035438537611e-02,-4.327806260334028376e-01,2.733240527520917063e-01
5.939999999999999725e-01,3.370606522188330789e-01,4.775370616244477284e-02,4.212566933110278855e-01
5.949999999999999734e-01,2.425716150270485483e-01,1.286280977667769998e-01,2.704587047170571301e-01
5.959999999999999742e-01,-3.329193832993325719e-01,-2.486418970866069722e-01,-7.630601368790997097e-02
5.969999999999999751e-01,-8.934520172575722841e-01,-7.631139343976498512e-01,-3.222710243233973815e-01
5.979999999999999760e-01,-9.745670634664679310e-01,-9.383600330959194213e-01,-3.036397910271854683e-01
5.989999999999999769e-01,-5.215163597912060300e-01,-6.320890536574270691e-01,-7.312038622993507347e-03
5.999999999999999778e-01,4.679223099537328789e-02,-8.586650885558362589e-02,2.641143710655891597e-01
6.009999999999999787e-01,2.149465157928010239e-01,1.874974374723670512e-01,2.545410979944485175e-01
6.019999999999999796e-01,-1.948866440406811507e-01,-4.248141906239745469e-02,-3.357406547263298152e-02
6.029999999999999805e-01,-8.302985040618292567e-01,-5.644142332074383317e-01,-3.864328669275722827e-01
6.039999999999999813e-01,-1.147515790159749915e+00,-8.904803773416688495e-01,-5.010565307731409401e-01
6.049999999999999822e-01,-8.627313075547763388e-01,-7.226400784538572486e-01,-3.013940273458362573e-01
6.059999999999999831e-01,-2.422685083641582804e-01,-1.922065865134380824e-01,2.290095916056052866e-02
6.069999999999999840e-01,1.617627687525951818e-01,2.446573635333202379e-01,1.947342400811513385e-01
6.079999999999999849e-01,-1.782932254458944460e-02,2.028871865371758287e-01,1.603089166509375288e-02
6.089999999999999858e-01,-6.141791080684936288e-01,-2.507103012283503629e-01,-3.521447411995820009e-01
6.099999999999999867e-01,-1.110991498408981704e+00,-6.937039004393160679e-01,-5.989037468276723342e-01
6.109999999999999876e-01,-1.061569643955891040e+00,-7.053535080211700281e-01,-5.463697369263385006e-01
6.119999999999999885e-01,-4.862489532922666946e-01,-2.443824730281066726e-01,-2.197701443123039888e-01
6.129999999999999893e-01,1.008114934405266450e-01,2.936463060481829257e-01,7.008102769155562239e-02
6.139999999999999902e-01,2.057542659072184865e-01,4.391417879618326747e-01,6.832330629737730365e-02
6.149999999999999911e-01,-2.628530005571208528e-01,1.034947868099715257e-01,-2.226250693374027256e-01
6.159999999999999920e-01,-8.774283718533595344e-01,-4.039190860938833283e-01,-5.892321970575755685e-01
6.169999999999999929e-01,-1.064885385340452739e+00,-6.012448321741412638e-01,-6.738398868565188549e-01
6.179999999999999938e-01,-6.588219383796268813e-01,-2.577534068527300715e-01,-4.462804388056602067e-01
6.189999999999999947e-01,3.780533948735896599e-02,3.105991022458227113e-01,-7.559477385636025060e-02
6.199999999999999956e-01,4.037361510177274182e-01,6.478946986228611982e-01,9.944487737972991515e-02
6.209999999999999964e-01,1.469214634188866775e-01,4.568682237415750969e-01,-5.833164796303439564e-02
6.219999999999999973e-01,-4.772723613030165901e-01,-7.314279531232580067e-02,-4.304362821884572532e-01
6.229999999999999982e-01,-9.065109202105762209e-01,-4.238669563963219922e-01,-6.683343372321736142e-01
6.239999999999999991e-01,-7.011995019649641669e-01,-2.550848870703043003e-01,-5.757453860502854681e-01
6.250000000000000000e-01,-3.599898079253313621e-02,3.046876183847394004e-01,-2.184954674054379875e-01
6.260000000000000009e-01,5.421184363183875199e-01,7.607677639681106330e-01,1.083991799222696617e-01
6.270000000000000018e-01,5.404640990864645334e-01,7.537509417609683515e-01,1.212239674463587019e-01
6.280000000000000027e-01,2.278977235352058414e-02,2.803568522173206512e-01,-1.810618690799840891e-01
6.290000000000000036e-01,-5.634903677769754760e-01,-1.898448379949908005e-01,-5.333195384171601772e-01
6.300000000000000044e-01,-6.464034820606444631e-01,-2.256110759286177880e-01,-6.019246961365902759e-01
6.310000000000000053e-01,-1.175186026924561478e-01,2.166272853452177460e-01,-3.277955780636299665e-01
6.320000000000000062e-01,5.811661424363775419e-01,7.786492681716641329e-01,7.548352847254360953e-02
6.330000000000000071e-01,8.786968441151521425e-01,9.288053396602536926e-01,2.582720292788961425e-01
6.340000000000000080e-01,5.035941782994338700e-01,5.946638961195347406e-01,9.181892957290040125e-02
6.350000000000000089e-01,-1.355733673516069104e-01,3.335049767438751089e-02,-2.802464523136627417e-01
6.360000000000000098e-01,-4.812571897359663731e-01,-2.089724921532337409e-01,-5.001336686661305153e-01
6.370000000000000107e-01,-1.717818107330015831e-01,8.253669577910394128e-02,-3.691683278869954954e-01
6.380000000000000115e-01,5.294300213950777767e-01,6.522716524164865470e-01,1.596868075851432325e-02
6.390000000000000124e-01,1.028075722572154183e+00,9.781208060919094338e-01,3.600252589754258659e-01
6.400000000000000133e-01,9.214657862325679183e-01,7.725148706568982782e-01,3.579510029137525917e-01
6.410000000000000142e-01,3.166462727650616316e-01,2.196346180346128163e-01,3.545627048206831389e-02
6.420000000000000151e-01,-2.398990558754041380e-01,-1.830603136414795939e-01,-2.983040025045364807e-01
6.430000000000000160e-01,-2.214566264293239550e-01,-8.629361267983297334e-02,-3.486378043271615157e-01
6.440000000000000169e-01,3.780112152460619601e-01,4.285702669706995538e-01,-5.371740992495849243e-02
6.450000000000000178e-01,1.036117061733373035e+00,8.864671176083380733e-01,3.733957457518498613e-01
6.460000000000000187e-01,1.173768837530754672e+00,8.524996676003367968e-01,5.415633803428939741e-01
6.470000000000000195e-01,6.961851549302823239e-01,3.514165341342448401e-01,3.500071695401304472e-01
6.480000000000000204e-01,2.432384905985843920e-02,-1.702229211760880323e-01,-1.775006360013683254e-02
6.490000000000000213e-01,-2.525167930615707101e-01,-2.756737460218705582e-01,-2.568883239007582198e-01
6.500000000000000222e-01,1.330754997408511164e-01,1.168479617391595810e-01,-1.165576690419363598e-01
6.510000000000000231e-01,8.271105076600996364e-01,6.354111614331469093e-01,3.012810922655840273e-01
6.520000000000000240e-01,1.220845031945918091e+00,8.043068199984485522e-01,6.264050882603121595e-01
6.530000000000000249e-01,9.598981277767699716e-01,4.322414099504797713e-01,6.082917030709655837e-01
6.540000000000000258e-01,2.760141039071614677e-01,-1.661413341750481165e-01,2.632397631218703071e-01
6.550000000000000266e-01,-2.431308847298167541e-01,-4.600073429852638007e-01,-9.022743084481241183e-02
6.560000000000000275e-01,-1.446118817553266600e-01,-2.209694234356807119e-01,-1.259603097999104637e-01
6.570000000000000284e-01,4.912693663133176902e-01,3.169221433438692004e-01,1.615575201291383212e-01
6.580000000000000293e-01,1.064468786131223643e+00,6.329871510984464988e-01,5.738470102000955420e-01
6.590000000000000302e-01,1.052929184868307555e+00,4.293839417553113047e-01,7.335303786805544846e-01
6.600000000000000311e-01,4.702137201698606273e-01,-1.430272556019607511e-01,5.015742906040199234e-01
6.610000000000000320e-01,-2.206748506134551813e-01,-6.007290071152636690e-01,9.822596550400708448e-02
6.620000000000000329e-01,-3.976771979753992992e-01,-5.346788734258955955e-01,-1.465236105388739996e-01
6.630000000000000338e-01,3.930219484969727645e-02,-5.987458986825364149e-02,7.937011293596051009e-03
6.640000000000000346e-01,7.031542122351196467e-01,3.884561727421985133e-01,4.037672806455720464e-01
6.650000000000000355e-01,9.592855164397173784e-01,3.764775175377401140e-01,7.010637227123894810e-01
6.660000000000000364e-01,5.688505769748438690e-01,-1.134951568940457817e-01,6.472800810233618751e-01
6.670000000000000373e-01,-1.646713800686699369e-01,-6.598573152374358486e-01,2.738481764916710914e-01
6.680000000000000382e-01,-6.154660997912113629e-01,-7.858150620092040350e-01,-1.038660610083100844e-01
6.690000000000000391e-01,-4.205094215336248609e-01,-4.189856185011193723e-01,-1.550181393594895762e-01
6.700000000000000400e-01,2.336881764481864854e-01,9.687533657671568155e-02,1.513700205220897543e-01
6.710000000000000409e-01,7.179347843176406840e-01,2.848537929423271553e-01,5.378851692887151037e-01
6.720000000000000417e-01,5.729523659411597247e-01,-5.558741872454157906e-02,6.637486193205377472e-01
6.730000000000000426e-01,-8.981810218448306460e-02,-6.354374690403938875e-01,3.916165471756816174e-01
6.740000000000000435e-01,-7.343870310221750630e-01,-9.238024348939622987e-01,-4.681422760875184746e-02
6.750000000000000444e-01,-8.099660080551576158e-01,-6.983709498436293517e-01,-2.727388711688508161e-01
6.760000000000000453e-01,-2.810602853191505046e-01,-1.786095388838838394e-01,-1.298893826859164047e-01
6.770000000000000462e-01,3.467490440777107330e-01,1.783351758421964084e-01,2.597319679862571951e-01
6.780000000000000471e-01,4.828722195910792880e-01,2.439675711298727040e-02,5.260638052660021602e-01
6.790000000000000480e-01,-3.899168706189189756e-03,-4.932762845050064904e-01,4.447310647754177948e-01
6.800000000000000488e-01,-7.275948189321330695e-01,-9.223489077567212924e-01,3.619453271855585519e-02
6.810000000000000497e-01,-1.064744298927133626e+00,-8.604214536384321432e-01,-3.382244529982711412e-01
6.820000000000000506e-01,-7.421432827415718192e-01,-3.921317296248603701e-01,-3.786148261425180683e-01
6.830000000000000515e-01,-8.431138737989689325e-02,7.645588370720737825e-02,-7.175630123382129022e-02
6.840000000000000524e-01,3.247994534472903316e-01,1.355036559510883198e-01,3.052281549416082096e-01
6.850000000000000533e-01,8.825178975285842553e-02,-2.839645424220877956e-01,4.048385149018904339e-01
6.860000000000000542e-01,-5.918389244499263624e-01,-7.779946291688826232e-01,1.127172282956767635e-01
6.870000000000000551e-01,-1.130334886550101059e+00,-9.020712780197581715e-01,-3.218218049663756908e-01
6.879999999999999449e-01,-1.062876672001907608e+00,-5.254232621227845623e-01,-5.520990612105101114e-01
6.889999999999999458e-01,-4.706892521353777670e-01,2.236467636302009662e-02,-3.938442824061845204e-01
6.899999999999999467e-01,1.090994363297484449e-01,2.516919037936078407e-01,6.716697658095223920e-03
6.909999999999999476e-01,1.729208055740533434e-01,-1.638707398880446739e-02,2.649620417717984400e-01
6.919999999999999485e-01,-3.554040772721487884e-01,-5.179308355167218103e-01,1.572138643655528467e-01
6.929999999999999494e-01,-1.010442123056711772e+00,-7.877827404724555560e-01,-2.424924382053234850e-01
6.939999999999999503e-01,-1.203485353354909915e+00,-5.581260193341271991e-01,-5.974885185191234349e-01
6.949999999999999512e-01,-7.669752590132274950e-01,-2.787993751927633421e-02,-6.191270518279792245e-01
6.959999999999999520e-01,-8.198442457916456372e-02,3.660713217318593560e-01,-2.994898833937243987e-01
6.969999999999999529e-01,2.472712361663796932e-01,2.813023132266188053e-01,7.820323842594427421e-02
6.979999999999999538e-01,-5.348784078678124609e-02,-1.728926528476893154e-01,1.627679124292056023e-01
6.989999999999999547e-01,-6.985138201250951084e-01,-5.539692391552339945e-01,-1.112197351215899188e-01
6.999999999999999556e-01,-1.118429277006118161e+00,-5.100618018170456347e-01,-5.386225468098443381e-01
7.009999999999999565e-01,-9.057804097337759375e-01,-4.209361216209859397e-02,-7.219277816913729495e-01
7.019999999999999574e-01,-2.493631341953324865e-01,4.382328425170713970e-01,-5.320486984341584735e-01
7.029999999999999583e-01,2.966513311933863806e-01,5.412252051964331345e-01,-1.270459309777021151e-01
7.039999999999999591e-01,2.692710395908505805e-01,1.799715920434951932e-01,1.254856947445229798e-01
7.049999999999999600e-01,-2.809128472463970905e-01,-2.713430209574229091e-01,2.512797730999785997e-02
7.059999999999999609e-01,-8.413727046886748662e-01,-3.885003801145143210e-01,-3.605381917799457825e-01
7.069999999999999618e-01,-8.852687576927446012e-01,-4.726710503922152556e-02,-6.893594406991250256e-01
7.079999999999999627e-01,-3.615096718227124861e-01,4.800976678690488386e-01,-6.648797669230633867e-01
7.089999999999999636e-01,2.996116798091922329e-01,7.240300291264014643e-01,-3.210948582612297986e-01
7.099999999999999645e-01,5.472097570933919242e-01,5.128826999988983504e-01,5.189898245966025059e-02
7.109999999999999654e-01,1.893562774723042130e-01,4.298876991577338380e-02,1.570011872726598257e-01
7.119999999999999662e-01,-4.127547348446655717e-01,-2.329358554995183406e-01,-1.178978332434413578e-01
7.129999999999999671e-01,-7.093406582887923362e-01,-5.507775808603544015e-02,-5.045119660661159244e-01
7.139999999999999680e-01,-3.917454127611210146e-01,4.386961730775887913e-01,-6.569540006055634151e-01
7.149999999999999689e-01,2.800974494281094351e-01,8.108588640783693791e-01,-4.418841281450063829e-01
7.159999999999999698e-01,7.421430526037763320e-01,7.463335051638489981e-01,-2.447405967513143973e-02
7.169999999999999707e-01,6.233092520747505194e-01,3.270252824099676991e-01,2.325680604845963284e-01
7.179999999999999716e-01,5.463665816568339523e-02,-6.340576108775664022e-02,1.426090784419936364e-01
7.189999999999999725e-01,-4.165071380398025491e-01,-6.936213443988392680e-02,-2.361052389503042193e-01
7.199999999999999734e-01,-3.586188447128398904e-01,3.393833650592346651e-01,-5.219140850711530000e-01
7.209999999999999742e-01,2.090997318937345695e-01,7.638546216694906965e-01,-4.573401503419642911e-01
7.219999999999999751e-01,8.125561797294452715e-01,8.614585701500451220e-01,-1.032121370154679280e-01
7.229999999999999760e-01,9.375167521270708626e-01,5.271734086232007233e-01,2.663763907314711243e-01
7.239999999999999769e-01,5.137078564755387378e-01,7.868829749767493331e-02,3.559043725060845320e-01
7.249999999999999778e-01,-5.965915061572193284e-02,-9.077042106153274115e-02,9.268631420809375632e-02
7.259999999999999787e-01,-2.656171496096590978e-01,1.776606952820158070e-01,-2.644600868735873522e-01
7.269999999999999796e-01,1.041713959139548978e-01,6.222136304236527415e-01,-3.916419691796068636e-01
7.279999999999999805e-01,7.397496753696332084e-01,8.393360855054646796e-01,-1.578277045586228278e-01
7.289999999999999813e-01,1.094075011166335987e+00,6.353799152453749599e-01,2.444883701353845473e-01
7.299999999999999822e-01,8.595300043939190227e-01,1.853259038928745939e-01,4.885052024667614901e-01
7.309999999999999831e-01,2.860800371413108056e-01,-1.231974123725995685e-01,3.821620665501372360e-01
7.319999999999999840e-01,-1.269345463868868373e-01,-3.327401102061731258e-02,2.982016030473045795e-02
7.329999999999999849e-01,-2.667359152269501918e-03,3.609724848724387702e-01,-2.323516659383035032e-01
7.339999999999999858e-01,5.591541557141287422e-01,6.838662472079891641e-01,-1.744099990982853343e-01
7.349999999999999867e-01,1.041156509281023546e+00,6.256756356721729917e-01,1.812220311818944218e-01
7.359999999999999876e-01,1.057331668108591582e+00,2.132414375750788238e-01,5.299476573223079745e-01
7.369999999999999885e-01,5.557484436815591788e-01,-1.774731679059258771e-01,5.868348474339902809e-01
7.379999999999999893e-01,1.884325388912435825e-02,-2.377598643989828897e-01,3.236120349805164942e-01
7.389999999999999902e-01,-1.247034944782430821e-01,6.212526440534594380e-02,-3.725758315074480936e-02
7.399999999999999911e-01,2.738128174324808151e-01,4.232788102144679487e-01,-1.357818648047395549e-01
7.409999999999999920e-01,8.214806042782958340e-01,5.061466358032788992e-01,8.661507105488115699e-02
7.419999999999999929e-01,1.036297528238217192e+00,2.125016650029575294e-01,4.591571499864463002e-01
7.429999999999999938e-01,7.079595437485431964e-01,-2.281853881685898533e-01,6.660253984577109154e-01
7.439999999999999947e-01,1.158209938394613031e-01,-4.406670549860061126e-01,5.511540902571080425e-01
7.449999999999999956e-01,-2.305415076989653922e-01,-2.562437338863733927e-01,1.918853811269538301e-01
7.459999999999999964e-01,-4.409175024786501224e-02,1.141311271926847837e-01,-7.549224779389493434e-02
7.469999999999999973e-01,4.649314889927732009e-01,3.199683276311994229e-01,-1.945542979474166115e-02
7.479999999999999982e-01,8.341725225205048888e-01,1.502769509036908646e-01,3.177855700975672493e-01
7.489999999999999991e-01,7.198204170093859267e-01,-2.649304235781953509e-01,6.179372638595451717e-01
7.500000000000000000e-01,1.855739899513760283e-01,-5.658124448411762097e-01,6.456757073769757715e-01
7.510000000000000009e-01,-3.082053185494040282e-01,-5.264069884646438435e-01,3.675056411507386378e-01
7.520000000000000018e-01,-3.631106007496811561e-01,-1.920250389951282666e-01,1.468748820582485050e-02
7.530000000000000027e-01,1.793146235352072876e-02,9.463272351708218455e-02,-1.016406422633030354e-01
7.540000000000000036e-01,4.844368818502670648e-01,7.319500675370242682e-02,1.020683420915018402e-01
7.550000000000000044e-01,5.897925739907561304e-01,-2.606160089040063244e-01,4.376299816296588263e-01
7.560000000000000053e-01,2.063006608668406794e-01,-6.202325304840543563e-01,6.110336380906773446e-01
7.570000000000000062e-01,-3.434882898076908053e-01,-6.876536254063193576e-01,4.583395018676245103e-01
7.580000000000000071e-01,-6.127848795117343261e-01,-4.495911438656602921e-01,1.083770708099847241e-01
7.590000000000000080e-01,-4.030104588818316236e-01,-1.172956232200820792e-01,-1.508762094210605031e-01
7.600000000000000089e-01,8.294975609078147905e-02,1.297593917299983204e-02,-1.182155193654650799e-01
7.610000000000000098e-01,3.587890638950760880e-01,-2.173024927874220025e-01,1.870953473248140875e-01
7.620000000000000107e-01,1.681281658471195928e-01,-5.746068097475864889e-01,4.555398704316115377e-01
7.630000000000000115e-01,-3.373618934883420017e-01,-7.438911832262574686e-01,4.438400535208570918e-01
7.640000000000000124e-01,-7.515863087757230776e-01,-6.176027274445501369e-01,1.708097700067489622e-01
7.650000000000000133e-01,-7.373636299013914819e-01,-2.801707973800695028e-01,-1.665676623554316893e-01
7.660000000000000142e-01,-3.440563516218830831e-01,-6.420510180600159933e-02,-2.822793970305297329e-01
7.670000000000000151e-01,6.699468343535683323e-02,-1.354297215733808735e-01,-9.536519771218644748e-02
7.680000000000000160e-01,8.617124485335692086e-02,-4.289973401575114531e-01,2.079609416661575838e-01
7.690000000000000169e-01,-2.858705846567076714e-01,-6.800147483339438192e-01,3.431405089750382276e-01
7.700000000000000178e-01,-7.693241640747517929e-01,-6.464471266059473864e-01,1.770635713160466362e-01
7.710000000000000187e-01,-9.240009079621263055e-01,-3.568870847581508965e-01,-1.577588599304922123e-01
7.720000000000000195e-01,-6.615691282700303377e-01,-7.812066735403475071e-02,-3.860307180147715678e-01
7.730000000000000204e-01,-2.189885322876845841e-01,-2.002673401071588047e-02,-3.489891593328288133e-01
7.740000000000000213e-01,4.145611358004403467e-03,-2.389778087184491473e-01,-9.078665344591692332e-02
7.750000000000000222e-01,-1.956146598628144551e-01,-5.019962247921431198e-01,1.530072969310121711e-01
7.760000000000000231e-01,-6.363016505600119777e-01,-5.703757700556020271e-01,1.386498572633765580e-01
7.770000000000000240e-01,-9.527958188396549177e-01,-3.623746809476211528e-01,-1.108526758639473281e-01
7.780000000000000249e-01,-8.487611843721672988e-01,-5.794181502550572321e-02,-4.133542895734728106e-01
7.790000000000000258e-01,-4.473334858992492613e-01,1.100768344204246935e-01,-5.190188434413562923e-01
7.800000000000000266e-01,-7.454024574780568346e-02,-1.860937564200279603e-03,-3.323403463302658789e-01
7.810000000000000275e-01,-8.526461657173654840e-02,-2.404298875378518829e-01,-5.259069704824489294e-02
7.820000000000000284e-01,-4.229295628734796586e-01,-4.001861539462952533e-01,6.335517348287451889e-02
7.830000000000000293e-01,-7.962430339332923213e-01,-2.748989396257934814e-01,-7.316040156963944663e-02
7.840000000000000302e-01,-8.590887252212142666e-01,-8.078270103189701817e-04,-3.683131007524773626e-01
7.850000000000000311e-01,-5.512497873346784427e-01,2.427227884435742000e-01,-5.693611109103291490e-01
7.860000000000000320e-01,-1.350993937002496204e-01,2.540520447273642013e-01,-5.122554872972358009e-01
7.870000000000000329e-01,5.268927933625577875e-02,4.705000714576888093e-02,-2.602211939435103982e-01
7.880000000000000338e-01,-1.428075363782689566e-01,-1.455320487623184278e-01,-2.720227511285788422e-02
7.890000000000000346e-01,-5.052822651098659579e-01,-1.557096218175834101e-01,-2.873816845775479037e-02
7.900000000000000355e-01,-7.020637575910683159e-01,6.145563609359468854e-02,-2.586491923974141849e-01
7.910000000000000364e-01,-5.493623518458120580e-01,3.250681938148675121e-01,-5.149374527119363609e-01
7.920000000000000373e-01,-1.413842774766938537e-01,4.364526595877494253e-01,-5.803449314657085356e-01
7.930000000000000382e-01,1.670034141712762876e-01,3.114766067231031776e-01,-3.914934061715883984e-01
7.940000000000000391e-01,1.680978449535072972e-01,1.013960588930842982e-01,-1.263884222012160441e-01
7.950000000000000400e-01,-1.353423621918166952e-01,9.093707976441938942e-03,-7.855153534532631834e-03
7.960000000000000409e-01,-4.202294379784096146e-01,1.333392657565503625e-01,-9.711068970483216489e-02
7.970000000000000417e-01,-4.195988958014857384e-01,3.804626855915111960e-01,-3.514209494157499170e-01
7.980000000000000426e-01,-9.269357371637755583e-02,5.525479702771678436e-01,-5.212378701171367368e-01
7.990000000000000435e-01,2.626069940622635102e-01,5.040352172874608128e-01,-4.645373795421486873e-01
8.000000000000000444e-01,4.160237028039707186e-01,3.182649956625502319e-01,-2.011634573214320376e-01
8.010000000000000453e-01,2.401450474539338076e-01,1.447347067436187684e-01,1.845221696863583172e-02
8.020000000000000462e-01,-6.812064063649272971e-02,1.793978584336760329e-01,4.515757701779343075e-02
8.030000000000000471e-01,-1.934589739573639444e-01,3.582172195784312230e-01,-1.448698624815245584e-01
8.040000000000000480e-01,-2.173172851161591507e-02,5.569208310736416534e-01,-3.533586386155889714e-01
8.050000000000000488e-01,3.251550829777539176e-01,5.921745807757879954e-01,-3.975787773297033700e-01
8.060000000000000497e-01,5.806582356874014916e-01,4.541291674818187518e-01,-2.059834758819943656e-01
8.070000000000000506e-01,5.464090807636945435e-01,2.608476419827694404e-01,3.943333956719009131e-02
8.080000000000000515e-01,2.918863217869863691e-01,1.824119122245487778e-01,1.695741599978975445e-01
8.090000000000000524e-01,6.388343138242306984e-02,2.811164012866487205e-01,8.056487689388652784e-02
8.100000000000000533e-01,7.405872419691442166e-02,4.803842455667017841e-01,-1.244916757539954871e-01
8.110000000000000542e-01,3.428107061352249074e-01,5.842287778784851504e-01,-2.580575822425031363e-01
8.120000000000000551e-01,6.456282029091255925e-01,5.090285238475317220e-01,-1.866988533670681516e-01
8.129999999999999449e-01,7.403441107907803298e-01,3.135808368412919545e-01,5.058367403022422798e-02
8.139999999999999458e-01,5.602008499163646515e-01,1.604587519528742623e-01,2.544306629440316603e-01
8.149999999999999467e-01,2.914787756922116446e-01,1.659293148182245936e-01,2.727857037294368348e-01
8.159999999999999476e-01,1.624812909085325829e-01,2.966388911425070218e-01,1.297773892536679130e-01
8.169999999999999485e-01,3.070296714127037085e-01,4.342906868811039489e-01,-4.915186377376349475e-02
8.179999999999999494e-01,5.905294122274336033e-01,4.330318030975155441e-01,-8.721644573672432399e-02
8.189999999999999503e-01,7.683601873341976418e-01,2.821904110254165876e-01,5.668551795253330694e-02
8.199999999999999512e-01,7.100511273096503650e-01,9.955721154184848931e-02,2.889783841628737471e-01
8.209999999999999520e-01,4.702682646039040293e-01,7.442015215863189044e-03,4.036646815510062103e-01
8.219999999999999529e-01,2.368065168026692313e-01,9.008909019222227643e-02,3.421022278046954579e-01
8.229999999999999538e-01,2.358909938019085883e-01,2.278746065936222975e-01,1.604193948517664003e-01
8.239999999999999547e-01,4.355310105401530851e-01,2.876461942384525017e-01,3.747837277765601882e-02
8.249999999999999556e-01,6.489505869669530691e-01,2.027241667652216750e-01,8.354299242835529216e-02
8.259999999999999565e-01,7.111697964189694909e-01,7.545338383864702569e-03,2.574839321418699867e-01
8.269999999999999574e-01,5.142532781045360268e-01,-1.244278461669856561e-01,4.432436368850962150e-01
8.279999999999999583e-01,2.713214314199798860e-01,-1.610444625823301001e-01,4.607951675570451933e-01
8.289999999999999591e-01,1.430575371121692863e-01,-2.049787714819986326e-02,3.326403143333482304e-01
8.299999999999999600e-01,2.123137463722625518e-01,7.334812229759447855e-02,1.606273488202190347e-01
8.309999999999999609e-01,4.142918930181624382e-01,6.056832071136998563e-02,1.030180976036314255e-01
8.319999999999999618e-01,5.420970445520102432e-01,-7.695285564332690620e-02,2.111664089031638214e-01
8.329999999999999627e-01,4.713076115436256042e-01,-2.574842319799260926e-01,3.727817087615603042e-01
8.339999999999999636e-01,2.348011255005765241e-01,-3.468200904191510725e-01,4.835453651943716347e-01
8.349999999999999645e-01,1.443182732274449383e-02,-2.765879668294114468e-01,4.170115093349030522e-01
8.359999999999999654e-01,-3.464627087476523232e-02,-1.636006770025610901e-01,2.519955865002472817e-01
8.369999999999999662e-01,9.967097742024298712e-02,-7.353113870786262551e-02,1.229510213063233631e-01
8.379999999999999671e-01,2.740543225464851518e-01,-1.662419500300953146e-01,1.317083259640416115e-01
8.389999999999999680e-01,3.032736090699960085e-01,-3.258680063517639391e-01,2.637356826271780585e-01
8.399999999999999689e-01,1.541383326704918733e-01,-4.737452896954309489e-01,3.861215585574939158e-01
8.409999999999999698e-01,-1.045018440686703576e-01,-4.705140325442315752e-01,4.134845725694701879e-01
8.419999999999999707e-01,-2.543818464714545646e-01,-3.485888452762805345e-01,2.933877694576431105e-01
8.429999999999999716e-01,-2.142890553211767024e-01,-2.251940282178525876e-01,1.194603400110446911e-01
8.439999999999999725e-01,-6.558045126821188120e-02,-2.064808386641778792e-01,5.019309449394944445e-02
8.449999999999999734e-01,5.355312402781330083e-02,-3.323843104896724299e-01,1.020014080026383219e-01
8.459999999999999742e-01,1.405875646316937476e-02,-4.926653421013550416e-01,2.341165322916536340e-01
8.469999999999999751e-01,-1.952334165878848171e-01,-5.601375989053172244e-01,3.067112123850667116e-01
8.479999999999999760e-01,-4.098872382443243256e-01,-4.890941811647143145e-01,2.608860848529628851e-01
8.489999999999999769e-01,-4.775565237473177183e-01,-3.131744533346526027e-01,1.029709685445095446e-01
8.499999999999999778e-01,-3.790685084873918198e-01,-2.154600654415760597e-01,-1.751365996059481636e-02
8.509999999999999787e-01,-2.234093625353375245e-01,-2.621591650774712789e-01,-5.475236640035521796e-02
8.519999999999999796e-01,-1.441136869004707166e-01,-4.181067724995449764e-01,2.091898192520715016e-02
8.529999999999999805e-01,-2.579725363563644125e-01,-5.483365666846172770e-01,1.326072256669628135e-01
8.539999999999999813e-01,-4.777298608816215597e-01,-5.279694329601860581e-01,1.513124166480358246e-01
8.549999999999999822e-01,-6.223212389154941793e-01,-3.670802625990191026e-01,5.788013895310810397e-02
8.559999999999999831e-01,-5.985532270415852008e-01,-1.826388708360146551e-01,-7.834488567208004739e-02
8.569999999999999840e-01,-4.432036535716855630e-01,-1.350325088191722256e-01,-1.739098276546826582e-01
8.579999999999999849e-01,-2.910707279949839021e-01,-2.450658419663145626e-01,-1.690917785141397844e-01
8.589999999999999858e-01,-2.984760056649258808e-01,-4.095476109920930807e-01,-7.753553959014190811e-02
8.599999999999999867e-01,-4.378739563299831605e-01,-4.716945489118619661e-01,2.974364969631849813e-03
8.609999999999999876e-01,-6.335175806856981895e-01,-3.406492489339028595e-01,-1.480169646054293325e-02
8.619999999999999885e-01,-7.159262973443536460e-01,-1.269431523561147523e-01,-1.382545471769182910e-01
8.629999999999999893e-01,-5.889947529378947166e-01,3.819007166816481766e-03,-2.684174984566428668e-01
8.639999999999999902e-01,-4.027726006765759426e-01,-1.956446336694530816e-02,-3.163724070774667774e-01
8.649999999999999911e-01,-2.644507217025002799e-01,-1.810629229868852830e-01,-2.660928564641261707e-01
8.659999999999999920e-01,-3.348740497499485547e-01,-3.246041802133846632e-01,-1.669761795291804518e-01
8.669999999999999929e-01,-5.006574470942715127e-01,-2.613705419317431944e-01,-1.100484802832237125e-01
8.679999999999999938e-01,-6.495167079306174429e-01,-4.913778748559503862e-02,-1.633919904688797553e-01
8.689999999999999947e-01,-6.294110204464665737e-01,1.789593288866863086e-01,-2.722951846039953216e-01
8.699999999999999956e-01,-4.370866247685792350e-01,2.168098825680280228e-01,-3.835345598230872621e-01
8.709999999999999964e-01,-2.273561159934480158e-01,7.017731438441768277e-02,-3.880318147545177010e-01
8.719999999999999973e-01,-1.587253593503546167e-01,-1.061875181781693767e-01,-3.014760873512186135e-01
8.729999999999999982e-01,-2.593414870604943134e-01,-1.468669582610956648e-01,-1.992983687632126633e-01
8.739999999999999991e-01,-4.502045520398288980e-01,2.050555114927528691e-02,-1.777137720654818898e-01
8.750000000000000000e-01,-5.265870107717915971e-01,2.852009275897278706e-01,-2.335683964030198789e-01
8.760000000000000009e-01,-4.028994998731282862e-01,4.273091012895247620e-01,-3.504812800097960035e-01
8.770000000000000018e-01,-1.479079593875980703e-01,3.487560253770869423e-01,-4.248285554555067400e-01
8.780000000000000027e-01,4.280910379601605281e-02,1.226409684529917998e-01,-3.778572018455504389e-01
8.790000000000000036e-01,2.784187224460746291e-02,-7.391102159413371481e-03,-2.745446571389996704e-01
8.800000000000000044e-01,-1.458627637945985045e-01,7.793039549745996164e-02,-1.598581933017382273e-01
8.810000000000000053e-01,-3.240448374451748159e-01,3.433537558122114475e-01,-1.644993381777096197e-01
8.820000000000000062e-01,-2.872367881009736945e-01,5.600171907424945639e-01,-2.480779414150610374e-01
8.830000000000000071e-01,-6.857748102504963861e-02,5.595230409621675394e-01,-3.579318614655252473e-01
8.840000000000000080e-01,2.064448340753028133e-01,3.543336527504637457e-01,-3.817917236576132134e-01
8.850000000000000089e-01,3.267944582681550636e-01,1.279609020019721322e-01,-2.884779738078603328e-01
8.860000000000000098e-01,2.010847459553474492e-01,1.106148123856916937e-01,-1.535265390465355151e-01
8.870000000000000107e-01,-1.079810448384249146e-02,3.200996459937861527e-01,-7.218383465411885858e-02
8.880000000000000115e-01,-1.360793229272720395e-01,5.926759372001421111e-01,-1.083480205535741620e-01
8.890000000000000124e-01,1.689945839289993743e-02,6.726635197747897754e-01,-2.035358357883910729e-01
8.900000000000000133e-01,3.215989905644613955e-01,5.142521468819889474e-01,-2.846428009698633854e-01
8.910000000000000142e-01,5.412016892299891246e-01,2.337671093676187140e-01,-2.528352477082903560e-01
8.920000000000000151e-01,5.213864393682360321e-01,8.729879018627330345e-02,-1.245837587298029847e-01
8.930000000000000160e-01,3.067794582865619457e-01,2.044204183499822858e-01,1.241403252765707101e-02
8.940000000000000169e-01,8.834525481100939659e-02,5.047859317821066227e-01,6.485433771205448283e-02
8.950000000000000178e-01,8.297857246073248039e-02,6.960196666424133261e-01,-3.558880687879609553e-03
8.960000000000000187e-01,3.411148087581228894e-01,5.995989359377984496e-01,-1.081765829979395854e-01
8.970000000000000195e-01,6.418122572779622059e-01,2.939792104946883367e-01,-1.583573874161669504e-01
8.980000000000000204e-01,7.562402694001726378e-01,4.864272741797515814e-02,-8.357252071366767787e-02
8.990000000000000213e-01,5.806443143551843766e-01,4.279598327008211911e-02,7.740068962582941081e-02
9.000000000000000222e-01,2.742218539670678856e-01,3.145819058487193676e-01,2.026576089336980802e-01
9.010000000000000231e-01,1.404720196162833334e-01,5.641077705671896370e-01,2.049260175621725188e-01
9.020000000000000240e-01,2.823575227820886990e-01,5.785062710612135506e-01,9.351577686710585424e-02
9.030000000000000249e-01,6.013211986171532741e-01,3.134864666389865495e-01,-1.067597751309674360e-02
9.040000000000000258e-01,8.256673206843204715e-01,-3.280530615025653574e-02,-1.609504399675122654e-02
9.050000000000000266e-01,7.710434967697115116e-01,-1.450287179852806640e-01,1.108976040348302883e-01
9.060000000000000275e-01,4.594173898873947781e-01,4.593466947756161961e-02,2.797569542077666949e-01
9.070000000000000284e-01,1.629826743291148405e-01,3.475370264837478462e-01,3.619009690353416353e-01
9.080000000000000293e-01,1.506041750990094463e-01,4.754941201737584167e-01,3.006778852057888085e-01
9.090000000000000302e-01,4.313303899816871567e-01,2.749183528046998393e-01,1.541569736031639104e-01
9.100000000000000311e-01,7.445487678621932615e-01,-1.030633564413221404e-01,5.668680879344926288e-02
9.110000000000000320e-01,8.122402926144070001e-01,-3.504171409490876576e-01,1.179500417486935709e-01
9.120000000000000329e-01,5.448144700195194368e-01,-2.584859045110684539e-01,2.918796107463625944e-01
9.130000000000000338e-01,1.767570398805088094e-01,5.928961664448842428e-02,4.360694813425934346e-01
9.140000000000000346e-01,-1.688569748423688482e-02,3.035269894870759599e-01,4.388769122389504229e-01
9.150000000000000355e-01,1.465492546878293390e-01,2.083592406189221646e-01,2.955732619562498331e-01
9.160000000000000364e-01,5.025980828868585881e-01,-1.374967088276901894e-01,1.541208400227457309e-01
9.170000000000000373e-01,7.011999633689529610e-01,-4.885610442920393370e-01,1.085927786702428344e-01
9.180000000000000382e-01,5.737787906579998598e-01,-5.282530426743866636e-01,2.232658169913316892e-01
9.190000000000000391e-01,1.604457188958882119e-01,-2.530566359074196137e-01,4.025356262324356060e-01
9.200000000000000400e-01,-1.805238243068507387e-01,7.679130892238131278e-02,4.928630781098121139e-01
9.210000000000000409e-01,-1.742291422981138149e-01,1.371060228801973258e-01,4.141261859879482587e-01
9.220000000000000417e-01,1.357262472339806902e-01,-1.485999126952067539e-01,2.213588565118438933e-01
9.230000000000000426e-01,4.543151110859232622e-01,-5.581058336994317859e-01,8.740404696387314709e-02
9.240000000000000435e-01,4.749997638146129519e-01,-7.300101829359507688e-01,1.093913574924901266e-01
9.250000000000000444e-01,1.387133119891467981e-01,-5.255667287803308385e-01,2.797091571013846645e-01
9.260000000000000453e-01,-3.047945726598755845e-01,-1.370643443292192121e-01,4.345177985967501044e-01
9.270000000000000462e-01,-4.823123271769204634e-01,5.927472927180298112e-02,4.464324381942278985e-01
9.280000000000000471e-01,-2.697848445884769575e-01,-1.077148318204090433e-01,2.698891375366421208e-01
9.290000000000000480e-01,1.221477054380174926e-01,-5.169872732695217632e-01,5.552818381807025916e-02
9.300000000000000488e-01,3.290632264270065832e-01,-8.104010687638146804e-01,-2.176453321930363338e-02
9.310000000000000497e-01,1.106160113533295047e-01,-7.238973089748544920e-01,9.512597749232747091e-02
9.320000000000000506e-01,-3.625164176378435354e-01,-3.299207774014691341e-01,2.859199098855633170e-01
9.330000000000000515e-01,-7.021115186287162357e-01,1.362952633849316697e-02,3.931029631888596221e-01
9.340000000000000524e-01,-6.411419409261553959e-01,-1.734549335281291432e-02,2.807831714992859995e-01
9.350000000000000533e-01,-2.558682191005914319e-01,-3.851848375483382103e-01,4.673866664784380454e-02
9.360000000000000542e-01,1.003477672855188491e-01,-7.569475053201504267e-01,-1.444128889167569929e-01
9.370000000000000551e-01,7.867543775796832783e-02,-8.044047900064706935e-01,-1.249493754136013074e-01
9.379999999999999449e-01,-3.334785646642141610e-01,-4.662080961051398575e-01,7.344950138560762953e-02
9.389999999999999458e-01,-7.810623557091953550e-01,-2.574370224418812830e-02,2.347804591302184163e-01
9.399999999999999467e-01,-9.174551769728369610e-01,1.114106850771010432e-01,2.400806034943985257e-01
9.409999999999999476e-01,-6.010810133364082875e-01,-1.546588300053103604e-01,3.818217621799724348e-02
9.419999999999999485e-01,-1.415021689295299645e-01,-5.690173626107645211e-01,-2.057515129241200280e-01
9.429999999999999494e-01,4.250915453935104338e-02,-7.616134616983294414e-01,-3.135753223581944638e-01
9.439999999999999503e-01,-2.160498374722779613e-01,-5.208227979032126198e-01,-1.948108382120872228e-01
9.449999999999999512e-01,-7.121834090281474738e-01,-5.203078383368061471e-02,2.592305716305856253e-02
9.459999999999999520e-01,-1.016857346276736074e+00,2.642837296844685047e-01,1.402245404518189242e-01
9.469999999999999529e-01,-8.473435466257567272e-01,1.285544825378082956e-01,4.055811328500768392e-02
9.479999999999999538e-01,-3.674185410267497010e-01,-2.852813902244953903e-01,-2.248156541428001642e-01
9.489999999999999547e-01,1.648006293009872739e-02,-6.057068163563730234e-01,-4.328732727944483161e-01
9.499999999999999556e-01,-3.751404477912274188e-02,-4.984704288775201886e-01,-4.238499088231697520e-01
9.509999999999999565e-01,-4.947683888997340684e-01,-5.029445814758461142e-02,-2.117675786001416982e-01
9.519999999999999574e-01,-9.247652074707931602e-01,3.761476466037158572e-01,9.089918901231728784e-03
9.529999999999999583e-01,-9.599772288050147928e-01,4.131457700765919228e-01,2.615151297106354036e-02
9.539999999999999591e-01,-5.311067031825305040e-01,6.353385146023149410e-02,-1.814462158151255999e-01
9.549999999999999600e-01,-2.359860277190040795e-02,-3.670296585220236274e-01,-4.586248419672353527e-01
9.559999999999999609e-01,1.526151127366125460e-01,-4.219587959257252718e-01,-5.636772009875191669e-01
9.569999999999999618e-01,-1.575535856596573803e-01,-5.406062569773433663e-02,-4.063735739176644324e-01
9.579999999999999627e-01,-6.704296798122065804e-01,4.542520722897974705e-01,-1.322664300290040951e-01
9.589999999999999636e-01,-9.019077037989433610e-01,6.567377552864550605e-01,1.324051615043548083e-02
9.599999999999999645e-01,-6.087882336419656593e-01,3.930697590064621827e-01,-1.039543541161048468e-01
9.609999999999999654e-01,-3.246063605263787427e-02,-6.429270519519995897e-02,-3.755292557740663728e-01
9.619999999999999662e-01,3.552442968678716229e-01,-2.985339954391810213e-01,-5.884873356158398794e-01
9.629999999999999671e-01,2.278362746916709203e-01,-6.818767043261264593e-02,-5.469717052950084923e-01
9.639999999999999680e-01,-2.652848603417265472e-01,4.541145665916749841e-01,-2.899849967054251576e-01
9.649999999999999689e-01,-6.702948311750670518e-01,8.041131475970013653e-01,-2.352427824892260738e-02
9.659999999999999698e-01,-6.025586290212725515e-01,6.970754349203482914e-01,1.035288080353972962e-02
9.669999999999999707e-01,-5.666300216324911959e-02,2.295682771936515265e-01,-1.996238173742194977e-01
9.679999999999999716e-01,4.828169072375839699e-01,-1.635923092859659089e-01,-4.852452174731706203e-01
9.689999999999999725e-01,6.036011141566243188e-01,-8.788003224046943285e-02,-5.759338966481150068e-01
9.699999999999999734e-01,1.942779735467382862e-01,3.733970845044943254e-01,-3.817290843346238249e-01
9.709999999999999742e-01,-3.279583441754221895e-01,8.307614149497274392e-01,-7.417082504555648492e-02
9.719999999999999751e-01,-4.819252861352815165e-01,8.799234348637451353e-01,1.167222889221971038e-01
9.729999999999999760e-01,-9.335972342063238172e-02,4.758897072160457875e-01,1.669268021564609267e-02
9.739999999999999769e-01,5.265235316920744424e-01,-1.068071129120173532e-02,-2.769202003306441284e-01
9.749999999999999778e-01,8.647527746387700942e-01,-1.371693752517203768e-01,-4.862538616091002242e-01
9.759999999999999787e-01,6.394653137759473971e-01,2.091595206039403299e-01,-4.177524894691814761e-01
9.769999999999999796e-01,8.248345080330377055e-02,7.217988778802134631e-01,-1.223301478023236660e-01
9.779999999999999805e-01,-2.854226388480924359e-01,9.374353774573023212e-01,1.778928410067895649e-01
9.789999999999999813e-01,-1.314079727415417287e-01,6.455146508976872255e-01,2.285080493132657098e-01
9.799999999999999822e-01,4.642232343891169455e-01,1.116908343374284351e-01,-7.310441351165822103e-03
9.809999999999999831e-01,9.738409402141479099e-01,-2.061206021493524887e-01,-2.894943474647282966e-01
9.819999999999999840e-01,9.816651602705176449e-01,-1.925195059203415465e-02,-3.706485195103136898e-01
9.829999999999999849e-01,4.821681045760013995e-01,4.819387226248850187e-01,-1.535064130081301992e-01
9.839999999999999858e-01,-6.572112018041517678e-02,8.539082578641187249e-01,2.011906211438626579e-01
9.849999999999999867e-01,-1.703080061919124977e-01,7.162106739209967987e-01,3.871827146669822306e-01
9.859999999999999876e-01,3.041988242555694333e-01,1.900324959016514992e-01,2.858302304575925934e-01
9.869999999999999885e-01,9.104485769888600588e-01,-2.669596064733935070e-01,-3.422809630577775680e-02
9.879999999999999893e-01,1.153352035147182209e+00,-2.714678374333859834e-01,-2.493267177250683420e-01
9.889999999999999902e-01,8.061807244195131616e-01,1.671641205879510761e-01,-1.665179024590804913e-01
9.899999999999999911e-01,1.646892188049694228e-01,6.377749490039316127e-01,1.586074791041640619e-01
9.909999999999999920e-01,-1.867810878314141443e-01,6.803335491053175144e-01,4.836842559646632456e-01
9.919999999999999929e-01,5.075015563287651327e-02,2.420187535377135712e-01,5.086531863225596251e-01
9.929999999999999938e-01,6.774472220331534400e-01,-3.149593972314423951e-01,2.506682910890661864e-01
9.939999999999999947e-01,1.129256870355304088e+00,-5.130873355880843922e-01,-5.493045049466185881e-02
9.949999999999999956e-01,9.936357715069341623e-01,-1.913299681918820550e-01,-1.413020396383093680e-01
9.959999999999999964e-01,3.750909377478762186e-01,3.153132048819354272e-01,8.004844329197807751e-02
9.969999999999999973e-01,-1.794193176410872614e-01,5.477490716855767383e-01,4.652543921240874791e-01
9.979999999999999982e-01,-2.103656973640812278e-01,2.496156091430094259e-01,6.384965696576549998e-01
9.989999999999999991e-01,3.051679330165851800e-01,-3.297539529510447043e-01,4.945820446705669338e-01
1.000000000000000000e+00,8.860201732466688185e-01,-7.026155661625277382e-01,1.564636561077260846e-01
1.000999999999999890e+00,9.960741070772004546e-01,-5.441148228422606481e-01,-9.579495078886463011e-02
1.002000000000000002e+00,5.151639881655529773e-01,-1.999180860449445776e-02,-5.944851158710363556e-03
1.002999999999999892e+00,-1.556160860984188710e-01,3.503861279208314583e-01,3.344359387409192585e-01
1.004000000000000004e+00,-4.637612955098708856e-01,2.361031657148766894e-01,6.437974764101633829e-01
1.004999999999999893e+00,-1.441868910130953418e-01,-2.964502592228030475e-01,6.504887583581623334e-01
1.006000000000000005e+00,4.832913675600901682e-01,-7.862950879283336914e-01,3.510262236689424831e-01
1.006999999999999895e+00,8.453841017512974121e-01,-8.048491483549133907e-01,-5.708492473196570376e-03
1.008000000000000007e+00,5.714656166989998676e-01,-3.692339656364168610e-01,-9.792999979108606146e-02
1.008999999999999897e+00,-1.146019438376289779e-01,1.303522751467559304e-01,1.447446843687640594e-01
1.010000000000000009e+00,-6.444770556325861710e-01,2.126121716555087471e-01,4.944423980776196381e-01
1.010999999999999899e+00,-5.816468760673380034e-01,-2.049101497866465116e-01,6.695304575748207698e-01
1.012000000000000011e+00,-6.517441842468301404e-03,-7.670300037012860450e-01,4.873696620788566247e-01
1.012999999999999901e+00,5.264439142456265319e-01,-9.625034418664064617e-01,9.067319273160373561e-02
1.014000000000000012e+00,5.318491379359759907e-01,-6.342148060144158217e-01,-1.735469058929968167e-01
1.014999999999999902e+00,-4.123943563295089793e-02,-7.945951778542810484e-02,-7.183871197786359519e-02
1.016000000000000014e+00,-7.255004732117639188e-01,1.946959357757803710e-01,2.453138059234435953e-01
1.016999999999999904e+00,-9.214151729743038644e-01,-6.222486372923034803e-02,5.482967863550636256e-01
1.018000000000000016e+00,-4.972004745208707943e-01,-6.215794770801411628e-01,5.241662059817279173e-01
1.018999999999999906e+00,1.387592523824659752e-01,-9.749099554294783365e-01,1.910116990505563161e-01
1.020000000000000018e+00,4.144929403948179325e-01,-8.026719372894599580e-01,-1.899797354309140374e-01
1.020999999999999908e+00,2.522675598845932482e-02,-2.542541556086534982e-01,-2.967648006533003535e-01
1.022000000000000020e+00,-6.681833156646191929e-01,1.813129540013737606e-01,-5.545324541808523827e-02
1.022999999999999909e+00,-1.111202656775044817e+00,1.286353167386264651e-01,3.146115524549193965e-01
1.024000000000000021e+00,-9.113514643446670727e-01,-3.595686327103684299e-01,4.653261984999035872e-01
1.024999999999999911e+00,-2.709590584068954922e-01,-8.264832283679286462e-01,2.350090276311932735e-01
1.026000000000000023e+00,2.424141046188093007e-01,-8.472567544397724415e-01,-1.659070392067202027e-01
1.026999999999999913e+00,1.385034010535916016e-01,-3.699205395071726299e-01,-4.292674635947439921e-01
1.028000000000000025e+00,-4.955058942066423167e-01,1.842333039954102691e-01,-3.434543364214411310e-01
1.028999999999999915e+00,-1.109351828951116614e+00,3.372199811601920838e-01,1.382510262553195320e-02
1.030000000000000027e+00,-1.166484139539340381e+00,-4.004106098437405781e-02,3.084464919768368230e-01
1.030999999999999917e+00,-6.268457413974369841e-01,-5.619344639920677009e-01,2.632322746686686643e-01
1.032000000000000028e+00,3.084797586241450063e-02,-7.574451911982543750e-01,-1.009992587785392554e-01
1.032999999999999918e+00,2.404451595393156393e-01,-4.203646784476991471e-01,-4.851293843089632407e-01
1.034000000000000030e+00,-2.075273920442323727e-01,1.766603924922822977e-01,-5.715457887893169442e-01
1.034999999999999920e+00,-9.030449044167107031e-01,5.120698702052834950e-01,-3.046272800662863656e-01
1.036000000000000032e+00,-1.210773032737451294e+00,3.032014083775824154e-01,7.548440060481112490e-02
1.036999999999999922e+00,-8.729565511941745903e-01,-2.101598127162719043e-01,2.115198996794722675e-01
1.038000000000000034e+00,-1.621437535630346205e-01,-5.681290154655614932e-01,-7.839621436569802621e-03
1.038999999999999924e+00,2.953926881095300105e-01,-4.046491180431016632e-01,-4.214815133932329205e-01
1.040000000000000036e+00,1.168278242583482424e-01,1.535532945461305088e-01,-6.666837789298030170e-01
1.040999999999999925e+00,-5.340986816058368447e-01,6.294515790540562428e-01,-5.639809664972907921e-01
1.042000000000000037e+00,-1.041967317643711644e+00,6.098171678909741766e-01,-1.817169731940104227e-01
1.042999999999999927e+00,-9.633002141644001481e-01,1.542016962163000604e-01,1.304453363051141235e-01
1.044000000000000039e+00,-3.089251476794352413e-01,-3.085511723308007603e-01,7.205562265985106241e-02
1.044999999999999929e+00,3.357720860348594183e-01,-3.473476020638718853e-01,-2.856502107812114444e-01
1.046000000000000041e+00,4.326562383485528240e-01,1.229501037856571000e-01,-6.552627590191241191e-01
1.046999999999999931e+00,-6.316439071344510936e-02,6.691173294357068979e-01,-7.239406793153043695e-01
1.048000000000000043e+00,-7.115615239041453988e-01,8.460295312052381611e-01,-4.100232696960450784e-01
1.048999999999999932e+00,-8.863064560925771884e-01,4.949127474727011422e-01,-4.669946515194511524e-03
1.050000000000000044e+00,-4.142441816526318821e-01,-2.145940544970248443e-02,1.445690262653082647e-01
1.050999999999999934e+00,3.087154140090235255e-01,-2.547701064108976454e-01,-8.592557229001536456e-02
1.052000000000000046e+00,7.138629053798801749e-01,5.172051241891718193e-02,-4.888278468010217592e-01
1.052999999999999936e+00,4.151257364870895583e-01,6.083818483358136575e-01,-7.099809593414468933e-01
1.054000000000000048e+00,-2.376151338928298995e-01,9.474660152114654510e-01,-5.624513174314508257e-01
1.054999999999999938e+00,-6.701162629032828555e-01,7.572806440537332984e-01,-1.466744970840794249e-01
1.056000000000000050e+00,-4.389370665610895506e-01,2.172646577729331896e-01,1.732820548905384950e-01
1.056999999999999940e+00,2.575693586278990921e-01,-1.521515795106012925e-01,1.240184178603915416e-01
1.058000000000000052e+00,8.442979419618101833e-01,-4.556684349583978860e-02,-2.278148113671618624e-01
1.058999999999999941e+00,8.311601793441752983e-01,4.647502927179676391e-01,-5.650797070117357102e-01
1.060000000000000053e+00,2.662799188447976806e-01,8.962129927368457372e-01,-5.943161591956485079e-01
1.060999999999999943e+00,-3.389260345018910714e-01,8.936402645448593418e-01,-2.458184411029077365e-01
1.062000000000000055e+00,-3.944100333062606767e-01,4.135913787080605641e-01,1.689137474082369750e-01
1.062999999999999945e+00,1.438109916738671556e-01,-8.240071194966014367e-02,3.050222600585800192e-01
1.064000000000000057e+00,8.487048813929373159e-01,-1.683411863133289776e-01,9.702779035555343656e-02
1.064999999999999947e+00,1.100412497568029391e+00,2.210845199566414676e-01,-3.063839957684464932e-01
1.066000000000000059e+00,7.165592764342831877e-01,7.207707581153643961e-01,-5.206900179030393705e-01
1.066999999999999948e+00,4.389102215195414547e-02,8.788844155147750303e-01,-3.270665537970984249e-01
1.068000000000000060e+00,-2.974629439353648763e-01,5.410606181888995003e-01,1.078005300689491297e-01
1.068999999999999950e+00,2.205981615992551326e-02,-1.260691058235643806e-02,4.201550025133491961e-01
1.070000000000000062e+00,7.048610608480141426e-01,-2.937842018700371760e-01,3.730421330622921139e-01
1.070999999999999952e+00,1.186534096664430216e+00,-6.894829405209038087e-02,1.377626831769673127e-02
1.072000000000000064e+00,1.038952941653172868e+00,4.386998420089140427e-01,-3.222054338721926925e-01
1.072999999999999954e+00,4.039928521388051474e-01,7.438763237390417782e-01,-3.243089075308184799e-01
1.074000000000000066e+00,-1.537632878964459993e-01,5.499960526367836389e-01,4.110114679791000009e-02
1.074999999999999956e+00,-1.384524766388855188e-01,1.377467776289314702e-02,4.488077480986816803e-01
1.076000000000000068e+00,4.398856938100964564e-01,-3.939800855771613541e-01,5.900371465732200393e-01
1.076999999999999957e+00,1.047745424186293794e+00,-3.543372949365483637e-01,3.333915918846870885e-01
1.078000000000000069e+00,1.163477926465925849e+00,8.369581288035225775e-02,-5.770188787386919954e-02
1.078999999999999959e+00,6.613230132505233394e-01,4.906840150260939892e-01,-2.481553462030162693e-01
1.080000000000000071e+00,-1.189885522095835563e-02,4.801779791165816658e-01,-5.081866006532286678e-02
1.080999999999999961e+00,-2.751873507109570127e-01,3.718581601083772309e-02,3.752444662983921431e-01
1.082000000000000073e+00,8.801457841106603841e-02,-4.789916084399718499e-01,6.671504220153885445e-01
1.082999999999999963e+00,7.408124074732796993e-01,-6.008044328026922454e-01,5.866101580696708728e-01
1.084000000000000075e+00,1.086154648866236805e+00,-2.705084065479037569e-01,2.197729403300543172e-01
1.084999999999999964e+00,8.022537729392363870e-01,1.912562844906324222e-01,-1.222251425890132637e-01
1.086000000000000076e+00,1.185106334171876358e-01,3.469245384723285142e-01,-1.117936117837075721e-01
1.086999999999999966e+00,-3.808724079913148874e-01,3.765198616649999969e-02,2.410058598354506976e-01
1.088000000000000078e+00,-2.829671271355621021e-01,-4.843429451773699768e-01,6.251478533552236039e-01
1.088999999999999968e+00,3.043372504512252275e-01,-7.753367854418130589e-01,7.282018241179668561e-01
1.090000000000000080e+00,8.143131974249775418e-01,-5.920818339436798583e-01,4.568946813601824641e-01
1.090999999999999970e+00,7.823882498702570132e-01,-1.117577075814308457e-01,3.479497563447310482e-02
1.092000000000000082e+00,2.008039094720847906e-01,1.851509558088351159e-01,-1.398093069882530293e-01
1.092999999999999972e+00,-4.368865153639699961e-01,4.515199320986858222e-02,4.693997966651286546e-02
1.094000000000000083e+00,-6.029375091262716424e-01,-4.278835564122011603e-01,4.552321373690697559e-01
1.094999999999999973e+00,-1.888303178295711870e-01,-8.135388773960500197e-01,7.133092028079830449e-01
1.096000000000000085e+00,4.251515543968413802e-01,-7.862453356447549613e-01,5.958699807155818373e-01
1.096999999999999975e+00,6.433850838126229377e-01,-3.825674161997807410e-01,2.020536868554280718e-01
1.098000000000000087e+00,2.594439788502922450e-01,3.524254127255038033e-02,-1.421338183857246973e-01
1.098999999999999977e+00,-4.238300733723885938e-01,6.956605336569232634e-02,-1.370162756051164221e-01
1.100000000000000089e+00,-8.271344294565422528e-01,-3.084852794664170172e-01,1.930247411532867441e-01
1.100999999999999979e+00,-6.383735976495407138e-01,-7.510391525875370622e-01,5.502012110367272557e-01
1.102000000000000091e+00,-4.744561855119375920e-02,-8.711210239943912859e-01,6.138611435534205851e-01
1.102999999999999980e+00,3.828448044214301516e-01,-5.646534030303003160e-01,3.075085801294026311e-01
1.104000000000000092e+00,2.482529220973438144e-01,-9.697063440168837700e-02,-1.010372461184039644e-01
1.104999999999999982e+00,-3.461209270854779252e-01,1.021700804234396964e-01,-2.838984318493026349e-01
1.106000000000000094e+00,-9.131564572116502854e-01,-1.237581074889898131e-01,-1.022024521690451382e-01
1.106999999999999984e+00,-9.503901412099343693e-01,-5.593229386547864390e-01,2.854207909479072325e-01
1.108000000000000096e+00,-4.844095080221741956e-01,-8.169091051319683494e-01,5.025980383873404067e-01
1.108999999999999986e+00,7.187532850236172388e-02,-6.276316445213105943e-01,3.625704845728541237e-01
1.110000000000000098e+00,2.151331645990448016e-01,-1.864379119927199735e-01,-4.097331624955357493e-02
1.110999999999999988e+00,-2.280857286105320014e-01,1.687535046671053696e-01,-3.652238647296390806e-01
1.112000000000000099e+00,-8.390757896321757725e-01,9.996638773123639465e-02,-3.601045311617818712e-01
1.112999999999999989e+00,-1.127520976327194724e+00,-2.922635724853815953e-01,-4.579897546916581602e-02
1.114000000000000101e+00,-8.197976083091402799e-01,-6.276432505538996898e-01,2.919126682657904870e-01
1.114999999999999991e+00,-2.179536437984847530e-01,-5.973147849082788285e-01,3.231032444926378311e-01
1.116000000000000103e+00,1.439570982834681434e-01,-2.046535900299627231e-01,3.508725296517779813e-02
1.116999999999999993e+00,-5.977213981748569910e-02,2.088409288860932911e-01,-3.762669716298446820e-01
1.118000000000000105e+00,-6.280381241970813821e-01,3.008216668563598595e-01,-5.367146069550450260e-01
1.118999999999999995e+00,-1.068274267735947136e+00,3.094834733399086726e-02,-3.443312298033521235e-01
1.120000000000000107e+00,-9.924857777123308189e-01,-3.503300102726184528e-01,2.302485840961001826e-02
1.120999999999999996e+00,-4.612914286638005179e-01,-4.583353659953111059e-01,2.182879716889121746e-01
1.122000000000000108e+00,5.286507525748045805e-02,-1.766500732343637137e-01,8.274623704640943211e-02
1.122999999999999998e+00,1.324539718757840323e-01,2.591776513089552036e-01,-3.057597499667578655e-01
1.124000000000000110e+00,-3.157370382641736528e-01,4.904478738262518789e-01,-6.029632112672774769e-01
1.125000000000000000e+00,-8.398439064895000250e-01,3.357227004283237504e-01,-5.799888024931826314e-01
1.125999999999999890e+00,-9.756054527359404593e-01,-2.894425070485423870e-02,-2.498399161500630405e-01
1.127000000000000002e+00,-5.926833570514735694e-01,-2.660311168752818034e-01,6.345236373006368780e-02
1.127999999999999892e+00,-1.161821992115674718e-02,-1.184977353473517792e-01,9.583942917806581585e-02
1.129000000000000004e+00,2.887773012937497885e-01,2.808385607934169581e-01,-1.843831474674982318e-01
1.129999999999999893e+00,5.467003304538559788e-02,6.159426943595349702e-01,-5.546068834571029615e-01
1.131000000000000005e+00,-4.580109678193138856e-01,5.957577572553498513e-01,-6.929547383369418778e-01
1.131999999999999895e+00,-7.900219705141402482e-01,2.678035004821821552e-01,-4.739683928823378301e-01
1.133000000000000007e+00,-6.042158222358903208e-01,-4.415567255617332959e-02,-1.178792177866123392e-01
1.133999999999999897e+00,-5.252684584890197211e-02,-4.590067603240517019e-02,9.597926433428297099e-02
1.135000000000000009e+00,4.121560772793087524e-01,2.561951481728114710e-01,-4.643230247129653127e-02
1.135999999999999899e+00,4.132381920358043637e-01,6.252949854651197459e-01,-3.893801927679673147e-01
1.137000000000000011e+00,-2.640894984300901083e-02,7.437578724806634956e-01,-6.494692887005852899e-01
1.137999999999999901e+00,-4.625919462097906609e-01,5.005988474117648579e-01,-5.814896855908883166e-01
1.139000000000000012e+00,-4.927352293039072850e-01,1.475777086674963656e-01,-2.550402110908978615e-01
1.139999999999999902e+00,-7.749377171266498554e-02,4.388114607691825063e-03,5.131892965640417331e-02
1.141000000000000014e+00,4.669260306311455166e-01,2.146174693564768809e-01,9.181047173762878211e-02
1.141999999999999904e+00,6.845425304083403439e-01,5.507373575017158185e-01,-1.582773018488773387e-01
1.143000000000000016e+00,4.177101250449240522e-01,7.578046695901751173e-01,-4.807107838393662735e-01
1.143999999999999906e+00,-6.327537815173428504e-02,6.373238946450734410e-01,-5.772478106431586653e-01
1.145000000000000018e+00,-2.993226882877938477e-01,2.948443626654578265e-01,-3.511461153288926718e-01
1.145999999999999908e+00,-6.571284805718034805e-02,4.761873161718004066e-02,3.063978788293340947e-03
1.147000000000000020e+00,4.672525437968755857e-01,9.319005246411669885e-02,2.070236312321182548e-01
1.147999999999999909e+00,8.364644404356922358e-01,3.913276111690549008e-01,8.804870666218818365e-02
1.149000000000000021e+00,7.559706085846396029e-01,6.609500082847455937e-01,-2.359893576932283743e-01
1.149999999999999911e+00,3.268797104084679717e-01,6.416223224861844487e-01,-4.460602359489368451e-01
1.151000000000000023e+00,-5.453339074714323026e-02,3.605965080319487037e-01,-3.585598604870255945e-01
1.151999999999999913e+00,-3.450464287926188062e-02,5.679148853582467044e-02,-3.390047757742477991e-02
1.153000000000000025e+00,3.942356108077183507e-01,-2.352978842377913618e-02,2.709054261327512036e-01
1.153999999999999915e+00,8.407803235234853068e-01,1.717172439136523399e-01,3.018268754605984427e-01
1.155000000000000027e+00,9.421525763273865817e-01,4.427194784920503445e-01,6.790474699661835922e-02
1.155999999999999917e+00,6.279698096283351516e-01,5.462806886549254060e-01,-2.350454902119705758e-01
1.157000000000000028e+00,1.880334886647468673e-01,3.397724392096637680e-01,-2.941012346051771198e-01
1.157999999999999918e+00,1.162670902937403515e-02,1.904399250358687276e-02,-7.114679660812081585e-02
1.159000000000000030e+00,2.545424467702596116e-01,-1.720817999649486563e-01,2.747684624721496438e-01
1.159999999999999920e+00,7.076917893253517056e-01,-7.198492813399486046e-02,4.435811811262188042e-01
1.161000000000000032e+00,9.685203190823629127e-01,1.797185321593196827e-01,3.413451607944352206e-01
1.161999999999999922e+00,7.955889084837824976e-01,3.487233187095326592e-01,4.008199692318160229e-02
1.163000000000000034e+00,3.659637455561649544e-01,2.454443139673065932e-01,-1.490579373948935360e-01
1.163999999999999924e+00,3.226894888677797613e-02,-2.780524292964288782e-02,-7.023725222642980548e-02
1.165000000000000036e+00,7.999082082770471447e-02,-2.943713030861480617e-01,2.413627830032456789e-01
1.165999999999999925e+00,4.490269069445699812e-01,-3.081156006952955884e-01,4.995822020817596854e-01
1.167000000000000037e+00,7.924704382851712747e-01,-1.225729656135013113e-01,5.163621080739529967e-01
1.167999999999999927e+00,7.995866258532637882e-01,9.812647571900880161e-02,2.990696539954881827e-01
1.169000000000000039e+00,4.565392553183213464e-01,1.167702958969054072e-01,2.350678184261188047e-02
1.169999999999999929e+00,4.489455825623469426e-02,-1.033715416669191284e-01,-4.333589166449777763e-02
1.171000000000000041e+00,-1.016189650284375079e-01,-3.627626949720864080e-01,1.628527545413808175e-01
1.171999999999999931e+00,1.236115833046488727e-01,-4.941514044405649897e-01,4.598927483981031794e-01
1.173000000000000043e+00,4.878043654214997971e-01,-3.640825078828912598e-01,5.921094708343715984e-01
1.173999999999999932e+00,6.504748252292759103e-01,-1.428638573307668969e-01,4.723540066642843427e-01
1.175000000000000044e+00,4.535358825854945986e-01,-3.698619290847471319e-02,1.987926879091342358e-01
1.175999999999999934e+00,2.490876934035539739e-02,-1.472268835395794950e-01,5.409166258763911314e-03
1.177000000000000046e+00,-2.623576303519165043e-01,-4.035292428199336312e-01,6.704734567780559762e-02
1.177999999999999936e+00,-2.015524551342419424e-01,-5.770082982229517432e-01,3.177135564040550197e-01
1.179000000000000048e+00,1.142568229711000555e-01,-5.343010480851911881e-01,5.433137986118212748e-01
1.179999999999999938e+00,3.749468864249973499e-01,-3.554041542510379403e-01,5.520255012096993985e-01
1.181000000000000050e+00,3.234189887037802746e-01,-1.686427011341569138e-01,3.187655349673776395e-01
