time,acc_x,acc_y,acc_z
0.000000000000000000e+00,9.599372951777232488e-02,8.230300734633293203e-02,3.725149754062992424e-02
1.000000000000000021e-03,1.751971825400057969e-01,1.441093136165379207e-01,1.048192247008656736e-01
2.000000000000000042e-03,1.773602286862367983e-01,1.336212424640448593e-01,1.032762396709396291e-01
3.000000000000000062e-03,9.636456838764471955e-02,4.931478019206394364e-02,7.350749683036762738e-02
4.000000000000000083e-03,-2.117586868897513436e-02,-3.682563837621267988e-02,-2.778193692125095066e-02
5.000000000000000104e-03,-1.177630202333067033e-01,-1.253449498398805928e-01,-5.541269239503176375e-02
6.000000000000000125e-03,-1.970224922061009631e-01,-1.599681172762570380e-01,-1.115843634434699333e-01
7.000000000000000146e-03,-1.541387769714126776e-01,-1.157082076756420635e-01,-1.020661148536261831e-01
8.000000000000000167e-03,-5.478404618363653250e-02,-1.822681903791857974e-02,-4.252966657388893706e-02
8.999999999999999320e-03,8.041828248998016127e-02,8.093120566511557978e-02,4.340720202237141612e-02
1.000000000000000021e-02,1.641070544153886701e-01,1.472550012081236537e-01,1.002368652605990090e-01
1.099999999999999936e-02,1.998267113191209976e-01,1.420754990514123406e-01,1.305625012367440663e-01
1.200000000000000025e-02,1.025683961687221812e-01,8.077078306975808697e-02,1.011364914230240553e-01
1.299999999999999940e-02,-8.102111183072809031e-03,-2.125702464196098720e-02,7.006470829596304732e-03
1.400000000000000029e-02,-1.080358437128044191e-01,-1.265941934051697526e-01,-5.818038973386339963e-02
1.499999999999999944e-02,-1.987491540468179496e-01,-1.647618015070511643e-01,-1.112991448301459824e-01
1.600000000000000033e-02,-1.814681805098566081e-01,-1.138183065555857104e-01,-1.110133379453068919e-01
1.700000000000000122e-02,-7.997379233638633733e-02,-3.520212686352840875e-02,-7.370436667830070065e-02
1.799999999999999864e-02,4.429174385721777740e-02,4.754946655313632697e-02,-7.106244977850978417e-04
1.899999999999999953e-02,1.609802807744262765e-01,1.431451482274997411e-01,6.208401170438979794e-02
2.000000000000000042e-02,1.719431750441688944e-01,1.399319110515752362e-01,1.065499605523198418e-01
2.100000000000000130e-02,1.507225620314299741e-01,1.028020460646611733e-01,8.497362497261755354e-02
2.199999999999999872e-02,1.829046079648349518e-03,-2.582239919528548505e-02,4.788788034118927894e-02
2.299999999999999961e-02,-1.017414940564098647e-01,-1.090334647553650171e-01,-5.094967939355010689e-02
2.400000000000000050e-02,-1.759042339141207445e-01,-1.530079043593867150e-01,-8.298721481913387543e-02
2.500000000000000139e-02,-1.946434872433255858e-01,-1.148313049683964276e-01,-8.394633239122649415e-02
2.599999999999999881e-02,-9.643196984924989890e-02,-3.378418556674533946e-02,-9.051653661526927463e-02
2.699999999999999969e-02,2.498965449066212902e-02,5.584696347437992370e-02,-2.511240513019121282e-02
2.800000000000000058e-02,1.340807342808952030e-01,1.237139225160443917e-01,4.587807205136603533e-02
2.900000000000000147e-02,1.849118642862065121e-01,1.631020027330879751e-01,8.302949725628092081e-02
2.999999999999999889e-02,1.639371270355707011e-01,1.063518408502707596e-01,1.026729929694568944e-01
3.099999999999999978e-02,6.123751836622550598e-02,1.042808399191434351e-02,4.112700077527040726e-02
3.200000000000000067e-02,-7.428292106679519613e-02,-1.062521785782462036e-01,-1.614839652882250898e-02
3.300000000000000155e-02,-1.540492753439711981e-01,-1.316758719653245424e-01,-6.534835382512811652e-02
3.400000000000000244e-02,-1.894222108436830199e-01,-1.391068683630026781e-01,-1.159352354956625364e-01
3.500000000000000333e-02,-1.225524498876624097e-01,-5.054988477904572008e-02,-7.852418839626179592e-02
3.599999999999999728e-02,4.767952602595358809e-03,6.119670323596954065e-02,-2.877052982780634385e-02
3.699999999999999817e-02,9.570873726472796383e-02,1.162544919066767352e-01,4.756949695820870266e-02
3.799999999999999906e-02,1.999221920142939812e-01,1.844218000485889353e-01,7.865156602224962490e-02
3.899999999999999994e-02,1.653904175434696977e-01,1.061181135468380055e-01,1.137287580896849670e-01
4.000000000000000083e-02,9.928087555590904556e-02,1.806065155725238361e-02,8.688465982832876966e-02
4.100000000000000172e-02,-3.541724854130153671e-02,-7.772845860444507760e-02,2.240366202666673953e-02
4.200000000000000261e-02,-1.549694756966830955e-01,-1.375534318714162207e-01,-5.006090579827807141e-02
4.299999999999999656e-02,-1.754087391659620576e-01,-1.534105615528120192e-01,-1.015164854350120854e-01
4.399999999999999745e-02,-1.506413983536213919e-01,-7.243311981568126279e-02,-9.530700415718011687e-02
4.499999999999999833e-02,-5.784103915340416818e-02,3.872530070972589333e-02,-6.113103496989476943e-02
4.599999999999999922e-02,1.041536555607100456e-01,1.089770246365555778e-01,2.538155528168718408e-02
4.700000000000000011e-02,1.666237939235639398e-01,1.371368210126461262e-01,9.087317795493671246e-02
4.800000000000000100e-02,1.946282341560165996e-01,1.165726881055461905e-01,9.514382259084382121e-02
4.900000000000000189e-02,1.134368588128149419e-01,2.383741302500617595e-02,9.830155579055849246e-02
5.000000000000000278e-02,-2.049749122915472954e-02,-7.586170723988627795e-02,5.057189903442131651e-02
5.099999999999999672e-02,-1.256027908715893482e-01,-1.553761220751046501e-01,-4.060126108317747146e-02
5.199999999999999761e-02,-1.965893896857638656e-01,-1.508039420472194470e-01,-1.076236606559587694e-01
5.299999999999999850e-02,-1.511452584996804405e-01,-7.927716422964438403e-02,-9.017402482504668915e-02
5.399999999999999939e-02,-5.699672221268978906e-02,3.393274708210956836e-03,-7.315611889832941694e-02
5.500000000000000028e-02,4.824529989079086312e-02,9.701503665961946909e-02,-1.135427693155687499e-02
5.600000000000000117e-02,1.639384202591723516e-01,1.512771546800831535e-01,8.063647538699651729e-02
5.700000000000000205e-02,1.980368140602566385e-01,1.348542947416763449e-01,1.324079639226462546e-01
5.800000000000000294e-02,1.372029090195902301e-01,5.378476617818478411e-02,1.004447619947473752e-01
5.899999999999999689e-02,-6.699335422247783452e-03,-7.092003072310044953e-02,6.052502946595453986e-02
5.999999999999999778e-02,-1.123872301065168833e-01,-1.082068245839738485e-01,-7.798699851125079352e-03
6.099999999999999867e-02,-1.929761597651822314e-01,-1.377679677172512773e-01,-8.285028931331663016e-02
6.199999999999999956e-02,-1.706683866418073348e-01,-9.449162707822826579e-02,-9.481022547469734885e-02
6.300000000000000044e-02,-9.676557076321597173e-02,1.434859555599191477e-05,-9.465419053687280926e-02
6.400000000000000133e-02,3.865670892614483933e-02,1.066264211028056241e-01,-5.360921024981505495e-02
6.500000000000000222e-02,1.463920946397906375e-01,1.452823454763695066e-01,2.100453038237036843e-02
6.600000000000000311e-02,1.923205939430463474e-01,1.484556201485540683e-01,8.650135317620367970e-02
6.700000000000000400e-02,1.419554331488540877e-01,6.163229755809837562e-02,1.289110715379444827e-01
6.800000000000000488e-02,7.031313958847726364e-02,-6.090270416819902610e-02,9.132589355069897774e-02
6.900000000000000577e-02,-6.808028523168331569e-02,-1.346878204079314245e-01,4.079366008877991293e-03
7.000000000000000666e-02,-1.599830812706204142e-01,-1.553191002113880337e-01,-5.479420641922148894e-02
7.099999999999999367e-02,-1.937435577114517971e-01,-1.039775124865124634e-01,-1.016324341043036567e-01
7.199999999999999456e-02,-1.236021899291373100e-01,-1.787928740956636411e-02,-8.865517781897618022e-02
7.299999999999999545e-02,1.149381351465757206e-02,7.912398191907468736e-02,-4.768760936717759275e-02
7.399999999999999634e-02,1.100396540690622010e-01,1.407102215397125766e-01,4.487613996995508392e-03
7.499999999999999722e-02,1.784039044521187611e-01,1.459319787990307482e-01,7.021840245587625262e-02
7.599999999999999811e-02,1.687696119326807798e-01,8.927959493515583156e-02,1.309023363487327174e-01
7.699999999999999900e-02,8.441281370623900104e-02,-1.300672671338397139e-02,8.131102419105902535e-02
7.799999999999999989e-02,-5.509796580380151715e-02,-1.273996281213629622e-01,2.408779270260478361e-02
7.900000000000000078e-02,-1.591199931421712344e-01,-1.430062633345390022e-01,-3.585329374910217054e-02
8.000000000000000167e-02,-2.129629407655653506e-01,-1.274185809039430073e-01,-8.285931952829042602e-02
8.100000000000000255e-02,-1.401998163936797881e-01,-4.001423745299272083e-02,-1.011824605720816062e-01
8.200000000000000344e-02,-1.220698390529190462e-03,6.120145253607597868e-02,-9.221158859399920804e-02
8.300000000000000433e-02,9.393978937415282948e-02,1.192781285815328607e-01,1.324135882906443424e-03
8.400000000000000522e-02,1.515377718716427735e-01,1.449855826033566164e-01,6.831022801734552841e-02
8.500000000000000611e-02,1.895718101451305260e-01,9.824491134990123720e-02,1.068365820265676364e-01
8.599999999999999312e-02,9.959520461027772387e-02,2.973983533855249859e-03,1.081087802811062371e-01
8.699999999999999400e-02,-8.970752531945401162e-03,-1.026763703567819125e-01,6.650502934824364942e-02
8.799999999999999489e-02,-1.430401926239828758e-01,-1.690798303325949103e-01,-2.903031588088658688e-02
8.899999999999999578e-02,-1.976512352834384756e-01,-1.257894365848507279e-01,-8.565697112920644951e-02
8.999999999999999667e-02,-1.440983146273311644e-01,-4.480269385876305827e-02,-1.326220287047395752e-01
9.099999999999999756e-02,-6.557891269565313541e-02,4.346034948578476886e-02,-8.996354943943184190e-02
9.199999999999999845e-02,6.578271583227851549e-02,1.308577015066562654e-01,-3.113315594098144817e-02
9.299999999999999933e-02,1.425819126911886947e-01,1.571676603543351591e-01,3.687884409295652532e-02
9.400000000000000022e-02,2.245153064837949464e-01,1.078806701385024852e-01,9.593023059561804622e-02
9.500000000000000111e-02,1.161164991615117603e-01,5.604934710616598335e-03,1.008021145759070564e-01
9.600000000000000200e-02,-1.373578116649061716e-02,-9.429820841200858839e-02,6.695898566723913758e-02
9.700000000000000289e-02,-1.067371157183823749e-01,-1.448842387195873049e-01,-1.117339556990174648e-02
9.800000000000000377e-02,-1.737081467285415681e-01,-1.345508271003386658e-01,-7.787242941947319919e-02
9.900000000000000466e-02,-1.831169174057894478e-01,-8.308357080740789991e-02,-1.021051143649046172e-01
1.000000000000000056e-01,-9.939799122372651452e-02,4.582117473942944746e-02,-8.361784320440751594e-02
1.010000000000000064e-01,4.674151035726435699e-02,1.091641452661179651e-01,-5.734487193005959049e-02
1.019999999999999934e-01,1.632087386268192830e-01,1.628977091869321103e-01,3.432620224942471016e-02
1.029999999999999943e-01,1.767610911214322622e-01,1.262950445531950960e-01,7.493801458869905896e-02
1.039999999999999952e-01,1.348685875346736229e-01,7.079910389043036524e-03,1.118129322053544594e-01
1.049999999999999961e-01,2.973694825075635581e-02,-7.470896440065452615e-02,7.525969896341330734e-02
1.059999999999999970e-01,-7.440057086011944709e-02,-1.300501874658512025e-01,2.932834186879390917e-02
1.069999999999999979e-01,-1.681085237933517273e-01,-1.475663801702943867e-01,-4.030281690458669547e-02
1.079999999999999988e-01,-1.650150736204286095e-01,-8.474755890098879807e-02,-8.241284866563804157e-02
1.089999999999999997e-01,-1.168982568519388865e-01,2.024620989002839586e-02,-1.164872096392700479e-01
1.100000000000000006e-01,7.269452931668553969e-03,1.264226755488638276e-01,-8.088398037752490832e-02
1.110000000000000014e-01,1.337233405789606255e-01,1.511568536640657268e-01,-3.642089134250858957e-03
1.120000000000000023e-01,1.928601116586606545e-01,1.237760155620777069e-01,7.284432611905854171e-02
1.130000000000000032e-01,1.707734417854737674e-01,2.550420673161262961e-02,1.090875079363233940e-01
1.140000000000000041e-01,6.077784101822208268e-02,-6.528939221394243486e-02,1.008391496490934069e-01
1.150000000000000050e-01,-7.370506336637190625e-02,-1.295774472058202065e-01,5.891801452910336301e-02
1.160000000000000059e-01,-1.685900733399921247e-01,-1.370767938210008530e-01,-1.947960237390469404e-02
1.170000000000000068e-01,-2.009271628537034893e-01,-9.524273443719885601e-02,-9.133416027997813547e-02
1.179999999999999938e-01,-1.124227465340791737e-01,2.006438832694006427e-02,-1.100331546410781985e-01
1.189999999999999947e-01,-1.349142116778659709e-02,1.161944632043556691e-01,-9.716899322987392063e-02
1.199999999999999956e-01,1.117548121612228218e-01,1.445194218175640533e-01,-1.685085420206108506e-02
1.209999999999999964e-01,1.759292132461172664e-01,1.225807799388947961e-01,2.582022493269891736e-02
1.219999999999999973e-01,1.655373225178469188e-01,2.652203655447438191e-02,9.770196145067479299e-02
1.229999999999999982e-01,8.886592775063791028e-02,-6.235559179228230414e-02,1.105893702652660238e-01
1.239999999999999991e-01,-3.255321082504038926e-02,-1.610570541709157311e-01,5.856061797009524256e-02
1.250000000000000000e-01,-1.389217786988529157e-01,-1.469133258821792853e-01,-6.581550320198355924e-03
1.260000000000000009e-01,-2.049894731926695524e-01,-1.021658274138103478e-01,-8.664442589926155125e-02
1.270000000000000018e-01,-1.533203803184530478e-01,2.788561219017487644e-02,-1.090455360088821851e-01
1.280000000000000027e-01,-3.816087475677640978e-02,9.719931952858318347e-02,-9.468900296359501756e-02
1.290000000000000036e-01,8.281999611756074575e-02,1.293566276206659926e-01,-6.056709076608520620e-02
1.300000000000000044e-01,1.430338840375601217e-01,1.335427611321422514e-01,8.186785483968145316e-03
1.310000000000000053e-01,1.746644426060220134e-01,4.163800205972013196e-02,6.503639826022469816e-02
1.320000000000000062e-01,1.062631350204455150e-01,-4.895051731674535805e-02,1.283565461461524115e-01
1.330000000000000071e-01,-9.200619612650626569e-03,-1.242074913265103081e-01,8.202443191225873564e-02
1.340000000000000080e-01,-1.365851092794335975e-01,-1.432849093514750038e-01,4.567408931800850252e-02
1.350000000000000089e-01,-1.818811171219059664e-01,-9.996797825329462039e-02,-3.342683946684659596e-02
1.360000000000000098e-01,-1.679741976620288124e-01,-1.031947785376983832e-02,-9.958542693691226078e-02
1.370000000000000107e-01,-6.757909216106457173e-02,8.783113312552133511e-02,-1.210475030200752755e-01
1.380000000000000115e-01,1.429168330695233281e-02,1.558263772522159862e-01,-6.040162164253438937e-02
1.390000000000000124e-01,1.520694289741668648e-01,1.330812230248663297e-01,-2.513281702554223673e-02
1.400000000000000133e-01,1.774367345457301404e-01,6.626319163639279863e-02,8.468976306399064735e-02
1.409999999999999865e-01,1.266631490688818196e-01,-5.129258586483170096e-02,1.059326537447502908e-01
1.419999999999999873e-01,3.392342514723187957e-02,-1.029338078977056203e-01,7.967724187110955536e-02
1.429999999999999882e-01,-1.070301488344332780e-01,-1.684213615182942325e-01,5.425182577295005470e-02
1.439999999999999891e-01,-1.853026775872638754e-01,-1.047934808018664288e-01,-2.278776610136336138e-03
1.449999999999999900e-01,-1.946996133136889295e-01,-3.639081888438569501e-02,-6.266491291642307948e-02
1.459999999999999909e-01,-7.995640955640447023e-02,6.226883377855617352e-02,-1.211016244381873802e-01
1.469999999999999918e-01,1.430761213360722157e-02,1.463278007027620786e-01,-7.843147089690169493e-02
1.479999999999999927e-01,1.547370040768133725e-01,1.469953732920059319e-01,-1.865127835258770239e-02
1.489999999999999936e-01,1.840621711964989526e-01,9.524776256333519764e-02,5.092880996761953161e-02
1.499999999999999944e-01,1.655918459381393315e-01,-1.862466858262421324e-02,1.042421837927531431e-01
1.509999999999999953e-01,7.029498025813724071e-02,-8.913176863158858709e-02,1.150273074198979034e-01
1.519999999999999962e-01,-7.829918964797942527e-02,-1.460790217233201849e-01,6.997839067940787861e-02
1.529999999999999971e-01,-1.823449767626038609e-01,-1.233157671892073509e-01,2.300791020245846613e-03
1.539999999999999980e-01,-1.913575931351309545e-01,-4.809592197183661100e-02,-8.022590594290857080e-02
1.549999999999999989e-01,-1.297039085377603707e-01,7.824455822141286598e-02,-1.300809085559301026e-01
1.559999999999999998e-01,-6.748895914041337825e-03,1.164369877679525406e-01,-1.067833892924448247e-01
1.570000000000000007e-01,1.074146944216551741e-01,1.556994383573770124e-01,-5.151400553669785443e-02
1.580000000000000016e-01,1.875162489212354178e-01,9.394444138832895586e-02,-1.075863761331609554e-02
1.590000000000000024e-01,1.776950173227455909e-01,7.434267822450807590e-03,9.298134464053010861e-02
1.600000000000000033e-01,8.734524687727039660e-02,-8.448700006502972426e-02,1.202808560317107228e-01
1.610000000000000042e-01,-5.438696964441829679e-02,-1.358329669932968053e-01,9.093264914451842929e-02
1.620000000000000051e-01,-1.364986757181310684e-01,-1.267465074317587204e-01,4.247801802659896542e-02
1.630000000000000060e-01,-1.854025487952977169e-01,-6.269116780804911970e-02,-4.015939996785417715e-02
1.640000000000000069e-01,-1.348195974766601413e-01,4.893384700039616481e-02,-1.140392033785459780e-01
1.650000000000000078e-01,-1.836357875199703601e-02,1.001286513760050179e-01,-9.286720696071222581e-02
1.660000000000000087e-01,8.261415273239297585e-02,1.657211635189813348e-01,-8.440168325510366554e-02
1.670000000000000095e-01,1.694926319082614985e-01,1.092709654706408712e-01,1.177525011552386577e-02
1.680000000000000104e-01,1.910035217786087702e-01,1.540317705655740686e-02,6.372557153355956627e-02
1.690000000000000113e-01,1.233335071819659234e-01,-9.502046208034992114e-02,1.076510351601585591e-01
1.700000000000000122e-01,-2.568050244968335394e-02,-1.481420815548205594e-01,1.068189530838258017e-01
1.710000000000000131e-01,-1.238091845999249735e-01,-1.257900475038131183e-01,5.435155769844748214e-02
1.719999999999999862e-01,-1.918115787809917261e-01,-7.674012996793130870e-02,-2.300811010223568001e-02
1.729999999999999871e-01,-1.824936465768217664e-01,3.981048341020343440e-02,-9.957035717601785130e-02
1.739999999999999880e-01,-5.476786389533160743e-02,9.747300450082618806e-02,-1.032885260730733445e-01
1.749999999999999889e-01,5.798739390486612466e-02,1.732163312244437148e-01,-7.781606099698640255e-02
1.759999999999999898e-01,1.630253515367274808e-01,1.134288790370478056e-01,-4.997014087708381846e-02
1.769999999999999907e-01,1.810283652420018874e-01,1.816153764251255548e-02,3.068536398060046216e-02
1.779999999999999916e-01,1.402799538569654836e-01,-5.214132891023653266e-02,9.530850771801542554e-02
1.789999999999999925e-01,3.427596994483233812e-03,-1.352580845916255825e-01,1.208762163901848791e-01
1.799999999999999933e-01,-9.865215352850666142e-02,-1.329359787056985376e-01,6.795014237130846124e-02
1.809999999999999942e-01,-1.832611011962153869e-01,-9.395620026250606216e-02,-1.265365985137934836e-02
1.819999999999999951e-01,-1.913620755556659225e-01,1.199181606849437920e-02,-8.652373739875889036e-02
1.829999999999999960e-01,-9.268789782621535134e-02,1.275841838055085387e-01,-1.172218099595389029e-01
1.839999999999999969e-01,2.510985380851738641e-02,1.405431080650417774e-01,-1.044908701277746516e-01
1.849999999999999978e-01,1.423581616416624285e-01,1.197629780756896550e-01,-7.072856395738758017e-02
1.859999999999999987e-01,1.950463427983203379e-01,4.788687491903953486e-02,3.634523455167120321e-03
1.869999999999999996e-01,1.604281962811929807e-01,-3.391014667021000767e-02,1.056176536864280591e-01
1.880000000000000004e-01,6.467233858948151504e-02,-1.311446173879591559e-01,1.058578344124654763e-01
1.890000000000000013e-01,-8.625556745120699365e-02,-1.328886713301126177e-01,8.097825455512401571e-02
1.900000000000000022e-01,-1.551858007967965580e-01,-1.054006560202225273e-01,4.917199079655514699e-02
1.910000000000000031e-01,-1.829231198174150752e-01,8.760827152862795883e-03,-1.413960301022551373e-02
1.920000000000000040e-01,-1.208433407614985244e-01,1.091398924680369725e-01,-1.074463219748442444e-01
1.930000000000000049e-01,-1.197067941492938568e-02,1.479467317156165918e-01,-1.265064700621645333e-01
1.940000000000000058e-01,1.074282337459650932e-01,1.339405330428404262e-01,-8.563127421333747991e-02
1.950000000000000067e-01,1.657025278187033157e-01,5.962862811092974058e-02,-9.954513727352516661e-03
1.960000000000000075e-01,1.669342874110820996e-01,-5.021770204049916253e-02,4.347920910749773771e-02
1.970000000000000084e-01,9.176310352602855269e-02,-1.033391173426278925e-01,1.212181803034020067e-01
1.980000000000000093e-01,-3.667268195916726509e-02,-1.572719353654138397e-01,9.431242915838611296e-02
1.990000000000000102e-01,-1.429982802150457921e-01,-9.038181947977898256e-02,3.325172687552237216e-02
2.000000000000000111e-01,-1.725952589531083714e-01,-3.951856319960329184e-02,-2.812279215998747181e-02
2.010000000000000120e-01,-1.434312171047397722e-01,8.264291801892383049e-02,-1.122049120091287433e-01
2.020000000000000129e-01,-4.919736415868649487e-02,1.370383984733424543e-01,-1.181897253710830625e-01
2.030000000000000138e-01,9.242521438617011531e-02,1.204167319729281815e-01,-9.908212408233289803e-02
2.039999999999999869e-01,1.758317047685605816e-01,5.882931716726145371e-02,-2.588585779259579625e-02
2.049999999999999878e-01,1.664800661765717671e-01,-4.176230086707936190e-02,3.804152245046810848e-02
2.059999999999999887e-01,9.811456560000386684e-02,-1.104766580774677875e-01,1.119299247623095489e-01
2.069999999999999896e-01,-2.163557130362884356e-02,-1.535524379743457568e-01,1.257611739990540101e-01
2.079999999999999905e-01,-1.467592735848047281e-01,-8.891263418189783441e-02,6.424883220998689470e-02
2.089999999999999913e-01,-1.848122693466020539e-01,-3.137575755810962513e-02,2.330520089842812864e-02
2.099999999999999922e-01,-1.577446638003132118e-01,7.438073157637645205e-02,-6.556291442754180743e-02
2.109999999999999931e-01,-4.511977754976331800e-02,1.307501026640681130e-01,-9.988430384803638484e-02
2.119999999999999940e-01,5.151950704562575922e-02,1.386486160746074614e-01,-9.634063061259419414e-02
2.129999999999999949e-01,1.354168995009879528e-01,6.644477252225902686e-02,-5.976823894083369004e-02
2.139999999999999958e-01,1.907830711116272893e-01,-3.794529570142926404e-03,2.006594687628738757e-02
2.149999999999999967e-01,1.167946133769070111e-01,-1.129764053235591953e-01,8.919514707074983895e-02
2.159999999999999976e-01,8.702818444340662540e-03,-1.772769563689294003e-01,8.985263496845116715e-02
2.169999999999999984e-01,-9.749429289818341282e-02,-1.319060336882997564e-01,6.153862580354108741e-02
2.179999999999999993e-01,-1.693244784630713595e-01,-3.624641281857012703e-02,2.625069600404936199e-02
2.190000000000000002e-01,-1.831086294807413861e-01,3.762786490798242234e-02,-4.696439937751889504e-02
2.200000000000000011e-01,-1.059641238862720075e-01,1.295321681788115797e-01,-7.923330706348941099e-02
2.210000000000000020e-01,2.595110014521812697e-02,1.499289124022544217e-01,-1.239720685725431981e-01
2.220000000000000029e-01,1.599971912449822120e-01,9.837414847010923780e-02,-8.583979313534813305e-02
2.230000000000000038e-01,1.884001257801196372e-01,3.633168209616404517e-03,-1.687807749647610850e-02
2.240000000000000047e-01,1.469457257812286366e-01,-1.058529294724618042e-01,4.902140461565734908e-02
2.250000000000000056e-01,2.155382366458341581e-02,-1.376530884391549969e-01,7.051482058991420665e-02
2.260000000000000064e-01,-7.249783815466127879e-02,-1.365997729174003306e-01,9.245091373190050810e-02
2.270000000000000073e-01,-1.479034962703301426e-01,-6.539938655989123439e-02,5.659980390045166870e-02
2.280000000000000082e-01,-1.939699994712922315e-01,4.988288751365271834e-02,-1.887239890728891617e-02
2.290000000000000091e-01,-1.167292198701598699e-01,1.267761800028103236e-01,-8.995295458376070807e-02
2.300000000000000100e-01,1.201821215247315597e-02,1.337382755386892774e-01,-1.101548304821205748e-01
2.310000000000000109e-01,1.189709799100591298e-01,1.094449866006524524e-01,-7.627373960731359537e-02
2.320000000000000118e-01,2.091484738467123128e-01,-9.835399398813225377e-03,-9.472548233595536049e-03
2.330000000000000127e-01,1.740000752553150787e-01,-8.002841970354161727e-02,4.230231775326125099e-02
2.340000000000000135e-01,3.889261294362347798e-02,-1.386156141167804445e-01,1.069221699700065170e-01
2.349999999999999867e-01,-5.208577006411338473e-02,-1.469656584461746518e-01,1.131457194121877480e-01
2.359999999999999876e-01,-1.691485973812266175e-01,-6.102826594220965573e-02,5.861885510224512652e-02
2.369999999999999885e-01,-2.010047966368485317e-01,2.345354793556806219e-02,-5.828792873731642767e-03
2.379999999999999893e-01,-1.464637507956585427e-01,9.192294789073654493e-02,-5.591867166242125292e-02
2.389999999999999902e-01,-8.352689255501616339e-03,1.518209823042863948e-01,-9.682962305065187514e-02
2.399999999999999911e-01,1.021853116928681388e-01,1.339874424654890761e-01,-1.199130903510922247e-01
2.409999999999999920e-01,1.549641725000056314e-01,1.902058885246588060e-02,-6.232713877984399908e-02
2.419999999999999929e-01,1.875359299106694744e-01,-6.552628478410052471e-02,2.329677584656485514e-02
2.429999999999999938e-01,9.208165460859411844e-02,-1.416698584806542760e-01,8.873593229782432423e-02
2.439999999999999947e-01,-3.263558028780842030e-02,-1.252172763816143675e-01,1.015815535180926710e-01
2.449999999999999956e-01,-1.441969144684566717e-01,-7.372835897097881896e-02,7.975539106528997668e-02
2.459999999999999964e-01,-1.803115244562591701e-01,1.065040425540063340e-02,2.823796625914831715e-02
2.469999999999999973e-01,-1.480025340739676287e-01,9.230290665101127667e-02,-4.946846065286208266e-02
2.479999999999999982e-01,-3.925198128107992845e-02,1.627706932791742611e-01,-1.036487534917332198e-01
2.489999999999999991e-01,6.960693694199858450e-02,1.174916177486226981e-01,-1.120622968602543734e-01
2.500000000000000000e-01,1.685422525816663575e-01,3.981990709646469895e-02,-7.728947192279184142e-02
2.510000000000000009e-01,1.895765660009907649e-01,-6.900950160129691591e-02,-4.935075319862845984e-03
2.520000000000000018e-01,1.077518820632230173e-01,-1.300447556628145096e-01,8.258885033081697635e-02
2.530000000000000027e-01,1.033197315082612887e-02,-1.543815215937130725e-01,1.174001156341283186e-01
2.540000000000000036e-01,-1.034469654113682191e-01,-1.092585961586595572e-01,1.097804242308980105e-01
2.550000000000000044e-01,-1.787086571338273311e-01,1.020636892810138432e-02,3.757326456268858528e-02
2.560000000000000053e-01,-1.609765284960405496e-01,8.905139239911731563e-02,-2.633773286136506173e-02
2.570000000000000062e-01,-6.245765653068133944e-02,1.527508873702291270e-01,-8.760512343389977030e-02
2.580000000000000071e-01,4.908923989486541767e-02,1.212418958766385280e-01,-1.145119322695133668e-01
2.590000000000000080e-01,1.476530354772132292e-01,5.328323693553167761e-02,-9.043207414870629846e-02
2.600000000000000089e-01,1.772701514399259437e-01,-6.528584894486452739e-02,-1.100056134277694990e-02
2.610000000000000098e-01,1.171713442559295520e-01,-1.174409113539727073e-01,3.602010994360289875e-02
2.620000000000000107e-01,2.909779408364999639e-02,-1.532464757128098320e-01,9.958158061985530884e-02
2.630000000000000115e-01,-7.073037268829460156e-02,-1.179782705771341283e-01,1.069019619126913984e-01
2.640000000000000124e-01,-1.806122513111413919e-01,-3.381448174262571132e-02,6.863017290782508217e-02
2.650000000000000133e-01,-1.821113365828403996e-01,8.648883665573257884e-02,1.219885945670096637e-02
2.660000000000000142e-01,-1.135733186891328406e-01,1.580673153080513482e-01,-7.479198334672451653e-02
2.670000000000000151e-01,2.460199011594316892e-02,1.331008236070383155e-01,-1.235236057223161876e-01
2.680000000000000160e-01,1.465697097793987325e-01,6.906866034959141532e-02,-1.111387438754749130e-01
2.690000000000000169e-01,2.001804610547864016e-01,-2.628884070062607881e-02,-4.743236697902461496e-02
2.700000000000000178e-01,1.703786226865031395e-01,-1.078187499567802715e-01,1.643539877579591052e-02
2.710000000000000187e-01,6.640807746359465857e-02,-1.432978213053044680e-01,1.114283708437346365e-01
2.720000000000000195e-01,-5.181387913159219566e-02,-1.258903015622091226e-01,1.352487209610139796e-01
2.730000000000000204e-01,-1.482038443911473657e-01,-7.664951721112056061e-03,9.089477312621536964e-02
2.740000000000000213e-01,-1.987362375454000962e-01,5.711876396983781717e-02,1.798926622481535412e-02
2.750000000000000222e-01,-1.125274048660082765e-01,1.421796749156477302e-01,-4.596064340766411321e-02
2.760000000000000231e-01,4.503012306403486598e-03,1.354500517793806313e-01,-1.080253557579425594e-01
2.770000000000000240e-01,1.137594610394674771e-01,1.114139159058732120e-01,-1.253102184196983604e-01
2.780000000000000249e-01,1.928580243255290094e-01,-1.590779200056313333e-02,-7.752618464902401307e-02
2.790000000000000258e-01,1.798193596192410593e-01,-1.061512759634310743e-01,-1.328341896709268931e-03
2.800000000000000266e-01,9.705094235662281577e-02,-1.392279943673007947e-01,9.024182821442747193e-02
2.810000000000000275e-01,-4.829502589272594015e-02,-1.151916514130599950e-01,1.117873761733859939e-01
2.819999999999999729e-01,-1.211232937096719392e-01,-4.663126253634648083e-02,1.025758120546186175e-01
2.829999999999999738e-01,-1.767975097727789990e-01,7.055917178589486694e-02,3.614560022434942094e-02
2.839999999999999747e-01,-1.452562468457938294e-01,1.418947539520554746e-01,-9.817152983858955240e-03
2.849999999999999756e-01,-5.683103284902702584e-02,1.637729051860352114e-01,-1.001709464046787318e-01
2.859999999999999765e-01,7.627410006080165283e-02,9.780042126167813599e-02,-9.444627277526225495e-02
2.869999999999999774e-01,1.399056998953362718e-01,-8.126814054335329204e-03,-5.748763730038430192e-02
2.879999999999999782e-01,2.078376533488922873e-01,-1.037261691735774372e-01,-3.347382948493284743e-02
2.889999999999999791e-01,1.153843485954690745e-01,-1.629853483310102491e-01,6.505100432786974085e-02
2.899999999999999800e-01,6.563639786654848485e-03,-1.247215097561105157e-01,9.680824654087295811e-02
2.909999999999999809e-01,-1.224243710897477827e-01,-3.714079052103575612e-02,1.063262864284302556e-01
2.919999999999999818e-01,-1.819185206659362786e-01,2.523331519099041367e-02,4.684433516411218301e-02
2.929999999999999827e-01,-1.533811104384892876e-01,1.369738346165053355e-01,5.199279758165474205e-03
2.939999999999999836e-01,-6.748729248515432377e-02,1.563802824073010633e-01,-8.457444282719399353e-02
2.949999999999999845e-01,5.373870373558486263e-02,9.775454207255621086e-02,-1.190678739926044893e-01
2.959999999999999853e-01,1.669596153659674564e-01,2.389900461747339680e-02,-1.291692029823484911e-01
2.969999999999999862e-01,1.925693526426959512e-01,-8.805972553963063720e-02,-5.199329491007962517e-02
2.979999999999999871e-01,1.396841920397109971e-01,-1.554482769636063577e-01,2.744156189185322555e-03
2.989999999999999880e-01,2.086804226850870470e-02,-1.409139160824523229e-01,8.881244660128778667e-02
2.999999999999999889e-01,-9.657596295622222771e-02,-7.128374129636624867e-02,1.008901783628973620e-01
3.009999999999999898e-01,-1.587635928149424280e-01,3.112071824227007066e-02,7.688439007423099325e-02
3.019999999999999907e-01,-1.884067247301583758e-01,9.181662420936927138e-02,1.012540297478898253e-02
3.029999999999999916e-01,-9.953865615033637149e-02,1.510528554589869454e-01,-4.728161393310614802e-02
3.039999999999999925e-01,3.260950318138514104e-02,1.177942826850974511e-01,-1.020721312917543394e-01
3.049999999999999933e-01,1.486036579339501673e-01,2.364230887116966495e-02,-1.112901021146486674e-01
3.059999999999999942e-01,1.888039829776283485e-01,-8.745008000871705434e-02,-8.697018490948886515e-02
3.069999999999999951e-01,1.423723530415576810e-01,-1.527194641680383047e-01,-2.238467044365233336e-03
3.079999999999999960e-01,6.210045740248381491e-02,-1.360658011296594083e-01,7.478734373087735088e-02
3.089999999999999969e-01,-7.992554297264078955e-02,-7.587155043403180643e-02,1.102970828602808789e-01
3.099999999999999978e-01,-1.793174351289261448e-01,2.399616442512232314e-02,8.847104654971531257e-02
3.109999999999999987e-01,-1.794840850064392812e-01,9.501023671648255176e-02,3.378108971498747226e-02
3.119999999999999996e-01,-1.021482415545202638e-01,1.438044195300479111e-01,-1.947104383542965639e-02
3.130000000000000004e-01,-1.591191071703467646e-03,1.041179161068173514e-01,-1.017070473120698926e-01
3.140000000000000013e-01,1.419869622661967257e-01,4.043995887021194918e-02,-1.194535985934346428e-01
3.150000000000000022e-01,1.711497819204803594e-01,-6.631273078697354217e-02,-6.338245721433630187e-02
3.160000000000000031e-01,1.649157714303810529e-01,-1.366196996206634484e-01,-2.905027484248588407e-02
3.170000000000000040e-01,7.750655335073232399e-02,-1.429306986536658941e-01,6.710890845090110302e-02
3.180000000000000049e-01,-2.258220217703266891e-02,-8.266848444864537127e-02,1.083329865305575346e-01
3.190000000000000058e-01,-1.328884149113201685e-01,1.853264645468613971e-03,1.215293765309212320e-01
3.200000000000000067e-01,-1.856046449296571976e-01,9.890148040243727789e-02,7.431445235694404683e-02
3.210000000000000075e-01,-1.553732736680141502e-01,1.470533690047003406e-01,-2.375668291405229424e-03
3.220000000000000084e-01,-3.047692548440602417e-02,1.285841134018353704e-01,-9.713677079106911028e-02
3.230000000000000093e-01,9.424757493135686726e-02,7.653245845389557156e-02,-1.050953320594568974e-01
3.240000000000000102e-01,1.586678748828504459e-01,-5.849321419037176867e-02,-9.265808787847740202e-02
3.250000000000000111e-01,1.892160171186221818e-01,-1.107249713081658038e-01,-1.704679557757073430e-02
3.260000000000000120e-01,1.110759268734049510e-01,-1.643226099381200345e-01,3.590762594403211494e-02
3.270000000000000129e-01,-2.004278863633774180e-02,-1.072593909699850745e-01,7.888531655336147863e-02
3.280000000000000138e-01,-1.340913341051113428e-01,-1.424149067349423162e-02,1.104283293732419707e-01
3.290000000000000147e-01,-1.698476132928734006e-01,9.223330925966589933e-02,7.395843999988221951e-02
3.300000000000000155e-01,-1.785032338098106464e-01,1.416842260096886630e-01,7.905805711193453211e-03
3.310000000000000164e-01,-5.035653763270604710e-02,1.118695147978558957e-01,-6.240234497034431727e-02
3.320000000000000173e-01,6.160989437517246092e-02,5.214609572184032704e-02,-1.092700922775747818e-01
3.330000000000000182e-01,1.623888223715447277e-01,-2.718428946178942304e-02,-1.089624054091921507e-01
3.340000000000000191e-01,1.964787219438011989e-01,-1.015088584679320199e-01,-6.991781533253342562e-02
3.350000000000000200e-01,1.364409991159285518e-01,-1.121966567365763612e-01,1.389736397134663792e-02
3.360000000000000209e-01,4.146777892245075842e-02,-1.060828392869783560e-01,8.578279909726709007e-02
3.370000000000000218e-01,-8.002286013220757943e-02,-2.504782288137511262e-02,1.039069943351797337e-01
3.380000000000000226e-01,-1.691685634869220523e-01,6.385412888923187869e-02,8.972631474544989771e-02
3.390000000000000235e-01,-1.634344258601752031e-01,1.402855338589510392e-01,5.789298340413601834e-02
3.400000000000000244e-01,-9.733475506900184093e-02,1.202690962886034942e-01,-2.667124247450673030e-02
3.410000000000000253e-01,3.233069056883208087e-02,7.491616293172657925e-02,-9.651450653741512620e-02
3.420000000000000262e-01,1.519245621934897372e-01,-2.385023376169909462e-02,-1.020699412281549923e-01
3.430000000000000271e-01,1.956485678210600765e-01,-1.009267063842306938e-01,-7.622012407118061716e-02
3.439999999999999725e-01,1.573247090594759312e-01,-1.529393449102162406e-01,-1.790117265637888519e-02
3.449999999999999734e-01,4.523798791831241256e-02,-1.248578391457294406e-01,5.280167076096996953e-02
3.459999999999999742e-01,-8.411246403003709571e-02,-5.323366172378630329e-02,1.044445458906529262e-01
3.469999999999999751e-01,-1.972217658529775985e-01,7.691845776138515889e-02,1.008474713448328230e-01
3.479999999999999760e-01,-1.791724997836593447e-01,1.027083024915348419e-01,7.031648543291373066e-02
3.489999999999999769e-01,-1.154788472623032441e-01,1.372173248551288305e-01,1.201277817943107503e-03
3.499999999999999778e-01,1.056887483472486108e-02,9.071494832498085137e-02,-6.529757742220833328e-02
3.509999999999999787e-01,1.318721526901525942e-01,-4.438415452730634474e-03,-1.133664115210843981e-01
3.519999999999999796e-01,2.019267893254545754e-01,-1.137913176227060286e-01,-9.780251236827239292e-02
3.529999999999999805e-01,1.768273719249162101e-01,-1.744054622341907057e-01,-4.773353820071239706e-02
3.539999999999999813e-01,7.137402831513235679e-02,-1.394049307069848143e-01,2.051735416595167755e-02
3.549999999999999822e-01,-5.139289156921245799e-02,-6.674237229059713783e-02,1.115558737994003236e-01
3.559999999999999831e-01,-1.363873194224478613e-01,4.176514714120511951e-02,1.291477995464558048e-01
3.569999999999999840e-01,-2.011673264016027030e-01,1.258480737294182250e-01,9.745347902853325472e-02
3.579999999999999849e-01,-1.201069912609728230e-01,1.679949719082679538e-01,9.261998663379088226e-03
3.589999999999999858e-01,-2.332431731599952582e-02,1.058704091515248746e-01,-7.022075055138327082e-02
3.599999999999999867e-01,1.124621447065494440e-01,2.483704772205655095e-03,-1.062064813788795442e-01
3.609999999999999876e-01,1.992969924396646719e-01,-6.649988208811141721e-02,-1.079490070390142081e-01
3.619999999999999885e-01,1.760838681016757001e-01,-1.396846254257341491e-01,-7.634007364431105724e-02
3.629999999999999893e-01,8.695788820938429864e-02,-1.389911015205361200e-01,-1.263560046357625364e-03
3.639999999999999902e-01,-1.911967661649613404e-02,-7.115213476206348753e-02,7.807793256107704860e-02
3.649999999999999911e-01,-1.442661473133824979e-01,3.688983714194445790e-02,9.704895470423897941e-02
3.659999999999999920e-01,-1.692922122096031656e-01,1.099262155446862066e-01,1.029680842878649139e-01
3.669999999999999929e-01,-1.778579508599700820e-01,1.528018599639199282e-01,4.575816998578784156e-02
3.679999999999999938e-01,-4.878958230709306426e-02,1.285021730766091330e-01,-4.554949037139829210e-02
3.689999999999999947e-01,7.987108027499248419e-02,2.177704930274343073e-02,-7.549871021536051774e-02
3.699999999999999956e-01,1.605682955181381710e-01,-5.861603299131797756e-02,-1.087287215269276963e-01
3.709999999999999964e-01,1.786530011480448876e-01,-1.067734809811092672e-01,-8.491677014316548200e-02
3.719999999999999973e-01,1.399293273271236815e-01,-1.621616818420249795e-01,-2.092305998801302636e-02
3.729999999999999982e-01,1.782047235882551831e-02,-7.153027115680705983e-02,6.708016811563247139e-02
3.739999999999999991e-01,-1.292616570979722990e-01,2.208845444049651816e-02,1.097116756061780191e-01
3.750000000000000000e-01,-1.711783516124062154e-01,1.047880354120205720e-01,1.159951075230293838e-01
3.760000000000000009e-01,-1.634651248541963142e-01,1.474131207876176464e-01,7.261092561254403610e-02
3.770000000000000018e-01,-7.934870852977812805e-02,1.126042008323995675e-01,-1.177835627525448438e-02
3.780000000000000027e-01,2.602886527949471035e-02,3.738861324106613343e-02,-7.967137293975933010e-02
3.790000000000000036e-01,1.495550020991084361e-01,-5.905768172987116427e-02,-1.077961902486670454e-01
3.800000000000000044e-01,1.928512254384892044e-01,-1.230633491448025613e-01,-6.539310554422556043e-02
3.810000000000000053e-01,1.476280203722034334e-01,-1.349779367258752694e-01,-5.230398273563944406e-02
3.820000000000000062e-01,3.887906930475562572e-02,-1.040856322666056794e-01,3.747672467508220834e-02
3.830000000000000071e-01,-6.994436383990790262e-02,-1.905830180693615303e-02,1.044172786793285956e-01
3.840000000000000080e-01,-1.869048039229682101e-01,9.189438272837816002e-02,1.154345213496490163e-01
3.850000000000000089e-01,-1.808709276659002940e-01,1.240414760534146732e-01,7.826302441722741976e-02
3.860000000000000098e-01,-1.067117920896244465e-01,1.280260434361767952e-01,1.449017569770631730e-02
3.870000000000000107e-01,2.073280143760506886e-02,4.864429034053322637e-02,-4.249006713493636012e-02
3.880000000000000115e-01,1.357753577103061049e-01,-4.616854834297270255e-02,-1.164010449397998165e-01
3.890000000000000124e-01,1.823488043760971844e-01,-1.155566884400312661e-01,-8.643115654343916376e-02
3.900000000000000133e-01,1.698772418753536906e-01,-1.423681173642616093e-01,-5.768627573012733573e-02
3.910000000000000142e-01,5.637150910152897987e-02,-1.013733137134096435e-01,-1.040093802826692025e-03
3.920000000000000151e-01,-7.063304224666458464e-02,-1.209505898593927521e-02,8.414755345411342735e-02
3.930000000000000160e-01,-1.480585122872331294e-01,9.809803047240835128e-02,1.215274488978367040e-01
3.940000000000000169e-01,-1.807465100095286548e-01,1.293077879926916030e-01,9.307026706395693516e-02
3.950000000000000178e-01,-1.170681542150339149e-01,1.210395883374102283e-01,4.093495905458628681e-02
3.960000000000000187e-01,-1.537780631808468440e-02,7.470188652648108996e-02,-2.689588632308476460e-02
3.970000000000000195e-01,1.221460131624535900e-01,-5.255173648574004708e-02,-1.013769568245343200e-01
3.980000000000000204e-01,1.762561198001953711e-01,-1.370036923661396289e-01,-1.027344410214605513e-01
3.990000000000000213e-01,1.795542328043040758e-01,-1.443664961496738675e-01,-6.690648354999720326e-02
4.000000000000000222e-01,9.808420585083074683e-02,-1.127554712323749625e-01,-2.830259688423849077e-02
4.010000000000000231e-01,-3.038120954656545886e-02,-2.710128271402428152e-02,5.797459159574855359e-02
4.020000000000000240e-01,-1.452963855227023815e-01,7.224810017897870251e-02,9.981199541888031990e-02
4.030000000000000249e-01,-1.739409151774965190e-01,1.487122458665271485e-01,1.201620352581844325e-01
4.040000000000000258e-01,-1.300812353751922001e-01,1.256776030042533465e-01,5.097971918471692204e-02
4.050000000000000266e-01,-6.583489182398317985e-02,7.468663132335673360e-02,7.166621804101212453e-03
4.060000000000000275e-01,6.959407622985462616e-02,-5.312381106248094224e-03,-5.203872397931065541e-02
4.069999999999999729e-01,1.842914987995776521e-01,-1.024585568016236625e-01,-1.061309476998827245e-01
4.079999999999999738e-01,2.034362642441027436e-01,-1.567125584174004771e-01,-1.064309383100765227e-01
4.089999999999999747e-01,1.126038022080328022e-01,-1.351767672211974802e-01,-5.840874431335042055e-02
4.099999999999999756e-01,-1.945227036518239541e-02,-4.535103006922505675e-02,2.787003368790466964e-02
4.109999999999999765e-01,-1.260619108700606339e-01,7.883087124427118342e-02,9.201769722592485767e-02
4.119999999999999774e-01,-1.962820174531404172e-01,1.254448239691315081e-01,1.290634512665242428e-01
4.129999999999999782e-01,-1.492514781476498298e-01,1.657905809448047829e-01,6.601462412343854502e-02
4.139999999999999791e-01,-8.786711043505776586e-02,9.311302158237037829e-02,3.071872531805843951e-02
4.149999999999999800e-01,7.370735694473563859e-02,-7.577128505290158487e-03,-7.144718790429181732e-02
4.159999999999999809e-01,1.445760697414002482e-01,-8.924953306690169841e-02,-1.328052400093742980e-01
4.169999999999999818e-01,1.767256662260581201e-01,-1.376832941353979822e-01,-9.082614460489736585e-02
4.179999999999999827e-01,1.614580403181776480e-01,-1.184147515965692232e-01,-5.676907532551896812e-02
4.189999999999999836e-01,2.513934634801317375e-02,-5.773078104371485997e-02,1.037328400803549412e-02
4.199999999999999845e-01,-7.803086267615080840e-02,3.842057616459346181e-02,7.322831057939097055e-02
4.209999999999999853e-01,-1.526433807631299433e-01,1.220874942486129405e-01,1.218733975343819498e-01
4.219999999999999862e-01,-1.909538004700657154e-01,1.250719797394225230e-01,8.308653636010281118e-02
4.229999999999999871e-01,-8.730154347224441946e-02,1.045193899389546127e-01,4.275131920425129933e-02
4.239999999999999880e-01,1.901463836754924835e-02,1.283237999791096533e-02,-1.755464837418908158e-02
4.249999999999999889e-01,1.374308545181356922e-01,-1.090559846361857516e-01,-1.048734138723055737e-01
4.259999999999999898e-01,1.969265101015220676e-01,-1.496619939092971030e-01,-1.079352900688367589e-01
4.269999999999999907e-01,1.717775474295752114e-01,-1.322225843512309373e-01,-9.138799046487447453e-02
4.279999999999999916e-01,3.950093156621675011e-02,-5.785005439462378302e-02,-1.988521139297054138e-02
4.289999999999999925e-01,-5.798861904715121862e-02,3.837191367162297306e-02,3.637815572580498091e-02
4.299999999999999933e-01,-1.658682777178212553e-01,1.317428852056343469e-01,1.307737629323604267e-01
4.309999999999999942e-01,-2.076845800906599870e-01,1.588514021596962866e-01,9.418093831090434964e-02
4.319999999999999951e-01,-1.210942659451473558e-01,1.086125274791365086e-01,4.610357665546654937e-02
4.329999999999999960e-01,-1.407394947473991804e-02,1.743482723855401331e-02,-3.498676953656703562e-03
4.339999999999999969e-01,1.329918550783601161e-01,-6.131923971791489875e-02,-8.906220468448181049e-02
4.349999999999999978e-01,1.753864503458245350e-01,-1.468379634819733659e-01,-1.276161383423591866e-01
4.359999999999999987e-01,1.625530050299519580e-01,-1.372966312003354172e-01,-1.131426187569685438e-01
4.369999999999999996e-01,9.017744009014078133e-02,-5.970985721482159614e-02,-3.536916534719821564e-02
4.380000000000000004e-01,-3.902090710170429133e-02,3.079512668334854694e-02,3.943921425569461847e-02
4.390000000000000013e-01,-1.273021782172264194e-01,1.179271098856141536e-01,1.060844689457148687e-01
4.400000000000000022e-01,-1.831835615874554679e-01,1.438647710153114212e-01,9.268353319670837032e-02
4.410000000000000031e-01,-1.650435664447234829e-01,1.095126339572055768e-01,8.021366008681921067e-02
4.420000000000000040e-01,-2.592407609443942579e-02,2.261742841760473743e-02,2.851164610827112630e-02
4.430000000000000049e-01,1.011245795992647550e-01,-6.603599548753054382e-02,-5.285036530018121653e-02
4.440000000000000058e-01,1.545173897668105922e-01,-1.324486547661807012e-01,-1.046451345746251399e-01
4.450000000000000067e-01,1.840119365762545867e-01,-1.326176340774055662e-01,-9.008960213199117273e-02
4.460000000000000075e-01,1.075516550197124915e-01,-9.858414741988866248e-02,-7.366850571410078763e-02
4.470000000000000084e-01,8.293751382804286781e-03,-2.254338604303881069e-03,2.580274419154774193e-02
4.480000000000000093e-01,-1.291560409614772031e-01,8.416386664039089693e-02,9.503999996912625148e-02
4.490000000000000102e-01,-1.673822991139105043e-01,1.288106712479434313e-01,1.213307705874763637e-01
4.500000000000000111e-01,-1.663077726297474135e-01,1.115019873224166042e-01,9.387073991288115427e-02
4.510000000000000120e-01,-5.817839509580557261e-02,5.136308480402431570e-02,5.862332686147699728e-02
4.520000000000000129e-01,6.052065264888461388e-02,-5.304182978258650122e-02,-2.791529760215761755e-02
4.530000000000000138e-01,1.772735551191094994e-01,-1.282801807191264742e-01,-1.047383244132581714e-01
4.540000000000000147e-01,1.707614776648004873e-01,-1.524472603128818604e-01,-1.084445569019067968e-01
4.550000000000000155e-01,1.444143215521690171e-01,-8.242990433704819320e-02,-8.307745273322908464e-02
4.560000000000000164e-01,4.545597220384213488e-02,-2.849893047384632894e-02,-2.436568460006448972e-02
4.570000000000000173e-01,-1.025971311187640900e-01,6.601585260152849355e-02,7.218091228758996558e-02
4.580000000000000182e-01,-1.941936507963170910e-01,1.317854064523877877e-01,1.014028984791367077e-01
4.590000000000000191e-01,-1.798764559132194074e-01,1.467348411902274774e-01,8.180272605849776835e-02
4.600000000000000200e-01,-8.598959039981614316e-02,7.861025642726544860e-02,4.737373506674011359e-02
4.610000000000000209e-01,2.226773403022481654e-02,-2.280402212097956682e-02,-1.079488056568085781e-02
4.620000000000000218e-01,1.406429501303019525e-01,-1.267817251528616240e-01,-8.351991619720754156e-02
4.630000000000000226e-01,1.871135245980664330e-01,-1.485043900154059959e-01,-1.172462814884662335e-01
4.640000000000000235e-01,1.392302570283602547e-01,-1.188152209142609855e-01,-1.068637046004344698e-01
4.650000000000000244e-01,5.443063904549958615e-02,-1.790116313040944485e-02,-3.076277331633221063e-02
4.660000000000000253e-01,-7.442740472430832421e-02,7.365533129014671665e-02,2.996274078421753626e-02
4.670000000000000262e-01,-1.656876287475066434e-01,1.452585033040990903e-01,7.918577359533512938e-02
4.680000000000000271e-01,-1.940720890669278831e-01,1.549035197390583873e-01,1.060361021453708197e-01
4.689999999999999725e-01,-1.206902437943503797e-01,7.131749961592591391e-02,8.713683050747171588e-02
4.699999999999999734e-01,5.887330589043938273e-03,-5.048218361137043336e-02,1.056040092754711134e-02
4.709999999999999742e-01,1.372331440631799071e-01,-9.419669708266886765e-02,-7.850837557194836891e-02
4.719999999999999751e-01,1.748321946577578723e-01,-1.397182437101791574e-01,-9.181978314484751102e-02
4.729999999999999760e-01,1.620614544531467638e-01,-1.129993544959170398e-01,-1.082183283879157992e-01
4.739999999999999769e-01,6.936284706734115180e-02,-3.639862014116060362e-02,-4.693469390538566183e-02
4.749999999999999778e-01,-4.265457424500531530e-02,6.987950438433546130e-02,-1.179718014620928339e-02
4.759999999999999787e-01,-1.607693251035454129e-01,1.424500248810477154e-01,9.953347177545537883e-02
4.769999999999999796e-01,-1.884411830371436336e-01,1.097142164185393315e-01,1.118727577162740433e-01
4.779999999999999805e-01,-1.368996215665595484e-01,1.021908152819744203e-01,7.746468997501233800e-02
4.789999999999999813e-01,-1.492260583187242015e-02,7.240870949307272493e-03,3.917335570887297419e-02
4.799999999999999822e-01,8.031347299760148439e-02,-8.965378714085751877e-02,-3.777268280594139882e-02
4.809999999999999831e-01,1.739349961014839130e-01,-1.489508654270149945e-01,-9.196770537729231920e-02
4.819999999999999840e-01,1.824000446666598774e-01,-1.221785800317207044e-01,-9.485424342803649989e-02
4.829999999999999849e-01,9.687512296378286702e-02,-6.236907742704370788e-02,-8.829788343275836449e-02
4.839999999999999858e-01,-3.382521319878261518e-02,3.677476665699611763e-02,-1.174832008211931962e-02
4.849999999999999867e-01,-1.381934555689387223e-01,1.067788125043774156e-01,7.683832348349442509e-02
4.859999999999999876e-01,-1.851001125273286640e-01,1.554760950406215425e-01,1.229295326630048674e-01
4.869999999999999885e-01,-1.693394794914581669e-01,1.388576086279115218e-01,9.679521664408502479e-02
4.879999999999999893e-01,-8.618606282844576416e-02,1.578102341508000675e-02,3.331536694285534145e-02
4.889999999999999902e-01,8.580168342067864828e-02,-8.963839429323305907e-02,-1.137002132661509360e-02
4.899999999999999911e-01,1.623033810426292300e-01,-1.323011385950125796e-01,-9.250531552388834011e-02
4.909999999999999920e-01,1.697915325568456757e-01,-1.321657609781720089e-01,-1.085327127276606018e-01
4.919999999999999929e-01,1.384298687278440187e-01,-6.843221524037562675e-02,-8.819667427742930443e-02
4.929999999999999938e-01,1.120517896587686427e-02,3.804883289595728524e-02,-1.986075479032805777e-02
4.939999999999999947e-01,-1.097224639127773460e-01,1.222582646662282585e-01,3.008778499177947041e-02
4.949999999999999956e-01,-1.857480280175002607e-01,1.606078762618621814e-01,9.994625999799038041e-02
4.959999999999999964e-01,-1.937983774519090596e-01,1.174593553176586230e-01,1.194144115581952520e-01
4.969999999999999973e-01,-7.362119015164605984e-02,3.932010663575298548e-02,7.650381428550359630e-02
4.979999999999999982e-01,2.737997990823987093e-02,-7.339495728495701310e-02,1.109819247124650687e-02
4.989999999999999991e-01,1.495967762031255588e-01,-1.426749516608905310e-01,-5.624717406751517795e-02
5.000000000000000000e-01,1.940678912385695176e-01,-1.497781106143189767e-01,-1.158026736895277631e-01
5.010000000000000009e-01,1.283142297287866995e-01,-6.784603747305208155e-02,-9.578904234254483063e-02
5.020000000000000018e-01,4.198155247695254527e-02,1.103844379906741315e-02,-6.335975241299011962e-02
5.030000000000000027e-01,-6.475529074211906766e-02,1.173392076602578632e-01,1.411453563590684551e-02
5.040000000000000036e-01,-1.837876346992427801e-01,1.596591701574534283e-01,6.845676152182311736e-02
5.050000000000000044e-01,-1.912138422606298738e-01,1.146996141764037580e-01,9.617110479469269391e-02
5.060000000000000053e-01,-1.296612915692548773e-01,4.384991023187959774e-02,8.184340338791040725e-02
5.070000000000000062e-01,-1.189927295892245773e-02,-6.010799311265060257e-02,2.838886328984021462e-02
5.080000000000000071e-01,1.296319276766084716e-01,-1.284514090888601578e-01,-4.670384770969789046e-02
5.090000000000000080e-01,2.050459582252992519e-01,-1.763981507709345142e-01,-7.826777293435743799e-02
5.100000000000000089e-01,1.819965823099101432e-01,-9.515353324508010746e-02,-1.151209138987478314e-01
5.110000000000000098e-01,7.672604788760144234e-02,1.348694592474709679e-02,-8.221187397862199375e-02
5.120000000000000107e-01,-6.345565308291699347e-02,9.712443349478988575e-02,-6.751775294135474448e-03
5.130000000000000115e-01,-1.555711862117855893e-01,1.500230347313091517e-01,6.382604080071964392e-02
5.140000000000000124e-01,-2.015470707407762130e-01,1.191897791151110414e-01,8.975483434938233418e-02
5.150000000000000133e-01,-1.382200047061238335e-01,6.158324297695202953e-02,1.405764234804989521e-01
5.160000000000000142e-01,-1.496372420765793888e-02,-6.353942579901179777e-02,5.135116381875584612e-02
5.170000000000000151e-01,9.839601677091243392e-02,-1.217813636783028897e-01,-1.869794853527603079e-02
5.180000000000000160e-01,1.612284543829382577e-01,-1.663914834395930076e-01,-8.017269451570890881e-02
5.190000000000000169e-01,1.871475887118108916e-01,-9.750390801625527515e-02,-1.274381879830407682e-01
5.200000000000000178e-01,9.119513359663591889e-02,-1.719968193473724385e-02,-8.931416513032323923e-02
5.210000000000000187e-01,-3.128296682557201586e-02,9.104577542567643400e-02,-2.169839572421196350e-02
5.220000000000000195e-01,-1.287211171204726001e-01,1.598772539768729684e-01,4.373627879484573433e-02
5.230000000000000204e-01,-1.843327741941817310e-01,1.241703920139714812e-01,8.738887873404194151e-02
5.240000000000000213e-01,-1.542345957451515537e-01,3.852615543568845696e-02,9.108216438232494272e-02
5.250000000000000222e-01,-4.008150709271048745e-02,-4.970764808327897410e-02,7.788839536361256977e-02
5.260000000000000231e-01,6.028806210686327161e-02,-1.317415556700767543e-01,1.428924158586526369e-02
5.270000000000000240e-01,1.765420781061512456e-01,-1.341383215069680557e-01,-7.364466986825365935e-02
5.280000000000000249e-01,1.697715837541207695e-01,-1.181249260428428871e-01,-1.243759078831343373e-01
5.290000000000000258e-01,1.221253717118368221e-01,-2.954826049985338418e-02,-1.079268056331812720e-01
5.300000000000000266e-01,-6.984876975419553394e-03,6.545988123017956739e-02,-5.011110955749611268e-02
5.310000000000000275e-01,-1.133766469973238461e-01,1.427750448418302065e-01,1.232889172773521044e-02
5.320000000000000284e-01,-1.856747677660215146e-01,1.590713417980691990e-01,8.419737069004593066e-02
5.330000000000000293e-01,-1.910677219098239343e-01,7.507244074126952216e-02,1.265719577017322683e-01
5.340000000000000302e-01,-8.593318539576400017e-02,-1.414250968902689039e-02,1.172751911268340580e-01
5.350000000000000311e-01,6.413029322157695611e-02,-8.869365017986792499e-02,2.077655819998770401e-02
5.360000000000000320e-01,1.264357207143412265e-01,-1.486699446427501292e-01,-4.032295145476244569e-02
5.370000000000000329e-01,1.983030448517600075e-01,-1.081864866442500406e-01,-1.153839275040531437e-01
5.380000000000000338e-01,1.243614663100550966e-01,-4.413588230095168846e-02,-1.361691014940302202e-01
5.390000000000000346e-01,3.985630704895022636e-02,6.014590827876772905e-02,-8.539567758368170336e-02
5.400000000000000355e-01,-7.127950793332608892e-02,1.260165547774417250e-01,-1.880639961060387444e-02
5.410000000000000364e-01,-1.600995994460015781e-01,1.377976226511180569e-01,6.889381855159792956e-02
5.420000000000000373e-01,-1.750787558841797875e-01,8.875660301051165046e-02,1.081671621440398606e-01
5.430000000000000382e-01,-1.176740129070895230e-01,-1.468094671153756178e-02,9.569685884918208152e-02
5.440000000000000391e-01,4.028153870345879163e-03,-1.044570335862144844e-01,5.821136741196471925e-02
5.450000000000000400e-01,1.373919278304186753e-01,-1.666541709883358480e-01,-1.737006204221185068e-02
5.460000000000000409e-01,1.717899738759361972e-01,-1.348955427530395268e-01,-8.390007861013085155e-02
5.470000000000000417e-01,1.297750992574042139e-01,-5.864990781823799237e-02,-1.159888154115769898e-01
5.480000000000000426e-01,5.190958457218873556e-02,7.327074028348609658e-02,-9.398293223968259835e-02
5.490000000000000435e-01,-5.575048234386208168e-02,1.380094734319766980e-01,-4.626031892037209270e-02
5.500000000000000444e-01,-1.652429962384747153e-01,1.545136450515898208e-01,8.997231735642954170e-03
5.510000000000000453e-01,-1.801466908466509698e-01,1.077172441498494004e-01,1.001830964696561882e-01
5.520000000000000462e-01,-1.174809697357649257e-01,2.451472164283239902e-03,1.153477100410337380e-01
5.530000000000000471e-01,-2.083193919031837982e-02,-7.549846591313644217e-02,6.345512420429878786e-02
5.540000000000000480e-01,9.673872785472374669e-02,-1.627258109862173285e-01,1.540023464974400735e-02
5.550000000000000488e-01,1.753097507926673071e-01,-1.556735301940434801e-01,-6.265515408394978225e-02
5.560000000000000497e-01,1.769282158710862307e-01,-5.798650831659166172e-02,-1.225405367688208319e-01
5.570000000000000506e-01,1.045617157912321071e-01,3.405581608730229998e-02,-1.039736902621585246e-01
5.580000000000000515e-01,-3.256253400136329551e-02,1.027457880322563688e-01,-5.491086858813465366e-02
5.590000000000000524e-01,-1.399463821335667768e-01,1.422863554459857793e-01,2.304416614593077922e-02
5.600000000000000533e-01,-2.219927985239980306e-01,1.105784019849472555e-01,8.486423816284534294e-02
5.610000000000000542e-01,-1.362920404551412612e-01,3.041459985980201133e-02,1.136153332812744471e-01
5.620000000000000551e-01,-2.011826535542958136e-02,-8.265306178854334163e-02,9.758158267802978514e-02
5.629999999999999449e-01,8.402152017580868937e-02,-1.401028398847997125e-01,5.127357305986969538e-02
5.639999999999999458e-01,1.601525391864147274e-01,-1.205656930808494537e-01,-2.897795828936144610e-02
5.649999999999999467e-01,1.791473936635769870e-01,-9.902542312575665640e-02,-8.726020195095668397e-02
5.659999999999999476e-01,1.087495839015320681e-01,-3.115461957744985674e-03,-1.204006142683832631e-01
5.669999999999999485e-01,3.613279058714417933e-03,1.105318109633408735e-01,-6.770316839661218167e-02
5.679999999999999494e-01,-1.226631937816644730e-01,1.314187609487422193e-01,3.915074579273368147e-03
5.689999999999999503e-01,-2.015436298605818022e-01,1.391517496377285834e-01,8.836259383260812450e-02
5.699999999999999512e-01,-1.555047998209412308e-01,5.129009432385985001e-02,9.740683145840721424e-02
5.709999999999999520e-01,-6.762317907356293900e-02,-7.083005090872329657e-02,1.011312924337691987e-01
5.719999999999999529e-01,6.587484653939057466e-02,-1.402462079571874243e-01,5.989502175074425117e-02
5.729999999999999538e-01,1.593104861242177483e-01,-1.377409414149467770e-01,-1.685743065048425290e-02
5.739999999999999547e-01,1.779304283384032792e-01,-9.278409605412792083e-02,-8.133620411010772377e-02
5.749999999999999556e-01,1.454698278936354949e-01,2.313099508100733073e-02,-1.087097867308644550e-01
5.759999999999999565e-01,1.335964128671295569e-02,1.084109034687045919e-01,-1.189892710048094104e-01
5.769999999999999574e-01,-8.321735349949406502e-02,1.664697439455334604e-01,-2.689219453264663634e-02
5.779999999999999583e-01,-1.728396210657424381e-01,1.271503464980877074e-01,5.285467883986995352e-02
5.789999999999999591e-01,-1.950479374122986165e-01,6.078575356441454774e-02,9.352462849139030199e-02
5.799999999999999600e-01,-8.532672612844936777e-02,-4.128982645587884331e-02,1.107764563355103093e-01
5.809999999999999609e-01,2.754220260059483602e-02,-1.179801441766375608e-01,7.439265460672640773e-02
5.819999999999999618e-01,1.387770194131893176e-01,-1.494404188458965665e-01,-9.412200180740902186e-03
5.829999999999999627e-01,1.788232093882654028e-01,-1.250029477599026717e-01,-7.369616970650504084e-02
5.839999999999999636e-01,1.451293118982544539e-01,-1.946631717242267370e-02,-9.907563004144055718e-02
5.849999999999999645e-01,7.558760675383825733e-02,9.195559679477914583e-02,-1.056827568458533900e-01
5.859999999999999654e-01,-5.948510153939202960e-02,1.657258258323986433e-01,-6.185778496486303568e-02
5.869999999999999662e-01,-1.645025995479729719e-01,1.338567881108251312e-01,1.499305195259749250e-02
5.879999999999999671e-01,-1.577437132504256601e-01,7.332506787094909828e-02,1.117061534558390079e-01
5.889999999999999680e-01,-1.213699760780996700e-01,-4.699936877571030819e-02,1.097015364893138833e-01
5.899999999999999689e-01,3.562185448375165711e-04,-1.184547792562901797e-01,9.523257215375420526e-02
5.909999999999999698e-01,1.118273351945922589e-01,-1.483023333354508422e-01,4.836358044067762263e-02
5.919999999999999707e-01,1.932439516787386458e-01,-1.111407853085581293e-01,-5.106648752171976530e-02
5.929999999999999716e-01,1.674153940191149548e-01,-3.044907875685410811e-02,-1.131708765250104692e-01
5.939999999999999725e-01,9.370286927220372597e-02,6.538437613286533778e-02,-1.150302911633894892e-01
5.949999999999999734e-01,-4.926540262961590783e-02,1.302280810256721266e-01,-7.116736373668137994e-02
5.959999999999999742e-01,-1.625286893040069069e-01,1.500287444896096500e-01,-1.305320204528904321e-02
5.969999999999999751e-01,-1.829347544516243262e-01,8.266645249102827497e-02,5.125129090803693527e-02
5.979999999999999760e-01,-1.369328178644704519e-01,-1.839235190667888598e-02,9.200426546034722042e-02
5.989999999999999769e-01,-4.398713940052293575e-02,-1.143489951882994821e-01,1.310028057704679949e-01
5.999999999999999778e-01,9.159155944822358619e-02,-1.464356117589483697e-01,5.066047837144069255e-02
6.009999999999999787e-01,1.528862569409109584e-01,-1.252777523592562281e-01,-2.730835496078310928e-02
6.019999999999999796e-01,1.642490541732174181e-01,-4.934752742730098146e-02,-8.596891148619324741e-02
6.029999999999999805e-01,8.547861823264489567e-02,5.665004794667014704e-02,-1.055756924707316052e-01
6.039999999999999813e-01,-2.685548805441630854e-02,1.387474933498906993e-01,-9.171888232244838901e-02
6.049999999999999822e-01,-1.236491317681840257e-01,1.430643102861880456e-01,-2.978797922873996015e-02
6.059999999999999831e-01,-2.072445503716081883e-01,7.400719416311042631e-02,3.786449223365302708e-02
6.069999999999999840e-01,-1.444917668095473673e-01,-1.785964631931765551e-02,9.244937860772727001e-02
6.079999999999999849e-01,-6.681790627735322008e-02,-8.708863926800351762e-02,1.107512989904142903e-01
6.089999999999999858e-01,7.414392947908474141e-02,-1.676026218578198224e-01,5.466711054521096458e-02
6.099999999999999867e-01,1.441466851742145838e-01,-1.396890183072536928e-01,1.402975841671334767e-02
6.109999999999999876e-01,1.863542296717456692e-01,-5.646967717721593921e-02,-6.750673327693088033e-02
6.119999999999999885e-01,1.323151663974968251e-01,4.360012934679321356e-02,-9.721446105250741709e-02
6.129999999999999893e-01,-3.276774655232726242e-03,1.356135704553152188e-01,-1.130105265816784138e-01
6.139999999999999902e-01,-1.147402673897549991e-01,1.603915597551203165e-01,-4.941599585737381506e-02
6.149999999999999911e-01,-1.733601761716291045e-01,8.685379740178479635e-02,1.638053321152072028e-02
6.159999999999999920e-01,-1.765075961120975978e-01,2.605972563194136615e-02,7.644118820211531773e-02
6.169999999999999929e-01,-8.562580809005235216e-02,-1.074758982695214332e-01,1.160725374359296430e-01
6.179999999999999938e-01,2.864182930896667575e-02,-1.304587150789220940e-01,9.877033020800242424e-02
6.189999999999999947e-01,1.394251110298564689e-01,-1.461456341329197550e-01,3.364741937953984879e-02
6.199999999999999956e-01,1.725058076933617679e-01,-7.885310332125286537e-02,-4.923190345263347978e-02
6.209999999999999964e-01,1.577324369483992794e-01,2.628828148055466218e-02,-1.127303801505743913e-01
6.219999999999999973e-01,3.534192880008992649e-02,1.009213834140420818e-01,-1.073102937618034963e-01
6.229999999999999982e-01,-7.342222644773088724e-02,1.645840428774698605e-01,-7.786557760004096662e-02
6.239999999999999991e-01,-1.697387261168148420e-01,1.170916025344418687e-01,-6.155851060613495504e-03
6.250000000000000000e-01,-1.847685850795011686e-01,3.266969265761737046e-02,6.178920831595013929e-02
6.260000000000000009e-01,-1.134475212454680304e-01,-5.390095462723652753e-02,1.229632709792009143e-01
6.270000000000000018e-01,-6.600443766983484645e-03,-1.588044332599384267e-01,8.511635990790977768e-02
6.280000000000000027e-01,1.190194862731769609e-01,-1.442204422425854282e-01,6.010076906285907739e-02
6.290000000000000036e-01,2.027983576414851830e-01,-5.812948796903780191e-02,-3.214246805782286498e-02
6.300000000000000044e-01,1.673719263018267345e-01,1.265148256059200893e-02,-1.056391427132494787e-01
6.310000000000000053e-01,9.774694648966246457e-02,1.231198256428903820e-01,-1.114767332654670179e-01
6.320000000000000062e-01,-1.834158604466285328e-02,1.601097187396484378e-01,-9.981282384445568090e-02
6.330000000000000071e-01,-1.454216957906381558e-01,1.085275447632583906e-01,-2.140712317634154219e-02
6.340000000000000080e-01,-1.988479145586032337e-01,3.333075024305897499e-02,4.161741366399700215e-02
6.350000000000000089e-01,-1.492426795175650633e-01,-5.042175525749544723e-02,1.036109607707817598e-01
6.360000000000000098e-01,-1.150978235633908810e-02,-1.267156920312391688e-01,1.279486647527353915e-01
6.370000000000000107e-01,9.652700197685339101e-02,-1.604105803194617319e-01,8.625838977908469041e-02
6.380000000000000115e-01,1.741756627291505266e-01,-1.041453510038600067e-01,6.941468538202557128e-05
6.390000000000000124e-01,1.612497187404758059e-01,4.067003799283258093e-03,-7.892097627731185783e-02
6.400000000000000133e-01,1.027718847827581994e-01,1.283106516225574201e-01,-1.344616996500840322e-01
6.410000000000000142e-01,-2.763894889310511763e-03,1.749854887453588248e-01,-7.555358316879559610e-02
6.420000000000000151e-01,-1.270822110140566730e-01,1.288879572427883979e-01,-3.435674750130249255e-02
6.430000000000000160e-01,-1.739785658518190059e-01,5.330214618662837411e-02,3.531359613413377792e-03
6.440000000000000169e-01,-1.667082559318041612e-01,-4.146778064765530014e-02,7.406277927326762600e-02
6.450000000000000178e-01,-6.221474928937648086e-02,-1.325964117737912229e-01,9.765675040735008472e-02
6.460000000000000187e-01,7.938455286368099884e-02,-1.572799879673625889e-01,1.217916853228399876e-01
6.470000000000000195e-01,1.586090839618588266e-01,-1.027855478418807506e-01,2.611393594237679944e-02
6.480000000000000204e-01,1.788011497423693807e-01,-1.722642508934068423e-02,-3.924668060711343498e-02
6.490000000000000213e-01,1.000268958227390065e-01,1.021232397884139220e-01,-9.016384121069431767e-02
6.500000000000000222e-01,-1.092745066552279422e-04,1.485062735426130598e-01,-9.318456627370649836e-02
6.510000000000000231e-01,-1.272161539618867077e-01,1.483959545510836753e-01,-5.208102643702430118e-02
6.520000000000000240e-01,-1.653827645618853315e-01,7.813397056278210961e-02,-8.717322270404621876e-03
6.530000000000000249e-01,-1.864016203117433157e-01,-3.180713010326364359e-02,6.059134687537026664e-02
6.540000000000000258e-01,-8.644406916023729404e-02,-1.144973938692691318e-01,9.552895749826589844e-02
6.550000000000000266e-01,4.217767929261228427e-02,-1.515694558606695275e-01,1.102682677435647129e-01
6.560000000000000275e-01,1.472354259073017368e-01,-1.080118018832357807e-01,5.450472195871082504e-02
6.570000000000000284e-01,1.829015971763701121e-01,-1.144197615215319062e-02,-2.407585868410845598e-02
6.580000000000000293e-01,1.362606397662004531e-01,7.317971731379183109e-02,-8.853126279739002846e-02
6.590000000000000302e-01,4.183654401977108389e-02,1.417096558511400928e-01,-1.210354561504836807e-01
6.600000000000000311e-01,-9.555007150535790861e-02,1.415245315667248982e-01,-9.399664004351265811e-02
6.610000000000000320e-01,-1.600103897510292417e-01,7.654454090566339963e-02,-3.453691590643190312e-02
6.620000000000000329e-01,-1.711775453941582481e-01,-1.562709987741596127e-02,3.215571616217495488e-02
6.630000000000000338e-01,-1.231889520415977851e-01,-1.158004922021077243e-01,1.041636886810484997e-01
6.640000000000000346e-01,-9.025110793240418913e-03,-1.293454004282052483e-01,1.033393527805419043e-01
6.650000000000000355e-01,1.256713128209765717e-01,-1.254423623835904389e-01,9.399490111788082192e-02
6.660000000000000364e-01,1.895772105518342965e-01,-5.587417102680109632e-02,2.181169869211330029e-04
6.670000000000000373e-01,1.632935201887100451e-01,4.516474015541156739e-02,-7.146655780303301508e-02
6.680000000000000382e-01,6.138231555751006568e-02,1.144558230342215682e-01,-1.205268173973668977e-01
6.690000000000000391e-01,-7.902461419962683586e-02,1.316177574792656568e-01,-1.023533245471312664e-01
6.700000000000000400e-01,-1.477449578641796823e-01,1.085738814940389041e-01,-3.156619606256402116e-02
6.710000000000000409e-01,-1.933870418796170831e-01,-2.870648985196446509e-03,2.526547484398496482e-02
6.720000000000000417e-01,-1.466565954082382495e-01,-8.366205571802563801e-02,8.241661384058406037e-02
6.730000000000000426e-01,-1.913032221736873581e-02,-1.481046002904156111e-01,1.125698963082082255e-01
6.740000000000000435e-01,1.040749407996847675e-01,-1.081716816853562496e-01,9.920214925426781849e-02
6.750000000000000444e-01,1.913671083124306727e-01,-6.602656724042267611e-02,3.322138843106167000e-02
6.760000000000000453e-01,1.625436612316057128e-01,5.691382346380280399e-02,-5.689220308330687065e-02
6.770000000000000462e-01,9.441789562983500528e-02,1.315403571258004778e-01,-9.532859283729706867e-02
6.780000000000000471e-01,-1.669255360009216579e-02,1.568146163492435963e-01,-1.155395846492160705e-01
6.790000000000000480e-01,-1.637724153361788393e-01,9.181474960649446682e-02,-6.627064367061692718e-02
6.800000000000000488e-01,-1.786974552084600598e-01,-5.064569592982780602e-03,1.703936890032263680e-03
6.810000000000000497e-01,-1.531502129012636826e-01,-8.191613216497026229e-02,7.372456361697193872e-02
6.820000000000000506e-01,-5.775378476189756138e-02,-1.593752778139997939e-01,1.073831042726801632e-01
6.830000000000000515e-01,8.867124540769347196e-02,-1.308027259591303670e-01,1.034554552333781519e-01
6.840000000000000524e-01,1.576061422461746964e-01,-4.923338950934397218e-02,1.980026346761014702e-02
6.850000000000000533e-01,1.812386002445252053e-01,3.614676806029961526e-02,-2.140339489985992535e-02
6.860000000000000542e-01,1.111394707700837231e-01,1.362015468673718477e-01,-8.149916618565719584e-02
6.870000000000000551e-01,-1.091123612941271963e-02,1.304291142207223420e-01,-9.986276153844332593e-02
6.879999999999999449e-01,-1.279112340293616923e-01,9.538833483579006733e-02,-8.817506209903243353e-02
6.889999999999999458e-01,-1.841354568838500794e-01,1.589906481791669365e-02,-2.415538395269431482e-02
6.899999999999999467e-01,-1.485048074531840623e-01,-5.693360313172849546e-02,5.532428534978009460e-02
6.909999999999999476e-01,-4.263044878922984948e-02,-1.654066710567263510e-01,9.242121937908850948e-02
6.919999999999999485e-01,6.774472078329432656e-02,-1.456442822472417964e-01,9.519331310267824253e-02
6.929999999999999494e-01,1.461687410476753546e-01,-5.696451721934270296e-02,8.962259379794654257e-02
6.939999999999999503e-01,1.944903909901926353e-01,1.413865864949686614e-02,1.372272417520817994e-02
6.949999999999999512e-01,1.561430615077703532e-01,9.365594357208714693e-02,-8.704819028446891815e-02
6.959999999999999520e-01,2.170714665091707379e-02,1.412326365111113147e-01,-1.093722729162242696e-01
6.969999999999999529e-01,-8.835116130175899030e-02,1.299767160551337508e-01,-9.448553874805057373e-02
6.979999999999999538e-01,-1.622448304721008927e-01,2.699715119677196726e-02,-5.299375142113763038e-02
6.989999999999999547e-01,-1.627289771327096457e-01,-6.804331715040369544e-02,2.287588009555239707e-02
6.999999999999999556e-01,-1.047196933779068057e-01,-1.136496147975201154e-01,7.907826086616963346e-02
7.009999999999999565e-01,1.100079553923719380e-02,-1.505986180528023077e-01,1.114020765855185391e-01
7.019999999999999574e-01,1.465523262612574151e-01,-1.044012628284363836e-01,8.805678447856699065e-02
7.029999999999999583e-01,1.949807927961486054e-01,1.517370438792778331e-02,2.289642509682308577e-02
7.039999999999999591e-01,1.729939467823319310e-01,9.960675019601289426e-02,-5.355974928522675566e-02
7.049999999999999600e-01,3.489816962025139163e-02,1.246258020076538714e-01,-1.172068637144681597e-01
7.059999999999999609e-01,-6.156286061371230023e-02,1.189405235265392075e-01,-1.055222337307323288e-01
7.069999999999999618e-01,-1.597345520185330658e-01,4.164062121278104545e-02,-6.714294532654287162e-02
7.079999999999999627e-01,-1.895653022910444296e-01,-4.684129822751593314e-02,-8.176518227315658291e-03
7.089999999999999636e-01,-1.182522357405347974e-01,-1.383516467931165117e-01,8.976254388893158132e-02
7.099999999999999645e-01,-2.111761126202929204e-02,-1.555732336228135004e-01,1.053456069972064091e-01
7.109999999999999654e-01,1.045901416131763129e-01,-8.497150684382333286e-02,9.264742699632254330e-02
7.119999999999999662e-01,1.618906034001884597e-01,-2.240993718186018793e-02,4.741399273938156494e-02
7.129999999999999671e-01,1.990627393510059073e-01,8.317068850772997568e-02,-1.422833461163070835e-02
7.139999999999999680e-01,8.012533505884730789e-02,1.372824326481620616e-01,-8.769898515747907852e-02
7.149999999999999689e-01,-3.038661593837703109e-02,1.414996090079646551e-01,-1.128869708323065740e-01
7.159999999999999698e-01,-1.507416326937554563e-01,8.111666837057768253e-02,-9.048272800143619676e-02
7.169999999999999707e-01,-1.893783921137895121e-01,-2.195464127453786510e-02,-1.541475156689052668e-02
7.179999999999999716e-01,-1.522197349154589541e-01,-1.236129639862065671e-01,2.854394572208966002e-02
7.189999999999999725e-01,-2.457185282435458626e-02,-1.419132618955965541e-01,8.947676560370448895e-02
7.199999999999999734e-01,7.649845343025972466e-02,-1.076651448221618013e-01,1.181260572311752383e-01
7.209999999999999742e-01,1.797042515701046672e-01,-3.630320852212916977e-02,6.182582795267650005e-02
7.219999999999999751e-01,1.697357239599032730e-01,6.603581475526418276e-02,-1.285983445088262345e-02
7.229999999999999760e-01,1.281017545057553109e-01,1.396951351074203485e-01,-8.738582718452551912e-02
7.239999999999999769e-01,-1.666723356190226782e-02,1.348521338040207518e-01,-1.285653017697400979e-01
7.249999999999999778e-01,-1.215879584343321773e-01,7.297423021231737306e-02,-9.774471615252969259e-02
7.259999999999999787e-01,-1.924996671610269550e-01,-2.914575104266180910e-02,-4.175592738995432401e-02
7.269999999999999796e-01,-1.678343018572637235e-01,-1.041569813351397589e-01,2.907993372449020272e-02
7.279999999999999805e-01,-7.083549835353729340e-02,-1.419041400945089959e-01,8.691784329644494655e-02
7.289999999999999813e-01,6.101884494405813986e-02,-1.068451663067333107e-01,1.083185672701351410e-01
7.299999999999999822e-01,1.634283208087248529e-01,-6.608020488437765794e-02,9.226439437841414681e-02
7.309999999999999831e-01,1.841340211913209401e-01,5.516759765766310331e-02,4.330616310495471327e-02
7.319999999999999840e-01,1.129311873546354900e-01,1.272510849282458556e-01,-5.248898304615477739e-02
7.329999999999999849e-01,3.157581376854032285e-02,1.465065994759528756e-01,-1.081676082112231763e-01
7.339999999999999858e-01,-1.210799289378357568e-01,9.733324848461628875e-02,-1.226197245049659296e-01
7.349999999999999867e-01,-1.673664280488749712e-01,-2.003856390708540214e-02,-7.271014569373386582e-02
7.359999999999999876e-01,-1.844011872522983708e-01,-7.818606999310756533e-02,-7.592421658776066055e-03
7.369999999999999885e-01,-8.008506226932243788e-02,-1.726788746089454873e-01,7.338904014197725201e-02
7.379999999999999893e-01,3.671741102590293793e-02,-1.387156278051739910e-01,1.087145236996824582e-01
7.389999999999999902e-01,1.577423134193575716e-01,-5.104165017454538600e-02,8.408773159734332647e-02
7.399999999999999911e-01,1.865700022210946551e-01,5.001614229722980282e-02,2.738435526709924808e-02
7.409999999999999920e-01,1.554251698029499307e-01,1.441948888019687625e-01,-4.240661197508774349e-02
7.419999999999999929e-01,5.594587233920093189e-02,1.476034785006102856e-01,-8.100885140737516810e-02
7.429999999999999938e-01,-5.545413309286578024e-02,1.011258870870357790e-01,-1.229050696552699135e-01
7.439999999999999947e-01,-1.538147224419536274e-01,1.663557203640111254e-02,-7.732075250821381085e-02
7.449999999999999956e-01,-1.968703122382527704e-01,-7.450824488269999768e-02,-2.789593752994019848e-02
7.459999999999999964e-01,-1.383643419745620162e-01,-1.491487722426639295e-01,5.605381896865858915e-02
7.469999999999999973e-01,-2.350936650578071860e-04,-1.363613693541644023e-01,9.495077493387311940e-02
7.479999999999999982e-01,1.159171920868452971e-01,-6.404640631624212987e-02,1.136914080723662179e-01
7.489999999999999991e-01,1.809376637414410738e-01,6.110955038393628934e-03,7.591581442475905939e-02
7.500000000000000000e-01,1.468671776234115878e-01,1.144337613204659682e-01,2.452797942959936833e-02
7.510000000000000009e-01,9.656011057185179269e-02,1.654299909018331072e-01,-7.110986300021487905e-02
7.520000000000000018e-01,-5.226015317203943494e-02,9.783562692600231148e-02,-1.255398854791038576e-01
7.530000000000000027e-01,-1.623469047798433151e-01,2.131283758278304866e-02,-9.169903256859650298e-02
7.540000000000000036e-01,-1.798759644072214503e-01,-7.836240350340009653e-02,-5.979055110596858541e-02
7.550000000000000044e-01,-1.475957567937424275e-01,-1.380567122873293806e-01,4.474631988844082059e-02
7.560000000000000053e-01,-3.507549921225917855e-02,-1.545739332000718169e-01,9.147712583328801439e-02
7.570000000000000062e-01,9.800311259679785059e-02,-8.109272953610184576e-02,9.841674888562845780e-02
7.580000000000000071e-01,1.798525014988122395e-01,2.193485687491035160e-02,7.938455067776842289e-02
7.590000000000000080e-01,1.542037553555079821e-01,1.030708889346740459e-01,1.785979379464811348e-02
7.600000000000000089e-01,1.243516586730569334e-01,1.634087249762467553e-01,-5.691843414934628920e-02
7.610000000000000098e-01,-3.206866488992079350e-02,1.244917045637958103e-01,-9.669483634313039144e-02
7.620000000000000107e-01,-1.375972395754445354e-01,5.103440641991743854e-02,-1.110411320652980177e-01
7.630000000000000115e-01,-1.745685256662906637e-01,-5.265933197110517217e-02,-4.243821374729026680e-02
7.640000000000000124e-01,-1.478503202288417862e-01,-1.343275990668494901e-01,5.769480522365650309e-03
7.650000000000000133e-01,-4.311282190392543012e-02,-1.439756943613719753e-01,7.330119454538894241e-02
7.660000000000000142e-01,5.670772443652492140e-02,-1.090710915102131723e-01,1.096493323953289245e-01
7.670000000000000151e-01,1.655628524844549587e-01,1.645531260448993742e-03,1.013067302418078214e-01
7.680000000000000160e-01,1.997089210600510589e-01,8.956388486804002513e-02,5.112217621242220317e-02
7.690000000000000169e-01,1.371018590992755803e-01,1.595745316036854544e-01,-3.343691012438147758e-02
7.700000000000000178e-01,6.063514065168107772e-03,1.319306803812617113e-01,-1.032387692027898762e-01
7.710000000000000187e-01,-9.225938540037341429e-02,4.906529691271416249e-02,-9.237863562905614112e-02
7.720000000000000195e-01,-1.672391668140180698e-01,-6.086243635217096493e-02,-7.201603264530213877e-02
7.730000000000000204e-01,-1.682161958812635194e-01,-1.355402555502068229e-01,-1.978675373060018172e-02
7.740000000000000213e-01,-8.817332800671744131e-02,-1.644562059980361479e-01,5.211445305822171720e-02
7.750000000000000222e-01,5.398581894338165543e-02,-1.030445185233955091e-01,1.003086803262476651e-01
7.760000000000000231e-01,1.265628195781824117e-01,-2.835712974246767937e-02,1.014993860231553080e-01
7.770000000000000240e-01,1.828262330112221390e-01,8.160150676813639203e-02,6.114157664774191175e-02
7.780000000000000249e-01,1.336760489652260853e-01,1.475817170008453527e-01,-3.371646076070394294e-04
7.790000000000000258e-01,4.715924660988780187e-02,1.133144390202141805e-01,-7.672306092637798391e-02
7.800000000000000266e-01,-7.676848082612831858e-02,5.688812155123270514e-02,-1.051985790583749303e-01
7.810000000000000275e-01,-1.868110451128935368e-01,-3.228719855091494867e-02,-1.179030899680187511e-01
7.820000000000000284e-01,-1.585465427599301591e-01,-1.081684147047747152e-01,-4.549704309813965009e-02
7.830000000000000293e-01,-1.060879184503471934e-01,-1.409899112188362225e-01,4.184214696537884998e-02
7.840000000000000302e-01,-6.326881307099674161e-03,-1.022033601956446325e-01,1.028660806464155170e-01
7.850000000000000311e-01,1.404689368681657780e-01,-4.023696549502794872e-02,1.233436110638099076e-01
7.860000000000000320e-01,1.811858553904914237e-01,5.646499340812742573e-02,9.501223505223040100e-02
7.870000000000000329e-01,1.518415120432979881e-01,1.362590778597676799e-01,1.111210117576514125e-03
7.880000000000000338e-01,7.059997468891704431e-02,1.193375688608704355e-01,-4.896488055987076315e-02
7.890000000000000346e-01,-2.944527658765886194e-02,9.236185198669848162e-02,-9.916583649537592804e-02
7.900000000000000355e-01,-1.719710036202770909e-01,-2.738229999102046938e-02,-1.127599142319181402e-01
7.910000000000000364e-01,-1.808778167869002640e-01,-9.778042394605322707e-02,-5.625556621685378483e-02
7.920000000000000373e-01,-1.418558153302099112e-01,-1.453492507958754620e-01,3.339284183015428856e-03
7.930000000000000382e-01,-6.245156878857246498e-03,-1.380175781697407233e-01,9.646876676397186934e-02
7.940000000000000391e-01,9.771578299645777843e-02,-4.468629383521723064e-02,9.824361985839656641e-02
7.950000000000000400e-01,1.759371571394902356e-01,6.799161474143747275e-02,9.001445138909015820e-02
7.960000000000000409e-01,1.940777013247696747e-01,1.342544266352284077e-01,6.850708581562534039e-02
7.970000000000000417e-01,7.750762300346038247e-02,1.516422539398645797e-01,-2.872369806100406528e-02
7.980000000000000426e-01,-3.132742658218544418e-02,8.242529851964977561e-02,-1.039499094983034055e-01
7.990000000000000435e-01,-1.306915748157105595e-01,-3.818312006408555725e-02,-9.032064585084445540e-02
8.000000000000000444e-01,-2.069763471764859142e-01,-1.111027041322095316e-01,-8.644467255941372386e-02
8.010000000000000453e-01,-1.508169882820756258e-01,-1.550042324308494313e-01,-3.862705652959421559e-02
8.020000000000000462e-01,-3.930090858348718463e-02,-1.302446277989486589e-01,4.862867065456251414e-02
8.030000000000000471e-01,9.824843038322161881e-02,-4.659586543778168610e-02,9.933003739523790787e-02
8.040000000000000480e-01,1.638270363108448868e-01,5.592223373760157185e-02,9.314333552192712029e-02
8.050000000000000488e-01,1.914850775445418873e-01,1.281593884128008065e-01,8.870822957051761881e-02
8.060000000000000497e-01,1.182720658771977962e-01,1.397546176242412397e-01,-8.968511305594525571e-03
8.070000000000000506e-01,-1.337098272269198959e-02,1.208019544180832239e-01,-7.336795283023503367e-02
8.080000000000000515e-01,-1.453683915500971202e-01,3.728856223960781788e-03,-1.286572053133652471e-01
8.090000000000000524e-01,-1.697124020353192042e-01,-9.912039795676261256e-02,-8.598601340697500928e-02
8.100000000000000533e-01,-1.564504848348000909e-01,-1.372818124830326170e-01,-3.465473338962125893e-02
8.110000000000000542e-01,-7.049612147313741306e-02,-1.345040123539376353e-01,3.311522698968450557e-02
8.120000000000000551e-01,6.151177936892544829e-02,-5.772773211897983675e-02,8.308147002904886502e-02
8.129999999999999449e-01,1.291094967330435883e-01,4.431006507182602694e-02,1.002216429401948522e-01
8.139999999999999458e-01,1.918667472500801274e-01,1.070607688746804537e-01,9.963513484902361550e-02
8.149999999999999467e-01,1.594092649655973193e-01,1.682329378049089441e-01,1.922963999596175727e-02
8.159999999999999476e-01,2.402761390829555310e-02,1.148238308427554782e-01,-6.135287204379342996e-02
8.169999999999999485e-01,-7.601352882611782380e-02,2.549848870536066195e-02,-9.374233974571015426e-02
8.179999999999999494e-01,-1.753575228914479589e-01,-6.615867952407795960e-02,-1.215424973749022475e-01
8.189999999999999503e-01,-1.753943982354275455e-01,-1.513989719077271923e-01,-7.049872354802541596e-02
8.199999999999999512e-01,-8.892148805726216021e-02,-1.565116314085070737e-01,-2.527079233296198116e-03
8.209999999999999520e-01,1.453223817059239899e-02,-8.261424592150980184e-02,7.579752971672848449e-02
8.219999999999999529e-01,1.361165047414859830e-01,3.877967262421064959e-02,9.921713023952012656e-02
8.229999999999999538e-01,1.770975779048495347e-01,1.103946177872208861e-01,9.712459965071224000e-02
8.239999999999999547e-01,1.709618288073116443e-01,1.260367896412870614e-01,5.695765622805157996e-02
8.249999999999999556e-01,5.236159423096710397e-02,1.192364915383335028e-01,-3.794122256761457007e-02
8.259999999999999565e-01,-6.952641946843925169e-02,3.364354322282066961e-02,-1.297565653719543466e-01
8.269999999999999574e-01,-1.639056169517018879e-01,-5.628081874766489856e-02,-1.280122064168920104e-01
8.279999999999999583e-01,-1.919330261118499803e-01,-1.367831887022236403e-01,-8.933649407228656802e-02
8.289999999999999591e-01,-1.308924104391104015e-01,-1.491639857274380532e-01,-3.936844872219016911e-02
8.299999999999999600e-01,-1.921475765662216187e-02,-6.856847308441567368e-02,5.439215167224353137e-02
8.309999999999999609e-01,9.583587549513973569e-02,8.895067171759026697e-03,8.541580184110435237e-02
8.319999999999999618e-01,1.800196954019439577e-01,1.086442224834504727e-01,1.235578365085195640e-01
8.329999999999999627e-01,1.796874961393075121e-01,1.292943375030063125e-01,6.930368496081376617e-02
8.339999999999999636e-01,7.255058847128686983e-02,1.056416020694961738e-01,3.827231665985228286e-03
8.349999999999999645e-01,-3.558328178234478056e-02,6.282487882445395022e-02,-7.552608216282910569e-02
8.359999999999999654e-01,-1.493789509307105745e-01,-5.602384695754507316e-02,-1.088570373674879466e-01
8.369999999999999662e-01,-1.939686760452475067e-01,-1.306380555634462648e-01,-9.367790698400869920e-02
8.379999999999999671e-01,-1.486540780676583184e-01,-1.730761160755576455e-01,-3.780319830301239609e-02
8.389999999999999680e-01,-5.309933288723690109e-02,-8.725443494275067491e-02,4.887778868532489246e-02
8.399999999999999689e-01,7.819988385730722302e-02,-2.378138036382426018e-02,8.935795011524953757e-02
8.409999999999999698e-01,1.706073867926504728e-01,9.600621793286522043e-02,1.204445601913744918e-01
8.419999999999999707e-01,1.952965385285471422e-01,1.188015463403698652e-01,5.554769705263517404e-02
8.429999999999999716e-01,1.182388027597556790e-01,1.305006044401927634e-01,1.471683636841097410e-02
8.439999999999999725e-01,-1.294648047731768517e-02,7.839030578495048696e-02,-7.205806646347272248e-02
8.449999999999999734e-01,-1.281765065856161068e-01,-5.571750812450246282e-02,-1.023568607890995574e-01
8.459999999999999742e-01,-1.984554432999953988e-01,-1.114526870300620170e-01,-1.235300325077001993e-01
8.469999999999999751e-01,-1.597508676517865045e-01,-1.493104152809939800e-01,-9.647643194883812057e-02
8.479999999999999760e-01,-6.537043735396444455e-02,-9.852777692701585044e-02,1.845071322174036618e-02
8.489999999999999769e-01,5.382292993719099000e-02,-2.369133677453641798e-02,5.670221587077647896e-02
8.499999999999999778e-01,1.405995956240445321e-01,7.960534586724851702e-02,1.216277584352903340e-01
8.509999999999999787e-01,1.954043047534191613e-01,1.425551608316197039e-01,9.916051997200556190e-02
8.519999999999999796e-01,1.340069794975222717e-01,1.345300664479916752e-01,7.107892674213517337e-02
8.529999999999999805e-01,2.253934687907291345e-02,7.371437471822746279e-02,-2.537111198488310043e-02
8.539999999999999813e-01,-8.190973579799487592e-02,-7.728398333562660170e-03,-1.048343478536372941e-01
8.549999999999999822e-01,-1.846707312839976634e-01,-1.145338090623999605e-01,-1.251066001184827359e-01
8.559999999999999831e-01,-1.820134171911431953e-01,-1.560545320443530171e-01,-7.548647169497529896e-02
8.569999999999999840e-01,-7.622393633800231272e-02,-1.437318978109300427e-01,-2.459066858127470154e-02
8.579999999999999849e-01,2.192258800426995224e-02,-4.846925994760038769e-02,5.733773422819441606e-02
8.589999999999999858e-01,1.260864063750425090e-01,6.162634635406896710e-02,1.082762880565969060e-01
8.599999999999999867e-01,1.722257840544565988e-01,1.338118435742254031e-01,1.096205210454188894e-01
8.609999999999999876e-01,1.349154435511714656e-01,1.429899521874057056e-01,6.662209076743158542e-02
8.619999999999999885e-01,4.040822558686892052e-02,8.818392482433605462e-02,-4.630428458311089401e-03
8.629999999999999893e-01,-9.286943598771239816e-02,-4.338276250814810178e-03,-7.161809813185726625e-02
8.639999999999999902e-01,-1.746758570198291283e-01,-9.444977857389103004e-02,-9.651982128606598210e-02
8.649999999999999911e-01,-1.719254602003661425e-01,-1.588410485887666868e-01,-9.765408462601721240e-02
8.659999999999999920e-01,-1.152847509415694527e-01,-1.246704941844421904e-01,-4.838686947631459789e-02
8.669999999999999929e-01,-2.259752865509132534e-03,-5.577100112557803469e-02,1.107664344114697025e-02
8.679999999999999938e-01,1.119054229365590014e-01,5.955610153609442597e-02,9.585502222199170086e-02
8.689999999999999947e-01,1.751063993083241677e-01,1.217244850045316462e-01,1.079118798962164921e-01
8.699999999999999956e-01,1.695303880786030726e-01,1.382963511549080426e-01,1.016618912938684754e-01
8.709999999999999964e-01,5.440076842479490971e-02,1.136880330674159278e-01,5.659040594240829017e-03
8.719999999999999973e-01,-3.309094831965699729e-02,5.972216094220605086e-03,-6.017526354547742679e-02
8.729999999999999982e-01,-1.565616017571395402e-01,-7.544376420878598499e-02,-1.040886987780613587e-01
8.739999999999999991e-01,-2.034207922773164368e-01,-1.636628308849509550e-01,-1.134874222192004123e-01
8.750000000000000000e-01,-1.314031439115238009e-01,-1.247130569253576404e-01,-7.324289861394842061e-02
8.760000000000000009e-01,-4.693455957743655066e-02,-5.783133160662968369e-02,-1.374054631027229675e-02
8.770000000000000018e-01,1.062744205817459098e-01,4.362353656110152383e-02,8.769051684647109768e-02
8.780000000000000027e-01,1.524422750440099505e-01,1.319249892161409310e-01,1.142409296283175418e-01
8.790000000000000036e-01,1.762125924522885412e-01,1.498270182608595069e-01,8.578590122353785263e-02
8.800000000000000044e-01,9.393343720716886003e-02,1.144529940650924338e-01,4.938814096796414338e-02
8.810000000000000053e-01,-3.683246742620916586e-02,2.123957007251855642e-02,-5.274587211186070046e-02
8.820000000000000062e-01,-1.505969352011997386e-01,-6.375856763434542551e-02,-8.962904729226449374e-02
8.830000000000000071e-01,-1.698004202996639123e-01,-1.382987936215670788e-01,-1.013671855130871685e-01
8.840000000000000080e-01,-1.694112127266582946e-01,-1.538148618666144718e-01,-9.550871882565686866e-02
8.850000000000000089e-01,-6.061765185686713436e-02,-1.010445741108491058e-01,-4.362929109824791388e-03
8.860000000000000098e-01,6.361277963576462968e-02,1.315710506114872898e-02,3.376236716943635530e-02
8.870000000000000107e-01,1.816084446183512668e-01,1.094950667338252248e-01,1.135050258514029298e-01
8.880000000000000115e-01,2.004085033313053044e-01,1.453346291117950662e-01,1.166491041750736674e-01
8.890000000000000124e-01,1.254205319697920262e-01,1.032051581053702871e-01,5.719504630784516541e-02
8.900000000000000133e-01,1.466896345900133881e-02,3.615068834711775841e-02,-9.220706576826661477e-03
8.910000000000000142e-01,-1.059852993819609124e-01,-8.538697382135715386e-02,-4.068521567191042687e-02
8.920000000000000151e-01,-1.785556724814326701e-01,-1.448697402580763904e-01,-1.251268237227091684e-01
8.930000000000000160e-01,-1.740943745086410421e-01,-1.170124920756383802e-01,-8.832272494951709518e-02
8.940000000000000169e-01,-6.446066333484619382e-02,-9.493503151943413765e-02,-4.986928299495767963e-02
8.950000000000000178e-01,3.400847023470292274e-02,1.447467903815854995e-02,3.932131782429830469e-02
8.960000000000000187e-01,1.639477091055054625e-01,1.011286872577371876e-01,1.006831168246171970e-01
8.970000000000000195e-01,2.019828150923848042e-01,1.396557379363755624e-01,1.090668279754574838e-01
8.980000000000000204e-01,1.547933308054654233e-01,1.276740797631994717e-01,7.749286882159080181e-02
8.990000000000000213e-01,5.764424605986642747e-02,5.378833622151209248e-02,1.611705955107177804e-02
9.000000000000000222e-01,-7.969765664984146403e-02,-5.366169313045190264e-02,-5.684373825225264715e-02
9.010000000000000231e-01,-1.567697589013394288e-01,-1.206721158243478365e-01,-1.138182903958307596e-01
9.020000000000000240e-01,-1.668380373373290482e-01,-1.568777328514113500e-01,-9.733436564423265935e-02
9.030000000000000249e-01,-9.514374178777165736e-02,-1.129247190354063235e-01,-4.936137356195654385e-02
9.040000000000000258e-01,5.418196495147614006e-03,-3.475263421151164600e-02,3.581396836269370738e-03
9.050000000000000266e-01,1.281359360667856384e-01,8.418329927681489355e-02,6.608530773652619705e-02
9.060000000000000275e-01,1.882524340465963064e-01,1.620435478009592256e-01,1.369167728287277730e-01
9.070000000000000284e-01,1.533125232808608407e-01,1.305737143576723713e-01,8.545614587696309661e-02
9.080000000000000293e-01,6.166114865296509068e-02,7.546532810521865142e-02,4.373045950008245392e-02
9.090000000000000302e-01,-7.346763045364876343e-02,-3.411765811937622628e-02,-2.372790226944122144e-02
9.100000000000000311e-01,-1.612289771606777999e-01,-1.260426785275425843e-01,-8.399129796792087488e-02
9.110000000000000320e-01,-1.800798505163404839e-01,-1.606779905169841427e-01,-1.147905641415657152e-01
9.120000000000000329e-01,-1.244893648855574242e-01,-1.341501538890959300e-01,-6.599658622726749246e-02
9.130000000000000338e-01,-1.856984296571448714e-02,-1.769528281788318100e-02,-2.647877716002602563e-02
9.140000000000000346e-01,9.590207244544840526e-02,5.318242105803749897e-02,6.075883150128747606e-02
9.150000000000000355e-01,1.892449742056898365e-01,1.314900410563289712e-01,8.422038036140663819e-02
9.160000000000000364e-01,1.716771647820350133e-01,1.529058856684513690e-01,1.153820480749551680e-01
9.170000000000000373e-01,1.057193105201659489e-01,7.812843185211507113e-02,4.054497177882315090e-02
9.180000000000000382e-01,-7.531479746716696066e-03,-2.088572923735683776e-02,-1.117603981807647334e-02
9.190000000000000391e-01,-1.424733858241266082e-01,-1.106583552047122748e-01,-1.059870512980239515e-01
9.200000000000000400e-01,-1.899249239138130485e-01,-1.552220172760253314e-01,-1.120121824505821845e-01
9.210000000000000409e-01,-1.581626835636955608e-01,-1.290055837079275014e-01,-8.824335324254560520e-02
9.220000000000000417e-01,-6.572010736337756398e-02,-1.927874975533753685e-02,-4.610731006821782579e-02
9.230000000000000426e-01,9.571351378582498848e-02,5.896815758801825236e-02,3.205254191924651608e-02
9.240000000000000435e-01,1.679305219221745027e-01,1.060791427149317262e-01,9.388204816345564752e-02
9.250000000000000444e-01,1.870514895454859772e-01,1.551238849073655335e-01,1.116145346064449789e-01
9.260000000000000453e-01,1.488599350539440147e-01,8.511478998430177523e-02,9.026201291969926377e-02
9.270000000000000462e-01,1.171502398969798651e-02,-7.894834842707764561e-03,2.546185729844893664e-02
9.280000000000000471e-01,-1.130901601553790659e-01,-1.080402463820927111e-01,-5.967992795569915937e-02
9.290000000000000480e-01,-1.856440002152445479e-01,-1.445921298253234899e-01,-9.426304965059294216e-02
9.300000000000000488e-01,-1.862129570923773403e-01,-1.460576358092379734e-01,-1.146504853303379062e-01
9.310000000000000497e-01,-9.187582297798738140e-02,-4.702417435614930641e-02,-5.725588535951683933e-02
9.320000000000000506e-01,4.684406398660317244e-02,7.697102116810423944e-02,2.379543555942640470e-02
9.330000000000000515e-01,1.420145662691417454e-01,1.262855915014496899e-01,8.007106703718883112e-02
9.340000000000000524e-01,1.762704499679224046e-01,1.464536148364846690e-01,1.086130208398953800e-01
9.350000000000000533e-01,1.584913725034956533e-01,1.006302566620904254e-01,1.017115062233270723e-01
9.360000000000000542e-01,1.480665866760956344e-02,-1.887130526346830154e-03,3.962649767810235563e-02
9.370000000000000551e-01,-8.572062314027623087e-02,-1.081541122637488112e-01,-3.608227394521746484e-02
9.379999999999999449e-01,-1.599654522987669358e-01,-1.473177944998217137e-01,-8.589041961848739581e-02
9.389999999999999458e-01,-1.797170774478308586e-01,-1.229486484173916427e-01,-9.918331076689487769e-02
9.399999999999999467e-01,-9.772323343676372898e-02,-6.305527119713724704e-02,-8.098729454220603141e-02
9.409999999999999476e-01,2.129975243343343316e-02,3.385920779833534455e-02,-1.193687167428803507e-02
9.419999999999999485e-01,1.243482483199359334e-01,1.177702210821384848e-01,6.410374406535278291e-02
9.429999999999999494e-01,1.905748052144755622e-01,1.400764031351022232e-01,9.947747753303598506e-02
9.439999999999999503e-01,1.756750370185283239e-01,1.118237772961887810e-01,1.160938440501250307e-01
9.449999999999999512e-01,5.895456057017810919e-02,3.071267112345390377e-02,4.534659807305995577e-02
9.459999999999999520e-01,-7.017012178363850328e-02,-8.097427133754113437e-02,-1.245449179434930491e-02
9.469999999999999529e-01,-1.503896886153720247e-01,-1.436769680673758154e-01,-8.664556204038054155e-02
9.479999999999999538e-01,-1.963856564778566072e-01,-1.469474710341132917e-01,-1.009691805273370824e-01
9.489999999999999547e-01,-1.609636363886715604e-01,-7.090058021025098800e-02,-8.997410988872851789e-02
9.499999999999999556e-01,-2.416948251416369681e-02,4.701298150307115647e-02,-4.364538235740621219e-02
9.509999999999999565e-01,1.028798032944072821e-01,1.081279911201987048e-01,3.757992237895534104e-02
9.519999999999999574e-01,1.854262289180431955e-01,1.637144633657590942e-01,8.307213660914368469e-02
9.529999999999999583e-01,1.696105761710991200e-01,1.342258840658180352e-01,1.248649013214945397e-01
9.539999999999999591e-01,8.134968215021716464e-02,3.636742654025034577e-02,6.723062263990767229e-02
9.549999999999999600e-01,-4.116882763186156119e-02,-8.432018179368604149e-02,2.735662911851725887e-03
9.559999999999999609e-01,-1.459256333495149993e-01,-1.362115347904785667e-01,-7.621962677654360585e-02
9.569999999999999618e-01,-1.819784017830310408e-01,-1.276116789571355159e-01,-1.122811843165263668e-01
9.579999999999999627e-01,-1.687242729257711349e-01,-7.115836399177088989e-02,-1.086591614030083253e-01
9.589999999999999636e-01,-6.117512199208194335e-02,3.264828977198785953e-02,-4.599349851681070606e-02
9.599999999999999645e-01,8.282168950560640786e-02,1.102430069898715642e-01,8.633117366658334818e-03
9.609999999999999654e-01,1.651097988259109250e-01,1.533718489693125797e-01,7.754445365879214513e-02
9.619999999999999662e-01,1.766301332829926796e-01,1.144329063713347833e-01,1.116958515911543465e-01
9.629999999999999671e-01,1.187420745282030815e-01,3.511261913253460598e-02,1.041954950454217627e-01
9.639999999999999680e-01,1.136106515152205711e-02,-4.599492681682578604e-02,6.378461662586161485e-02
9.649999999999999689e-01,-1.353042156156399056e-01,-1.279642896649381689e-01,-4.154252559454640198e-02
9.659999999999999698e-01,-1.632970304927093275e-01,-1.443783496215389761e-01,-7.343359531056817269e-02
9.669999999999999707e-01,-1.546601254557147254e-01,-8.426724697870492664e-02,-1.157619517815114962e-01
9.679999999999999716e-01,-7.781401689447269010e-02,-1.313819206910176937e-02,-7.275392010786807528e-02
9.689999999999999725e-01,5.983056857287876590e-02,1.035664190669852158e-01,3.707805241232553246e-03
9.699999999999999734e-01,1.577205225149119761e-01,1.672326781698482423e-01,5.588764744018998726e-02
9.709999999999999742e-01,1.578190593464796343e-01,1.591811556517580550e-01,1.018103981818062886e-01
9.719999999999999751e-01,1.322528427061470391e-01,2.994789048159560152e-02,1.053430198021832465e-01
9.729999999999999760e-01,1.178673732165217043e-02,-3.620057092259478665e-02,5.528875512148516413e-02
9.739999999999999769e-01,-7.494690763015229851e-02,-1.130692228844873276e-01,-7.557970252494270076e-03
9.749999999999999778e-01,-1.736722822561121704e-01,-1.629836313887794708e-01,-8.148143439909781571e-02
9.759999999999999787e-01,-1.733196544904892222e-01,-1.196526692705736777e-01,-1.050877200083637497e-01
9.769999999999999796e-01,-1.152894063683550935e-01,-1.626731142387255469e-02,-1.187142749328514851e-01
9.779999999999999805e-01,2.640967997164098829e-02,7.602724463000648525e-02,-2.656586262961067521e-02
9.789999999999999813e-01,1.386772527924436393e-01,1.324334436048721364e-01,4.226952000967391238e-02
9.799999999999999822e-01,1.861842946130289889e-01,1.523776422727325941e-01,8.519604657981350027e-02
9.809999999999999831e-01,1.831184173282826289e-01,7.086456321545876735e-02,1.058735186564758041e-01
9.819999999999999840e-01,6.992854615650230532e-02,-2.859201576722882748e-02,8.786927299310924588e-02
9.829999999999999849e-01,-6.726021376380002248e-02,-1.164431140187441177e-01,1.664486228566798912e-02
9.839999999999999858e-01,-1.688977968131176455e-01,-1.510540472145375512e-01,-9.698855467180042544e-02
9.849999999999999867e-01,-1.796175908448963687e-01,-1.232261647217495898e-01,-9.929179012261638015e-02
9.859999999999999876e-01,-1.413814038493234615e-01,-5.665360441104171779e-02,-1.098663934331485376e-01
9.869999999999999885e-01,4.053089114776511383e-03,5.192183947316549725e-02,-5.319765674012567197e-02
9.879999999999999893e-01,1.079646915947681529e-01,1.259857097148398275e-01,2.794969180889273971e-02
9.889999999999999902e-01,1.647270822364521325e-01,1.619330885727612579e-01,7.488350176674037073e-02
9.899999999999999911e-01,1.804130233047184784e-01,8.194250610149898806e-02,1.034167635601696139e-01
9.909999999999999920e-01,7.765756074177973534e-02,-4.519380754442588188e-03,8.621554658106264646e-02
9.919999999999999929e-01,-7.190044766263900544e-02,-9.241269073003767487e-02,3.612781189126915149e-02
9.929999999999999938e-01,-1.373019394484709110e-01,-1.482732042604007761e-01,-3.525155032552974854e-02
9.939999999999999947e-01,-2.100689957523864670e-01,-1.260400397051865684e-01,-9.923880442960061887e-02
9.949999999999999956e-01,-1.535099743785019455e-01,-3.579686107174096660e-02,-1.022934196165504461e-01
9.959999999999999964e-01,-1.554913862887408356e-02,3.088675035323749929e-02,-8.539120718082048034e-02
9.969999999999999973e-01,9.259038130186082738e-02,1.421010455773845660e-01,1.271722078636599446e-02
9.979999999999999982e-01,1.770838783380773163e-01,1.547334422315987945e-01,6.598324681192822838e-02
9.989999999999999991e-01,1.935598778201333414e-01,1.057350279579676866e-01,1.076234851423236577e-01
1.000000000000000000e+00,9.844522996287174976e-02,7.189561491837613734e-03,1.118210461899067920e-01
1.000999999999999890e+00,-2.494435121872144723e-02,-9.998151465152961548e-02,3.428229743606754643e-02
1.002000000000000002e+00,-1.555746427338028093e-01,-1.313514709888164156e-01,-1.039133517284563518e-02
1.002999999999999892e+00,-1.819670823238928314e-01,-1.376665109819114052e-01,-8.187260841968720115e-02
1.004000000000000004e+00,-1.751508235793995394e-01,-6.335349722931137018e-02,-1.289738296614078017e-01
1.004999999999999893e+00,-6.983513582478029225e-02,4.762583408315921446e-02,-1.028916804030366866e-01
1.006000000000000005e+00,5.045015582218820294e-02,1.280902580181343675e-01,-2.011993930700032782e-02
1.006999999999999895e+00,1.582030434802837449e-01,1.321578067601856810e-01,4.483024147746504651e-02
1.008000000000000007e+00,1.827763588609226941e-01,1.069792685944047916e-01,9.154533909496762045e-02
1.008999999999999897e+00,1.501818452549683325e-01,1.214039084887099350e-02,1.055926108939883312e-01
1.010000000000000009e+00,9.782441032190718200e-04,-9.593322790433815583e-02,6.516401380785737107e-02
1.010999999999999899e+00,-9.240413013805427733e-02,-1.336995870482798610e-01,-2.359539151732984591e-03
1.012000000000000011e+00,-1.777376336942058099e-01,-1.541647898289735252e-01,-5.894562116295282844e-02
1.012999999999999901e+00,-1.796256014616074981e-01,-8.583801260241484543e-02,-1.258793458977394975e-01
1.014000000000000012e+00,-1.063034265797374311e-01,3.370223538042033985e-03,-1.299902961336485419e-01
1.014999999999999902e+00,5.073123063919334624e-02,1.161844317402179610e-01,-4.459590721695895488e-02
1.016000000000000014e+00,1.315094932872664379e-01,1.557779036651192051e-01,3.125741656231935135e-03
1.016999999999999904e+00,1.690414058060491775e-01,1.288375937584964048e-01,9.425022569188376553e-02
1.018000000000000016e+00,1.518319247718232790e-01,4.128499005659927445e-02,1.215466460601757059e-01
1.018999999999999906e+00,6.157651044194180356e-02,-6.806211267381001573e-02,7.402143342731434816e-02
1.020000000000000018e+00,-5.246767276553518378e-02,-1.477442736881001140e-01,3.862607871721591979e-02
1.020999999999999908e+00,-1.630613465257081951e-01,-1.747970689579175785e-01,-5.114776673079734354e-02
1.022000000000000020e+00,-1.744048459212200197e-01,-7.655192088315604382e-02,-9.731191189328779190e-02
1.022999999999999909e+00,-1.271476638456895958e-01,1.228316363754397567e-02,-1.157258687199953229e-01
1.024000000000000021e+00,-2.085933917780344662e-02,1.159992864167637278e-01,-5.905680464945112923e-02
1.024999999999999911e+00,1.118130815658259780e-01,1.413543217879490721e-01,7.573983353617279833e-03
1.026000000000000023e+00,2.042561897863055254e-01,1.091669611968128090e-01,9.210801153824645093e-02
1.026999999999999913e+00,1.782786256908187872e-01,3.896986917460101840e-02,1.061396674139156587e-01
1.028000000000000025e+00,5.391518767008145890e-02,-6.999467625242904167e-02,1.286376332322720084e-01
1.028999999999999915e+00,-3.671662785978543203e-02,-1.275133168374139037e-01,6.473195092020700425e-02
1.030000000000000027e+00,-1.356607512887891831e-01,-1.371267102673700555e-01,-2.795118752494784448e-02
1.030999999999999917e+00,-2.094293115069102151e-01,-1.108356687833180199e-01,-8.589973088884376995e-02
1.032000000000000028e+00,-1.214061038216748961e-01,-1.337414185289302268e-02,-8.618220675023005595e-02
1.032999999999999918e+00,-3.590067845173604971e-02,7.422199872113138808e-02,-8.704188745561068641e-02
1.034000000000000030e+00,7.816252255318952014e-02,1.336822565343914193e-01,-4.154488433688814653e-02
1.034999999999999920e+00,1.691318289638804873e-01,1.311937324726663023e-01,4.998191046254390341e-02
1.036000000000000032e+00,1.643799091050748840e-01,6.876352665020991906e-02,7.818443971792583824e-02
1.036999999999999922e+00,1.094127969971210035e-01,-4.355871178919504955e-02,1.339514106677271721e-01
1.038000000000000034e+00,-1.315322739063212037e-02,-1.220938819074549597e-01,7.471052738137844151e-02
1.038999999999999924e+00,-1.335463148100803354e-01,-1.371695889227532161e-01,1.074063674379446658e-02
1.040000000000000036e+00,-1.944342348350633076e-01,-8.914021945981709383e-02,-5.295380817381459271e-02
1.040999999999999925e+00,-1.490385043252910602e-01,-2.260681276552276714e-02,-1.123181839786124292e-01
1.042000000000000037e+00,-6.875203461095727442e-02,9.600397454685363763e-02,-1.119909324172761178e-01
1.042999999999999927e+00,6.652690170376628076e-02,1.477105713108159690e-01,-4.835175736811131442e-02
1.044000000000000039e+00,1.823698991321429652e-01,1.511355184437754018e-01,5.754610385283951725e-03
1.044999999999999929e+00,1.916652607157658117e-01,8.854711379240967628e-02,7.273001178069177231e-02
1.046000000000000041e+00,1.283721151496238500e-01,-2.361234796719131890e-02,9.883331681181867223e-02
1.046999999999999931e+00,-4.733238937613074709e-03,-1.001467185705163798e-01,7.187699980739913064e-02
1.048000000000000043e+00,-1.233377835567241593e-01,-1.473379159578724618e-01,4.472990479785982076e-02
1.048999999999999932e+00,-1.926929174861170824e-01,-1.237228597760149790e-01,-5.890330509766084771e-02
1.050000000000000044e+00,-1.799215683477219940e-01,-1.219877907572947291e-02,-1.029052710863084669e-01
1.050999999999999934e+00,-1.014309293692168407e-01,7.346095734726097726e-02,-9.965579157804006771e-02
1.052000000000000046e+00,4.863114493269681676e-02,1.647218463605736316e-01,-7.590192725636338289e-02
1.052999999999999936e+00,1.708887943809919152e-01,1.405499518794743607e-01,3.727459346068615412e-03
1.054000000000000048e+00,1.578796778769917808e-01,9.665498353509729967e-02,5.092309790043964002e-02
1.054999999999999938e+00,1.610623128800464099e-01,8.544335946166246171e-03,1.218319576495667383e-01
1.056000000000000050e+00,3.444802068566603370e-02,-9.044652381182043122e-02,9.879027281411348338e-02
1.056999999999999940e+00,-7.849786315413831428e-02,-1.420708371454870722e-01,3.228900538989012969e-02
1.058000000000000052e+00,-1.714361836823362628e-01,-1.447931032140165053e-01,-2.814973727506421899e-02
1.058999999999999941e+00,-1.622852230215272862e-01,-4.391946454588457199e-02,-6.494023195385144331e-02
1.060000000000000053e+00,-1.011922368397907696e-01,5.799463696049672601e-02,-1.235614855127005335e-01
1.060999999999999943e+00,-1.317368388962312890e-02,1.223987386658317300e-01,-1.020783659491230344e-01
1.062000000000000055e+00,1.217979601930930106e-01,1.638528549672167711e-01,-2.472350521497406958e-02
1.062999999999999945e+00,1.832913678549269454e-01,9.665379590557132694e-02,3.688443684940324874e-02
1.064000000000000057e+00,1.833546040863319182e-01,-2.919369737440878285e-02,9.932137059959968151e-02
1.064999999999999947e+00,6.263102645251397704e-02,-6.377354613078987933e-02,9.076206560668807766e-02
1.066000000000000059e+00,-5.754773234994626369e-02,-1.477156914071246219e-01,7.669020246691178599e-02
1.066999999999999948e+00,-1.545059948737166344e-01,-1.172557503873674495e-01,3.812451758077411729e-03
1.068000000000000060e+00,-1.711926418850696907e-01,-5.976041612637164602e-02,-5.787199577553837904e-02
1.068999999999999950e+00,-1.422631251947178432e-01,3.460859235978429316e-02,-1.044526115156230450e-01
1.070000000000000062e+00,-4.171403695646990623e-02,1.246849245981123955e-01,-1.330304784962028364e-01
1.070999999999999952e+00,1.045554959927069427e-01,1.463708267438688926e-01,-6.942523066475181359e-02
1.072000000000000064e+00,1.633635412762522165e-01,9.608141444690330990e-02,9.290042364178996079e-03
1.072999999999999954e+00,1.696189062456762431e-01,1.967084840652487052e-02,9.063703552928606411e-02
1.074000000000000066e+00,7.596552791133565075e-02,-7.654003207418652588e-02,1.300711256051734765e-01
1.074999999999999956e+00,-3.680346397006168530e-02,-1.595241495553457733e-01,9.456572109593550102e-02
1.076000000000000068e+00,-1.314518856888935716e-01,-1.608315306861923810e-01,1.570961770282978519e-03
1.076999999999999957e+00,-1.825306922290333145e-01,-7.175333472046398209e-02,-4.505285317545785345e-02
1.078000000000000069e+00,-1.613171473017236124e-01,3.169721800804399525e-02,-8.385763212336772021e-02
1.078999999999999959e+00,-3.543371840059856420e-02,1.167674273608755448e-01,-1.138960903562262622e-01
1.080000000000000071e+00,7.502779729741199111e-02,1.597249796029354130e-01,-6.459864514231383748e-02
1.080999999999999961e+00,1.604628029030182590e-01,1.133368820011517591e-01,-2.207865429481167471e-03
1.082000000000000073e+00,1.851780445362779803e-01,3.590850618684344325e-02,6.676834028315077607e-02
1.082999999999999963e+00,1.028044492351891104e-01,-6.661144080835884607e-02,1.046726928650512783e-01
1.084000000000000075e+00,4.930143773764410729e-03,-1.275191172087291880e-01,7.212381735931773508e-02
1.084999999999999964e+00,-1.224335319970770025e-01,-1.354461062514840664e-01,6.854211133039196657e-02
1.086000000000000076e+00,-1.843265559950746646e-01,-7.293671604049167811e-02,-2.409660066797019232e-02
1.086999999999999966e+00,-1.899244443288757300e-01,1.168667261715975250e-02,-9.759668521729966684e-02
1.088000000000000078e+00,-7.946396099971403393e-02,1.368408587630906836e-01,-1.039333754721916414e-01
1.088999999999999968e+00,4.974752294975078731e-02,1.417040324410233920e-01,-6.796029198001891924e-02
1.090000000000000080e+00,1.583688384131623772e-01,1.266451019284516033e-01,-2.883945463943768037e-02
1.090999999999999970e+00,1.945124438149798130e-01,5.218014366289964318e-02,5.348650602616144417e-02
1.092000000000000082e+00,1.260063453382482823e-01,-4.196336740474962412e-02,7.416815040749714927e-02
1.092999999999999972e+00,5.764350314578724904e-02,-1.126045160045390375e-01,1.074415690661937456e-01
1.094000000000000083e+00,-9.571692379606960843e-02,-1.416084756772073017e-01,6.203246692774689458e-02
1.094999999999999973e+00,-1.790036451284962027e-01,-1.075842730547137832e-01,4.149612771638868693e-03
1.096000000000000085e+00,-1.812450787694349086e-01,-1.697321698598998688e-02,-6.455204042044579427e-02
1.096999999999999975e+00,-8.244321106367107077e-02,7.949658359102725058e-02,-9.551559146880106432e-02
1.098000000000000087e+00,3.930957649662031317e-03,1.573110180103773903e-01,-7.669568270316846903e-02
1.098999999999999977e+00,1.240538375343002570e-01,1.472509123714746959e-01,-4.559009462840542259e-02
1.100000000000000089e+00,1.812279942003104938e-01,6.524964833366143913e-02,2.389151475535461130e-02
1.100999999999999979e+00,1.420831838816062620e-01,-4.269687001213744171e-02,8.502982178894004373e-02
1.102000000000000091e+00,7.016575199091999726e-02,-1.253624314770481474e-01,1.161648356603663390e-01
1.102999999999999980e+00,-7.164323496723212781e-02,-1.526792882163401366e-01,9.148917133810786917e-02
1.104000000000000092e+00,-1.561542242851322038e-01,-9.413253584390092465e-02,4.204695063002588523e-02
1.104999999999999982e+00,-1.673497136556018339e-01,-1.206104870237282613e-02,-5.159813084836074176e-02
1.106000000000000094e+00,-1.110524294491656433e-01,7.336555743411084241e-02,-1.004456516202678340e-01
1.106999999999999984e+00,6.035456590782982238e-03,1.415078058701144670e-01,-1.020326833774487657e-01
1.108000000000000096e+00,1.255570287322392287e-01,1.216228364296632891e-01,-5.318486542435669345e-02
1.108999999999999986e+00,1.730937070771493558e-01,7.764526957852148359e-02,6.264349042618413792e-03
1.110000000000000098e+00,1.909795362249528394e-01,-2.036771521888871422e-02,7.351953867366400885e-02
1.110999999999999988e+00,1.013266675622047641e-01,-1.222343839588819758e-01,1.155343669516441241e-01
1.112000000000000099e+00,-4.286689738624994278e-02,-1.315782346743680220e-01,1.102981308481813943e-01
1.112999999999999989e+00,-1.708700120939844191e-01,-1.241794247320170408e-01,6.060796293274146179e-02
1.114000000000000101e+00,-1.830986837613096663e-01,-5.013141416810232981e-02,-2.238732907108569037e-02
1.114999999999999991e+00,-1.704001465092848111e-01,4.887368689849169029e-02,-6.384617345291679347e-02
1.116000000000000103e+00,-1.638127245013792574e-02,1.581154086140470483e-01,-1.153027833788874412e-01
1.116999999999999993e+00,8.341102703048813849e-02,1.540855627608844758e-01,-7.508898150192594434e-02
1.118000000000000105e+00,1.733915326253863964e-01,7.880010173040750965e-02,-1.719733370503629885e-02
1.118999999999999995e+00,1.814357430298654539e-01,8.828683548159908454e-03,3.414844831800484259e-02
1.120000000000000107e+00,1.290291655983025199e-01,-1.084046976194693035e-01,1.032804018048565781e-01
1.120999999999999996e+00,8.024424231649215922e-03,-1.522868702714590683e-01,1.019632066015976057e-01
1.122000000000000108e+00,-1.050551199807843172e-01,-1.287427711937180752e-01,4.727980979793424549e-02
1.122999999999999998e+00,-1.906087447071506125e-01,-4.820721924750701742e-02,6.800884025091902610e-03
1.124000000000000110e+00,-1.669437177202549305e-01,3.862453646114513695e-02,-7.023246973179993191e-02
1.125000000000000000e+00,-6.775048585853300775e-02,1.299565535045951181e-01,-1.299499146503051428e-01
1.125999999999999890e+00,6.751132083276202567e-02,1.551174982198918473e-01,-1.122873313123709388e-01
1.127000000000000002e+00,1.650131318840490358e-01,9.539686182384843338e-02,-5.673647322507603674e-02
1.127999999999999892e+00,1.993683897087070167e-01,1.877157732970929915e-02,2.672730015318773231e-02
1.129000000000000004e+00,1.269740625888952923e-01,-1.094113579067129277e-01,7.908899019835831379e-02
1.129999999999999893e+00,3.560959450172205415e-02,-1.363339844563505598e-01,9.693909638191335054e-02
1.131000000000000005e+00,-1.087472674357868596e-01,-1.356663875570866817e-01,1.015369110883109355e-01
1.131999999999999895e+00,-1.935680806675295906e-01,-6.136744143790241746e-02,4.529080056379405916e-02
1.133000000000000007e+00,-1.716228277434963534e-01,4.534848629317442259e-02,-4.487525419183253927e-02
1.133999999999999897e+00,-8.273415209407578019e-02,1.173809148197185320e-01,-8.220612749191988367e-02
1.135000000000000009e+00,4.198553768537072357e-03,1.540796755729617329e-01,-1.329049380181508422e-01
1.135999999999999899e+00,1.242098432766895189e-01,1.217966551125544833e-01,-7.045597568138770028e-02
1.137000000000000011e+00,1.895743699196111021e-01,2.272519966197743616e-02,2.055482922546699592e-04
1.137999999999999901e+00,1.381144494721334715e-01,-6.650572186833061950e-02,5.723782210412990679e-02
1.139000000000000012e+00,4.805107846740189204e-02,-1.268141572187303778e-01,1.284325523045642126e-01
1.139999999999999902e+00,-6.937837988041753445e-02,-1.511123627211660714e-01,1.017731362777023751e-01
1.141000000000000014e+00,-1.826503545807417750e-01,-5.373603819335914800e-02,6.873695218164808940e-02
1.141999999999999904e+00,-2.024542722646101855e-01,2.713655490529951614e-02,-8.900879824609070692e-03
1.143000000000000016e+00,-1.105250588245569043e-01,1.104674472547123448e-01,-9.298510607023453833e-02
1.143999999999999906e+00,-1.281606129652659160e-02,1.687369409336984261e-01,-1.264454610224251541e-01
1.145000000000000018e+00,1.227436927676655853e-01,1.342637558966551514e-01,-7.917725120172762476e-02
1.145999999999999908e+00,1.918046798890274962e-01,4.808072448667789073e-02,-1.494832616805109003e-02
1.147000000000000020e+00,1.765323360928136298e-01,-7.531497211599182118e-02,4.051192860899968662e-02
1.147999999999999909e+00,6.845284283672632697e-02,-1.446632766078123633e-01,1.006641188697841999e-01
1.149000000000000021e+00,-5.602803400132562450e-02,-1.336016695527441067e-01,1.350020472719027365e-01
1.149999999999999911e+00,-1.536565974483835584e-01,-8.522950045312609191e-02,8.216094503350590550e-02
1.151000000000000023e+00,-1.803528918325345287e-01,1.298563104229143519e-02,-3.444549282326459395e-03
1.151999999999999913e+00,-1.261187592553505432e-01,1.359635840674914276e-01,-8.430319477089824598e-02
1.153000000000000025e+00,-3.978978409647949965e-02,1.441026540923299737e-01,-1.041717568180874492e-01
1.153999999999999915e+00,9.134561058721143989e-02,1.270712745665878440e-01,-9.982953374648641243e-02
1.155000000000000027e+00,1.598421769983039697e-01,3.321365837568771712e-02,-3.335215828201263527e-02
1.155999999999999917e+00,1.831429660086655031e-01,-4.842871367800362370e-02,4.276651090979813330e-02
1.157000000000000028e+00,9.950988715973546617e-02,-1.312703866958996324e-01,8.726512835157972103e-02
1.157999999999999918e+00,-8.536233645310685805e-03,-1.589467990231450689e-01,1.000376058654858791e-01
1.159000000000000030e+00,-1.399771903112771165e-01,-9.911196089407628418e-02,9.507237007721641708e-02
1.159999999999999920e+00,-1.809220715180443195e-01,5.942372214101238059e-03,2.507103974373543070e-02
1.161000000000000032e+00,-1.458891741246432505e-01,1.028848034429853397e-01,-4.950504068199584190e-02
1.161999999999999922e+00,-5.188815063397344413e-02,1.486991887215293184e-01,-9.944085100245542153e-02
1.163000000000000034e+00,5.784535413731793640e-02,1.243505798189932093e-01,-1.170080310581848443e-01
1.163999999999999924e+00,1.886922997188153761e-01,6.527589677737462293e-02,-7.221753224167630492e-02
1.165000000000000036e+00,1.972837033285855801e-01,-4.582443683856354810e-02,1.545721910835922558e-02
1.165999999999999925e+00,1.155464855371015342e-01,-1.202106883766911327e-01,7.094102267213600599e-02
1.167000000000000037e+00,1.771019907451985495e-02,-1.538623765655873499e-01,1.434343788837531553e-01
1.167999999999999927e+00,-1.320114087020888005e-01,-1.020469964848869093e-01,1.137956139386102211e-01
1.169000000000000039e+00,-1.672507116413842754e-01,-2.103111331348754554e-02,6.635872012505279749e-02
1.169999999999999929e+00,-1.721709663784963262e-01,8.435173752858284024e-02,-8.505238442935828674e-03
1.171000000000000041e+00,-8.900998465803081072e-02,1.498254252297275824e-01,-8.567007890532900294e-02
1.171999999999999931e+00,4.725990405448855791e-02,1.270325309364041810e-01,-1.261963902875749832e-01
1.173000000000000043e+00,1.491183972625043652e-01,6.481280656727733680e-02,-8.915529492988510940e-02
1.173999999999999932e+00,1.799046108498682794e-01,-3.719859859649805173e-02,-1.076901973363056896e-02
1.175000000000000044e+00,1.764248302212985953e-01,-1.210961844896606132e-01,5.166832967867498322e-02
1.175999999999999934e+00,3.632876520358855471e-02,-1.774339446366814677e-01,1.026249046009599653e-01
1.177000000000000046e+00,-8.497444603959833365e-02,-9.437836466394571022e-02,1.088563576191188681e-01
1.177999999999999936e+00,-1.628884695012637884e-01,-3.931116026153924636e-02,7.657118854061485680e-02
1.179000000000000048e+00,-1.665876045223048108e-01,5.576443108612391675e-02,8.882641282951755923e-03
1.179999999999999938e+00,-1.102179006234725311e-01,1.530698313740256611e-01,-7.576798035148447907e-02
1.181000000000000050e+00,-1.191899406292738946e-02,1.520583564167136692e-01,-1.173726977743208416e-01
