time,acc_x,acc_y,acc_z
0.000000000000000000e+00,1.935900493807602707e-01,1.112734614867824934e-01,1.336854090464854317e-01
1.000000000000000021e-03,9.068389571779300606e-03,-1.106686781344669024e-01,3.629577014480903779e-02
2.000000000000000042e-03,-2.528938180938912206e-01,-2.991139663957002592e-01,-4.546398192900081431e-02
3.000000000000000062e-03,-3.912201807274736098e-01,-3.381959299959012566e-01,-1.668908620445438695e-01
4.000000000000000083e-03,-3.419855888978876601e-01,-2.659466696563847488e-01,-1.764462901099910219e-01
5.000000000000000104e-03,-1.761727579467416149e-01,-1.017348778425191808e-01,-7.713607001789760109e-02
6.000000000000000125e-03,8.530707478988081016e-02,6.368212896242052279e-02,3.688535705103291457e-02
7.000000000000000146e-03,1.450615727985483383e-01,5.683043831578898919e-02,1.038091869025272590e-01
8.000000000000000167e-03,4.866947375715773710e-02,-9.729495840145468283e-03,1.117793729214884707e-01
8.999999999999999320e-03,-1.840460883861447239e-01,-2.133292014501451117e-01,-3.932892847127362340e-02
1.000000000000000021e-02,-4.044018175759634404e-01,-3.751740938525240932e-01,-1.624546857578904602e-01
1.099999999999999936e-02,-4.857112198850676021e-01,-3.811789146765062752e-01,-2.456048753784793592e-01
1.200000000000000025e-02,-3.655492561594418377e-01,-2.226237518881674649e-01,-2.169142233671883524e-01
1.299999999999999940e-02,-1.338149474128423055e-01,-4.036433395821312914e-02,-1.052462273263465864e-01
1.400000000000000029e-02,4.617395106738158422e-02,8.259131850398609975e-02,3.278545201720058783e-02
1.499999999999999944e-02,7.604931430738906539e-02,5.236921282318323517e-02,8.852338677241011755e-02
1.600000000000000033e-02,-8.525607793959612268e-02,-1.603332900705932984e-01,-6.985099839682737226e-03
1.700000000000000122e-02,-3.041584811248295717e-01,-3.237436195060365840e-01,-1.239321609204824259e-01
1.799999999999999864e-02,-4.622887911046282272e-01,-4.181511152829704980e-01,-2.335839430620627322e-01
1.899999999999999953e-02,-4.557813530186122231e-01,-3.392299607374590353e-01,-2.972262105142096100e-01
2.000000000000000042e-02,-2.814567574035322650e-01,-1.416640568682583645e-01,-2.179046517335027355e-01
2.100000000000000130e-02,-4.437376903162330855e-02,1.117375258378831837e-02,-9.454057340171434509e-02
2.199999999999999872e-02,7.987140313340201914e-02,1.329138397421171514e-01,1.047797211872200825e-02
2.299999999999999961e-02,5.444483607153122184e-02,9.211898649626328690e-04,3.559254673700498056e-02
2.400000000000000050e-02,-1.440100311391504517e-01,-1.736913051963275278e-01,-6.287861729269585143e-02
2.500000000000000139e-02,-3.703166272199267528e-01,-3.103955086277054853e-01,-1.716996808573066358e-01
2.599999999999999881e-02,-5.019342751899701360e-01,-3.399152574561190021e-01,-2.866909903510628799e-01
2.699999999999999969e-02,-3.852517915786245473e-01,-2.036004291201696237e-01,-2.953854394241914316e-01
2.800000000000000058e-02,-1.625013099309323417e-01,-6.826008392417925140e-03,-1.991026468973824681e-01
2.900000000000000147e-02,5.135199683112877389e-02,1.626202706211060112e-01,-6.666202616288399718e-02
2.999999999999999889e-02,1.011651876464773753e-01,1.442159219440866391e-01,3.907187808405285928e-02
3.099999999999999978e-02,1.225426453691789985e-02,-2.496771558723117138e-02,4.687987136934471111e-02
3.200000000000000067e-02,-2.149263575166200646e-01,-2.131586739587052470e-01,-6.233396583311168887e-02
3.300000000000000155e-02,-3.854541924045887247e-01,-2.989063359187034696e-01,-2.062928017277179116e-01
3.400000000000000244e-02,-3.717242390109112837e-01,-1.993316587109330018e-01,-2.962372428149601666e-01
3.500000000000000333e-02,-2.406216128404145282e-01,-4.361167979263513156e-02,-2.670948913730182284e-01
3.599999999999999728e-02,-1.430022891894980504e-02,1.672456191708601991e-01,-1.121844061151772154e-01
3.699999999999999817e-02,1.668329817636169110e-01,2.214993482293450278e-01,2.688022014245149138e-02
3.799999999999999906e-02,1.993047720332659922e-01,1.510525875199560941e-01,9.570972549888821790e-02
3.899999999999999994e-02,5.138460688547910604e-02,-3.415813324588395233e-02,6.558696974207726960e-02
4.000000000000000083e-02,-1.769612168542325503e-01,-1.849774432907660693e-01,-6.902328488983756893e-02
4.100000000000000172e-02,-3.031762121706592650e-01,-1.966121482768869444e-01,-1.839584518327145590e-01
4.200000000000000261e-02,-3.091302783725534131e-01,-6.227261659068670380e-02,-2.360842047880347128e-01
4.299999999999999656e-02,-5.113567258021951140e-02,1.257517393834428343e-01,-1.713382404249899071e-01
4.399999999999999745e-02,1.827156892562473156e-01,3.198270670549038797e-01,-7.173898579617805915e-02
4.499999999999999833e-02,3.018591910594429772e-01,2.945382304062295065e-01,1.071530039934758399e-01
4.599999999999999922e-02,2.716881877363356290e-01,1.587783702863223845e-01,1.214976880756006017e-01
4.700000000000000011e-02,3.633497233457657488e-02,-1.071299277464991297e-02,1.173995174590544421e-01
4.800000000000000100e-02,-1.327907063460001258e-01,-1.175010507434363222e-01,-1.165236550979376062e-02
4.900000000000000189e-02,-2.319103408711888081e-01,-8.105954141098734023e-02,-1.461675254733133533e-01
5.000000000000000278e-02,-1.137268566062482472e-01,6.107343222377279585e-02,-1.825220850328359012e-01
5.099999999999999672e-02,1.100957320330814976e-01,2.762240561289947549e-01,-6.111997500535316236e-02
5.199999999999999761e-02,3.317156712245173389e-01,3.741974202733108767e-01,6.057479304675932735e-02
5.299999999999999850e-02,4.167486606598778676e-01,2.728286112649819795e-01,2.064591832738453259e-01
5.399999999999999939e-02,2.780744258653330414e-01,1.504373266676990728e-01,2.037688042081612916e-01
5.500000000000000028e-02,3.575242809555517765e-02,-5.752018359140740472e-02,1.348054028915753044e-01
5.600000000000000117e-02,-1.087501025563136353e-01,-8.714469586493633901e-02,2.855905450976559817e-02
5.700000000000000205e-02,-1.441994604007076075e-01,2.602494177152401764e-02,-1.090938604130029244e-01
5.800000000000000294e-02,6.609084906625749267e-02,2.026136365771195325e-01,-8.616139267836325777e-02
5.899999999999999689e-02,3.073015203781786497e-01,3.334880519475802441e-01,3.356163887522158745e-02
5.999999999999999778e-02,4.978030714317419059e-01,3.719389752954482264e-01,1.750254887322565123e-01
6.099999999999999867e-02,4.627456584546594254e-01,2.412412370513816462e-01,2.467821270672111988e-01
6.199999999999999956e-02,2.760189675976691404e-01,4.967006555498726383e-02,2.250844046993022707e-01
6.300000000000000044e-02,3.736010453319191932e-02,-7.209961872903222768e-02,1.084121094061840929e-01
6.400000000000000133e-02,-7.303142175689600335e-02,-7.632835359442811940e-02,1.827698356282324169e-03
6.500000000000000222e-02,-3.612661616480099258e-02,1.258077484955061331e-01,-6.655005394702401267e-02
6.600000000000000311e-02,1.531283857152832550e-01,2.727558478967413436e-01,-2.442520549752519657e-02
6.700000000000000400e-02,3.646301851528201965e-01,4.044588861723680817e-01,6.750021525560744029e-02
6.800000000000000488e-02,5.050612624431937148e-01,3.358831210579343862e-01,2.532732718273436601e-01
6.900000000000000577e-02,4.168504186755609964e-01,1.620579626040225818e-01,3.046284357477897498e-01
7.000000000000000666e-02,2.128091185462298862e-01,-1.672893407764322604e-02,2.210602172499956664e-01
7.099999999999999367e-02,-4.253589934970233855e-02,-9.416742494839462629e-02,1.426880396650991589e-01
7.199999999999999456e-02,-9.290416064721496170e-02,-2.020814436770141179e-02,6.810839477922867036e-03
7.299999999999999545e-02,1.930403126340244713e-03,1.444254222223222694e-01,-6.077250761508148913e-02
7.399999999999999634e-02,2.312906026091071099e-01,2.955262885959440422e-01,-6.757694467099756297e-03
7.499999999999999722e-02,4.303436153886966986e-01,3.380502301838495538e-01,1.128796247015365628e-01
7.599999999999999811e-02,4.477376013452764036e-01,2.262967565706184292e-01,2.754615550846413741e-01
7.699999999999999900e-02,3.061740860264138275e-01,3.067163675064139491e-02,2.957798653013877233e-01
7.799999999999999989e-02,9.786021062615628263e-02,-1.404814945008939220e-01,2.420262582963424447e-01
7.900000000000000078e-02,-8.338840548204690117e-02,-1.346658050767015058e-01,9.210823373778764811e-02
8.000000000000000167e-02,-1.108362842153162026e-01,-4.512305895955884966e-02,-5.747281756781906503e-02
8.100000000000000255e-02,2.793667398889562725e-02,1.487164583251610328e-01,-5.824506817145469473e-02
8.200000000000000344e-02,2.730257562307136787e-01,2.855127960016087263e-01,5.367491959746809732e-02
8.300000000000000433e-02,4.240145920475218988e-01,2.202565860517548546e-01,1.754007195897405447e-01
8.400000000000000522e-02,3.694201152759118978e-01,6.128502626248574087e-02,2.555558573659645893e-01
8.500000000000000611e-02,1.831264862372713187e-01,-1.158310226973000567e-01,2.513307383852223520e-01
8.599999999999999312e-02,-6.311413346194504059e-02,-2.384550431602213416e-01,1.570001055622061437e-01
8.699999999999999400e-02,-2.137451834083308189e-01,-1.822806004418580927e-01,2.160217737169758262e-02
8.799999999999999489e-02,-1.696372748204126313e-01,6.109170489339133155e-03,-1.110171206764584556e-01
8.899999999999999578e-02,-2.425355244056769458e-02,1.489311170089391290e-01,-7.355528981998676885e-02
8.999999999999999667e-02,2.189252824192916558e-01,2.058162824136306190e-01,7.719886001920712310e-03
9.099999999999999756e-02,3.239529149444075329e-01,8.472239125249930725e-02,1.453819571180075820e-01
9.199999999999999845e-02,1.987428735934515800e-01,-7.960509902909224111e-02,2.099833087445512891e-01
9.299999999999999933e-02,-3.078428935875464692e-02,-2.661987481187881865e-01,1.511438561770080680e-01
9.400000000000000022e-02,-2.512882801006973699e-01,-3.095137804355102551e-01,4.908678142922194565e-02
9.500000000000000111e-02,-3.420591030250800801e-01,-1.794920411442325614e-01,-1.097190626446653411e-01
9.600000000000000200e-02,-2.528611946675455302e-01,-1.132743644612430219e-02,-1.367235528825448687e-01
9.700000000000000289e-02,-5.600691235166981898e-03,9.391860832070905718e-02,-1.281987698412348220e-01
9.800000000000000377e-02,1.545179706489292482e-01,5.561134441157856295e-02,-4.128543043998539330e-03
9.900000000000000466e-02,1.728668177922773330e-01,-7.093072974884367943e-02,1.182327057449555352e-01
1.000000000000000056e-01,4.453046158088585366e-02,-2.572669600433841186e-01,1.664141389422007788e-01
1.010000000000000064e-01,-2.039513569325557829e-01,-3.643193760011204652e-01,6.866022805555987985e-02
1.019999999999999934e-01,-4.223361576216436708e-01,-3.278164083744217194e-01,-6.554806269792828877e-02
1.029999999999999943e-01,-4.252295294218690902e-01,-1.355220226886548474e-01,-1.890930977086935083e-01
1.039999999999999952e-01,-2.371425535314099498e-01,3.249769858900378172e-02,-1.910163944709921124e-01
1.049999999999999961e-01,6.171839073891864126e-03,7.579391065478009726e-02,-1.458265976686100862e-01
1.059999999999999970e-01,1.442253549667387447e-01,1.629415455526616111e-02,-6.433701122468762782e-04
1.069999999999999979e-01,8.037344919283749556e-02,-1.809824935552907244e-01,1.170721288518774272e-01
1.079999999999999988e-01,-1.338841260724339677e-01,-3.464386494646179426e-01,1.271998657343239025e-01
1.089999999999999997e-01,-3.552356481012316491e-01,-4.140052231914234659e-01,5.723190434289741717e-03
1.100000000000000006e-01,-4.957009204210299225e-01,-2.669752581087236898e-01,-1.568228836672265480e-01
1.110000000000000014e-01,-4.061472567275678514e-01,-8.837137367865229021e-02,-2.701578291243151853e-01
1.120000000000000023e-01,-1.810449845513796563e-01,3.207429333047671222e-02,-2.626073412729673651e-01
1.130000000000000032e-01,1.644844682003381714e-02,4.341339885844859581e-02,-1.406316812287276841e-01
1.140000000000000041e-01,8.314511865865009677e-02,-5.980363788396004382e-02,-1.141054188604823799e-02
1.150000000000000050e-01,-8.475352662490342331e-03,-2.609659501482573529e-01,7.298381690148095235e-02
1.160000000000000059e-01,-2.464329434864140356e-01,-3.997673016136893409e-01,7.585051963476287240e-02
1.170000000000000068e-01,-4.332075779697702744e-01,-3.434101898055658686e-01,-6.064660092994061946e-02
1.179999999999999938e-01,-4.810071437524098825e-01,-1.667191109368726665e-01,-1.789908633442255093e-01
1.189999999999999947e-01,-3.583549532271177451e-01,1.570721099799497061e-02,-2.845664111170239652e-01
1.199999999999999956e-01,-1.261680102278944227e-01,9.653885705604252354e-02,-2.602880391382949021e-01
1.209999999999999964e-01,5.600544677825142897e-02,6.421667237949905960e-02,-1.341971595456903088e-01
1.219999999999999973e-01,8.883748576395666952e-02,-1.253986576648558060e-01,-2.490727787546567762e-02
1.229999999999999982e-01,-6.506647812729467184e-02,-2.724653024854856720e-01,6.879517847111497886e-02
1.239999999999999991e-01,-3.136286801921993606e-01,-3.333239215340919048e-01,2.955662362584958111e-03
1.250000000000000000e-01,-4.626307547685200583e-01,-2.707414744896297631e-01,-8.346453374852137730e-02
1.260000000000000009e-01,-4.414284659021678325e-01,-3.415166087576184881e-03,-2.379513586037831085e-01
1.270000000000000018e-01,-2.448530297828345748e-01,1.402627285385197597e-01,-2.853257141699206412e-01
1.280000000000000027e-01,-2.114516892403832567e-03,1.500438304765663866e-01,-2.166312556204773865e-01
1.290000000000000036e-01,1.252630382089381933e-01,7.248733547475169625e-02,-9.901616170957107388e-02
1.300000000000000044e-01,1.003552135524736905e-01,-9.365781795080831140e-02,-2.463447604917107410e-03
1.310000000000000053e-01,-9.540044577418926863e-02,-2.511695999506141086e-01,9.414324153412040319e-02
1.320000000000000062e-01,-2.970351064152361720e-01,-2.343192442261972375e-01,-5.800077160799419623e-03
1.330000000000000071e-01,-3.577330741470137188e-01,-6.889423227648941439e-02,-1.361103715302873496e-01
1.340000000000000080e-01,-2.660285890331471892e-01,1.606821053598979365e-01,-2.772024438865425267e-01
1.350000000000000089e-01,-4.262494103655104644e-02,2.716725627057856030e-01,-2.474448106217393695e-01
1.360000000000000098e-01,1.259392359450818566e-01,2.065560569316308714e-01,-1.653726789870109959e-01
1.370000000000000107e-01,2.476236002254971202e-01,5.332886785068246399e-02,-2.990301519587403728e-02
1.380000000000000115e-01,1.480857158439715382e-01,-7.500261084676727863e-02,1.148920196674400318e-01
1.390000000000000124e-01,-4.706499364106249417e-02,-1.658360721852021047e-01,8.467895789545673568e-02
1.400000000000000133e-01,-2.271607700854819389e-01,-9.593577873652354981e-02,1.582608786287492686e-03
1.409999999999999865e-01,-2.800204848527512724e-01,9.952407647499764143e-02,-1.368987153611070373e-01
1.419999999999999873e-01,-8.898731748094362848e-02,2.574991612787348449e-01,-2.245877613224038505e-01
1.429999999999999882e-01,1.047399002466446460e-01,3.092332606112376259e-01,-1.799103715846159801e-01
1.439999999999999891e-01,3.139963574301697369e-01,2.195409108983262803e-01,-5.759880213860345960e-02
1.449999999999999900e-01,3.412824190341021691e-01,3.273042695981764894e-02,9.366777849443835846e-02
1.459999999999999909e-01,1.743712148865474154e-01,-7.891682378722657265e-02,1.403164169473202771e-01
1.469999999999999918e-01,-5.163614652452837295e-02,-8.954139892767938591e-02,1.636906115809471929e-01
1.479999999999999927e-01,-1.509872964364282755e-01,5.025004206304568843e-02,-3.403361517368443806e-03
1.489999999999999936e-01,-1.230333158147024486e-01,2.248709963013786062e-01,-9.643296553039125418e-02
1.499999999999999944e-01,7.060024280213496317e-02,3.858596712597977541e-01,-1.649543501517250765e-01
1.509999999999999953e-01,2.959094524872289411e-01,3.708030876119415842e-01,-1.130850502644963063e-01
1.519999999999999962e-01,4.622012829842380710e-01,2.366592898054365179e-01,5.347827463231043243e-02
1.529999999999999971e-01,3.548259453948189313e-01,3.471361538952924541e-02,1.713531708606108317e-01
1.539999999999999980e-01,1.814100599269777569e-01,-8.410947324542566994e-02,2.170271635581325353e-01
1.549999999999999989e-01,-3.200779954603445027e-02,-4.228607129180107088e-02,1.705378898530023057e-01
1.559999999999999998e-01,-1.223620871556438394e-01,1.690734306170162682e-01,4.915961309938883528e-02
1.570000000000000007e-01,-4.317219517308343302e-02,3.117327984905354787e-01,-7.268277052203023225e-02
1.580000000000000016e-01,2.468853896835660755e-01,3.962639457181332259e-01,-6.796551379965123929e-02
1.590000000000000024e-01,4.724453912778830977e-01,2.826159988177600613e-01,-2.195585900478783450e-02
1.600000000000000033e-01,4.991115457850121007e-01,1.265736849520444351e-01,1.148926373715191407e-01
1.610000000000000042e-01,3.336223210388242766e-01,-3.889366742081674239e-02,2.460587430129000386e-01
1.620000000000000051e-01,1.271631844817602275e-01,-8.778092476061175042e-02,2.678053039249459477e-01
1.630000000000000060e-01,-4.997393112517393987e-02,3.391614556660025454e-02,1.878007639586682653e-01
1.640000000000000069e-01,-6.818815030543758093e-02,2.139159788513857741e-01,4.176609167691885255e-02
1.650000000000000078e-01,9.771848612623311447e-02,3.789355779034454530e-01,-8.965692354598817082e-02
1.660000000000000087e-01,3.238798171545479998e-01,3.331454589145642631e-01,-2.724301831217562642e-02
1.670000000000000095e-01,4.654090260648894306e-01,2.295068991450093521e-01,8.425144221134256428e-02
1.680000000000000104e-01,4.640671855553049063e-01,-6.166408592515354881e-04,1.894290982560857262e-01
1.690000000000000113e-01,2.523273025976400796e-01,-1.145925650951938463e-01,2.630698461657907661e-01
1.700000000000000122e-01,3.757594703224734906e-02,-8.760648373860685512e-02,2.912292062969198958e-01
1.710000000000000131e-01,-1.098016653538096965e-01,9.644398783946223075e-02,2.021434593892102172e-01
1.719999999999999862e-01,-7.470288362861815523e-02,2.466971405056042344e-01,5.508776473200040213e-02
1.729999999999999871e-01,1.372451130867728686e-01,3.189504998202518093e-01,-4.798671695219998423e-02
1.739999999999999880e-01,3.558604369040794246e-01,2.190087487661610266e-01,-2.845435435252450726e-02
1.749999999999999889e-01,4.527864444123037013e-01,6.820904230274144053e-02,9.315726810596473839e-02
1.759999999999999898e-01,3.515082400285655106e-01,-1.531942944369758530e-01,2.342493202781172346e-01
1.769999999999999907e-01,1.015250170624797943e-01,-2.090157244501381906e-01,2.848193593845625426e-01
1.779999999999999916e-01,-9.884078536351044442e-02,-8.430213103362153848e-02,2.488473336150784365e-01
1.789999999999999925e-01,-1.798001464278402850e-01,9.835657119889849864e-02,1.127834032224152155e-01
1.799999999999999933e-01,-6.542139083939266242e-02,2.130402272486494331e-01,-5.939745135980997043e-03
1.809999999999999942e-01,1.643109972339371339e-01,2.491433306297761163e-01,-1.135917738140467259e-01
1.819999999999999951e-01,3.071337432841468318e-01,9.182393637227299898e-02,-3.201797567875587502e-02
1.829999999999999960e-01,4.071302266893021549e-01,-1.130749907848422470e-01,1.085251614977558177e-01
1.839999999999999969e-01,1.799081090182317322e-01,-2.538775606290941678e-01,2.413843179426927998e-01
1.849999999999999978e-01,-2.071907302491964031e-02,-2.457852520236246396e-01,2.410723270341015301e-01
1.859999999999999987e-01,-2.296431129494219403e-01,-1.151225799303984554e-01,1.598283496519446456e-01
1.869999999999999996e-01,-2.727548143515070023e-01,5.353103242996159333e-02,4.485531604985109472e-02
1.880000000000000004e-01,-6.916589762884702008e-02,1.403181323083545762e-01,-1.160424915386654987e-01
1.890000000000000013e-01,1.218853877412315045e-01,1.006962452002951730e-01,-1.071014402091715889e-01
1.900000000000000022e-01,2.688060337870070149e-01,-9.952134379606882020e-02,-2.679998497396443233e-02
1.910000000000000031e-01,2.266354472382910712e-01,-2.731584052810540064e-01,9.659915313616594668e-02
1.920000000000000040e-01,3.670041786335666995e-02,-3.246025703956194608e-01,1.502286490341485092e-01
1.930000000000000049e-01,-2.149182855389381586e-01,-2.365790571506121431e-01,1.701986404789176122e-01
1.940000000000000058e-01,-3.870101853503817857e-01,-1.365442561578775194e-01,8.283390036965446179e-02
1.950000000000000067e-01,-3.209841057391781272e-01,5.295199740897554158e-02,-5.419133261776881705e-02
1.960000000000000075e-01,-1.093795032818928453e-01,1.008416010174234823e-01,-1.597140404635882527e-01
1.970000000000000084e-01,7.331405595714594881e-02,-2.279330733523009245e-02,-1.375858185840407866e-01
1.980000000000000093e-01,1.446840926910410996e-01,-2.187008920917164756e-01,-7.761859499263298878e-02
1.990000000000000102e-01,4.234030423031927975e-02,-3.602596345088228125e-01,7.544352665580654482e-02
2.000000000000000111e-01,-1.874072538308244606e-01,-3.684066918688379544e-01,1.310325498937915667e-01
2.010000000000000120e-01,-3.859721565563839496e-01,-2.114604889937974352e-01,1.290398529644557757e-01
2.020000000000000129e-01,-4.610825301805597243e-01,-2.681362757718519507e-02,-3.244800080298715361e-02
2.030000000000000138e-01,-3.020957968546620909e-01,7.437573199655597711e-02,-1.782039535517894735e-01
2.039999999999999869e-01,-8.744435250266578696e-02,4.598066977599130079e-02,-2.391922518501960748e-01
2.049999999999999878e-01,8.889327000504260168e-02,-1.351008220254235892e-01,-2.606237458677267416e-01
2.059999999999999887e-01,8.801646648158319153e-02,-3.263206558047552219e-01,-1.092766228422649977e-01
2.069999999999999896e-01,-6.752430357759074686e-02,-3.772624300674939923e-01,7.040139230564185224e-02
2.079999999999999905e-01,-3.124864294389989028e-01,-3.033771636201555433e-01,1.102903724683929332e-01
2.089999999999999913e-01,-4.595423769209178722e-01,-1.618390609194725882e-01,2.769312212118351518e-02
2.099999999999999922e-01,-4.705909285379063500e-01,-1.583877884381407978e-03,-1.084124276451327168e-01
2.109999999999999931e-01,-2.811624408864931701e-01,1.122612488773367112e-01,-2.398329102413018499e-01
2.119999999999999940e-01,-3.087620273430125364e-02,1.163923139162093175e-02,-2.794710400503789827e-01
2.129999999999999949e-01,1.003614791393254851e-01,-1.930654450512330755e-01,-2.276297417821935010e-01
2.139999999999999958e-01,4.230164289891909929e-02,-3.308633699883274937e-01,-7.558463111531632528e-02
2.149999999999999967e-01,-2.012090546895120291e-01,-3.826115096582317077e-01,4.140832416026424961e-02
2.159999999999999976e-01,-4.009578967282276252e-01,-2.020823414880796864e-01,6.696927123230603240e-02
2.169999999999999984e-01,-4.920363628483298557e-01,-2.084770891363564235e-02,-4.924671131729158741e-02
2.179999999999999993e-01,-3.881604870819652109e-01,8.215226480862622416e-02,-1.881338030878669521e-01
2.190000000000000002e-01,-1.731105138416044742e-01,1.212897003694098225e-01,-2.876248356092343528e-01
2.200000000000000011e-01,5.507887736925660277e-02,-4.737755701994070950e-02,-2.738878940210560664e-01
2.210000000000000020e-01,1.214653747242814968e-01,-1.872104397755248451e-01,-1.646902617270868119e-01
2.220000000000000029e-01,-7.953761597284265614e-03,-3.038462475583703637e-01,-6.097305404833607695e-02
2.230000000000000038e-01,-2.060804618832178525e-01,-2.602095228282858552e-01,4.711675996581957820e-02
2.240000000000000047e-01,-3.889673086506246769e-01,-1.019909348570521013e-01,-2.754429388702801362e-03
2.250000000000000056e-01,-4.115147827212459752e-01,1.184449975608711375e-01,-8.577835016355785103e-02
2.260000000000000064e-01,-2.629766579680738459e-01,2.169245365221080524e-01,-2.039457821096659074e-01
2.270000000000000073e-01,-3.122606871960095093e-02,1.761149573260771817e-01,-3.105467521880606596e-01
2.280000000000000082e-01,1.537372604288841649e-01,-3.633072760361680253e-02,-2.483296603077906617e-01
2.290000000000000091e-01,1.843986052162323308e-01,-1.821768024435430622e-01,-1.108753182697800183e-01
2.300000000000000100e-01,1.249480638006619793e-02,-2.160092018441826522e-01,1.135777107694079029e-04
2.310000000000000109e-01,-1.801101693444585039e-01,-9.966833349214943016e-02,6.483210074675609114e-02
2.320000000000000118e-01,-3.314518645435423627e-01,9.841168021704251034e-02,1.613089085562211672e-02
2.330000000000000127e-01,-2.917189242566869400e-01,2.767356848593857110e-01,-6.503132702752620342e-02
2.340000000000000135e-01,-9.679216447978945814e-02,2.493529129747804607e-01,-2.184148027361706990e-01
2.349999999999999867e-01,1.652259798210334307e-01,1.250785872801313259e-01,-2.379273591431396717e-01
2.359999999999999876e-01,2.853760110437190134e-01,-6.526248596134737179e-02,-1.753610488468673456e-01
2.369999999999999885e-01,2.461335955250794072e-01,-1.573892838137768146e-01,-3.388908622337946652e-02
2.379999999999999893e-01,3.989985470942306045e-02,-1.359994379073630466e-01,9.184247486068361499e-02
2.389999999999999902e-01,-1.834132438842041024e-01,3.307686886216388428e-02,1.123204917380540291e-01
2.399999999999999911e-01,-2.393997443852301787e-01,2.413098385209073160e-01,4.742867556415279046e-02
2.409999999999999920e-01,-1.593523670596732889e-01,3.651569129068898967e-01,-5.322226588085691296e-02
2.419999999999999929e-01,8.579884726789933913e-02,3.122227519830115261e-01,-1.551044638309159729e-01
2.429999999999999938e-01,3.456603081474384775e-01,1.200381696412365501e-01,-1.586933044288672268e-01
2.439999999999999947e-01,3.639150808633194178e-01,-5.181479741743918316e-02,-6.481795809787398166e-02
2.449999999999999956e-01,2.769362860817879968e-01,-1.265470402301137332e-01,6.780245772461677978e-02
2.459999999999999964e-01,6.299187996357015484e-02,3.154241022212592562e-04,1.585430352782849772e-01
2.469999999999999973e-01,-1.127397528500363455e-01,2.374349186686236513e-01,1.739392282368057152e-01
2.479999999999999982e-01,-1.420322578170150896e-01,3.644354090533307722e-01,9.154917787679728303e-02
2.489999999999999991e-01,1.339679002676686867e-02,3.698307554958837340e-01,-3.622084482295249985e-02
2.500000000000000000e-01,2.549275385300917018e-01,2.873895887069694566e-01,-1.209557328375539531e-01
2.510000000000000009e-01,4.508134013485031177e-01,8.679046704949237856e-02,-1.065323786401759787e-01
2.520000000000000018e-01,4.121852225307188755e-01,-2.824150674246825310e-02,6.731672498629272597e-03
2.530000000000000027e-01,2.632135945012025191e-01,-3.600666955661018659e-02,1.626829337891184946e-01
2.540000000000000036e-01,5.534602248387335277e-02,9.022057786732805285e-02,2.233236539184348113e-01
2.550000000000000044e-01,-1.318727013506246215e-01,2.956077590093388885e-01,2.557099606404658054e-01
2.560000000000000053e-01,-2.272875212448844523e-02,4.095695977861647519e-01,1.079393757760932077e-01
2.570000000000000062e-01,1.419288149271596133e-01,3.613699189664771327e-01,2.425677048482944784e-02
2.580000000000000071e-01,3.940782846540143991e-01,1.941561015732053974e-01,-8.372036352095016398e-02
2.590000000000000080e-01,4.884441926070698381e-01,-1.153710897582124750e-02,-3.378226521093494195e-02
2.600000000000000089e-01,3.984298661557468257e-01,-8.436727856252371205e-02,1.165181435971769514e-01
2.610000000000000098e-01,1.968662661604200503e-01,-2.480113724768378061e-02,2.548000372527522983e-01
2.620000000000000107e-01,-5.134703246746965405e-02,1.596090651675312888e-01,3.017220377442655366e-01
2.630000000000000115e-01,-1.081208312578005315e-01,3.238979783214694375e-01,2.231359585364698639e-01
2.640000000000000124e-01,5.381789847433422758e-02,3.663362817618404099e-01,1.068570838620755276e-01
2.650000000000000133e-01,1.940299389923352269e-01,2.467637187415814837e-01,-1.913812082476966381e-02
2.660000000000000142e-01,4.333718971180518520e-01,7.232457721440888054e-02,-7.417607075027114749e-02
2.670000000000000151e-01,4.732842278360346322e-01,-1.232957530043158056e-01,2.916025659210965890e-02
2.680000000000000160e-01,3.254865176307593089e-01,-1.429309888526771877e-01,1.608854060750557480e-01
2.690000000000000169e-01,1.041799908071192882e-01,-1.368237103247011213e-02,2.744269086183844797e-01
2.700000000000000178e-01,-1.122885659832146693e-01,1.555270273887347510e-01,2.604839094181988224e-01
2.710000000000000187e-01,-1.114082960844617332e-01,2.669367644973559828e-01,1.955308599938893888e-01
2.720000000000000195e-01,4.284266709000249945e-02,2.477609826707169449e-01,6.193960075974843521e-02
2.730000000000000204e-01,2.785286056944293875e-01,1.051547590899552520e-01,-3.839827756589630353e-02
2.740000000000000213e-01,4.222367892084392116e-01,-1.177622404068538464e-01,-6.284520386984292217e-02
2.750000000000000222e-01,3.764438682026016170e-01,-2.270550567407310094e-01,3.412598426245348759e-02
2.760000000000000231e-01,1.879507533443410816e-01,-1.782192791202265314e-01,1.583892369854227322e-01
2.770000000000000240e-01,-6.839574384775096161e-02,1.478323683283227531e-02,2.601989227247263337e-01
2.780000000000000249e-01,-2.199403910099287651e-01,1.609202979496007491e-01,2.482349547978193183e-01
2.790000000000000258e-01,-1.560338575928633398e-01,2.156919841071730515e-01,1.452337680327234204e-01
2.800000000000000266e-01,6.702988355107625251e-02,1.336463513175983331e-01,2.519675164505223979e-03
2.810000000000000275e-01,2.838259581311841639e-01,-6.529851886410764639e-02,-6.277932868825722434e-02
2.819999999999999729e-01,3.253418721940874447e-01,-2.670921201780033782e-01,-6.381367916460750633e-02
2.829999999999999738e-01,2.458465679658534686e-01,-3.128377517990637569e-01,4.520928320208050105e-02
2.839999999999999747e-01,-2.258215764094573252e-02,-2.007542934324018924e-01,1.721202433114358277e-01
2.849999999999999756e-01,-2.252518463489761869e-01,-3.170713763641512528e-02,2.700389320319870889e-01
2.859999999999999765e-01,-3.248494274491793843e-01,1.065461128367985177e-01,1.737736569495907657e-01
2.869999999999999774e-01,-1.921150242693166477e-01,1.358346052947499161e-01,2.518386986478042544e-02
2.879999999999999782e-01,1.400297477636021533e-02,-5.932812446381485749e-02,-8.295009787330645534e-02
2.889999999999999791e-01,2.188498067222724996e-01,-2.107587868748709847e-01,-1.578996335535920170e-01
2.899999999999999800e-01,2.199587122920357574e-01,-3.637472671016195869e-01,-9.067590799466498930e-02
2.909999999999999809e-01,1.899586166243050558e-02,-3.511471280595222511e-01,2.658505510115023729e-02
2.919999999999999818e-01,-2.019748256754400340e-01,-1.821599394466667521e-01,1.497330987304665573e-01
2.929999999999999827e-01,-3.752607535093265834e-01,-9.296213329837793582e-03,1.777092677470131221e-01
2.939999999999999836e-01,-3.780218994822340250e-01,1.095420929993612402e-01,1.153046263604197569e-01
2.949999999999999845e-01,-2.293504259632399289e-01,2.186019064648678581e-02,-7.268153552325828937e-02
2.959999999999999853e-01,1.840786870089132152e-02,-1.339347375939006213e-01,-1.926906789495786976e-01
2.969999999999999862e-01,1.695124522009983092e-01,-3.420724946038800618e-01,-1.797054176936989101e-01
2.979999999999999871e-01,8.478660993838539606e-02,-3.912671292861433781e-01,-9.453838396972487346e-02
2.989999999999999880e-01,-1.161478041930609495e-01,-2.954839671887305452e-01,4.188337275959926748e-02
2.999999999999999889e-01,-3.535800898106443158e-01,-1.201787310263823377e-01,1.241710813161327753e-01
3.009999999999999898e-01,-5.075038677239006590e-01,3.899219930809291745e-02,1.723495185632118731e-01
3.019999999999999907e-01,-4.062362339369600672e-01,5.345706844813584435e-02,4.236550327959664151e-03
3.029999999999999916e-01,-1.308595218231990154e-01,-5.163307750690293574e-02,-1.595251556273896421e-01
3.039999999999999925e-01,1.852676852437597915e-02,-2.557797544283788582e-01,-2.514937727326431172e-01
3.049999999999999933e-01,9.898318511202171266e-02,-4.078890613399491771e-01,-2.150404653127466481e-01
3.059999999999999942e-01,1.317892685985016556e-02,-3.806682568487492202e-01,-1.535567428699196324e-01
3.069999999999999951e-01,-2.816278595743605395e-01,-1.954361611852644676e-01,8.824485586113668852e-04
3.079999999999999960e-01,-4.287806999763146276e-01,-2.511163132440423842e-02,7.635108680079663590e-02
3.089999999999999969e-01,-5.056026876818043858e-01,8.916152852867521850e-02,3.419981834134552118e-02
3.099999999999999978e-01,-3.728891457124199338e-01,4.490908360261052640e-02,-6.717237570186823659e-02
3.109999999999999987e-01,-7.587248639915322723e-02,-1.141453398238038153e-01,-2.164037931592632802e-01
3.119999999999999996e-01,4.916151316213058370e-02,-2.609734202421469251e-01,-3.159985420951666457e-01
3.130000000000000004e-01,6.520956656084594960e-02,-3.666178697353724147e-01,-2.193925076866045099e-01
3.140000000000000013e-01,-9.072411654163869965e-02,-2.280970808474760692e-01,-1.081670955250080696e-01
3.150000000000000022e-01,-3.335768847720115282e-01,-4.518078779471205314e-02,-2.169042674479756266e-02
3.160000000000000031e-01,-4.558107691615037593e-01,6.118332605393212581e-02,5.309065575953585830e-02
3.170000000000000040e-01,-4.456151731629116042e-01,1.598909526601752784e-01,4.073198347291510230e-02
3.180000000000000049e-01,-2.617266146837833873e-01,4.820037942915667006e-02,-1.681841196995380039e-01
3.190000000000000058e-01,-1.084439247051960202e-02,-1.442226868775514648e-01,-2.564260621915341876e-01
3.200000000000000067e-01,1.427857660247011939e-01,-2.782965672468982743e-01,-3.025059143654912908e-01
3.210000000000000075e-01,6.340837189276664343e-02,-2.780333140093290689e-01,-2.200409741159116694e-01
3.220000000000000084e-01,-1.353144857003616419e-01,-1.038523104230429511e-01,-1.012625508052775181e-01
3.230000000000000093e-01,-3.226885215164192466e-01,1.010422345565786389e-01,2.998319687159912289e-02
3.240000000000000102e-01,-3.990334571082930215e-01,2.427414441582370630e-01,6.565380185640581900e-02
3.250000000000000111e-01,-3.093073264796974420e-01,1.858945746883853833e-01,-5.038607046583436916e-02
3.260000000000000120e-01,-5.692579739926835469e-02,4.111044557006084121e-02,-1.677279915074336714e-01
3.270000000000000129e-01,1.396204988488651821e-01,-1.269791437443328619e-01,-2.419599065551586159e-01
3.280000000000000138e-01,2.450598276348701920e-01,-1.979479743421459492e-01,-2.502589608737028626e-01
3.290000000000000147e-01,9.878831480002323029e-02,-1.225812088974464892e-01,-1.309836921629324580e-01
3.300000000000000155e-01,-6.955145122582596928e-02,9.161277367477500821e-02,-2.416026070143813265e-02
3.310000000000000164e-01,-3.010922413720143465e-01,2.410400424450580559e-01,7.093264543899781283e-02
3.320000000000000173e-01,-2.652767519536372021e-01,3.001054037810629849e-01,7.852204901600037812e-02
3.330000000000000182e-01,-1.215923868691929088e-01,2.496566584790150534e-01,2.757589976397576683e-04
3.340000000000000191e-01,1.351464340966742061e-01,4.394869143157611319e-02,-1.572687437161055246e-01
3.350000000000000200e-01,2.919478443246039112e-01,-8.385923715547691226e-02,-2.076624149363319738e-01
3.360000000000000209e-01,2.524639099846154311e-01,-1.285452328035291691e-01,-1.780091904533924463e-01
3.370000000000000218e-01,1.475362397921964885e-01,2.147528535316511542e-02,-3.649588266622126598e-02
3.380000000000000226e-01,-7.662690231935696816e-02,2.306614813016025223e-01,8.579889462997974947e-02
3.390000000000000235e-01,-2.035956508763810680e-01,3.587841377301779211e-01,1.589057256241273863e-01
3.400000000000000244e-01,-1.333023266530568851e-01,3.710808568744302094e-01,9.583782086191092175e-02
3.410000000000000253e-01,4.218024832182105249e-02,2.221391787891039138e-01,-2.376275103128067806e-02
3.420000000000000262e-01,2.811417654303821623e-01,2.817692508831392412e-02,-1.054220472375119733e-01
3.430000000000000271e-01,4.196701087094681926e-01,-3.226307992567638977e-02,-1.398664645559973829e-01
3.439999999999999725e-01,3.445530907654717478e-01,-1.502228268112944069e-02,-1.092297777305311635e-01
3.449999999999999734e-01,1.519668559406240904e-01,1.150875260263986011e-01,6.500174075186503087e-02
3.459999999999999742e-01,-4.091921914422110701e-02,3.492139182490411886e-01,1.755742838608350675e-01
3.469999999999999751e-01,-1.312063234290419822e-01,3.757448073512694720e-01,1.882376264831843449e-01
3.479999999999999760e-01,6.801457276083193969e-03,3.032450298812640610e-01,1.583992590076977458e-01
3.489999999999999769e-01,2.375023931644303921e-01,1.559936056389662762e-01,1.120387688489596356e-02
3.499999999999999778e-01,4.084888582732156270e-01,-3.218576580794374475e-02,-8.096756610990615832e-02
3.509999999999999787e-01,4.916357147347917844e-01,-1.056919801025006239e-01,-1.266669472172517186e-01
3.519999999999999796e-01,3.392002839202341580e-01,7.599221156733696955e-03,6.957291568109798784e-03
3.529999999999999805e-01,1.039881317949386819e-01,2.287074938932998069e-01,1.604517557543427841e-01
3.539999999999999813e-01,-8.756160955079556052e-02,3.419177637380073631e-01,2.526969154102665649e-01
3.549999999999999822e-01,-7.742611246070883746e-02,3.576673180551191433e-01,2.508470666933172444e-01
3.559999999999999831e-01,8.098840509043316038e-02,2.326562813505221594e-01,1.777413360839782963e-01
3.569999999999999840e-01,3.326091919001394892e-01,5.018273070667922386e-02,5.490130122677686769e-02
3.579999999999999849e-01,4.796581258880220355e-01,-4.974399100638570576e-02,-5.527261164397229143e-02
3.589999999999999858e-01,4.752016034660903054e-01,-4.803717540583505446e-02,-3.775843134983393468e-02
3.599999999999999867e-01,2.812524612950327296e-01,6.375600562080037392e-02,6.562230198332945352e-02
3.609999999999999876e-01,4.806997268178288957e-02,2.363342404621139037e-01,2.012125410684797999e-01
3.619999999999999885e-01,-8.348352168157836817e-02,3.210346552434574230e-01,3.220700288308951942e-01
3.629999999999999893e-01,-7.257739939133403539e-02,2.810086892466524544e-01,2.485150269103385268e-01
3.639999999999999902e-01,1.562298683350879791e-01,7.403298312862999220e-02,1.491860194852696608e-01
3.649999999999999911e-01,3.662013005061290905e-01,-9.089512027091539714e-02,1.020944632032487085e-03
3.659999999999999920e-01,4.520789157103801137e-01,-1.645760943560884149e-01,-7.595882121403622900e-02
3.669999999999999929e-01,3.694327996803017933e-01,-1.074441084470793839e-01,-1.554257744696471016e-02
3.679999999999999938e-01,1.537353557812579097e-01,7.154552181286104318e-02,1.107926436204101778e-01
3.689999999999999947e-01,-4.813269427107035731e-02,2.336358455874259499e-01,2.540207182791971441e-01
3.699999999999999956e-01,-1.559987121625140694e-01,2.216468407711718602e-01,2.948684705057153521e-01
3.709999999999999964e-01,-8.042885549826635228e-02,1.187857280961053114e-01,2.340315218202813907e-01
3.719999999999999973e-01,1.805800083087702734e-01,-7.493996638558446388e-02,8.728591270618539510e-02
3.729999999999999982e-01,3.286594104088604862e-01,-2.188686538128779835e-01,-2.596467037945542761e-02
3.739999999999999991e-01,3.905941240648950208e-01,-2.291203656768133479e-01,-7.865971378176861428e-02
3.750000000000000000e-01,1.971514561324249348e-01,-8.594776666659530162e-02,-3.726441335431766172e-03
3.760000000000000009e-01,-2.739133811580259786e-02,5.979414056970033114e-02,1.150262924599084191e-01
3.770000000000000018e-01,-2.042371360364878818e-01,1.910554939432250188e-01,2.279160950994479351e-01
3.780000000000000027e-01,-2.295902846166049116e-01,1.219195873523057499e-01,2.559464409279200714e-01
3.790000000000000036e-01,-6.012572809642066640e-02,-6.223741075135202222e-02,1.525766558120852934e-01
3.800000000000000044e-01,1.681943619958585767e-01,-2.225625553005101120e-01,4.564393320895868827e-03
3.810000000000000053e-01,2.617519253198406504e-01,-3.568229099727000531e-01,-1.233811884057300495e-01
3.820000000000000062e-01,2.346347588902421566e-01,-2.686835566537694175e-01,-8.443184762680681910e-02
3.830000000000000071e-01,1.245209545790995978e-02,-9.136905782296203538e-02,-1.906361298527563947e-02
3.840000000000000080e-01,-2.118880737683259963e-01,7.298018742760166433e-02,1.433324969356322420e-01
3.850000000000000089e-01,-3.679557796107887913e-01,1.129191654911321646e-01,2.407633904892960974e-01
3.860000000000000098e-01,-2.535137086854499233e-01,-1.419368806337085141e-02,1.703293998188390168e-01
3.870000000000000107e-01,-7.600901150049035881e-02,-1.849758413562547221e-01,9.586996316977801358e-02
3.880000000000000115e-01,1.248658346924600426e-01,-3.385192954075045280e-01,-8.590056015452310345e-02
3.890000000000000124e-01,1.795691422766572953e-01,-3.757453713506125337e-01,-1.511255278913425371e-01
3.900000000000000133e-01,6.229447572340016115e-02,-2.368183438927616569e-01,-1.328745996990013667e-01
3.910000000000000142e-01,-1.462832776212914243e-01,-4.985164489928479992e-02,-4.279657298095405904e-02
3.920000000000000151e-01,-3.572877357759751682e-01,8.398564540627499742e-02,8.458138235231756064e-02
3.930000000000000160e-01,-4.319466262490140318e-01,3.365411624179687894e-02,1.239602935881947282e-01
3.940000000000000169e-01,-3.078744383574256727e-01,-1.105973113779198241e-01,1.023388754709398940e-01
3.950000000000000178e-01,-6.664592713792316658e-02,-3.003924513986833134e-01,-5.018185015682404687e-02
3.960000000000000187e-01,8.147792870188809433e-02,-3.916364656467920535e-01,-1.408497088110855777e-01
3.970000000000000195e-01,9.066522194078004138e-02,-3.212393046797049623e-01,-2.526092482666629779e-01
3.980000000000000204e-01,-1.183949909588875582e-01,-1.696220146183652078e-01,-2.080696529714361753e-01
3.990000000000000213e-01,-3.107245225918756071e-01,-8.427308669448562231e-03,-3.489227185113569912e-02
4.000000000000000222e-01,-4.527099773282994843e-01,6.756995944119384423e-02,9.466565046145417051e-02
4.010000000000000231e-01,-4.781412022856504351e-01,5.990810025352266352e-03,8.456504119068281033e-02
4.020000000000000240e-01,-3.166790774020438182e-01,-1.621005740511276549e-01,2.604156954590056833e-02
4.030000000000000249e-01,-4.531786670084500535e-02,-3.374569422289722676e-01,-1.284290941432240929e-01
4.040000000000000258e-01,9.015207490472265661e-02,-3.792189069829572934e-01,-2.318410458450006761e-01
4.050000000000000266e-01,5.954585212020312157e-02,-2.444028443279391283e-01,-2.749367871310321454e-01
4.060000000000000275e-01,-1.687544094481767398e-01,-6.804008672250608236e-02,-1.762822690664904435e-01
4.069999999999999729e-01,-3.954289015239855765e-01,7.025523964538736565e-02,-7.425823356576097267e-02
4.079999999999999738e-01,-5.157902833232888007e-01,1.148397075847124305e-01,8.021718616527637180e-02
4.089999999999999747e-01,-4.087869771907216010e-01,-3.506332156692894275e-02,5.159658485658741994e-02
4.099999999999999756e-01,-1.819501293821487453e-01,-2.049301111058349500e-01,-4.088565636881238280e-02
4.109999999999999765e-01,4.665168723781088628e-02,-2.901475427655908490e-01,-1.987007335477983527e-01
4.119999999999999774e-01,1.028990861357042264e-01,-2.633730184558812359e-01,-2.655133196276565632e-01
4.129999999999999782e-01,3.550492575748919605e-02,-1.007721076170916552e-01,-2.758752069663051310e-01
4.139999999999999791e-01,-2.351731351002233350e-01,9.331994677923480253e-02,-2.005169519238103604e-01
4.149999999999999800e-01,-4.332562942671494555e-01,1.445386840403944662e-01,-2.092041580346587146e-02
4.159999999999999809e-01,-4.678653963862021703e-01,1.648848265787097311e-01,6.570116361018701889e-02
4.169999999999999818e-01,-2.933489742949733636e-01,-5.455123334823767239e-02,3.324043285964414784e-02
4.179999999999999827e-01,-5.421204743537683807e-02,-1.979633905273367189e-01,-8.807198886810048422e-02
4.189999999999999836e-01,1.450037256156192500e-01,-2.443016981235203167e-01,-2.097205565561819085e-01
4.199999999999999845e-01,1.446597891225469001e-01,-1.008350433802667062e-01,-2.832787716553236690e-01
4.209999999999999853e-01,-6.744898959728813821e-03,6.103262060495692060e-02,-2.313665815206553955e-01
4.219999999999999862e-01,-2.159810620248014401e-01,2.315396302813793328e-01,-1.348819547545599407e-01
4.229999999999999871e-01,-3.724369508484882130e-01,2.524564418144911726e-01,7.137529633924985517e-03
4.239999999999999880e-01,-2.845275696000722498e-01,1.211599558831053386e-01,4.580765993206079717e-02
4.249999999999999889e-01,-1.005337193862959472e-01,-3.532543204149296567e-02,3.312346722702917690e-02
4.259999999999999898e-01,1.293484918519132720e-01,-1.595613040887417511e-01,-1.064932696909327015e-01
4.269999999999999907e-01,2.554250467189382867e-01,-1.396374805104862726e-01,-2.063773817745992167e-01
4.279999999999999916e-01,1.991875188951316156e-01,2.384010803934669825e-02,-2.759944367400289367e-01
4.289999999999999925e-01,2.409578891397604755e-02,2.069845540652583415e-01,-1.751052980114660984e-01
4.299999999999999933e-01,-1.781857634933665946e-01,3.544190197785392904e-01,-3.221371747612863934e-02
4.309999999999999942e-01,-2.589348486758854540e-01,2.883067635968081799e-01,8.196956465165006200e-02
4.319999999999999951e-01,-1.556679902805954974e-01,1.538628400239379912e-01,1.143617578931259288e-01
4.329999999999999960e-01,7.357068967551833039e-02,-3.315746476404538012e-02,6.338125962615526188e-02
4.339999999999999969e-01,2.806951403881339790e-01,-1.251020136112606651e-01,-1.275389549183467697e-01
4.349999999999999978e-01,3.882754032885142315e-01,-2.753034666388188417e-02,-1.779056883321484261e-01
4.359999999999999987e-01,2.465156698496673016e-01,1.717481892531763088e-01,-1.688718143895080182e-01
4.369999999999999996e-01,3.320224572667167945e-02,3.397501317304090218e-01,-7.294761877922383009e-02
4.380000000000000004e-01,-1.838938340333322319e-01,3.785809919604449236e-01,7.765960533120927489e-02
4.390000000000000013e-01,-1.860677110679073987e-01,2.613157056864175432e-01,1.921440737712165892e-01
4.400000000000000022e-01,3.577092960550237039e-02,7.057782476286195150e-02,1.681687826273172703e-01
4.410000000000000031e-01,2.431471317802566534e-01,-3.838770746087949437e-02,7.583181594147746230e-02
4.420000000000000040e-01,4.320512976824425477e-01,-1.727949678879519071e-02,-7.877482365734242431e-02
4.430000000000000049e-01,4.255829741880881034e-01,7.266078966136442496e-02,-1.625932929148855843e-01
4.440000000000000058e-01,2.394891738920052471e-01,2.664452409345756112e-01,-9.570571576542023784e-02
4.450000000000000067e-01,3.605888021217118489e-02,3.902021183773596302e-01,2.006655109745119486e-02
4.460000000000000075e-01,-7.541769562459756104e-02,3.566115125105513428e-01,1.769027441760279429e-01
4.470000000000000084e-01,-5.483853944009379339e-02,2.044550261784610079e-01,2.317326975910896925e-01
4.480000000000000093e-01,1.486867438137391417e-01,2.362438576019187594e-02,1.696507911392267642e-01
4.490000000000000102e-01,3.657674883689378542e-01,-7.811682174627512798e-02,1.016853565331968939e-01
4.500000000000000111e-01,5.073423802372704072e-01,-4.568514201757881837e-02,-5.437969824491031140e-02
4.510000000000000120e-01,4.050272271086695075e-01,1.310259079091151690e-01,-7.360807094378878090e-02
4.520000000000000129e-01,1.856941102543956945e-01,3.072886348256115285e-01,-6.732325018441580322e-02
4.530000000000000138e-01,-1.877270755144107989e-02,3.895199641903462351e-01,1.076890911921598026e-01
4.540000000000000147e-01,-6.941609798570237688e-02,2.345650526789825330e-01,2.743663852754424370e-01
4.550000000000000155e-01,3.771815428919238211e-02,7.791697794895306728e-02,2.664249345730473340e-01
4.560000000000000164e-01,2.365296998233180070e-01,-6.967622860288669173e-02,2.124268320100739793e-01
4.570000000000000173e-01,4.305905231511606979e-01,-9.551812321211798629e-02,6.607817242777001832e-02
4.580000000000000182e-01,4.497268466110296847e-01,6.770809446959073080e-03,-4.168352102555002159e-02
4.590000000000000191e-01,3.051480514356230689e-01,1.912231030227635464e-01,-4.178717448060610684e-02
4.600000000000000200e-01,1.038732010315151222e-01,3.281241477759507252e-01,2.539795845738513497e-02
4.610000000000000209e-01,-7.630034477736680198e-02,2.706844210721054411e-01,1.401138554130336999e-01
4.620000000000000218e-01,-7.975184110381877689e-02,1.326321208748010849e-01,2.621553760249528686e-01
4.630000000000000226e-01,5.540809725388173151e-02,-8.172271803105371490e-02,3.074407585808255905e-01
4.640000000000000235e-01,2.798815920620653097e-01,-1.857638441210138769e-01,1.931297093772258722e-01
4.650000000000000244e-01,4.348846558811622076e-01,-1.486137791891242732e-01,3.629047245747175909e-02
4.660000000000000253e-01,3.874331280466950522e-01,-5.041014286508493925e-02,-3.301642248351060321e-02
4.670000000000000262e-01,1.435390312984187455e-01,1.803453926658328266e-01,-3.901958901234402199e-02
4.680000000000000271e-01,-6.882504818974688465e-02,2.471191273165794788e-01,9.921895516201412191e-02
4.689999999999999725e-01,-1.951217971055892175e-01,1.337492691456662330e-01,2.195276892756935216e-01
4.699999999999999734e-01,-1.343244554829124138e-01,-5.833965846009234874e-02,2.724960773985172224e-01
4.709999999999999742e-01,6.442220697689758635e-02,-2.159970854338119639e-01,2.208738920726055488e-01
4.719999999999999751e-01,2.978406842634817586e-01,-2.937980189877804627e-01,1.113257185801304200e-01
4.729999999999999760e-01,3.493552439395605780e-01,-1.736351495273337486e-01,-3.798157225896452854e-02
4.739999999999999769e-01,1.988048837053432993e-01,-1.941566188512150112e-02,-6.918637688272066821e-02
4.749999999999999778e-01,3.059128081500871524e-02,1.374260092826001811e-01,-3.571682512308126806e-02
4.759999999999999787e-01,-2.089297163463229579e-01,1.592167105280271611e-01,6.055350777456986605e-02
4.769999999999999796e-01,-2.741339263489724343e-01,-1.184861598255351409e-02,2.070726494383372807e-01
4.779999999999999805e-01,-1.667695220140444912e-01,-2.011441317740655932e-01,2.331945723848736496e-01
4.789999999999999813e-01,7.142383133465710077e-02,-3.269943351662801256e-01,1.780885952099698355e-01
4.799999999999999822e-01,1.872315176255540392e-01,-3.228501910674169140e-01,6.784331130746490413e-02
4.809999999999999831e-01,2.196948544584908791e-01,-1.623963691925799091e-01,-8.662027271950101248e-02
4.819999999999999840e-01,5.908438084947020136e-02,9.770090560848966599e-03,-1.007540902545024653e-01
4.829999999999999849e-01,-1.693664903232360575e-01,1.155255102861272726e-01,-1.063404555752918562e-01
4.839999999999999858e-01,-3.866285723504996330e-01,2.069433551031757759e-02,3.794618933400066563e-02
4.849999999999999867e-01,-3.794719854745933763e-01,-1.494688233739827066e-01,1.510628567769450037e-01
4.859999999999999876e-01,-1.917949023407803377e-01,-3.200141568015926197e-01,1.909620452288403047e-01
4.869999999999999885e-01,6.274457406924105474e-02,-3.914490100393810956e-01,1.008065570861017418e-01
4.879999999999999893e-01,1.507679289038675874e-01,-3.101053587915947873e-01,-5.881871055069157889e-02
4.889999999999999902e-01,1.244128858161932388e-01,-1.289824375495412789e-01,-1.845788389053253098e-01
4.899999999999999911e-01,-9.801874919431426136e-02,8.956645959610787591e-03,-1.811196777739107755e-01
4.909999999999999920e-01,-3.706508653817219279e-01,5.374361993716064712e-02,-1.201670440407067858e-01
4.919999999999999929e-01,-4.429631812798145440e-01,-8.131618956690413180e-02,5.285635748490755820e-02
4.929999999999999938e-01,-3.613837787342666918e-01,-2.318863878984573912e-01,1.331237902944434337e-01
4.939999999999999947e-01,-1.755780199395019781e-01,-3.701487507462262183e-01,8.761777765888531522e-02
4.949999999999999956e-01,5.888011675488254854e-02,-3.796497865499077196e-01,-1.390867620577119698e-03
4.959999999999999964e-01,1.164013710657993278e-01,-2.306428588964924697e-01,-1.987925591782194468e-01
4.969999999999999973e-01,-2.183291144700563041e-02,-3.994514364916731952e-02,-2.199908169165628591e-01
4.979999999999999982e-01,-2.135669773792425175e-01,1.174640089466845727e-01,-2.386902497586501359e-01
4.989999999999999991e-01,-4.494513180559435717e-01,1.982357699278398597e-02,-1.159999025835564690e-01
5.000000000000000000e-01,-4.660395409276877898e-01,-1.328506941486388149e-01,1.547318283380645643e-02
5.010000000000000009e-01,-3.488949241587733785e-01,-2.673579467242500063e-01,8.988697918093964401e-02
5.020000000000000018e-01,-1.238513819282793527e-01,-3.513286126117224906e-01,2.902126970989901342e-02
5.030000000000000027e-01,8.424001869325437042e-02,-3.059393567343020037e-01,-7.425925809921962717e-02
5.040000000000000036e-01,1.045231632894834534e-01,-1.087386240586346031e-01,-2.250193509130746505e-01
5.050000000000000044e-01,-8.723060026056625449e-02,4.657859163153562493e-02,-2.868793273280664802e-01
5.060000000000000053e-01,-3.138136079314612914e-01,1.409711487872399305e-01,-2.318030720638494524e-01
5.070000000000000062e-01,-4.735701364479429909e-01,2.204984033061006474e-02,-1.173142560360763142e-01
5.080000000000000071e-01,-4.475123918734680850e-01,-1.305917455107883651e-01,2.226170150352554597e-02
5.090000000000000080e-01,-2.205969713786862518e-01,-2.629411553167478321e-01,4.191531667602271805e-02
5.100000000000000089e-01,-9.259154742522342565e-03,-2.571861986530252775e-01,-6.487318216443897778e-02
5.110000000000000098e-01,1.288994796409790033e-01,-1.390145450500068491e-01,-1.263739529115154303e-01
5.120000000000000107e-01,7.680276155458372334e-02,5.552256105023457844e-02,-2.788001234394869021e-01
5.130000000000000115e-01,-1.451457663026020639e-01,1.942846289720857600e-01,-2.534677888670402446e-01
5.140000000000000124e-01,-3.101307668322215716e-01,2.262754422089294781e-01,-2.426033674674258900e-01
5.150000000000000133e-01,-4.055789102141183489e-01,7.135819420390956958e-02,-9.129506485950371342e-02
5.160000000000000142e-01,-3.330583065834770151e-01,-1.339037359668932003e-01,4.731408620691075068e-02
5.170000000000000151e-01,-9.042329442758050007e-02,-2.085485988828741089e-01,3.922237303749270820e-02
5.180000000000000160e-01,1.529917495025638619e-01,-1.477367240308314622e-01,-3.948946196500423972e-02
5.190000000000000169e-01,2.012330500987087045e-01,1.338396502749075560e-02,-1.569686041416680777e-01
5.200000000000000178e-01,7.706587966206396301e-02,2.310738076320273948e-01,-2.544507389626311511e-01
5.210000000000000187e-01,-1.437637204644457989e-01,2.844488729319440967e-01,-2.468637611587012892e-01
5.220000000000000195e-01,-2.995039638522063452e-01,1.949769419762944489e-01,-1.510590431599094230e-01
5.230000000000000204e-01,-3.201572648084376471e-01,4.272515971440629667e-02,-1.815928707626220454e-02
5.240000000000000213e-01,-1.607016274365218600e-01,-1.226392912988570477e-01,7.126877528971886644e-02
5.250000000000000222e-01,1.066758380409493501e-01,-1.260668743322808372e-01,5.674817597207089392e-02
5.260000000000000231e-01,2.724083855946392574e-01,-2.565364304068340831e-02,-5.497554160905700898e-02
5.270000000000000240e-01,2.860171114581103180e-01,1.785592715156541777e-01,-1.937351946764762078e-01
5.280000000000000249e-01,9.408152852638433650e-02,3.299133823630515105e-01,-2.184289258332345329e-01
5.290000000000000258e-01,-1.378433346682652327e-01,3.364942107151001616e-01,-2.074304084647574375e-01
5.300000000000000266e-01,-2.194758160588254348e-01,1.965008027643018185e-01,-6.237570640816751666e-02
5.310000000000000275e-01,-1.931412934505272738e-01,3.710981811389521545e-02,9.939364414683009297e-02
5.320000000000000284e-01,3.994519305004454873e-02,-1.180718526928556944e-01,1.665651818715238319e-01
5.330000000000000293e-01,2.746253813970044311e-01,-2.677737210406204091e-02,1.095795735995804127e-01
5.340000000000000302e-01,3.857899324271997221e-01,1.370350461621094307e-01,-3.619268221545123010e-02
5.350000000000000311e-01,3.163231697128102704e-01,2.968980381673131386e-01,-1.563174496647347367e-01
5.360000000000000320e-01,1.139248466761217798e-01,3.968362610990887607e-01,-1.754902291727471197e-01
5.370000000000000329e-01,-7.962001518090268404e-02,3.424255941050703411e-01,-9.914610564649090074e-02
5.380000000000000338e-01,-1.640637998155933530e-01,1.643593683345928314e-01,1.643717435771855501e-02
5.390000000000000346e-01,-1.373308259445520964e-02,-2.679969523956658717e-02,1.352911703681440037e-01
5.400000000000000355e-01,1.729970631504541279e-01,-5.942642707080100090e-02,2.332776370898369256e-01
5.410000000000000364e-01,4.252359896293758101e-01,4.648993313317277554e-02,9.582846676125751639e-02
5.420000000000000373e-01,4.783145996217144091e-01,1.889789077359209923e-01,9.456309839633708083e-05
5.430000000000000382e-01,3.009148777706484590e-01,3.555832955494784287e-01,-1.047505322833873209e-01
5.440000000000000391e-01,1.006822202459916604e-01,3.579712682452895200e-01,-1.127409027745503584e-01
5.450000000000000400e-01,-4.430000561782308777e-02,2.550838469439787870e-01,4.428511836188129581e-03
5.460000000000000409e-01,-6.511905294078143558e-02,5.989679332259318506e-02,1.578998106682137081e-01
5.470000000000000417e-01,8.613983072126409068e-02,-9.323214312209630872e-02,2.285467671207233598e-01
5.480000000000000426e-01,3.530792412858608786e-01,-8.270925212819678352e-02,2.423508098330632021e-01
5.490000000000000435e-01,5.359632509526564004e-01,7.775215839348835478e-02,1.153161274884565435e-01
5.500000000000000444e-01,4.489167335062492770e-01,2.745302376387149801e-01,-4.143549617278904224e-02
5.510000000000000453e-01,2.478876185159519796e-01,3.436476514404464000e-01,-9.768204133951530199e-02
5.520000000000000462e-01,1.941180020111756346e-02,3.058788364260611736e-01,-5.578393441375938122e-02
5.530000000000000471e-01,-9.216212925176552051e-02,1.300735256738682066e-01,9.916194669181326027e-02
5.540000000000000480e-01,-4.689744966754996747e-02,-5.954125602991894306e-02,1.836638470810220136e-01
5.550000000000000488e-01,1.600615616473816671e-01,-1.604074916898227954e-01,3.164331189192497451e-01
5.560000000000000497e-01,3.779944279204104363e-01,-1.032927161673830724e-01,2.396293645135210426e-01
5.570000000000000506e-01,4.331321969114378945e-01,1.086070949853498030e-01,1.400086581811696429e-01
5.580000000000000515e-01,3.881720237594687983e-01,2.291176916648690887e-01,-1.821566196784063160e-02
5.590000000000000524e-01,2.016598130742811579e-01,2.814535864076705973e-01,-8.043449928653256809e-02
5.600000000000000533e-01,-6.278472511910940246e-02,1.415835529849923113e-01,7.186454723572729616e-03
5.610000000000000542e-01,-1.596833500719264110e-01,-2.936031843487990275e-02,1.382013669561510949e-01
5.620000000000000551e-01,-1.223507105259061603e-02,-1.774010212460152280e-01,2.439896168511225261e-01
5.629999999999999449e-01,2.062829748758502613e-01,-2.239709751705731833e-01,2.910179242059905413e-01
5.639999999999999458e-01,3.712001902624738614e-01,-1.392450143423455411e-01,1.996960581226251696e-01
5.649999999999999467e-01,3.960646505604428214e-01,1.003220935519723578e-01,1.107529259775044267e-01
5.659999999999999476e-01,2.320077543985600288e-01,1.845560170642503439e-01,-4.626853354510877120e-02
5.669999999999999485e-01,-2.460361609293857874e-02,1.459590639321150241e-01,-6.045799263778411231e-02
5.679999999999999494e-01,-2.078499899237601090e-01,1.660641693352512063e-02,1.275296563336664191e-02
5.689999999999999503e-01,-1.783402928648242514e-01,-1.944792381344738197e-01,1.318207330330875837e-01
5.699999999999999512e-01,-3.476026641891031416e-02,-2.934634988552609070e-01,2.445997342221672144e-01
5.709999999999999520e-01,1.911718853945243990e-01,-2.329667183892710214e-01,2.830248738830826172e-01
5.719999999999999529e-01,3.590369587173631305e-01,-7.434967997487552938e-02,1.392993010329482972e-01
5.729999999999999538e-01,2.749225876275507296e-01,7.609580820038863713e-02,3.787785779466085970e-03
5.739999999999999547e-01,5.474657016881437355e-02,9.856032703635156378e-02,-7.356567772396700733e-02
5.749999999999999556e-01,-1.891245784203725577e-01,9.049354389937310644e-03,-1.038812957762250827e-01
5.759999999999999565e-01,-3.291249793396016643e-01,-1.548014366527472319e-01,1.365397766193109617e-02
5.769999999999999574e-01,-2.508133474773773242e-01,-3.344542354933585093e-01,1.743181999317077180e-01
5.779999999999999583e-01,-6.439573509434017018e-02,-3.592363467526637488e-01,2.188017535739284758e-01
5.789999999999999591e-01,1.660756096964774720e-01,-2.564442465759284584e-01,1.849178599360276343e-01
5.799999999999999600e-01,2.202046033619948773e-01,-8.176502705371448132e-02,7.581358974439823817e-02
5.809999999999999609e-01,7.788815796851232542e-02,4.761735607965524725e-02,-5.844498358997286119e-02
5.819999999999999618e-01,-1.590857949292812379e-01,4.617257783885710815e-02,-1.527587019466506713e-01
5.829999999999999627e-01,-3.684568573292900107e-01,-7.221967471969846508e-02,-1.012612606414658861e-01
5.839999999999999636e-01,-4.121691615096731431e-01,-2.951263826929255707e-01,1.581214381113996842e-02
5.849999999999999645e-01,-2.936093735372750646e-01,-3.910175846451732773e-01,9.534675888097757235e-02
5.859999999999999654e-01,-6.294749902070596870e-02,-3.369573141074941880e-01,1.292567859273361930e-01
5.869999999999999662e-01,1.197593054814931474e-01,-1.986205915810760614e-01,1.016243104377991535e-01
5.879999999999999671e-01,1.195656932947752188e-01,-2.049245047558722905e-03,-5.750495007231663097e-02
5.889999999999999680e-01,-9.334994409491774447e-02,7.511716353688133174e-02,-1.623203494063638341e-01
5.899999999999999689e-01,-2.933188056726735993e-01,-1.064454369297786369e-02,-2.226533949441706350e-01
5.909999999999999698e-01,-4.486416155987246746e-01,-1.583018127146351706e-01,-1.297319703733697815e-01
5.919999999999999707e-01,-4.918836458042250004e-01,-3.047041404030524370e-01,-2.301393358744591860e-02
5.929999999999999716e-01,-2.601709491228895166e-01,-3.912294360830372297e-01,7.507194439639655603e-02
5.939999999999999725e-01,-3.641557154291420739e-02,-2.628924607910329003e-01,1.007772692814810078e-01
5.949999999999999734e-01,1.259405087742832829e-01,-7.111021941169606841e-02,3.004683793899499619e-02
5.959999999999999742e-01,2.758769795733081315e-02,8.211265505187861913e-02,-1.349735209333203234e-01
5.969999999999999751e-01,-2.000893572163553180e-01,1.268072491505528310e-01,-2.217987690858036487e-01
5.979999999999999760e-01,-4.056264792221796478e-01,-4.580859146182550412e-02,-2.761452350912673714e-01
5.989999999999999769e-01,-5.015437767382076029e-01,-2.230321677381106316e-01,-1.652306355672281124e-01
5.999999999999999778e-01,-4.134504612683948532e-01,-3.060420283900022742e-01,-2.498090229320536898e-02
6.009999999999999787e-01,-2.156427363888258342e-01,-3.476683190283846869e-01,4.614403545498408504e-02
6.019999999999999796e-01,1.610809686727447676e-02,-1.556514557952225764e-01,2.771366687500974660e-02
6.029999999999999805e-01,6.020619606199956175e-02,2.025984215008555175e-02,-4.058228390964005450e-02
6.039999999999999813e-01,-2.729036518606375861e-02,1.498275917973454774e-01,-2.291699251026053097e-01
6.049999999999999822e-01,-2.327938392758506503e-01,1.166831869472541999e-01,-2.893363082110093631e-01
6.059999999999999831e-01,-4.306301033208582707e-01,-2.836076745283794276e-02,-2.543029285956198704e-01
6.069999999999999840e-01,-4.784511342389606292e-01,-2.221773019270477378e-01,-1.868496476388741279e-01
6.079999999999999849e-01,-2.691138854091217891e-01,-2.764803638471691194e-01,-6.284455043509271262e-03
6.089999999999999858e-01,-5.540151515427691603e-02,-1.671107670898739350e-01,8.480643730523536317e-02
6.099999999999999867e-01,1.057475380673591620e-01,2.120890215795325634e-02,3.726636109082427303e-03
6.109999999999999876e-01,1.068129383068903981e-01,1.956035639069536591e-01,-9.490806128622843174e-02
6.119999999999999885e-01,-5.312821275155660966e-02,2.205216169371999879e-01,-2.381145950275201095e-01
6.129999999999999893e-01,-2.587602346262291020e-01,1.497760558594219693e-01,-2.954950081241928816e-01
6.139999999999999902e-01,-4.019218930858728389e-01,-4.766858077908145419e-02,-2.665641767492544223e-01
6.149999999999999911e-01,-3.350179721168814462e-01,-1.842242532845317915e-01,-1.203114021622355007e-01
6.159999999999999920e-01,-8.506002469224445417e-02,-1.482195036563196955e-01,5.789949564603445731e-02
6.169999999999999929e-01,1.051621911592151709e-01,-1.246392145206988780e-02,3.069982470461755930e-02
6.179999999999999938e-01,2.445504507344922751e-01,1.902385463638591179e-01,-2.460835341150271333e-02
6.189999999999999947e-01,1.773600046043016798e-01,3.179225291019711630e-01,-1.600415574951241926e-01
6.199999999999999956e-01,-6.604762392488496003e-02,2.973917055590420966e-01,-2.467794116590155684e-01
6.209999999999999964e-01,-2.194583432548320168e-01,1.484633577929301840e-01,-2.572839249776912585e-01
6.219999999999999973e-01,-2.870499336819390956e-01,-4.003555940119211953e-02,-1.540891955024511484e-01
6.229999999999999982e-01,-1.833613334020690600e-01,-9.676065066205316589e-02,-3.900028998482980847e-02
6.239999999999999991e-01,1.180959875558158095e-01,-3.963336478738735402e-02,9.514480731678078007e-02
6.250000000000000000e-01,2.928329860740122026e-01,1.152614910977968893e-01,1.169731111155773717e-01
6.260000000000000009e-01,3.285037080946606181e-01,3.313020301897730002e-01,-1.797748953211841458e-02
6.270000000000000018e-01,2.069101017689471411e-01,3.782528871474546972e-01,-1.310498221289216336e-01
6.280000000000000027e-01,3.017361246916821713e-03,2.696765438446256380e-01,-2.047158809062631368e-01
6.290000000000000036e-01,-1.701553730052016711e-01,8.093195802937507011e-02,-2.089828163477901735e-01
6.300000000000000044e-01,-2.096440330908209970e-01,-5.436795663527389105e-02,-3.758170167051091970e-02
6.310000000000000053e-01,1.329230674188794023e-02,-9.024951997512588309e-02,4.770668205694674618e-02
6.320000000000000062e-01,2.672151133847626703e-01,4.399380586070113924e-02,1.466955760341223935e-01
6.330000000000000071e-01,4.367512528220852674e-01,2.560477348887353899e-01,1.137774425894319541e-01
6.340000000000000080e-01,4.195513477579422279e-01,3.887860948712762443e-01,2.833377265530527545e-02
6.350000000000000089e-01,2.345875508190394809e-01,3.438346440101385793e-01,-6.592246436414095356e-02
6.360000000000000098e-01,2.381793607693261094e-02,2.479533026944948093e-01,-1.185977989914136499e-01
6.370000000000000107e-01,-6.761023054652195996e-02,5.839984751416238407e-02,-1.085375048909922452e-01
6.380000000000000115e-01,-4.513387286564366635e-02,-7.415320647680413713e-02,5.266365135206833858e-02
6.390000000000000124e-01,1.300344296285548817e-01,-7.509303405070143385e-03,1.794050706773443193e-01
6.400000000000000133e-01,3.611756796365780398e-01,1.696909254665187605e-01,2.288750172048884257e-01
6.410000000000000142e-01,4.740650098556405401e-01,2.986079506238153436e-01,1.721947764863428487e-01
6.420000000000000151e-01,4.059004505964237675e-01,3.759617271104445102e-01,6.285655171885509707e-02
6.430000000000000160e-01,1.512976546685914081e-01,3.090804385622616390e-01,-7.321187961373722131e-02
6.440000000000000169e-01,-2.055713086467520628e-02,7.806174183108258169e-02,-1.199983829901931087e-01
6.450000000000000178e-01,-7.800620718053151437e-02,-7.690248120793762021e-02,-3.588485874545416232e-02
6.460000000000000187e-01,5.384084689533023826e-02,-1.101161144189845287e-01,1.680085165843729911e-01
6.470000000000000195e-01,2.384456655021574556e-01,-1.003837671097430710e-02,2.029877911389956768e-01
6.480000000000000204e-01,4.568622505686900648e-01,1.578710312630416390e-01,2.929026204740313166e-01
6.490000000000000213e-01,4.963968740163811066e-01,3.128334344885504437e-01,1.933384577700346107e-01
6.500000000000000222e-01,3.373626571519128259e-01,3.088825212912384433e-01,3.484844855783100076e-02
6.510000000000000231e-01,9.347448326619980929e-02,1.790808582823020800e-01,-1.185276612476022021e-02
6.520000000000000240e-01,-9.960679276161191198e-02,-4.514132366666584462e-02,-4.118589222019737595e-02
6.530000000000000249e-01,-7.465488298131310596e-02,-1.569836707102401363e-01,2.790414927151277022e-02
6.540000000000000258e-01,9.708015731920659197e-02,-1.729744766737070505e-01,1.587002797489990846e-01
6.550000000000000266e-01,3.148693148178373646e-01,-3.826042066816215392e-02,2.713370138770631046e-01
6.560000000000000275e-01,4.640150373341216938e-01,1.812137514435424868e-01,3.016098597076671828e-01
6.570000000000000284e-01,4.081825319649526329e-01,2.402371387495532973e-01,2.044390008707229200e-01
6.580000000000000293e-01,1.798270737967768429e-01,1.728526068275320904e-01,1.657592885362456359e-02
6.590000000000000302e-01,-3.582450920465108518e-02,-4.192042767272434814e-03,-5.840767626921695294e-02
6.600000000000000311e-01,-1.460291788272894964e-01,-2.070519838062371276e-01,9.105652598273068776e-03
6.610000000000000320e-01,-1.269126376718806293e-01,-2.644339311164370376e-01,6.173186813852100246e-02
6.620000000000000329e-01,1.040284454338709919e-01,-1.554050064983927282e-01,2.006190740270190342e-01
6.630000000000000338e-01,2.929427198659730336e-01,4.012004688131888541e-02,2.741617621368393487e-01
6.640000000000000346e-01,3.618820387478217659e-01,1.573382117774198286e-01,2.309097101413494224e-01
6.650000000000000355e-01,2.522985708203991928e-01,1.642735705172035932e-01,1.582895660507134539e-01
6.660000000000000364e-01,-1.421364517226941966e-02,4.730932117776745494e-02,-1.108242253875191437e-02
6.670000000000000373e-01,-1.981042382910694899e-01,-1.604566813571003669e-01,-5.962427056655911911e-02
6.680000000000000382e-01,-2.776828685750874492e-01,-2.985557894137714219e-01,-1.276508772183754421e-02
6.690000000000000391e-01,-1.339195525715963508e-01,-3.242734133815972641e-01,1.159560429546704907e-01
6.700000000000000400e-01,1.121671986743173893e-01,-1.685611812385772734e-01,2.225875308118778761e-01
6.710000000000000409e-01,2.439771626110791847e-01,2.333176606650328930e-02,2.362850192074250066e-01
6.720000000000000417e-01,2.335664562342724127e-01,1.000731784118231715e-01,2.047407438330871021e-01
6.730000000000000426e-01,7.071736020430317848e-02,5.707360752898932993e-02,7.932769368246066558e-03
6.740000000000000435e-01,-1.561107760481703355e-01,-8.506055564334001617e-02,-1.129369441946166258e-01
6.750000000000000444e-01,-3.583538890342748418e-01,-2.886766273010948902e-01,-1.392735146247791878e-01
6.760000000000000453e-01,-3.225628773197991572e-01,-4.123222962360127419e-01,-6.478985506068926647e-02
6.770000000000000462e-01,-1.405203577337354459e-01,-2.770871825378601327e-01,6.711833282085598318e-02
6.780000000000000471e-01,4.925618981050763207e-02,-1.586325333276401295e-01,1.801675637425547427e-01
6.790000000000000480e-01,1.774770610473082877e-01,2.944682289173281356e-02,1.899771828786378236e-01
6.800000000000000488e-01,1.059582370969834736e-01,6.132518108738090751e-02,1.063979358159876099e-01
6.810000000000000497e-01,-1.083436029722394528e-01,-2.623149496979646986e-02,-7.853683786056164795e-02
6.820000000000000506e-01,-3.391213456855318720e-01,-2.369251761077676988e-01,-1.467784672378368571e-01
6.830000000000000515e-01,-4.310019987855988610e-01,-3.617733971606786336e-01,-1.799301402606521827e-01
6.840000000000000524e-01,-3.669276676704361639e-01,-4.100686906256166830e-01,-7.962282441957366230e-02
6.850000000000000533e-01,-1.537632523153461273e-01,-2.752418118286980575e-01,7.415895825289679777e-02
6.860000000000000542e-01,4.697693121182079656e-02,-5.556180244585704614e-02,1.135621580373819134e-01
6.870000000000000551e-01,1.381923697323131917e-01,1.003306639254904487e-01,1.560973444511270236e-01
6.879999999999999449e-01,-8.480411739494165754e-03,3.946755946656351627e-02,-2.605932987350013420e-03
6.889999999999999458e-01,-2.506250941017414413e-01,-1.246952161474455673e-01,-1.660335312745936098e-01
6.899999999999999467e-01,-4.727421973408975631e-01,-2.526652997139131052e-01,-2.222117010052466479e-01
6.909999999999999476e-01,-4.665273107964715282e-01,-3.382103466948840897e-01,-2.017903065769358073e-01
6.919999999999999485e-01,-3.488613349684670517e-01,-3.172183019034673923e-01,-8.602845100625920727e-02
6.929999999999999494e-01,-5.978077217299291451e-02,-1.182834047448530074e-01,1.670974647586964332e-02
6.939999999999999503e-01,8.222262308633918049e-02,1.092380465230898511e-02,1.503433339668704682e-01
6.949999999999999512e-01,7.642972677553344640e-02,1.130619361832303632e-01,2.172716851678585873e-02
6.959999999999999520e-01,-1.080693203495016186e-01,1.810344165241690659e-02,-9.814998271239684657e-02
6.969999999999999529e-01,-3.445459725823430408e-01,-1.485002599204597873e-01,-2.535445488774259459e-01
6.979999999999999538e-01,-4.663542020589598325e-01,-2.942215291667640842e-01,-2.548086254559815411e-01
6.989999999999999547e-01,-4.393547253099697181e-01,-2.918645400254328837e-01,-2.163023115321615619e-01
6.999999999999999556e-01,-2.606983664918962051e-01,-1.790741110446460171e-01,-1.111547385803912519e-01
7.009999999999999565e-01,-1.249931895468650578e-02,3.532940702334887856e-02,3.464772816819956108e-02
7.019999999999999574e-01,1.215756695691420086e-01,2.038589114013857895e-01,6.423276215939308087e-02
7.029999999999999583e-01,6.164393173784463859e-02,1.751908677823234284e-01,-6.716795988266283102e-02
7.039999999999999591e-01,-1.776056919281378543e-01,3.197985550477636801e-02,-1.789443217450958912e-01
7.049999999999999600e-01,-3.500014910994370676e-01,-1.080301625717200315e-01,-2.637551879173424263e-01
7.059999999999999609e-01,-4.020999631100334315e-01,-2.384061940302850680e-01,-2.786339831654029986e-01
7.069999999999999618e-01,-3.282519304581857367e-01,-1.714632868179217229e-01,-2.026813356877986416e-01
7.079999999999999627e-01,-1.158071014511742325e-01,-4.659969814765129413e-03,-8.296966182828206804e-02
7.089999999999999636e-01,1.485639716574432556e-01,1.741648650998259551e-01,7.538747527830794160e-02
7.099999999999999645e-01,1.729358669247588742e-01,2.801404880654475571e-01,3.745963423806782794e-02
7.109999999999999654e-01,6.418642598683395317e-02,2.222284336591675846e-01,-3.463816926506448068e-02
7.119999999999999662e-01,-1.405292906142749654e-01,5.794621632411083023e-02,-1.917278714076655899e-01
7.129999999999999671e-01,-3.359245062344290433e-01,-1.058669061046612764e-01,-2.535592405147938933e-01
7.139999999999999680e-01,-3.525122920923706715e-01,-1.460216156397469711e-01,-2.594234098808267386e-01
7.149999999999999689e-01,-1.604494576085571389e-01,-2.705313380383867622e-02,-1.485055895771381362e-01
7.159999999999999698e-01,1.012571352694697502e-01,1.415709944027266631e-01,-1.657553111291831111e-02
7.169999999999999707e-01,2.457304511966041938e-01,3.263438100432158873e-01,8.008598535759085812e-02
7.179999999999999716e-01,2.747305847190901762e-01,3.538731877536016590e-01,2.282093375018663661e-02
7.189999999999999725e-01,8.466081331766722728e-02,2.024970417275454293e-01,-8.694116998175581423e-02
7.199999999999999734e-01,-1.743016779902867575e-01,3.403562549011483751e-02,-1.779540430345798729e-01
7.209999999999999742e-01,-2.571816366277268062e-01,-8.657224165495386314e-02,-2.310807894654469397e-01
7.219999999999999751e-01,-2.005042692299844054e-01,-4.621140528852393792e-02,-2.157491224422682097e-01
7.229999999999999760e-01,6.225764236745866265e-02,1.229006980396395859e-01,-5.172549855657553736e-02
7.239999999999999769e-01,2.863568245386313715e-01,3.325887148257536396e-01,8.411261714753717755e-02
7.249999999999999778e-01,3.806718546383729973e-01,3.990450248350661533e-01,1.338491318773888383e-01
7.259999999999999787e-01,2.889529675560114086e-01,3.502708730752556732e-01,7.852059416508795631e-02
7.269999999999999796e-01,8.673557424673494776e-02,1.777449066591702265e-01,-6.241091912157061689e-02
7.279999999999999805e-01,-1.094314198435036578e-01,2.649443607550362734e-02,-1.712796592095063297e-01
7.289999999999999813e-01,-1.523458453484501374e-01,-5.881740380250714134e-02,-1.997983590223812445e-01
7.299999999999999822e-01,-2.967136314996023094e-02,4.008761080428997065e-02,-1.103985158724214155e-01
7.309999999999999831e-01,1.947091561487182543e-01,1.786705690864214269e-01,3.827267520087863917e-02
7.319999999999999840e-01,4.279843689094920967e-01,3.476593406611548920e-01,1.438041563414974855e-01
7.329999999999999849e-01,4.750086629249876680e-01,3.992575433167044330e-01,1.725610120999488406e-01
7.339999999999999858e-01,3.215770394325366266e-01,2.720324132246587645e-01,1.415159932175263646e-01
7.349999999999999867e-01,6.907282114734290823e-02,5.934230819605684770e-02,-5.118951134692492633e-02
7.359999999999999876e-01,-1.020081777928271427e-01,-5.401055704463891133e-02,-1.381039881553984550e-01
7.369999999999999885e-01,-1.120988504754977244e-01,-6.637080470512884967e-02,-9.192820103870935622e-02
7.379999999999999893e-01,9.651937127355290913e-02,7.039898262922690553e-02,-1.713941659036060869e-02
7.389999999999999902e-01,3.339190830661576403e-01,2.454709340363988579e-01,1.361550465036057145e-01
7.399999999999999911e-01,4.823545219062279621e-01,3.490960892634623058e-01,2.226924976079007190e-01
7.409999999999999920e-01,4.680929249861238706e-01,3.495273207268718152e-01,2.434194452499744421e-01
7.419999999999999929e-01,2.483516340336002770e-01,1.461509030891380012e-01,1.183868119423340248e-01
7.429999999999999938e-01,1.376095821167354002e-02,-4.820449439764179500e-02,-3.600218427704531682e-02
7.439999999999999947e-01,-7.077530929454405040e-02,-1.108343735550851306e-01,-8.190886718067057204e-02
7.449999999999999956e-01,-3.848980026542429822e-02,-7.418980552849845089e-02,-6.559338137694251114e-02
7.459999999999999964e-01,1.937786107164766458e-01,8.611521191001116071e-02,1.179152529309093478e-01
7.469999999999999973e-01,4.131691157277490589e-01,2.433978387317060621e-01,2.145307206563621949e-01
7.479999999999999982e-01,4.718401643044316529e-01,3.022111825521439643e-01,2.781295998013139648e-01
7.489999999999999991e-01,4.172874981643159287e-01,1.788197699493751236e-01,2.362148363319664657e-01
7.500000000000000000e-01,1.287804960247384556e-01,-1.211298049913653698e-03,1.004618765565348376e-01
7.510000000000000009e-01,-3.837074680124372833e-02,-1.776004503534074630e-01,-2.333525609648608168e-02
7.520000000000000018e-01,-1.586235566244193762e-01,-1.934136198438652088e-01,-4.325731517176732710e-02
7.530000000000000027e-01,5.249341396588187020e-02,-6.873831850751525863e-02,2.027179001374571077e-02
7.540000000000000036e-01,2.436429217268263614e-01,8.918656741672389976e-02,1.378984327378581509e-01
7.550000000000000044e-01,3.981467993410226502e-01,2.069923188318171792e-01,3.037502953072340750e-01
7.560000000000000053e-01,4.082249981241868331e-01,1.827061062399288616e-01,3.153117734313189424e-01
7.570000000000000062e-01,2.123582817072832973e-01,1.131591109869028826e-02,2.283914848726623648e-01
7.580000000000000071e-01,4.007324779877733832e-04,-1.827669518501383039e-01,6.492211756115692789e-02
7.590000000000000080e-01,-1.689911749200039559e-01,-2.960690386901890792e-01,1.918847739111129939e-03
7.600000000000000089e-01,-1.428915730086674496e-01,-2.519771486105442659e-01,-4.122370086254267124e-02
7.610000000000000098e-01,-5.205203914856217084e-03,-9.338731165742504559e-02,3.034322719003054031e-02
7.620000000000000107e-01,1.885063899118515351e-01,8.166557996734717662e-02,1.595738397850001433e-01
7.630000000000000115e-01,3.480031891045760606e-01,1.321135788579045345e-01,2.660288292772885477e-01
7.640000000000000124e-01,2.661427798686075707e-01,5.914876900026586060e-02,2.517061409895796631e-01
7.650000000000000133e-01,2.894042708287069415e-02,-1.575009964710798183e-01,1.616176007730643349e-01
7.660000000000000142e-01,-1.676940717396270542e-01,-3.265940790738348087e-01,4.183972661915105404e-03
7.670000000000000151e-01,-3.132013514203884630e-01,-3.526326607545597902e-01,-9.018470063455073793e-02
7.680000000000000160e-01,-2.138034111713696950e-01,-2.479060210029770950e-01,-7.891004312942692667e-02
7.690000000000000169e-01,1.097234339814908387e-02,-7.452141895679324779e-02,5.487386726171324808e-02
7.700000000000000178e-01,1.483162471803344540e-01,5.509747188581079480e-02,1.294310708883620042e-01
7.710000000000000187e-01,2.436050783705328571e-01,7.553216198544815407e-02,2.570461937269151176e-01
7.720000000000000195e-01,1.152325783843826251e-01,-8.289368118852921685e-02,2.119114703114337861e-01
7.730000000000000204e-01,-1.261206595478681636e-01,-2.784570864783421085e-01,8.527797931476663318e-02
7.740000000000000213e-01,-3.208967404524210032e-01,-4.083912515355218043e-01,-7.174249426720986922e-02
7.750000000000000222e-01,-4.088814498824634991e-01,-3.632587689677829745e-01,-1.468819783643022792e-01
7.760000000000000231e-01,-2.889390873608832511e-01,-1.786940450343396380e-01,-1.409447542905071238e-01
7.770000000000000240e-01,-4.530774059158109573e-02,-5.180190705518222284e-03,1.975423166353983129e-02
7.780000000000000249e-01,1.540503276591961013e-01,5.335353556714331202e-02,1.191180576598567936e-01
7.790000000000000258e-01,1.095959004742573933e-01,-1.178620197409919589e-03,1.736381733756911239e-01
7.800000000000000266e-01,-5.431983150578589131e-02,-1.621099375413299903e-01,1.019951199172231537e-01
7.810000000000000275e-01,-2.943627469478379832e-01,-3.041723177837535874e-01,-3.558516865488759590e-02
7.820000000000000284e-01,-4.256518522636252855e-01,-3.904524654695342711e-01,-1.379385142781513474e-01
7.830000000000000293e-01,-4.449219303281313209e-01,-2.979323153204988528e-01,-1.752055534528560443e-01
7.840000000000000302e-01,-2.532199390554248364e-01,-9.200818549898055754e-02,-1.253986925927229046e-01
7.850000000000000311e-01,-6.148389619290021979e-02,6.752282001281646739e-02,-3.097299075475497352e-03
7.860000000000000320e-01,9.200330258025704588e-02,1.083640180058023789e-01,1.145829159375856970e-01
7.870000000000000329e-01,4.109056425306641114e-02,-8.123122630881966441e-03,1.000109703776758396e-01
7.880000000000000338e-01,-1.771975742799270226e-01,-1.802064504951114976e-01,5.201484031703317197e-03
7.890000000000000346e-01,-4.163286794229874577e-01,-3.447713183159042960e-01,-1.457499611053972299e-01
7.900000000000000355e-01,-4.877826300735366716e-01,-3.235362130134165626e-01,-2.390166445562280639e-01
7.910000000000000364e-01,-3.892913426529626131e-01,-1.666379214600371139e-01,-2.588726061679989532e-01
7.920000000000000373e-01,-2.058108026288226478e-01,3.765512820821621115e-03,-1.588617411692032910e-01
7.930000000000000382e-01,2.747753851420057028e-02,1.272258955295313410e-01,1.103446673193774277e-02
7.940000000000000391e-01,1.060136535709814559e-01,1.213731947584808096e-01,5.935931287101267606e-02
7.950000000000000400e-01,-5.365149902823023592e-02,-3.585833259826293196e-02,4.246977735764358164e-02
7.960000000000000409e-01,-2.651366612139907097e-01,-2.199765472316944082e-01,-6.737878274781000654e-02
7.970000000000000417e-01,-4.564814825900944673e-01,-3.062414890669494238e-01,-2.283355789264409075e-01
7.980000000000000426e-01,-4.492628849755079812e-01,-1.772859607235053592e-01,-2.802543619624238702e-01
7.990000000000000435e-01,-2.870217234655842442e-01,-8.934471975298880972e-03,-2.698100606112237010e-01
8.000000000000000444e-01,-5.273416996117138988e-02,1.626882023784767817e-01,-1.654987472519655334e-01
8.010000000000000453e-01,1.109551568497492424e-01,2.083872608476349253e-01,-3.856886149160730984e-03
8.020000000000000462e-01,1.041646427115887480e-01,1.299826303923540816e-01,5.670023569611261360e-02
8.030000000000000471e-01,-6.342042180540907736e-02,-4.754471214792451578e-02,1.014663172794748498e-02
8.040000000000000480e-01,-2.741659839515035446e-01,-1.718736934649748582e-01,-1.309796803752331651e-01
8.050000000000000488e-01,-3.983290497109381323e-01,-1.701949057107582930e-01,-2.539905093702982120e-01
8.060000000000000497e-01,-3.716932939484774434e-01,-4.722942230451055573e-02,-2.575600932206202898e-01
8.070000000000000506e-01,-1.251585203166110383e-01,1.614705118261341443e-01,-2.371545603340152186e-01
8.080000000000000515e-01,1.098275656066606404e-01,2.942027046384031452e-01,-6.886259516653996104e-02
8.090000000000000524e-01,2.083379850770359087e-01,2.767914677883888119e-01,2.763826706061042401e-02
8.100000000000000533e-01,1.464013093250280395e-01,1.388424779833681288e-01,8.154195404955563720e-02
8.110000000000000542e-01,-6.913787954214603571e-02,-5.225690058968049390e-02,1.135368365117377792e-02
8.120000000000000551e-01,-2.328351088056905549e-01,-1.477776734836934169e-01,-1.558025553886611125e-01
8.129999999999999449e-01,-3.008891791921990966e-01,-6.798196060736887147e-02,-2.468755693360582260e-01
8.139999999999999458e-01,-1.765144079919640507e-01,1.160983287380832896e-01,-2.714368297056070634e-01
8.149999999999999467e-01,3.629306697745496996e-02,2.838077332736310132e-01,-1.687496254997513379e-01
8.159999999999999476e-01,2.491350268486643149e-01,3.562378115938584777e-01,-5.592504668342047208e-02
8.169999999999999485e-01,3.037655484822490704e-01,2.792183823153261968e-01,9.774434060136495683e-02
8.179999999999999494e-01,1.970728886107566413e-01,8.661814447135979256e-02,7.150338596593949769e-02
8.189999999999999503e-01,-4.389128942316300463e-02,-5.607929997240553022e-02,-5.286749961780572160e-03
8.199999999999999512e-01,-2.101406791176713140e-01,-6.233074950902298822e-02,-1.467255058932206147e-01
8.209999999999999520e-01,-1.990968035087198884e-01,3.998826740752716574e-02,-2.029896597980428152e-01
8.219999999999999529e-01,3.546357300511430999e-02,2.341943097666621676e-01,-1.799612318829312829e-01
8.229999999999999538e-01,2.456056860431506950e-01,4.546877824881693231e-01,-1.038178737790842743e-01
8.239999999999999547e-01,4.170543856121837756e-01,3.793615095951011762e-01,8.533722139484373193e-02
8.249999999999999556e-01,3.838372170175229359e-01,2.714562444521682050e-01,1.304907368348760532e-01
8.259999999999999565e-01,2.011951680669997744e-01,7.313659052745177802e-02,1.081656982437438075e-01
8.269999999999999574e-01,-1.898991343820060490e-02,-5.992998381403313868e-02,-1.623186910821402054e-02
8.279999999999999583e-01,-1.636104975600431166e-01,-6.448383829953742430e-02,-1.005007750531751731e-01
8.289999999999999591e-01,-6.728999533343692219e-02,1.516646179192288890e-01,-1.568615935355729962e-01
8.299999999999999600e-01,1.472444963888423219e-01,2.853532033201286455e-01,-1.588241920385584094e-01
8.309999999999999609e-01,3.318584039227577831e-01,4.070482158796764338e-01,2.125151480761331563e-02
8.319999999999999618e-01,4.452761930468071561e-01,3.469580528512328232e-01,1.526764853075445461e-01
8.329999999999999627e-01,3.984773720204464187e-01,1.084209504838583304e-01,2.380237888452234329e-01
8.339999999999999636e-01,1.755865112831037078e-01,-5.036609367602885162e-02,1.917839053310416153e-01
8.349999999999999645e-01,-1.441108916595271183e-02,-1.085419758079981811e-01,1.175187234657174007e-02
8.359999999999999654e-01,-8.618974483728523983e-02,-2.928293139926379379e-02,-8.220225484418050566e-02
8.369999999999999662e-01,5.011230835354486129e-02,1.855876634910284817e-01,-1.077867115013392829e-01
8.379999999999999671e-01,2.599883605493836791e-01,3.264754464406575130e-01,-4.678907148873882871e-02
8.389999999999999680e-01,4.524144008410030393e-01,2.989579364415801410e-01,1.178321890937378130e-01
8.399999999999999689e-01,4.638722713628598560e-01,2.204685955248735507e-01,2.647699480501962133e-01
8.409999999999999698e-01,3.408814433764684182e-01,-7.187287285321406795e-03,2.591594106660238261e-01
8.419999999999999707e-01,7.847339079801068928e-02,-1.545996872894964680e-01,1.724303563033230124e-01
8.429999999999999716e-01,-8.405516459896694714e-02,-1.404361318934693459e-01,3.908306347902593125e-02
8.439999999999999725e-01,-6.491388885112867047e-02,1.745561091001409607e-03,-5.195278788950115356e-02
8.449999999999999734e-01,1.240409131145386590e-01,1.773039842402374389e-01,-5.482024514117774666e-02
8.459999999999999742e-01,3.363758358165545026e-01,2.611169040948517761e-01,2.594431659070647878e-02
8.469999999999999751e-01,4.460271388690368877e-01,1.755011626893431265e-01,2.082078891744046645e-01
8.479999999999999760e-01,4.039368109534821616e-01,4.610850696024349632e-02,2.872084162571676424e-01
8.489999999999999769e-01,1.991886355756687654e-01,-1.251727069574609941e-01,2.658852073689619289e-01
8.499999999999999778e-01,-3.266723102372339621e-02,-2.453307739688382894e-01,1.614473993241137550e-01
8.509999999999999787e-01,-1.273737265756151038e-01,-1.917879756706830641e-01,2.640892672293173801e-02
8.519999999999999796e-01,-8.050200585349330529e-02,-5.817507232735756421e-03,-3.986212798431526538e-02
8.529999999999999805e-01,1.322655094398268449e-01,1.651904212615117329e-01,-1.260993326131078576e-02
8.539999999999999813e-01,3.177496295282496996e-01,1.940928900892761044e-01,9.104773762988456476e-02
8.549999999999999822e-01,4.073942127461959162e-01,4.848207304532924089e-02,2.384564574483487021e-01
8.559999999999999831e-01,2.929607745606494507e-01,-1.500380943623932373e-01,3.072089868673336110e-01
8.569999999999999840e-01,4.729494822707694390e-02,-2.952164072548340013e-01,2.347796738517329285e-01
8.579999999999999849e-01,-1.843087615864922868e-01,-3.124719922555627694e-01,1.012259232508338352e-01
8.589999999999999858e-01,-2.278098023693138907e-01,-1.770155116766201631e-01,-5.085098576382684338e-02
8.599999999999999867e-01,-9.465193574199416704e-02,3.247979896325727672e-02,-4.740204315845618355e-02
8.609999999999999876e-01,1.467327855580301821e-01,1.288583086362597996e-01,6.222268892167704714e-03
8.619999999999999885e-01,2.603331992606386924e-01,8.571782570768594900e-02,1.195170583464915531e-01
8.629999999999999893e-01,2.486743136992134728e-01,-7.349914786734979000e-02,2.186651491349859422e-01
8.639999999999999902e-01,7.544141592089195769e-02,-2.954967348443541253e-01,2.775112370496655156e-01
8.649999999999999911e-01,-1.434238397411836674e-01,-3.677572547023754690e-01,2.022686838151191158e-01
8.659999999999999920e-01,-3.251446401455987956e-01,-3.145648248203612440e-01,3.341921664513233109e-02
8.669999999999999929e-01,-3.168630949884750359e-01,-1.270290352194208827e-01,-7.867835244643441028e-02
8.679999999999999938e-01,-1.336598666040619832e-01,3.229768723701003513e-02,-9.208086711949912961e-02
8.689999999999999947e-01,6.268626986273592716e-02,1.007508032770316891e-01,-2.150676736043650658e-02
8.699999999999999956e-01,1.931111793690722944e-01,-2.611174088818683098e-02,1.169756953933095284e-01
8.709999999999999964e-01,1.230901166337370206e-01,-2.244142677182335566e-01,2.066614548542344276e-01
8.719999999999999973e-01,-1.094561927074308577e-01,-3.697449264506211253e-01,1.861585693516401019e-01
8.729999999999999982e-01,-3.323451501186117651e-01,-3.839743278526222547e-01,6.796118939610008847e-02
8.739999999999999991e-01,-4.236431580154195187e-01,-2.662758428513417597e-01,-6.111314405247143117e-02
8.750000000000000000e-01,-3.505867443053887755e-01,-6.001187318576085838e-02,-1.463207792152149411e-01
8.760000000000000009e-01,-1.425447853603633297e-01,4.884336578166872250e-02,-1.721070700583544888e-01
8.770000000000000018e-01,5.120516349751491614e-02,3.852448351906111179e-02,-3.462748107292787370e-02
8.780000000000000027e-01,1.478137102082227872e-01,-1.024518983701272756e-01,9.825511290090242766e-02
8.790000000000000036e-01,-1.000936162241381280e-02,-2.795302252168517798e-01,1.416280412126063315e-01
8.800000000000000044e-01,-2.528828347594153092e-01,-4.123420395892072876e-01,1.295104751066082638e-01
8.810000000000000053e-01,-4.894052988351632050e-01,-3.096483611005049763e-01,-1.653622934180027596e-03
8.820000000000000062e-01,-4.506970442342762007e-01,-1.653909012870579121e-01,-1.614861528583099726e-01
8.830000000000000071e-01,-3.291219251450743233e-01,3.068907648429517604e-02,-2.206397381062417951e-01
8.840000000000000080e-01,-1.305832634507318457e-01,1.278516075828443899e-01,-2.112929820666220315e-01
8.850000000000000089e-01,7.288631551835007827e-02,3.869600306153568592e-02,-9.000924575936181116e-02
8.860000000000000098e-01,8.391915032229724236e-02,-9.181251275928301037e-02,6.091340819381313443e-02
8.870000000000000107e-01,-1.001619189733336801e-01,-2.691458914930333624e-01,8.121566282720206476e-02
8.880000000000000115e-01,-3.423620933648922615e-01,-3.094463272203386572e-01,1.111200950508410383e-02
8.890000000000000124e-01,-5.090119433332641607e-01,-2.291231020522450368e-01,-9.673147264477074958e-02
8.900000000000000133e-01,-4.282138836240976798e-01,-3.655636849540794958e-02,-2.210648027950992134e-01
8.910000000000000142e-01,-2.498417027624946496e-01,1.576791948654256703e-01,-2.814549616254425901e-01
8.920000000000000151e-01,-4.987666246987782631e-04,1.706092133868800653e-01,-1.990773503501098440e-01
8.930000000000000160e-01,1.218471793623094601e-01,3.649026326400901798e-02,-6.122998955846124802e-02
8.940000000000000169e-01,5.156599257331558050e-02,-1.196349882093561412e-01,2.043349678788659168e-02
8.950000000000000178e-01,-1.580979868507329800e-01,-2.599853598395108212e-01,6.151235566718980113e-02
8.960000000000000187e-01,-3.891294550044027689e-01,-2.003508574702110023e-01,-1.925367655274841383e-02
8.970000000000000195e-01,-4.579536496234484222e-01,-4.587235207954643706e-02,-2.066165051102241690e-01
8.980000000000000204e-01,-3.552822627966846225e-01,1.626395277389330596e-01,-2.722820659005307786e-01
8.990000000000000213e-01,-9.973685819166253075e-02,2.615865689484103696e-01,-2.902903581320074866e-01
9.000000000000000222e-01,1.233542808493594961e-01,2.036986243574903654e-01,-2.063209628697210973e-01
9.010000000000000231e-01,1.655388192440879758e-01,3.912451412934234152e-02,-6.736006407167090260e-02
9.020000000000000240e-01,6.747086518469928851e-02,-1.169293775597010365e-01,3.239453657736347802e-02
9.030000000000000249e-01,-1.994564533582856014e-01,-1.855819832500940070e-01,4.254655717575833024e-02
9.040000000000000258e-01,-3.272413093789222072e-01,-5.363214430227618290e-02,-1.084050212937043706e-01
9.050000000000000266e-01,-3.550503910998981105e-01,8.635162709520716184e-02,-1.934629098478788944e-01
9.060000000000000275e-01,-1.691563455245532477e-01,2.721758785638497824e-01,-3.046174703555444840e-01
9.070000000000000284e-01,1.003208206071752595e-01,3.125531342410768354e-01,-2.576256789879649012e-01
9.080000000000000293e-01,2.164857875352366456e-01,2.163078615709636277e-01,-1.650530693842337804e-01
9.090000000000000302e-01,2.133608523896303732e-01,5.018109033322294688e-02,3.036761894792127867e-02
9.100000000000000311e-01,5.220397560623703942e-02,-8.439417700692540547e-02,9.158857368300751811e-02
9.110000000000000320e-01,-1.716390291272545110e-01,-1.103480379867876615e-01,2.703672395207905657e-02
9.120000000000000329e-01,-3.205783923776628352e-01,7.001041239699580532e-02,-9.496984587289236668e-02
9.130000000000000338e-01,-1.835704913402776139e-01,2.989787347300542075e-01,-2.335146483010053509e-01
9.140000000000000346e-01,1.634412820046437370e-02,4.091240948827684076e-01,-2.692358820060730129e-01
9.150000000000000355e-01,2.426050634660658623e-01,3.321649458850757797e-01,-2.112461859367374406e-01
9.160000000000000364e-01,3.787338904202466328e-01,1.770480266597521946e-01,-3.918397915938932885e-02
9.170000000000000373e-01,2.578574767154012126e-01,8.431556802625424230e-03,6.345053210645193453e-02
9.180000000000000382e-01,7.218157566081810639e-02,-8.863730688588221385e-02,1.382927146632611792e-01
9.190000000000000391e-01,-1.172448329121075911e-01,-1.692012436125239555e-03,2.826650667569222466e-02
9.200000000000000400e-01,-1.893643227918566374e-01,1.774793528739170012e-01,-9.334533172969541881e-02
9.210000000000000409e-01,-3.915211964824035634e-02,3.440719420780430360e-01,-1.748447369941934504e-01
9.220000000000000417e-01,1.975069505168874362e-01,3.815356799432550461e-01,-1.899685847961371521e-01
9.230000000000000426e-01,3.971579814380957751e-01,2.688119466511650901e-01,-1.019984481191117676e-01
9.240000000000000435e-01,4.275763367639156542e-01,1.237662677254804805e-01,5.232989389838817867e-02
9.250000000000000444e-01,3.039497528929736014e-01,-6.710617164642637689e-02,1.313067840765984873e-01
9.260000000000000453e-01,8.196662149426200972e-02,-6.338767861246540070e-02,1.706852554933041000e-01
9.270000000000000462e-01,-9.714950461603809317e-02,5.477916485812144021e-02,5.676224534018135814e-02
9.280000000000000471e-01,-7.235737503495133505e-02,2.867531228194237225e-01,-7.167533259404690327e-02
9.290000000000000480e-01,1.134399625327032479e-01,3.783776670464715775e-01,-1.200997468187112172e-01
9.300000000000000488e-01,3.213635951420505399e-01,3.449707860678298266e-01,-1.347495654287924338e-01
9.310000000000000497e-01,5.058469023891480898e-01,1.518023974806438914e-01,-1.214451412280838360e-02
9.320000000000000506e-01,4.502288398548412451e-01,1.692047442988401512e-02,1.379751125689689661e-01
9.330000000000000515e-01,2.480635071459191821e-01,-1.075825561911811779e-01,2.290452315251024773e-01
9.340000000000000524e-01,2.243811835838455809e-02,-6.139138185112828078e-02,2.019193782199619203e-01
9.350000000000000533e-01,-5.764734293216347560e-02,9.604895112211726815e-02,9.159456742662042128e-02
9.360000000000000542e-01,-4.982424395468810358e-02,2.503079793595491820e-01,-2.306680690103644210e-02
9.370000000000000551e-01,2.023578615331903807e-01,3.229837239662483594e-01,-9.303200467338194890e-02
9.379999999999999449e-01,4.172390967546316665e-01,2.220087318568479962e-01,-3.241647327973137815e-02
9.389999999999999458e-01,4.882982324116887374e-01,3.483818132458979533e-02,3.866361495179578001e-02
9.399999999999999467e-01,3.816781743748015043e-01,-1.491511701124447753e-01,2.262956516535335749e-01
9.409999999999999476e-01,1.362541804709910542e-01,-1.599951158213522295e-01,2.681682969762482216e-01
9.419999999999999485e-01,-6.550599569724056825e-02,-8.015231897996009935e-02,2.316332217711987163e-01
9.429999999999999494e-01,-1.110076260560791533e-01,7.634862901160524573e-02,9.517595504874123979e-02
9.439999999999999503e-01,1.749520793164123858e-03,2.347930578733530838e-01,-5.140365115875656504e-02
9.449999999999999512e-01,2.598623135503919657e-01,1.750600536572495813e-01,-5.410290926978950782e-02
9.459999999999999520e-01,3.977345782242517336e-01,7.078432048412708344e-02,1.750732700041906717e-02
9.469999999999999529e-01,3.990782196265052484e-01,-1.434547348015489110e-01,1.479496726885438374e-01
9.479999999999999538e-01,2.499470198865159642e-01,-2.825845695056513618e-01,2.771543342530006782e-01
9.489999999999999547e-01,1.117166919313764689e-02,-2.434061164649041209e-01,3.024144878870720365e-01
9.499999999999999556e-01,-1.581570322496254899e-01,-9.858319474506932467e-02,2.104225678484150930e-01
9.509999999999999565e-01,-1.512343861087617480e-01,1.053020264245795035e-01,1.068117440033107546e-01
9.519999999999999574e-01,-1.578086499642360543e-02,1.697394412588591750e-01,-1.513038783789769255e-02
9.529999999999999583e-01,2.395157100056006239e-01,1.001642608043097349e-01,-4.734601423938309545e-02
9.539999999999999591e-01,3.435284270340214774e-01,-1.304166887747812698e-01,4.646596696056560366e-02
9.549999999999999600e-01,2.869345966755268429e-01,-2.563093830804465401e-01,2.013305979052975869e-01
9.559999999999999609e-01,6.938014805711845145e-02,-3.519680921762730619e-01,3.034110693961824534e-01
9.569999999999999618e-01,-1.769956764078936262e-01,-2.860521873835444873e-01,2.930479285950271517e-01
9.579999999999999627e-01,-2.804131128579505638e-01,-8.960685882917286682e-02,1.744603282016989609e-01
9.589999999999999636e-01,-2.087109050938723842e-01,8.275787776113545380e-02,2.244618254058262583e-02
9.599999999999999645e-01,-1.259489696763174682e-02,7.909410663408537878e-02,-9.373059672184502755e-02
9.609999999999999654e-01,2.209003937922841831e-01,-8.058278725219382432e-02,-4.818353576139667444e-02
9.619999999999999662e-01,2.892003712632004175e-01,-2.364662455796304463e-01,4.174042536691158906e-02
9.629999999999999671e-01,1.137466534219523373e-01,-3.695182892244370243e-01,2.144637627024320037e-01
9.639999999999999680e-01,-1.399993610898574992e-01,-3.477253767140892071e-01,2.328103094747256407e-01
9.649999999999999689e-01,-3.279579123697101140e-01,-2.146329682488783697e-01,2.147573630051476112e-01
9.659999999999999698e-01,-3.548109295582980161e-01,-2.567810194869239379e-02,4.177319251040381015e-02
9.669999999999999707e-01,-2.379172749648288676e-01,5.033500836349395768e-02,-4.929644013645594763e-02
9.679999999999999716e-01,2.701621995384299868e-02,2.335225704031554383e-02,-1.536560262791377973e-01
9.689999999999999725e-01,1.362956281592787311e-01,-1.367432934575950609e-01,-6.066056756683196188e-02
9.699999999999999734e-01,1.421846294450727910e-01,-3.648672340142862236e-01,6.310623677590787572e-02
9.709999999999999742e-01,-4.337800401972002201e-02,-4.036507041068239099e-01,1.709694817804726374e-01
9.719999999999999751e-01,-3.027930942495053457e-01,-3.326967334512475616e-01,1.909988557984161894e-01
9.729999999999999760e-01,-4.467373440403868967e-01,-1.355033496701445739e-01,1.237282162436548344e-01
9.739999999999999769e-01,-3.937216135352703539e-01,3.782576507231669161e-02,-5.195809340803092535e-02
9.749999999999999778e-01,-2.348073215493820809e-01,6.655251206549549214e-02,-1.664366831449963224e-01
9.759999999999999787e-01,1.232679417016926786e-02,-4.851251083291781979e-02,-1.753799192417555830e-01
9.769999999999999796e-01,8.218839449695912458e-02,-1.934719158712581433e-01,-1.256848355539893491e-01
9.779999999999999805e-01,7.603966960700249411e-02,-3.499749299459259944e-01,2.071473331998834565e-04
9.789999999999999813e-01,-1.957440956121853926e-01,-3.204171893544320859e-01,8.443117127074070694e-02
9.799999999999999822e-01,-4.264981994925777786e-01,-2.161261933178984518e-01,9.851758799258118759e-02
9.809999999999999831e-01,-4.630618717227439340e-01,-2.747447844232693212e-02,-9.786818191349685309e-04
9.819999999999999840e-01,-3.880150749107821873e-01,1.340528653091561107e-01,-1.097205933907556274e-01
9.829999999999999849e-01,-1.671797973461983111e-01,9.356028494029534903e-02,-2.450847796425463521e-01
9.839999999999999858e-01,4.402543885821738612e-02,-3.673948289723685812e-02,-2.060623245062321585e-01
9.849999999999999867e-01,8.218163530901086145e-02,-1.884730446377642643e-01,-1.225151588553480830e-01
9.859999999999999876e-01,-4.459372720070871321e-02,-3.270576703082848646e-01,-1.972040459885530174e-05
9.869999999999999885e-01,-2.558951850036022546e-01,-2.330188936467061100e-01,1.073158130400446580e-01
9.879999999999999893e-01,-4.353322216460700500e-01,-2.131259644695356753e-02,8.551744085315124422e-02
9.889999999999999902e-01,-4.768326058338523410e-01,1.202434068697383895e-01,-9.974659747498365592e-02
9.899999999999999911e-01,-3.184121533265134585e-01,2.063101072269505898e-01,-2.017855767444660942e-01
9.909999999999999920e-01,-4.802558051926655164e-02,1.441629033358496903e-01,-2.784133692851910591e-01
9.919999999999999929e-01,1.102135631866752313e-01,-5.524846507433211346e-02,-2.283268180020127380e-01
9.929999999999999938e-01,9.499003252378887541e-02,-2.083117152017200935e-01,-1.375609863227655327e-01
9.939999999999999947e-01,-1.076282959332755529e-01,-1.987315835331774638e-01,1.754131050662342947e-03
9.949999999999999956e-01,-3.035574682388879619e-01,-9.224963210500390642e-02,3.018584847006808292e-02
9.959999999999999964e-01,-4.057715227503333466e-01,1.297574701094925120e-01,1.370140072205088585e-04
9.969999999999999973e-01,-3.506876658703774186e-01,2.763283545369875083e-01,-1.419421426838999578e-01
9.979999999999999982e-01,-1.179302269983684981e-01,2.806547761971375232e-01,-2.383705482882041704e-01
9.989999999999999991e-01,1.004703609468857589e-01,1.252913713714588761e-01,-3.171442797425331750e-01
1.000000000000000000e+00,2.357161904613149506e-01,-3.492176927359329913e-02,-2.349240569259706812e-01
1.000999999999999890e+00,1.316423697040468022e-01,-1.111181109589155919e-01,-8.890575686895214880e-02
1.002000000000000002e+00,-7.880825980660852159e-02,-6.806922439640741840e-02,4.880760143130850187e-02
1.002999999999999892e+00,-2.825942221379408870e-01,8.056965275875535570e-02,5.106401116096037640e-02
1.004000000000000004e+00,-3.337716984201575254e-01,2.897018717598182636e-01,-9.423998864264407707e-03
1.004999999999999893e+00,-2.324996120033016866e-01,3.401159061277144735e-01,-1.556420978657868659e-01
1.006000000000000005e+00,3.679585568905900661e-02,3.056790351943151074e-01,-2.672946912163024491e-01
1.006999999999999895e+00,2.476131027443954913e-01,1.364928458681250734e-01,-2.580890435791250992e-01
1.008000000000000007e+00,2.691868272821681951e-01,-2.754888260516790907e-02,-1.990992194543619587e-01
1.008999999999999897e+00,1.535056770231294776e-01,-5.214599459686295596e-02,-2.234941583060658099e-02
1.010000000000000009e+00,-6.255361167238521203e-02,3.460748790073649162e-02,8.352316394832162705e-02
1.010999999999999899e+00,-2.161779119424276641e-01,2.164158061122163912e-01,5.681593852861888810e-02
1.012000000000000011e+00,-2.201054635429095796e-01,3.638932987961304155e-01,-4.613299024714559438e-02
1.012999999999999901e+00,-1.169263174255906826e-02,3.869880723465075612e-01,-1.642593706246768814e-01
1.014000000000000012e+00,2.286008198780210554e-01,2.414344785973559504e-01,-2.376289901367398261e-01
1.014999999999999902e+00,3.991755856847357675e-01,3.816543741937582224e-02,-1.848845675114260956e-01
1.016000000000000014e+00,3.594890636035683040e-01,-7.793808713953584433e-02,-7.748670187111666996e-02
1.016999999999999904e+00,1.457635784508174437e-01,-4.517745366665747164e-02,7.708702963442569389e-02
1.018000000000000016e+00,-2.151745871317266648e-02,1.207482614095145845e-01,1.668320150211702879e-01
1.018999999999999906e+00,-1.518968442944907127e-01,2.937989863837909277e-01,1.067851654768668251e-01
1.020000000000000018e+00,-8.254168267511956258e-02,3.712941599421046845e-01,1.081723711122587611e-03
1.020999999999999908e+00,1.727333105380638723e-01,3.510634625074666171e-01,-9.193642853962744055e-02
1.022000000000000020e+00,4.055466679824039078e-01,1.478547101986418533e-01,-1.606831472930708438e-01
1.022999999999999909e+00,4.698686513895917738e-01,-1.618923369285164837e-02,-1.001331750135880383e-01
1.024000000000000021e+00,3.761371457117804740e-01,-1.087614823062170305e-01,-8.960658571777330161e-03
1.024999999999999911e+00,1.399931964231274639e-01,2.997260827411733601e-03,1.449320250848566694e-01
1.026000000000000023e+00,-4.905581075472570385e-02,1.629241641628467463e-01,1.673939387186599292e-01
1.026999999999999913e+00,-9.782783617092689898e-02,3.037370115304248719e-01,1.175971838447754519e-01
1.028000000000000025e+00,6.686226460467384336e-02,3.487636992810590475e-01,9.191761254573136558e-04
1.028999999999999915e+00,2.837347908547214748e-01,2.456043084930447373e-01,-6.589438828541940851e-02
1.030000000000000027e+00,5.056092166226970885e-01,5.985419234236290936e-02,-1.244726681788998895e-01
1.030999999999999917e+00,5.048230415708508945e-01,-1.329093374282153128e-01,-2.573964922109736944e-02
1.032000000000000028e+00,3.155627926997833232e-01,-1.397748444301938897e-01,1.106973003208884809e-01
1.032999999999999918e+00,9.179616947402045868e-02,-8.375794565218074375e-03,2.439038164488451232e-01
1.034000000000000030e+00,-7.849690678302008451e-02,1.804860534249883852e-01,2.448665242419276189e-01
1.034999999999999920e+00,-7.970307436586616945e-02,2.848571004657797778e-01,1.333993031310845567e-01
1.036000000000000032e+00,1.115591095718938552e-01,2.377369020467409721e-01,2.635765933955186435e-02
1.036999999999999922e+00,3.237438699937910669e-01,6.677109756856514089e-02,-6.364544315689743548e-02
1.038000000000000034e+00,4.631731606840419624e-01,-1.286987587413601364e-01,-5.071001321369391496e-02
1.038999999999999924e+00,4.067934534110803635e-01,-2.191043064565432463e-01,7.652280130401310776e-02
1.040000000000000036e+00,2.127211337885152043e-01,-1.404497800636780869e-01,2.296638412377516036e-01
1.040999999999999925e+00,-3.104433856597871647e-02,8.426581283717258716e-03,3.100373228398229930e-01
1.042000000000000037e+00,-1.069265405721023660e-01,1.221500843403733466e-01,2.671650773507950327e-01
1.042999999999999927e+00,-3.497893071981512253e-02,2.242531759429525207e-01,1.412573465304802767e-01
1.044000000000000039e+00,1.617148128033821519e-01,1.048807441006174151e-01,1.690664923353417393e-02
1.044999999999999929e+00,3.823783942133883174e-01,-1.252581541635497953e-01,-6.815841074420460333e-02
1.046000000000000041e+00,4.320619693477262824e-01,-2.799566840577886184e-01,6.981208838268109472e-03
1.046999999999999931e+00,3.067894325682217205e-01,-2.856795222117090582e-01,9.852331761173459268e-02
1.048000000000000043e+00,7.159497593411806582e-02,-1.681594319410498750e-01,2.527230946212539187e-01
1.048999999999999932e+00,-1.514163457769096000e-01,3.870874925886260299e-03,3.118183500857502621e-01
1.050000000000000044e+00,-2.376510746893663872e-01,1.204809730706865173e-01,2.422244674944679654e-01
1.050999999999999934e+00,-9.596351115042146829e-02,8.933855721351326162e-02,7.738525537439303048e-02
1.052000000000000046e+00,1.213129568743367137e-01,-8.302256441533394093e-02,-2.059096473298912405e-02
1.052999999999999936e+00,3.047899608329293630e-01,-2.914477550131358563e-01,-7.451861914176063917e-02
1.054000000000000048e+00,2.890570672569042765e-01,-3.611724788224434657e-01,9.885031064084167512e-03
1.054999999999999938e+00,1.361668510958126133e-01,-3.343800483107650101e-01,1.417351559431001828e-01
1.056000000000000050e+00,-1.391961569717073133e-01,-1.709842991607170293e-01,3.035751578671704309e-01
1.056999999999999940e+00,-2.937528361568014779e-01,9.762382150042488854e-03,2.825434198552228549e-01
1.058000000000000052e+00,-3.072053729395228250e-01,7.749700555342026176e-02,1.741300455148941106e-01
1.058999999999999941e+00,-1.236880284913909611e-01,-5.636182354361102091e-03,-8.940911228451271092e-03
1.060000000000000053e+00,1.047889401288961964e-01,-1.819842776785565996e-01,-8.532295239113525664e-02
1.060999999999999943e+00,2.192445344611616553e-01,-3.420524911747627184e-01,-9.607423838331755062e-02
1.062000000000000055e+00,1.406317413709987640e-01,-3.895620721418414090e-01,-2.104071435750201960e-02
1.062999999999999945e+00,-7.865052264801283832e-02,-2.786882691967956238e-01,1.266222571802752828e-01
1.064000000000000057e+00,-2.986367206005676733e-01,-8.469818715283436439e-02,2.566716771284626164e-01
1.064999999999999947e+00,-4.328472621790967478e-01,5.022927909422706533e-02,2.077862307756640770e-01
1.066000000000000059e+00,-3.204454549732648760e-01,6.945289363745825451e-02,1.167440043429667923e-01
1.066999999999999948e+00,-9.123101554116946899e-02,-8.745680540376818413e-02,-5.558266847697223428e-02
1.068000000000000060e+00,6.747133322208048734e-02,-2.612612264170205978e-01,-1.486167628616498204e-01
1.068999999999999950e+00,1.405318500812510474e-01,-3.760041829400613822e-01,-1.285842368617367837e-01
1.070000000000000062e+00,-8.639419228245620607e-05,-3.707199454172577235e-01,-3.491173175707709686e-02
1.070999999999999952e+00,-2.359816400216055987e-01,-1.811901933626167138e-01,1.352235202325856034e-01
1.072000000000000064e+00,-4.524610462959191004e-01,2.168814940412163925e-02,1.587815440422706559e-01
1.072999999999999954e+00,-4.593942124632791613e-01,1.024102305609891905e-01,1.026426765920008810e-01
1.074000000000000066e+00,-3.368868035167081887e-01,6.712454306501422496e-02,-2.351171207221929363e-02
1.074999999999999956e+00,-8.906169985347678342e-02,-1.309456858453593164e-01,-1.536732492760840840e-01
1.076000000000000068e+00,5.961470813707750449e-02,-2.590075641593924116e-01,-2.317263795989514819e-01
1.076999999999999957e+00,6.003456303241370973e-02,-3.581304102589868421e-01,-1.570600750250256417e-01
1.078000000000000069e+00,-1.240007121721459077e-01,-2.256700242365077269e-01,-2.838527053604770686e-02
1.078999999999999959e+00,-3.471180628059231110e-01,-5.909532667379673032e-02,1.105082554212532681e-01
1.080000000000000071e+00,-4.895549659513817042e-01,1.091613582776505414e-01,8.590350215954259405e-02
1.080999999999999961e+00,-4.351588817614470694e-01,1.789239917169826444e-01,2.944560657701728729e-02
1.082000000000000073e+00,-2.325532471278850544e-01,1.764424561205520797e-02,-1.191843332357828550e-01
1.082999999999999963e+00,-1.411923294321702424e-02,-1.344213098995246380e-01,-2.205222659704431099e-01
1.084000000000000075e+00,1.064457638881492613e-01,-2.680318428821241716e-01,-2.783672017408362342e-01
1.084999999999999964e+00,3.981096213233318443e-02,-2.472819879598675274e-01,-1.705243367166530410e-01
1.086000000000000076e+00,-2.007925758318251375e-01,-6.061312921260722519e-02,-3.693981725676920985e-02
1.086999999999999966e+00,-4.165790654546066007e-01,1.172762197991353006e-01,4.428136269100976102e-02
1.088000000000000078e+00,-4.570166199424183784e-01,2.393929779533942315e-01,5.605802851085811556e-02
1.088999999999999968e+00,-3.167031590272936237e-01,2.042435895696175785e-01,-2.963208314107508221e-02
1.090000000000000080e+00,-1.349058818888243805e-01,5.240383840928328207e-02,-1.776537441630834657e-01
1.090999999999999970e+00,1.376944353585471958e-01,-7.480664242779946904e-02,-2.443309233137080372e-01
1.092000000000000082e+00,1.357678788253817714e-01,-1.865320084081391605e-01,-2.675821390299453761e-01
1.092999999999999972e+00,2.014709977137647216e-03,-7.706060875648847175e-02,-1.569089692593473861e-01
1.094000000000000083e+00,-2.186321616560710501e-01,9.491122043752389659e-02,-6.176333275398105532e-02
1.094999999999999973e+00,-3.870897388884479984e-01,2.542814522279326361e-01,6.691792373386816484e-02
1.096000000000000085e+00,-3.516701069895997733e-01,3.205616082316553039e-01,3.331750504748753200e-02
1.096999999999999975e+00,-1.844593650628795212e-01,2.202966734998305087e-01,-6.622970295880425962e-02
1.098000000000000087e+00,6.475165846566820205e-02,2.341763442031183362e-02,-2.209126315082251546e-01
1.098999999999999977e+00,2.485758348193107536e-01,-1.251652192157830246e-01,-2.803316531163154157e-01
1.100000000000000089e+00,1.310862376505049776e-01,-9.779922689736873787e-02,-2.562144615853217400e-01
1.100999999999999979e+00,4.967219001508574316e-02,5.917591669782779062e-02,-1.443064564644877812e-01
1.102000000000000091e+00,-1.938045306948625590e-01,2.305847257399588346e-01,-1.968560109104579986e-02
1.102999999999999980e+00,-2.628376733425288880e-01,3.549791813967684839e-01,5.836733303389752409e-02
1.104000000000000092e+00,-2.087523605725600251e-01,3.333654884973767940e-01,1.836050152132177177e-02
1.104999999999999982e+00,-4.073116946445757593e-03,1.930819279799203814e-01,-1.200378167520224915e-01
1.106000000000000094e+00,2.274345676144077233e-01,2.975350155715453943e-02,-2.310091460333419944e-01
1.106999999999999984e+00,3.496638407914833269e-01,-6.889280916760974482e-02,-2.448826540131985030e-01
1.108000000000000096e+00,2.547308855800795024e-01,-2.395938682542508857e-02,-1.847332862833145628e-01
1.108999999999999986e+00,3.265567522703197861e-02,2.127467158497448330e-01,-4.562796952923169752e-02
1.110000000000000098e+00,-1.524305662857859123e-01,3.762044472114847715e-01,8.438696999087609563e-02
1.110999999999999988e+00,-1.860635646858530834e-01,4.008363511891400721e-01,1.297205952061961931e-01
1.112000000000000099e+00,-7.578474309383495533e-02,3.528833283212603478e-01,2.544948926334855699e-02
1.112999999999999989e+00,1.813236559058573616e-01,1.398099633602679637e-01,-1.273244579819352296e-01
1.114000000000000101e+00,3.778128416750911600e-01,-1.586580134113533061e-02,-1.940963484072729117e-01
1.114999999999999991e+00,4.205839279301893940e-01,-8.624845549137603873e-02,-1.963465163743023378e-01
1.116000000000000103e+00,2.889055145975404915e-01,5.975807754454959264e-02,-9.830813204841101771e-02
1.116999999999999993e+00,6.344186234221781129e-02,2.450991265442777067e-01,2.034398817900915507e-02
1.118000000000000105e+00,-1.140135240432110092e-01,3.524258334117235103e-01,1.209027793501270265e-01
1.118999999999999995e+00,-8.978974934800733332e-02,3.475568966104176094e-01,1.486370823930636409e-01
1.120000000000000107e+00,7.072871165865408927e-02,1.904470243753582370e-01,6.601180982055865343e-02
1.120999999999999996e+00,3.204441306658171729e-01,-1.622362598162109190e-02,-8.189998869630787937e-02
1.122000000000000108e+00,4.316303635225778867e-01,-1.204916855589706487e-01,-1.432627704059895313e-01
1.122999999999999998e+00,4.067269993936540318e-01,-3.956320274014622773e-02,-1.618861342685321558e-01
1.124000000000000110e+00,2.525456822687402458e-01,8.427625945999184243e-02,-2.741156052659404416e-02
1.125000000000000000e+00,-1.443088987804861008e-02,2.320987476811750272e-01,1.412446309172661618e-01
1.125999999999999890e+00,-1.029223343159972881e-01,3.370615752249496722e-01,2.518187452826468054e-01
1.127000000000000002e+00,-3.287418079301930324e-03,2.572824823154129525e-01,1.754889179621132445e-01
1.127999999999999892e+00,1.985149306649095224e-01,3.378110796626598855e-02,8.060597655672101236e-02
1.129000000000000004e+00,4.144976540534281995e-01,-1.474555698339239107e-01,-4.379392089097904756e-02
1.129999999999999893e+00,4.660380176557790688e-01,-1.858530885333677662e-01,-8.365899713687520445e-02
1.131000000000000005e+00,3.987463232629322452e-01,-8.910013160460827919e-02,-2.396071458296798393e-02
1.131999999999999895e+00,1.329307281843025157e-01,1.148659916412285986e-01,1.001229406935560534e-01
1.133000000000000007e+00,-5.878207575034233995e-02,2.166486621473044383e-01,2.330321541823240639e-01
1.133999999999999897e+00,-1.174937033743276710e-01,2.440181782519303400e-01,2.985891486508912007e-01
1.135000000000000009e+00,1.527146889535226787e-02,1.012858527548339133e-01,2.038513516910145096e-01
1.135999999999999899e+00,2.599394472823294278e-01,-9.252694130499278247e-02,6.583074860873480705e-02
1.137000000000000011e+00,4.233772002933914314e-01,-2.285371012303019922e-01,-2.799436134346728819e-02
1.137999999999999901e+00,4.686954870639736814e-01,-2.018571562708962319e-01,-4.989565209365139781e-02
1.139000000000000012e+00,2.532475335635454017e-01,-7.777861985259598709e-02,1.183699527826843727e-02
1.139999999999999902e+00,2.504719292962519564e-02,7.402926687925674709e-02,1.456681101285459135e-01
1.141000000000000014e+00,-1.833752334391356154e-01,1.707932224220063966e-01,2.751568961881295516e-01
1.141999999999999904e+00,-1.394988238380191481e-01,1.049677146942945977e-01,2.868765218289868746e-01
1.143000000000000016e+00,5.618561953855662899e-02,-5.351130068209596774e-02,1.716935420536462864e-01
1.143999999999999906e+00,2.788334153042293373e-01,-2.595524908249469132e-01,6.597874942178252877e-02
1.145000000000000018e+00,3.792584274138678935e-01,-3.262903631890697875e-01,-1.067555581417955340e-02
1.145999999999999908e+00,3.215034731192594197e-01,-2.440141777300602333e-01,-2.077702985365233526e-02
1.147000000000000020e+00,7.991644970297975825e-02,-9.275585929630127124e-02,4.754103518366639691e-02
1.147999999999999909e+00,-1.814671571776118320e-01,8.615330788101106807e-02,2.240809912893024503e-01
1.149000000000000021e+00,-2.656676953432667854e-01,1.173761131288127285e-01,2.932760176223392357e-01
1.149999999999999911e+00,-2.174731019309482094e-01,-3.154716309274948477e-02,2.538563802787330292e-01
1.151000000000000023e+00,9.771454758666744608e-03,-2.403086149874020250e-01,1.267424166416430409e-01
1.151999999999999913e+00,2.122427150485907965e-01,-3.632189361546380169e-01,-1.165644872124954904e-03
1.153000000000000025e+00,2.845772551405181816e-01,-3.691243465751934405e-01,-8.235487991765057247e-02
1.153999999999999915e+00,1.490977555267188337e-01,-2.427366278557920865e-01,-4.513745712104218905e-02
1.155000000000000027e+00,-9.753857246555697191e-02,-2.994585305326761399e-02,9.618165649860463406e-02
1.155999999999999917e+00,-3.270280761170178963e-01,5.819894171984758835e-02,2.159341020331400351e-01
1.157000000000000028e+00,-3.322845651938357014e-01,4.571694090176721403e-02,2.557422387155374732e-01
1.157999999999999918e+00,-2.189304643824256102e-01,-1.211325263652697076e-01,2.073381052189634255e-01
1.159000000000000030e+00,6.227342589470883857e-03,-3.068687383688742387e-01,4.189412494357470235e-02
1.159999999999999920e+00,1.947793623274310104e-01,-3.979651614508509239e-01,-6.218210177224341856e-02
1.161000000000000032e+00,1.516462496521082393e-01,-3.145894929158705167e-01,-1.196125149235830742e-01
1.161999999999999922e+00,-3.851800147994449697e-02,-1.837826155364810921e-01,-5.345284497259298467e-02
1.163000000000000034e+00,-2.815759422068345175e-01,2.016781809798511016e-02,9.234355855123671519e-02
1.163999999999999924e+00,-4.025294603544065097e-01,8.684896401800273891e-02,1.863366636506805507e-01
1.165000000000000036e+00,-3.524587047323797795e-01,-3.441359866170184273e-02,2.192130569463947298e-01
1.165999999999999925e+00,-2.357258399185226672e-01,-2.276004504568869269e-01,1.132055205598203468e-01
1.167000000000000037e+00,2.022027344062315296e-02,-3.359478769574669177e-01,-1.306851713803642429e-02
1.167999999999999927e+00,1.002578274523163310e-01,-3.468232716939225746e-01,-1.739833514504393053e-01
1.169000000000000039e+00,4.314866406607911070e-02,-2.247637963277730466e-01,-1.766654543615122364e-01
1.169999999999999929e+00,-2.155521418946972356e-01,-1.430853937199570887e-02,-9.040367637761816122e-02
1.171000000000000041e+00,-4.420492499117507079e-01,9.690768774589193779e-02,9.620694760687738267e-02
1.171999999999999931e+00,-4.763396562177283355e-01,1.296373577013981981e-01,1.445273238555147000e-01
1.173000000000000043e+00,-3.694585498589357253e-01,-4.182850785407978000e-02,1.128944429719148379e-01
1.173999999999999932e+00,-1.829750952781988571e-01,-2.421715690378356545e-01,3.425540611387047768e-02
1.175000000000000044e+00,4.275046012365391751e-02,-3.116476045006406070e-01,-1.363387370963288214e-01
1.175999999999999934e+00,9.962952184148557433e-02,-2.603174456828791783e-01,-2.240625906699892922e-01
1.177000000000000046e+00,-4.776199635776370855e-02,-7.874120258386149707e-02,-2.125580050407356036e-01
1.177999999999999936e+00,-2.801457790495506806e-01,1.192439753747311093e-01,-9.065255529424549874e-02
1.179000000000000048e+00,-4.530435469653701919e-01,1.914512233923700846e-01,4.737213349874464657e-02
1.179999999999999938e+00,-4.543965100807925706e-01,1.309038297895993574e-01,9.543662924104737155e-02
