time,acc_x,acc_y,acc_z
0.000000000000000000e+00,7.702937659936173395e-03,-7.357270145529819227e-02,3.164796695480226463e-02
1.000000000000000021e-03,-1.629300255476886505e-01,-1.964058412997558012e-01,-5.421175667861161118e-02
2.000000000000000042e-03,-2.517253220446682427e-01,-2.278889715882712330e-01,-1.364466364234908358e-01
3.000000000000000062e-03,-2.677545265252415096e-01,-1.608500781168893112e-01,-1.941632574503231456e-01
4.000000000000000083e-03,-9.786155328520100560e-02,-3.716922734306135623e-02,-9.407355669809459864e-02
5.000000000000000104e-03,8.696343273635609439e-02,1.148020806202803973e-01,-2.125502151165415896e-02
6.000000000000000125e-03,2.257738215534484116e-01,2.214891312905719889e-01,1.078111494850278740e-01
7.000000000000000146e-03,2.403145950842726919e-01,2.197732363410312417e-01,1.683006540445480814e-01
8.000000000000000167e-03,2.149407087513296732e-01,1.047432653569499023e-01,1.657863446165292742e-01
8.999999999999999320e-03,3.071214150023707234e-02,-6.548793199591063097e-02,1.118990685424267190e-01
1.000000000000000021e-02,-1.160192405347532651e-01,-1.687271617591901141e-01,-2.989667410081436535e-02
1.099999999999999936e-02,-2.488150547289430248e-01,-2.268118761855276722e-01,-1.160396742175057866e-01
1.200000000000000025e-02,-2.644768604180429694e-01,-1.715807466224461286e-01,-1.491177784009923013e-01
1.299999999999999940e-02,-1.878465081368474177e-01,-4.479658593864615374e-02,-1.297141530312893032e-01
1.400000000000000029e-02,2.004854019481915051e-02,1.090781695851756605e-01,-6.306087860892541086e-02
1.499999999999999944e-02,2.195227594001603610e-01,2.233138499217303119e-01,7.419023168277377733e-02
1.600000000000000033e-02,2.735375038672633874e-01,1.956806352591566600e-01,1.665256475331898800e-01
1.700000000000000122e-02,2.347350744138827772e-01,1.472572143611100282e-01,1.681850820247430545e-01
1.799999999999999864e-02,9.577234106909293665e-02,2.141892162650984102e-03,9.708821641569510830e-02
1.899999999999999953e-02,-1.005079550579648512e-01,-1.438530633064107889e-01,5.145053151940492953e-02
2.000000000000000042e-02,-2.571246713357511759e-01,-2.115511496286217041e-01,-6.114305075497133979e-02
2.100000000000000130e-02,-2.839345664070043740e-01,-2.190582362451376219e-01,-1.660623049459983014e-01
2.199999999999999872e-02,-1.976934457986918026e-01,-8.838783650058745778e-02,-1.592175852787959534e-01
2.299999999999999961e-02,-6.614108538182983388e-02,8.581004213709524098e-02,-1.011215287035530375e-01
2.400000000000000050e-02,1.581245756159423421e-01,1.916777131075163565e-01,3.155233011851713010e-02
2.500000000000000139e-02,2.252619851000671747e-01,2.315815563240042618e-01,1.045987429648517347e-01
2.599999999999999881e-02,2.775402603231911236e-01,1.427026954810978188e-01,2.028116676584070799e-01
2.699999999999999969e-02,1.319920139586921171e-01,1.447725305415257201e-02,1.463573004447103199e-01
2.800000000000000058e-02,-4.692036069631897593e-03,-1.414694927880835174e-01,5.916628462126116011e-02
2.900000000000000147e-02,-2.022174359688530265e-01,-2.386800950397078291e-01,-2.181608531557876346e-02
2.999999999999999889e-02,-2.991531405405631894e-01,-2.253870378553926856e-01,-1.470503142015531228e-01
3.099999999999999978e-02,-2.459249374534830390e-01,-7.759670775971520829e-02,-1.956868729390116857e-01
3.200000000000000067e-02,-1.257391755753952955e-01,5.958807557987703257e-02,-1.369248387865535377e-01
3.300000000000000155e-02,6.588266243262555499e-02,1.428432150719444460e-01,-2.837924805922822924e-02
3.400000000000000244e-02,2.406579494042157263e-01,2.284785404380006157e-01,6.396536171609469579e-02
3.500000000000000333e-02,3.059801999676062256e-01,2.010378332404721136e-01,1.696157890599438445e-01
3.599999999999999728e-02,2.203661345430584506e-01,4.921975001016205137e-02,1.885776444225630566e-01
3.699999999999999817e-02,4.048154239884091399e-02,-9.932087134043361687e-02,6.451458178432349644e-02
3.799999999999999906e-02,-1.812942310694812265e-01,-2.183595947960470796e-01,-1.358820744298709637e-03
3.899999999999999994e-02,-2.587223602588744065e-01,-2.240667153350605900e-01,-1.076860356906202965e-01
4.000000000000000083e-02,-2.777960626144530543e-01,-1.255181977807570959e-01,-1.664330342691864306e-01
4.100000000000000172e-02,-1.643082682044745835e-01,2.497209324360193453e-02,-1.546354390465595197e-01
4.200000000000000261e-02,4.315491263521308019e-02,1.656471168619592371e-01,-7.928193542178232911e-02
4.299999999999999656e-02,2.112006487188119730e-01,2.892892021594319907e-01,5.112905315130344963e-02
4.399999999999999745e-02,2.803924218643478738e-01,1.878750901069719814e-01,1.586004693343444905e-01
4.499999999999999833e-02,2.208691851633055037e-01,9.619190506679503594e-02,1.667999221297150891e-01
4.599999999999999922e-02,7.341815613049128275e-02,-5.113937335676503604e-02,1.785667551885661564e-01
4.700000000000000011e-02,-1.328927486102770839e-01,-2.032840686823491894e-01,3.142374191680761403e-02
4.800000000000000100e-02,-2.782518601646803424e-01,-2.521841659196046859e-01,-9.139733958361587196e-02
4.900000000000000189e-02,-2.939789255315604644e-01,-1.416429751237103241e-01,-1.149350500996350055e-01
5.000000000000000278e-02,-1.918417505234018827e-01,-5.221142290224195168e-03,-1.456375529132192814e-01
5.099999999999999672e-02,9.071506139593538132e-03,1.328277350721551731e-01,-1.035664315408258845e-01
5.199999999999999761e-02,1.621077189131466534e-01,2.039939239607170274e-01,1.247552624252034649e-02
5.299999999999999850e-02,2.702075775843297833e-01,2.330644096080233818e-01,9.229220615025654495e-02
5.399999999999999939e-02,2.357287027115101685e-01,1.322580371288505363e-01,1.784365778605785380e-01
5.500000000000000028e-02,1.361373247843829515e-01,-2.935887749391401583e-02,1.506282587427573982e-01
5.600000000000000117e-02,-7.758534702209056444e-02,-1.309517379004244142e-01,7.093293482645351977e-02
5.700000000000000205e-02,-2.230676259338159606e-01,-2.144960962542986904e-01,-5.266073609975015224e-02
5.800000000000000294e-02,-3.041987346965920880e-01,-1.777896359153700867e-01,-1.024170888589298750e-01
5.899999999999999689e-02,-2.418413139837470305e-01,-5.993893597025812953e-02,-1.779974138069555512e-01
5.999999999999999778e-02,-7.247227729253725992e-02,1.084738725558352657e-01,-1.503235550252013941e-01
6.099999999999999867e-02,9.646663832231530677e-02,2.010179690158823973e-01,-5.787707321208863942e-02
6.199999999999999956e-02,2.647193685077988135e-01,2.318712513981319168e-01,3.728395928014804211e-02
6.300000000000000044e-02,2.745569809582778520e-01,1.153137381888381247e-01,1.610639307620921057e-01
6.400000000000000133e-02,1.993612350531018540e-01,-2.050577136029635948e-03,1.574585796742072330e-01
6.500000000000000222e-02,2.194619486027021837e-02,-1.829311499378438732e-01,8.856768077164731134e-02
6.600000000000000311e-02,-1.600452528199165503e-01,-2.528154323499108846e-01,5.448480926241671546e-02
6.700000000000000400e-02,-3.082687280374156735e-01,-1.672640578435408421e-01,-1.083941446301019546e-01
6.800000000000000488e-02,-2.478838971799380009e-01,-5.601902266466750324e-02,-1.454468915283543551e-01
6.900000000000000577e-02,-1.398453325990182128e-01,8.645511082298812378e-02,-1.537493877253649222e-01
7.000000000000000666e-02,3.734888649711874675e-02,1.657488037680718285e-01,-8.946313026381827460e-02
7.099999999999999367e-02,2.599533378621723956e-01,2.217254992735767927e-01,3.948034711971540323e-02
7.199999999999999456e-02,2.737259868881953828e-01,1.292870362731353417e-01,8.904285815228452083e-02
7.299999999999999545e-02,2.273587852483248406e-01,-7.289303708039393190e-03,1.764953972701500395e-01
7.399999999999999634e-02,5.612522832924922433e-02,-1.463238520690414990e-01,1.853275388104229648e-01
7.499999999999999722e-02,-1.115009922432904088e-01,-1.882266745548843712e-01,8.554489961285943744e-02
7.599999999999999811e-02,-2.314774800793161502e-01,-2.243018267945468269e-01,-5.058039410649254469e-02
7.699999999999999900e-02,-2.904896188988451700e-01,-1.203786904029413157e-01,-9.844104304697141872e-02
7.799999999999999989e-02,-1.751469660398002892e-01,2.087637768480847186e-02,-1.638502266678713570e-01
7.900000000000000078e-02,-8.793294231020525736e-03,1.781667232549740132e-01,-1.046137727623649705e-01
8.000000000000000167e-02,1.760463233818277129e-01,2.113534047540369665e-01,-1.777135954316499608e-02
8.100000000000000255e-02,2.765845839184892796e-01,2.071825793944479799e-01,1.032844822140817354e-01
8.200000000000000344e-02,2.443251792289305724e-01,5.366927599993158438e-02,1.307713569928571351e-01
8.300000000000000433e-02,1.042974957281197490e-01,-1.056832564044538347e-01,1.213426475613671035e-01
8.400000000000000522e-02,-5.064278382729202332e-02,-2.052422508048239169e-01,1.315717744619020746e-01
8.500000000000000611e-02,-2.519550592470235495e-01,-2.261917350928489834e-01,7.262341646123578534e-03
8.599999999999999312e-02,-2.888396911398682376e-01,-1.556365139673205056e-01,-1.562173039073133929e-01
8.699999999999999400e-02,-2.188508589590645592e-01,8.621529178192487847e-03,-1.617108886015813651e-01
8.799999999999999489e-02,-6.617427795482100361e-02,1.682919465721284258e-01,-1.710884189753956175e-01
8.899999999999999578e-02,1.365543386254713110e-01,2.394275455151898269e-01,-6.957921057877006210e-02
8.999999999999999667e-02,2.865002157354109014e-01,1.913692630783241089e-01,1.842505789585972831e-02
9.099999999999999756e-02,2.609691500204462389e-01,9.715570860958457067e-02,1.634729563573175115e-01
9.199999999999999845e-02,1.552243788183368112e-01,-6.806324920966462522e-02,1.547351605867084423e-01
9.299999999999999933e-02,-3.915121599004420250e-02,-1.780771889728565149e-01,1.171304220860497070e-01
9.400000000000000022e-02,-1.958771421953508785e-01,-2.221713513845638699e-01,6.936037462258230757e-02
9.500000000000000111e-02,-2.575817313774442785e-01,-1.330649928809666538e-01,-7.023142070117299740e-02
9.600000000000000200e-02,-2.712288998925872496e-01,-3.342459966112658332e-02,-1.571778675509148404e-01
9.700000000000000289e-02,-1.021103695662507332e-01,1.476501717396857816e-01,-1.762745601195574996e-01
9.800000000000000377e-02,9.209135487109269824e-02,2.435367684370959851e-01,-8.480358634939456908e-02
9.900000000000000466e-02,2.603857115221226426e-01,2.166344087176234889e-01,-2.392472223099319922e-02
1.000000000000000056e-01,2.659543253752390535e-01,8.506380582896343190e-02,1.085489694892591700e-01
1.010000000000000064e-01,2.017205650088613467e-01,-3.797200894092629501e-03,1.752881038197217911e-01
1.019999999999999934e-01,2.860737303211396965e-02,-1.765677847886891194e-01,1.752582892021320171e-01
1.029999999999999943e-01,-1.076841772917160323e-01,-2.385354353039990660e-01,7.428487316067500235e-02
1.039999999999999952e-01,-2.716182863942947501e-01,-1.829368662803174672e-01,-1.046429984758653203e-02
1.049999999999999961e-01,-2.621969813317839293e-01,-5.756166953599067826e-02,-1.369402794395075673e-01
1.059999999999999970e-01,-1.389321468641575574e-01,1.163405453451204080e-01,-1.597007752958719273e-01
1.069999999999999979e-01,4.531152011102294180e-02,2.049428114064838491e-01,-1.507576627126180069e-01
1.079999999999999988e-01,1.945138998591347812e-01,2.248852279279920097e-01,-2.627111721482443957e-02
1.089999999999999997e-01,2.714523573713635285e-01,9.341124145995059747e-02,7.529773494948470425e-02
1.100000000000000006e-01,2.311064949803266488e-01,-8.754737014177027890e-03,1.417312796018272703e-01
1.110000000000000014e-01,1.336204792779696338e-01,-1.599989710383011299e-01,1.685432922562891123e-01
1.120000000000000023e-01,-1.040428929887034920e-01,-2.401538376399223740e-01,1.343122257787507656e-01
1.130000000000000032e-01,-1.936951402796668054e-01,-2.187255811392807558e-01,1.900476062298345550e-02
1.140000000000000041e-01,-2.627569887172891971e-01,-1.065406562216295178e-01,-6.854702600024965842e-02
1.150000000000000050e-01,-2.127218134861984244e-01,8.424701319304836455e-02,-1.858154102847752454e-01
1.160000000000000059e-01,-1.845532721416542898e-02,1.857300046292628404e-01,-1.845377227049858071e-01
1.170000000000000068e-01,1.646404899771293784e-01,2.178839707480766386e-01,-9.268194486419679967e-02
1.179999999999999938e-01,2.762037019311777697e-01,1.598956792604604160e-01,2.308425638343172479e-02
1.189999999999999947e-01,2.649248886437848283e-01,2.359389014491602640e-02,1.289295168337604713e-01
1.199999999999999956e-01,1.566359686758897751e-01,-1.427061771387684030e-01,1.840475432851445825e-01
1.209999999999999964e-01,-3.174110889247740847e-02,-2.119210756176094224e-01,1.823480782150639634e-01
1.219999999999999973e-01,-2.209361267627135417e-01,-1.947040807110448357e-01,8.559780251075937985e-02
1.229999999999999982e-01,-2.533434846121008777e-01,-8.458045749340659114e-02,-9.991652353921708085e-02
1.239999999999999991e-01,-2.236106014618003679e-01,4.568780631086930694e-02,-1.461573342282467269e-01
1.250000000000000000e-01,-7.121939530279505770e-02,1.951063821651130292e-01,-1.952726864875640733e-01
1.260000000000000009e-01,1.137535559412451158e-01,1.908768763207683850e-01,-1.319563680192526178e-01
1.270000000000000018e-01,2.900431727576245344e-01,1.839077787290506472e-01,-2.397070836601161714e-02
1.280000000000000027e-01,3.174112944861096630e-01,6.718109310525773037e-02,8.379409153942822541e-02
1.290000000000000036e-01,1.845582435547521438e-01,-6.741162758832101864e-02,1.726137626463224439e-01
1.300000000000000044e-01,4.901054112392608242e-02,-2.098304894163099121e-01,1.520129980391544122e-01
1.310000000000000053e-01,-1.577288858909004221e-01,-2.658418131824425434e-01,8.471302856334568532e-02
1.320000000000000062e-01,-2.925759464710477875e-01,-1.754830605569843160e-01,5.757503481152963579e-03
1.330000000000000071e-01,-2.478012189009022037e-01,1.006433608117107692e-02,-1.004198815768343467e-01
1.340000000000000080e-01,-1.496042083831262137e-01,1.804696895243650123e-01,-1.870421950666242006e-01
1.350000000000000089e-01,5.431669288263081541e-02,2.408403099115849211e-01,-1.450816490741050624e-01
1.360000000000000098e-01,2.182528500311651798e-01,2.202997461971167303e-01,-8.877653663271736773e-02
1.370000000000000107e-01,2.751843422288255958e-01,7.329669998815760423e-02,4.405141566695398858e-02
1.380000000000000115e-01,2.487110881314952560e-01,-2.069325241973985277e-02,1.103210443234479976e-01
1.390000000000000124e-01,7.957641988307000147e-02,-1.794600805815008138e-01,1.747895682214407331e-01
1.400000000000000133e-01,-8.068172193682310311e-02,-2.416177737732847497e-01,1.291260320491518510e-01
1.409999999999999865e-01,-2.537247677987076178e-01,-1.720362290044276932e-01,6.119162742895468271e-02
1.419999999999999873e-01,-2.886402587294073507e-01,-2.901788680225473802e-02,-8.382608355165759029e-02
1.429999999999999882e-01,-1.507377381952753059e-01,1.543405837043279605e-01,-1.536603027207701089e-01
1.439999999999999891e-01,-4.542217034466979053e-03,2.417085166215050540e-01,-1.918801836036833908e-01
1.449999999999999900e-01,1.936580071065982789e-01,1.997028970729608777e-01,-1.188557771593602708e-01
1.459999999999999909e-01,2.726242790924489068e-01,1.195344212391070415e-01,-1.118595392000878118e-02
1.469999999999999918e-01,2.715728565619020540e-01,-1.604573597246173114e-02,1.146369877033733276e-01
1.479999999999999927e-01,1.383293349505128611e-01,-1.857188155292557319e-01,1.658790404573285415e-01
1.489999999999999936e-01,-7.773781959773219674e-02,-2.116200488712428884e-01,1.664676485957439500e-01
1.499999999999999944e-01,-1.733729230223607642e-01,-1.414834193609073310e-01,7.940665083693955462e-02
1.509999999999999953e-01,-2.904301865850831277e-01,-2.629524129105568694e-02,-1.688595635603908421e-02
1.519999999999999962e-01,-2.358430710245286721e-01,1.036465321756211561e-01,-1.294942943208791386e-01
1.529999999999999971e-01,-5.947284550527560942e-02,1.816221414336229856e-01,-1.751537065858711217e-01
1.539999999999999980e-01,1.234090670370033560e-01,2.053179624409537662e-01,-1.653517609869774307e-01
1.549999999999999989e-01,2.698040706607080508e-01,1.366794679154589853e-01,-2.611000281188319283e-02
1.559999999999999998e-01,2.608400065696195869e-01,1.362205915023132798e-02,3.574262092893099041e-02
1.570000000000000007e-01,2.066527268407420681e-01,-1.353709314939685604e-01,1.242955069893381531e-01
1.580000000000000016e-01,-6.439697756353375199e-03,-2.133115321217047000e-01,1.753866642635874828e-01
1.590000000000000024e-01,-1.564010366765847260e-01,-1.735697641922807899e-01,1.243654373146816927e-01
1.600000000000000033e-01,-3.060739060601687656e-01,-8.982437708945627264e-02,-4.710777811091583847e-03
1.610000000000000042e-01,-2.623423113238461668e-01,7.171064932170383155e-02,-9.773454913025644841e-02
1.620000000000000051e-01,-1.318357997332143816e-01,1.948817041723486243e-01,-1.248234314013349500e-01
1.630000000000000060e-01,2.081634200461019227e-02,2.193139286366816709e-01,-1.397494418159473395e-01
1.640000000000000069e-01,2.144045665697964231e-01,1.563522716251813105e-01,-9.858252792202516768e-02
1.650000000000000078e-01,2.563522756225332100e-01,3.391604725135178439e-02,-5.667259549898636187e-03
1.660000000000000087e-01,2.170221910011303490e-01,-1.223572058840597387e-01,1.419474746153482347e-01
1.670000000000000095e-01,6.327988109921726945e-02,-2.206842340120137025e-01,1.871662525475912831e-01
1.680000000000000104e-01,-1.386815861183478271e-01,-2.123734289130041475e-01,1.458613226124668982e-01
1.690000000000000113e-01,-2.661727724962864583e-01,-1.292415227438678815e-01,6.484321527236769356e-02
1.700000000000000122e-01,-2.692894197879956986e-01,1.942026835577727664e-02,-4.166685698119127618e-02
1.710000000000000131e-01,-1.882822314231652194e-01,1.723122691487241898e-01,-1.364857422205987547e-01
1.719999999999999862e-01,1.487404869371201747e-02,2.280336455291785136e-01,-1.691845238948025687e-01
1.729999999999999871e-01,1.923451571173013241e-01,1.852343619367921301e-01,-1.025121458185500045e-01
1.739999999999999880e-01,3.113295634600231065e-01,9.180077082970783398e-02,-1.631732661376631907e-02
1.749999999999999889e-01,2.666419179414217244e-01,-9.441110901332859517e-02,1.055938126335193711e-01
1.759999999999999898e-01,1.287970185592936245e-01,-2.189518184496763997e-01,1.625235102502385065e-01
1.769999999999999907e-01,-7.704454152934797628e-02,-1.774533373704363370e-01,1.773367803580819801e-01
1.779999999999999916e-01,-2.133261105467672836e-01,-1.376061922845246976e-01,9.777615367344208441e-02
1.789999999999999925e-01,-2.752977078959626955e-01,1.474344735615849486e-02,-3.462729370531376309e-03
1.799999999999999933e-01,-1.982991669055795825e-01,1.533491873899039404e-01,-1.023037216271746597e-01
1.809999999999999942e-01,-3.407587333028255089e-02,2.060228937594606458e-01,-1.832741016189745331e-01
1.819999999999999951e-01,1.248084694475356110e-01,1.954181441268040276e-01,-1.804211497116474383e-01
1.829999999999999960e-01,2.606170293751826073e-01,7.614839286302571564e-02,-5.410797195384094149e-02
1.839999999999999969e-01,2.847688398093128903e-01,-4.582714722922705264e-02,3.542077905843066254e-02
1.849999999999999978e-01,1.754842424809621437e-01,-1.768329755749571963e-01,1.226487348124740001e-01
1.859999999999999987e-01,-1.502789079608049007e-02,-2.236932900914430089e-01,1.629866923968163739e-01
1.869999999999999996e-01,-1.828444406089145824e-01,-1.619528951001238115e-01,1.306788620098364995e-01
1.880000000000000004e-01,-2.735687427058971499e-01,-6.727040925356274348e-02,4.076334642882112336e-02
1.890000000000000013e-01,-2.552123819111991043e-01,1.121837078249998537e-01,-6.752537640202287139e-02
1.900000000000000022e-01,-9.793095406124048552e-02,2.070475920577469764e-01,-1.490935841937936768e-01
1.910000000000000031e-01,8.843632784682241288e-02,2.214649576571964540e-01,-1.735703099902732582e-01
1.920000000000000040e-01,2.710516078810708551e-01,1.474608283945126608e-01,-7.228955223073665892e-02
1.930000000000000049e-01,2.779077138254765211e-01,-4.128498095817934727e-02,-3.415483638724861604e-02
1.940000000000000058e-01,2.093743137678334421e-01,-1.565615543688761990e-01,1.065148451641637628e-01
1.950000000000000067e-01,2.350688399585491167e-02,-2.405164028463929182e-01,1.402243264637254849e-01
1.960000000000000075e-01,-1.321425723456894907e-01,-1.773752240479216924e-01,1.121411947754353683e-01
1.970000000000000084e-01,-2.765577146221754878e-01,-5.880685607654324160e-02,5.958839693552895472e-02
1.980000000000000093e-01,-2.861091266167837821e-01,9.107735489137010199e-02,-1.825934505438328581e-02
1.990000000000000102e-01,-1.632119398125569110e-01,2.035635240654501965e-01,-1.332832585401385050e-01
2.000000000000000111e-01,4.144406817050463182e-02,2.216195781759262018e-01,-2.144976317977207447e-01
2.010000000000000120e-01,1.756394743528683355e-01,1.414522294577049977e-01,-1.397341032624460910e-01
2.020000000000000129e-01,3.155949927132707389e-01,6.469254699242505714e-03,-4.401716777454778989e-02
2.030000000000000138e-01,2.488319580372929940e-01,-1.066178345507190067e-01,6.916466413223566756e-02
2.039999999999999869e-01,8.349577840609652413e-02,-2.263624268000463124e-01,1.539682716698320686e-01
2.049999999999999878e-01,-6.803071027867844955e-02,-2.540239280026170277e-01,1.606286554626253915e-01
2.059999999999999887e-01,-2.390214813680475170e-01,-5.786224914497941491e-02,8.027138953426636581e-02
2.069999999999999896e-01,-3.237059703328806770e-01,1.036488325708620206e-01,-1.113198563610603292e-02
2.079999999999999905e-01,-2.142562299791917479e-01,2.097982662405687704e-01,-1.365563408113263655e-01
2.089999999999999913e-01,-5.413834488054506539e-02,2.175763904482904965e-01,-1.691417391074768184e-01
2.099999999999999922e-01,1.768692315443547158e-01,1.771937172489400358e-01,-1.934701085440359014e-01
2.109999999999999931e-01,2.702814192532813631e-01,3.640027965632908202e-02,-8.670823558128940012e-02
2.119999999999999940e-01,2.650341189660799790e-01,-8.332070492912417581e-02,2.733458512684072694e-02
2.129999999999999949e-01,1.669030704617488758e-01,-2.016069630774222077e-01,1.002302636439602462e-01
2.139999999999999958e-01,-1.441926051608726812e-02,-2.170174076343644731e-01,1.963574609178842245e-01
2.149999999999999967e-01,-1.750214072403288579e-01,-9.388290577251001690e-02,1.440584276983730705e-01
2.159999999999999976e-01,-2.715185619907626302e-01,4.182868961258998791e-02,8.303986644672264883e-02
2.169999999999999984e-01,-2.256305425890877681e-01,1.430168228951560205e-01,-3.432636135642913588e-02
2.179999999999999993e-01,-8.392861483276596590e-02,2.413866728917117288e-01,-1.193158151198553535e-01
2.190000000000000002e-01,6.832048936042808829e-02,1.802755423803658885e-01,-1.667860278884417957e-01
2.200000000000000011e-01,2.417230408729890978e-01,1.113270488216198950e-01,-1.165661775451105470e-01
2.210000000000000020e-01,2.895983810040925754e-01,-9.473194671432812186e-02,-2.689168772429499643e-02
2.220000000000000029e-01,2.024673260479247783e-01,-1.884396570969245344e-01,9.825281180486347687e-02
2.230000000000000038e-01,7.689047557070340447e-03,-2.164361210271974756e-01,1.770309675235977875e-01
2.240000000000000047e-01,-1.613106985178444919e-01,-1.397549738828279542e-01,1.727490444443055551e-01
2.250000000000000056e-01,-2.910903804229912906e-01,-7.799731711466785511e-03,5.780906662446824024e-02
2.260000000000000064e-01,-2.726586948222846640e-01,1.175657051708996204e-01,-2.399163317287620820e-02
2.270000000000000073e-01,-1.528106427219928232e-01,2.257773119926056171e-01,-1.133600952974181675e-01
2.280000000000000082e-01,8.802049976866083841e-03,2.012774529058405648e-01,-1.698801211122852317e-01
2.290000000000000091e-01,2.344900007479973347e-01,1.128285399636284880e-01,-1.437613893246257324e-01
2.300000000000000100e-01,2.776954929620248924e-01,-3.545461990406587743e-02,-4.559299402064372758e-02
2.310000000000000109e-01,2.325979878208054574e-01,-1.223134771004882881e-01,4.417561994483720084e-02
2.320000000000000118e-01,8.073330393084042489e-02,-2.098331462415665150e-01,1.288652054729616803e-01
2.330000000000000127e-01,-8.879896166198202045e-02,-1.977704261188495405e-01,1.922454318634001513e-01
2.340000000000000135e-01,-2.869786538452230862e-01,-3.215279571097658107e-02,1.277353375210680819e-01
2.349999999999999867e-01,-2.746057307457376306e-01,1.000680631556131600e-01,3.791071856811834700e-02
2.359999999999999876e-01,-2.204959984785203053e-01,1.898187587462685233e-01,-4.569618077214527424e-02
2.369999999999999885e-01,-1.172806779470602495e-02,2.243177889633305444e-01,-1.443036827429049762e-01
2.379999999999999893e-01,2.075130641574016166e-01,1.335371485052057883e-01,-1.823074327117199245e-01
2.389999999999999902e-01,2.585164639056165004e-01,-1.632717321835262456e-02,-1.062422518464303661e-01
2.399999999999999911e-01,2.594857752982210886e-01,-1.468869235482053448e-01,2.805059564617375795e-02
2.409999999999999920e-01,1.266578053901994128e-01,-1.883850345565617201e-01,1.402410126890264452e-01
2.419999999999999929e-01,-6.745802403705701555e-02,-2.003687733782723579e-01,1.628499495739779979e-01
2.429999999999999938e-01,-2.004972492643036508e-01,-7.888459281310356008e-02,1.498540742236815215e-01
2.439999999999999947e-01,-3.240841759179954318e-01,1.051294074202473033e-01,9.843266563792295309e-02
2.449999999999999956e-01,-2.438390602140128316e-01,2.237143972393208502e-01,-6.323738575970236364e-02
2.459999999999999964e-01,-5.659830782568715801e-02,2.402623123744761502e-01,-1.721803573103105889e-01
2.469999999999999973e-01,1.414157107838606986e-01,1.756188140649490304e-01,-1.554869314402548552e-01
2.479999999999999982e-01,2.551530530764701266e-01,-1.376033725324150685e-02,-1.314582063617547869e-01
2.489999999999999991e-01,2.753454114864171132e-01,-1.517142938731988189e-01,-5.159865815595587879e-02
2.500000000000000000e-01,1.551933835196849520e-01,-2.160983073033624635e-01,7.511658145242283702e-02
2.510000000000000009e-01,1.140244032178445305e-02,-1.987695909084565005e-01,1.269745437452795833e-01
2.520000000000000018e-01,-1.759274973577981682e-01,-1.165599887851815758e-01,1.926451611781006823e-01
2.530000000000000027e-01,-2.663307595922909665e-01,5.504554039400569310e-02,1.239132871170605249e-01
2.540000000000000036e-01,-2.536777792080624483e-01,1.883667465549522524e-01,-5.490291110327861004e-03
2.550000000000000044e-01,-9.562625571846028460e-02,2.286495193835266226e-01,-1.033707279922824185e-01
2.560000000000000053e-01,4.870850749710452926e-02,1.803566013589061878e-01,-1.632014260806314843e-01
2.570000000000000062e-01,2.096218114026819068e-01,5.820369201993307734e-02,-1.426573906883926990e-01
2.580000000000000071e-01,3.401077102148659104e-01,-1.069380917566865319e-01,-6.811136203234398334e-02
2.590000000000000080e-01,2.077210726463548374e-01,-2.077948956909037859e-01,-2.900747778936708064e-03
2.600000000000000089e-01,3.928226400368756144e-02,-1.937328327424451824e-01,9.812380849447452369e-02
2.610000000000000098e-01,-9.507739724807727499e-02,-1.134581083770981186e-01,1.640668465170990187e-01
2.620000000000000107e-01,-2.611313141254328896e-01,-1.065341655164871691e-02,1.462604479509539146e-01
2.630000000000000115e-01,-3.017933855367179175e-01,1.788478325072231090e-01,6.509968088512753381e-02
2.640000000000000124e-01,-1.948859547436389561e-01,2.207882412348966816e-01,-6.333969745075179736e-02
2.650000000000000133e-01,3.680947015288716859e-03,2.063804306632824048e-01,-1.469678879603048272e-01
2.660000000000000142e-01,1.572043487526696148e-01,8.059501970559211637e-02,-1.344297361016732195e-01
2.670000000000000151e-01,2.396661143865343180e-01,-7.951380389443803154e-02,-1.125668575478946665e-01
2.680000000000000160e-01,2.367774444608267692e-01,-1.749269190726195911e-01,7.819964601256683759e-03
2.690000000000000169e-01,1.193416603323082803e-01,-2.239063199571816876e-01,9.772483164132467204e-02
2.700000000000000178e-01,-8.536574427713415625e-02,-1.655991868881297457e-01,1.582542927574595026e-01
2.710000000000000187e-01,-2.292356570503102098e-01,-3.632326434584002423e-03,1.823506389553065099e-01
2.720000000000000195e-01,-2.811413910707095121e-01,1.135974068091151618e-01,7.783040593254460238e-02
2.730000000000000204e-01,-2.329599739918602752e-01,2.072198961100621128e-01,-4.239204344655515821e-02
2.740000000000000213e-01,-5.059602409419803465e-02,1.924258830565272194e-01,-1.299376201519412688e-01
2.750000000000000222e-01,1.296559448786059610e-01,1.267431705109964279e-01,-1.729236086709902698e-01
2.760000000000000231e-01,2.675808852041077768e-01,-6.063715540237230722e-02,-1.543851345314769252e-01
2.770000000000000240e-01,2.743825263135117876e-01,-1.797819002765611573e-01,-4.133720451506821270e-02
2.780000000000000249e-01,1.771849504356350635e-01,-2.201386971881989785e-01,4.097973754998725238e-02
2.790000000000000258e-01,4.748900066740489347e-03,-1.568807903272935456e-01,1.259731419077664560e-01
2.800000000000000266e-01,-2.116567346691495544e-01,-8.350004731014143422e-02,1.759999669227292340e-01
2.810000000000000275e-01,-2.876270557384074666e-01,9.633906658586727234e-02,1.229016415911052956e-01
2.819999999999999729e-01,-2.485541536254773642e-01,1.875954228794639855e-01,5.473054046117233062e-03
2.829999999999999738e-01,-1.354763855371834136e-01,2.214844456369644277e-01,-9.923308964630021822e-02
2.839999999999999747e-01,3.312044841880635443e-02,1.257813909634371008e-01,-1.469206870137526599e-01
2.849999999999999756e-01,2.399596294588399459e-01,-1.655199540504978008e-03,-1.484334783485175557e-01
2.859999999999999765e-01,2.754621443070725539e-01,-1.455830778540062875e-01,-7.141726546553228694e-02
2.869999999999999774e-01,2.067608420738873687e-01,-2.565200039562150480e-01,-1.691406538229952086e-02
2.879999999999999782e-01,5.164921848495027806e-02,-1.847163994340353665e-01,1.506035197407845638e-01
2.889999999999999791e-01,-1.116557881730068785e-01,-4.770195282740574694e-02,2.133387298121006415e-01
2.899999999999999800e-01,-2.790562514350840018e-01,1.149019561057568889e-01,1.709263007220061525e-01
2.909999999999999809e-01,-2.711037295676624881e-01,1.932008384673525037e-01,4.793178427725879043e-02
2.919999999999999818e-01,-1.982977644426829056e-01,2.070622732943169508e-01,-2.599779204377330663e-02
2.929999999999999827e-01,2.890890354128432607e-02,1.592165353740550016e-01,-1.390814830169809502e-01
2.939999999999999836e-01,2.257599640151021769e-01,-1.146800622013724805e-02,-1.432089068443655466e-01
2.949999999999999845e-01,3.030985320601891075e-01,-1.358587452528469408e-01,-1.421738991603234137e-01
2.959999999999999853e-01,2.331099545999040235e-01,-2.168248455040916178e-01,-3.503887218772866463e-02
2.969999999999999862e-01,9.391738729321112700e-02,-2.218073296126761573e-01,7.541085893600241175e-02
2.979999999999999871e-01,-8.810294643806335091e-02,-8.990648715748078557e-02,1.407647414968865585e-01
2.989999999999999880e-01,-2.218190443640357667e-01,4.142183700807888086e-02,1.275450022380464066e-01
2.999999999999999889e-01,-2.973536579956876924e-01,1.901902851835002572e-01,9.487811323376083017e-02
3.009999999999999898e-01,-1.991035029359483621e-01,2.639113782995086699e-01,-2.941016938523361574e-02
3.019999999999999907e-01,-2.862980735557161052e-02,2.113795595754133227e-01,-1.058614124233709514e-01
3.029999999999999916e-01,1.588017440640171751e-01,4.274209630848758990e-02,-1.680981381998041813e-01
3.039999999999999925e-01,2.637614983119265233e-01,-9.141119312023769650e-02,-1.481031817259209626e-01
3.049999999999999933e-01,2.713982175654148787e-01,-1.979510683726002640e-01,-8.486771303593673710e-02
3.059999999999999942e-01,1.348818779306266424e-01,-2.048837926508415563e-01,1.966360050617357164e-02
3.069999999999999951e-01,-4.053636583237665847e-02,-1.337714109510881322e-01,1.449586497597308010e-01
3.079999999999999960e-01,-2.032291257414046148e-01,3.243773492414609577e-02,1.834897343919783264e-01
3.089999999999999969e-01,-3.086055668467560520e-01,1.777587322464764252e-01,1.398734863077361612e-01
3.099999999999999978e-01,-2.558707855551820010e-01,2.496602844315128078e-01,4.901798102598692308e-02
3.109999999999999987e-01,-8.935440339056498205e-02,2.188496726999417941e-01,-7.059589862631232560e-02
3.119999999999999996e-01,9.423979842220420178e-02,7.283535967790411014e-02,-1.442041398210640313e-01
3.130000000000000004e-01,2.281513776326306031e-01,-7.197379178740255512e-02,-1.768989575081205967e-01
3.140000000000000013e-01,2.958989542152267171e-01,-1.597081134084056553e-01,-1.303878828025877568e-01
3.150000000000000022e-01,1.725074004126140037e-01,-2.225051479971609236e-01,-7.644629073790055671e-03
3.160000000000000031e-01,1.815002007289362451e-02,-1.559368946444882886e-01,9.287257100138557320e-02
3.170000000000000040e-01,-1.479052961998620630e-01,-1.744010600685856963e-02,1.525415675836306051e-01
3.180000000000000049e-01,-2.840315740094838670e-01,1.209281650257739982e-01,1.542355446187828327e-01
3.190000000000000058e-01,-2.666211465703527961e-01,2.463634794917266280e-01,1.111980257433676095e-01
3.200000000000000067e-01,-1.541414225411870398e-01,2.324652577684812593e-01,-1.469820289315979314e-02
3.210000000000000075e-01,6.954537105228679461e-02,9.330855674415673706e-02,-1.412788285105918140e-01
3.220000000000000084e-01,1.696237005167648970e-01,-2.586005001399072772e-02,-1.904262813186948233e-01
3.230000000000000093e-01,2.830146470579224527e-01,-1.612422364946802245e-01,-1.512773043665436024e-01
3.240000000000000102e-01,2.435308231676273916e-01,-2.308811806090609597e-01,-5.785504024089583447e-02
3.250000000000000111e-01,4.789717671861432047e-02,-1.978144996378857767e-01,3.490278219710803154e-02
3.260000000000000120e-01,-7.553084663939416132e-02,-6.810599230531277914e-02,1.837906598327606056e-01
3.270000000000000129e-01,-2.215732090545204924e-01,1.228109537347602254e-01,1.718359792677691400e-01
3.280000000000000138e-01,-2.967643690539027435e-01,1.910955990604054910e-01,1.360201359203987437e-01
3.290000000000000147e-01,-2.207054225772386302e-01,2.237737133243187237e-01,-9.921956620190356541e-03
3.300000000000000155e-01,1.750131150670696314e-02,1.257160030740664403e-01,-9.176209218236248966e-02
3.310000000000000164e-01,1.885836397368162443e-01,-2.013480847668232612e-02,-1.264519527760276651e-01
3.320000000000000173e-01,3.177051671775998343e-01,-1.446032374898645889e-01,-1.842909840837062552e-01
3.330000000000000182e-01,2.501312208541729976e-01,-2.454568414542192267e-01,-8.394873311728777432e-02
3.340000000000000191e-01,1.280286799991723345e-01,-2.293673318149661855e-01,5.299916636155081739e-02
3.350000000000000200e-01,-3.355028700600837938e-02,-6.823870739646088757e-02,1.011229070664493024e-01
3.360000000000000209e-01,-1.752804328613477014e-01,6.825807157891429500e-02,1.955221792377168921e-01
3.370000000000000218e-01,-2.903195295401169718e-01,1.867188212934114411e-01,1.372374890208102605e-01
3.380000000000000226e-01,-2.173813002443863163e-01,2.062806003360264373e-01,8.590585085028093482e-02
3.390000000000000235e-01,-7.143240383907105417e-02,1.716009660295438610e-01,-6.819877634320750670e-02
3.400000000000000244e-01,1.297916378940591475e-01,2.691073679284941567e-02,-1.018002366626137994e-01
3.410000000000000253e-01,2.276793792749466361e-01,-1.311445401976232550e-01,-1.720454850952746750e-01
3.420000000000000262e-01,2.847444728229447941e-01,-1.907156505868428387e-01,-1.458606754007614192e-01
3.430000000000000271e-01,1.827277686212292751e-01,-2.336888954548317909e-01,-4.428162342644776511e-02
3.439999999999999725e-01,2.884175271992343512e-02,-9.962639189130086115e-02,6.877418848160933573e-02
3.449999999999999734e-01,-1.710925764161880802e-01,2.366279975757722837e-02,1.376990958370350460e-01
3.459999999999999742e-01,-2.688696415177004306e-01,1.456677905135174145e-01,1.742350694653930221e-01
3.469999999999999751e-01,-2.795933681047973463e-01,2.161419177578172424e-01,1.289722451184094898e-01
3.479999999999999760e-01,-1.036839271823897513e-01,1.849054117396788377e-01,-3.130328757123324035e-02
3.489999999999999769e-01,6.592591339830546071e-02,7.149481480045642712e-02,-1.211239980682441986e-01
3.499999999999999778e-01,2.562956371839991698e-01,-1.124540106909474313e-01,-1.601070429333144862e-01
3.509999999999999787e-01,2.825129199785523237e-01,-1.980243042163253031e-01,-1.760858973423851115e-01
3.519999999999999796e-01,2.154916545808680806e-01,-2.423756623936009769e-01,-3.219318605022877117e-02
3.529999999999999805e-01,4.769068315632798982e-02,-1.452713858549483095e-01,4.599359619200552030e-02
3.539999999999999813e-01,-1.081091583279331636e-01,-5.169195829526435949e-03,9.382233913188627039e-02
3.549999999999999822e-01,-2.861614421564015465e-01,1.625988742261768039e-01,1.726064102351431984e-01
3.559999999999999831e-01,-2.866006620388612536e-01,2.315145084464446390e-01,1.740071790300100896e-01
3.569999999999999840e-01,-1.592753218118818925e-01,1.856326239831847247e-01,3.564074043619625681e-02
3.579999999999999849e-01,-3.577491406281057412e-02,8.116981427792180348e-02,-7.911222795489054882e-02
3.589999999999999858e-01,1.821555472079370852e-01,-6.713967023702337167e-02,-1.399011517969092067e-01
3.599999999999999867e-01,2.810493511446516268e-01,-1.757193107490123696e-01,-1.887989559179627241e-01
3.609999999999999876e-01,2.455404081267348049e-01,-2.568547447915991988e-01,-9.344632119562396033e-02
3.619999999999999885e-01,1.052197862725893773e-01,-1.672465702820634947e-01,-1.963909166022564934e-02
3.629999999999999893e-01,-8.303888672242482061e-02,-6.487897815044193009e-03,1.116125480654271973e-01
3.639999999999999902e-01,-2.208614880313959639e-01,1.347565406018758349e-01,1.691213587303868060e-01
3.649999999999999911e-01,-2.554991389448723615e-01,2.137900839697942368e-01,1.716578574107126276e-01
3.659999999999999920e-01,-2.222393530361901348e-01,1.918700701947519127e-01,7.256956663313880729e-02
3.669999999999999929e-01,-6.594982401907849290e-02,1.199178726180478577e-01,-3.585760828642137882e-02
3.679999999999999938e-01,1.682290700696337238e-01,-5.078413009469138345e-02,-1.046507047547113184e-01
3.689999999999999947e-01,2.760054233716158767e-01,-1.649863001111162852e-01,-1.719125361894891790e-01
3.699999999999999956e-01,2.529005445740463709e-01,-2.417036064833401887e-01,-1.305482705607729499e-01
3.709999999999999964e-01,1.625556909649545079e-01,-2.117152515591461948e-01,-6.050364975348955510e-02
3.719999999999999973e-01,-1.999655451386521746e-02,-8.655352385297272744e-02,2.999956159240243017e-02
3.729999999999999982e-01,-2.094968793341554503e-01,1.037436918818562120e-01,1.293334290032637501e-01
3.739999999999999991e-01,-2.787666836626368494e-01,1.875308846463547285e-01,1.648072231592017101e-01
3.750000000000000000e-01,-2.638944098540882410e-01,2.146931963845684910e-01,1.061536760917111827e-01
3.760000000000000009e-01,-1.121450267639704512e-01,1.123178323299065945e-01,5.888065723143999508e-02
3.770000000000000018e-01,9.205192334755317451e-02,4.059617736709608855e-03,-9.007842979607161293e-02
3.780000000000000027e-01,2.323254165698391271e-01,-1.615119393863541364e-01,-1.322830243915424364e-01
3.790000000000000036e-01,2.882235802830096505e-01,-1.978284531571223581e-01,-1.413664901029448584e-01
3.800000000000000044e-01,1.820125917236094515e-01,-2.008469433276211247e-01,-7.118144079394533863e-02
3.810000000000000053e-01,7.656680292205059191e-02,-6.239536844214567390e-02,4.379502982143283069e-02
3.820000000000000062e-01,-1.331830907796025254e-01,6.386426525091153106e-02,1.260051959302266877e-01
3.830000000000000071e-01,-2.548506982193520232e-01,2.289236200726696979e-01,1.790613713363173598e-01
3.840000000000000080e-01,-2.967604229688521889e-01,2.239964432181304199e-01,1.473214288830012875e-01
3.850000000000000089e-01,-1.565411385528283350e-01,1.815634830216433238e-01,6.605472473709327053e-02
3.860000000000000098e-01,1.392240952922657420e-02,3.904389512346533725e-02,-6.587476749404852505e-02
3.870000000000000107e-01,2.129272449354377705e-01,-1.099133470523395162e-01,-1.696595027619824947e-01
3.880000000000000115e-01,2.720311521629292240e-01,-2.033600595080559681e-01,-1.178522627834066860e-01
3.890000000000000124e-01,2.631525308591168288e-01,-2.260117155648919407e-01,-8.919494509136075000e-02
3.900000000000000133e-01,8.271013612917216262e-02,-1.158667481177638597e-01,-1.644707599129480863e-02
3.910000000000000142e-01,-9.197721127136747332e-02,1.405243827129656203e-02,1.008590780236550133e-01
3.920000000000000151e-01,-2.200667705582433353e-01,1.801831168224078128e-01,1.519397107524070034e-01
3.930000000000000160e-01,-2.391605138633448591e-01,2.050676343706739624e-01,1.512233626427562927e-01
3.940000000000000169e-01,-1.923225119576509323e-01,1.800280250114465741e-01,8.162218410009079717e-02
3.950000000000000178e-01,-3.503815617974999352e-02,3.246894488872936746e-02,6.510584072292293495e-03
3.960000000000000187e-01,1.610484149325461800e-01,-1.059745286234631129e-01,-1.212617577135972902e-01
3.970000000000000195e-01,3.046704710459580689e-01,-1.904211322703869003e-01,-1.936772828638444466e-01
3.980000000000000204e-01,2.973384377745700302e-01,-2.269956232787178896e-01,-1.545226137854087411e-01
3.990000000000000213e-01,1.502808874938887929e-01,-1.278272314650826247e-01,-5.572442395204953852e-02
4.000000000000000222e-01,-3.078026876622400737e-02,6.067632789485764844e-03,4.677596418912550319e-02
4.010000000000000231e-01,-2.152670502173910927e-01,1.294555048613734716e-01,1.563488345325779183e-01
4.020000000000000240e-01,-2.892156637353519577e-01,2.099942386422702367e-01,1.766893371665582413e-01
4.030000000000000249e-01,-2.423522615084613974e-01,2.260380597751621146e-01,1.145346635772743482e-01
4.040000000000000258e-01,-5.130008252687036363e-02,7.755977518590710662e-02,2.136829000114993764e-03
4.050000000000000266e-01,7.238361999065122399e-02,-5.280652809885351406e-02,-3.919181980188778808e-02
4.060000000000000275e-01,2.504412519250669433e-01,-2.059810179135743713e-01,-1.347575623163106695e-01
4.069999999999999729e-01,2.849195053139527145e-01,-2.234203109610628513e-01,-1.648608670083277217e-01
4.079999999999999738e-01,1.868018596231511286e-01,-1.770761850976162455e-01,-1.125265399589110288e-01
4.089999999999999747e-01,2.875160308150715230e-02,7.386116159941660472e-03,-1.801173455432597201e-02
4.099999999999999756e-01,-1.868344563071712705e-01,1.040375648976840928e-01,1.125141954602559974e-01
4.109999999999999765e-01,-2.668365884615921391e-01,2.031813491990167031e-01,1.489688719638662118e-01
4.119999999999999774e-01,-2.298154817123801708e-01,2.272615662288947902e-01,1.629040892968190712e-01
4.129999999999999782e-01,-1.248678166204174600e-01,1.271334671666260741e-01,4.526076397857108774e-02
4.139999999999999791e-01,8.992903855098002830e-02,-3.109865711435769522e-02,-2.775434527763181655e-02
4.149999999999999800e-01,2.140133239806833731e-01,-1.489370692274630537e-01,-1.433304342705783441e-01
4.159999999999999809e-01,2.616062048614082314e-01,-2.251620522839703487e-01,-1.887503816511220123e-01
4.169999999999999818e-01,2.292248766504264568e-01,-1.768332269013064562e-01,-1.220537569053918164e-01
4.179999999999999827e-01,8.646926771774079978e-02,-7.396998480392012743e-02,-5.022888815011797292e-02
4.189999999999999836e-01,-1.196382498844003467e-01,1.077372648932866800e-01,7.549920345618917061e-02
4.199999999999999845e-01,-2.747617360485397064e-01,2.098670631662213903e-01,1.157000640698161026e-01
4.209999999999999853e-01,-2.646712547344513555e-01,2.588393647032767309e-01,1.432951465100169575e-01
4.219999999999999862e-01,-1.661211081231982745e-01,1.339495985647114196e-01,1.018239043988296150e-01
4.229999999999999871e-01,-2.629815279325395036e-04,1.662190690655824393e-02,2.815150012861286286e-02
4.239999999999999880e-01,1.728009511761398054e-01,-1.179016762353689018e-01,-7.867550155275118695e-02
4.249999999999999889e-01,2.586342906793472896e-01,-2.135488883213938482e-01,-1.652353702236482036e-01
4.259999999999999898e-01,2.688622336081555875e-01,-2.097630198927541156e-01,-1.929178505144280853e-01
4.269999999999999907e-01,1.071376833245610005e-01,-8.368687428887235102e-02,-9.130983158519349885e-02
4.279999999999999916e-01,-7.406135352693342389e-02,5.525257906129295987e-02,-1.447043747302820087e-02
4.289999999999999925e-01,-2.222356255264066882e-01,1.934569247290440497e-01,1.126270686777241653e-01
4.299999999999999933e-01,-2.779333575532936251e-01,2.335232439646145741e-01,1.634407949210356648e-01
4.309999999999999942e-01,-2.260296241219018898e-01,1.968145274917834642e-01,1.425624191909259653e-01
4.319999999999999951e-01,-4.365231785857257019e-02,4.753030309205932141e-02,8.457109619851944926e-02
4.329999999999999960e-01,1.284573506241094287e-01,-1.610619793931515331e-01,-4.293372329208453020e-02
4.339999999999999969e-01,2.601527647077229721e-01,-2.231974311203217820e-01,-1.619728340273178524e-01
4.349999999999999978e-01,2.799137013493251391e-01,-2.415986286446330233e-01,-1.547289327665631320e-01
4.359999999999999987e-01,1.881902914984956154e-01,-1.089715096176719494e-01,-1.427636833002369765e-01
4.369999999999999996e-01,3.134589884379585748e-03,3.059659864074815161e-02,-3.077207406796796454e-02
4.380000000000000004e-01,-1.559049472691496074e-01,1.439126486172766783e-01,8.574715823910247781e-02
4.390000000000000013e-01,-2.461989622906483599e-01,2.343348266009931680e-01,1.770832382529339277e-01
4.400000000000000022e-01,-2.485058422436859926e-01,1.835022366067965427e-01,1.657181840610327250e-01
4.410000000000000031e-01,-1.350879228313337233e-01,6.687068121419433020e-02,1.344129575996763082e-01
4.420000000000000040e-01,4.994852219197284254e-02,-7.636801537639308080e-02,-1.190516014792654571e-02
4.430000000000000049e-01,2.016528118681565340e-01,-2.222321785802766625e-01,-1.206410939578221458e-01
4.440000000000000058e-01,2.783046768013850980e-01,-2.165777501343439937e-01,-1.569080694836675616e-01
4.450000000000000067e-01,1.970486964652402029e-01,-1.511336717925113038e-01,-1.587541227604541139e-01
4.460000000000000075e-01,5.417235100298253836e-02,1.437630782523501363e-02,-8.831768995615096873e-02
4.470000000000000084e-01,-1.290960664293258064e-01,1.528280372967825707e-01,5.590438435176085796e-02
4.480000000000000093e-01,-2.968838407182946004e-01,2.467610058816448182e-01,1.005538988398872180e-01
4.490000000000000102e-01,-2.941480064348284129e-01,2.060573721168592609e-01,1.863676272236448606e-01
4.500000000000000111e-01,-1.777269200455684761e-01,6.281312277476194805e-02,1.376724398447039255e-01
4.510000000000000120e-01,-5.552768980830486735e-03,-3.782945688438659609e-02,4.201299340324452132e-03
4.520000000000000129e-01,1.667942898232491200e-01,-1.941750833852168567e-01,-1.030473383460701192e-01
4.530000000000000138e-01,2.790336649546215075e-01,-2.321724725569097592e-01,-1.579995351192401420e-01
4.540000000000000147e-01,2.742291215765481627e-01,-1.909564459864207808e-01,-1.535109949529224194e-01
4.550000000000000155e-01,1.189462925285840328e-01,-4.968462608613831433e-02,-1.179921849997289801e-01
4.560000000000000164e-01,-9.405306512146895115e-02,7.469679023121052197e-02,-7.221036858294163294e-03
4.570000000000000173e-01,-2.347729278165403832e-01,2.268299833956379796e-01,1.115074432384958042e-01
4.580000000000000182e-01,-2.924153394390943128e-01,2.340718213356730859e-01,1.661644343971300786e-01
4.590000000000000191e-01,-2.205560415089614645e-01,1.393960215192310836e-01,1.652946398823610663e-01
4.600000000000000200e-01,-4.611241663782120886e-02,-4.478444878584973005e-02,5.428439882244902315e-02
4.610000000000000209e-01,1.379547982092383940e-01,-1.937954635679955406e-01,-4.647254042466659324e-02
4.620000000000000218e-01,2.428360806891017853e-01,-2.369289985604058346e-01,-1.370362574164218916e-01
4.630000000000000226e-01,2.777756522693740071e-01,-1.811158496945713958e-01,-1.741498086953244262e-01
4.640000000000000235e-01,1.901837690614718857e-01,-4.438191842784328794e-02,-1.424856519430414692e-01
4.650000000000000244e-01,-5.638984229832173095e-02,9.367051569169987379e-02,-4.935242144923625285e-02
4.660000000000000253e-01,-2.021130021568400825e-01,2.217360244550320159e-01,5.678988223522388190e-02
4.670000000000000262e-01,-2.869736936603857758e-01,2.118082657562215532e-01,1.627419376696399300e-01
4.680000000000000271e-01,-2.543967548043261084e-01,1.542006319049827323e-01,1.705291204708880848e-01
4.689999999999999725e-01,-1.379463292186311474e-01,4.628686616925272584e-02,1.061035192088747997e-01
4.699999999999999734e-01,8.045233738489439290e-02,-1.471821263812874425e-01,2.235230970402837455e-02
4.709999999999999742e-01,2.095918417574658688e-01,-1.727956160175669609e-01,-1.049189243036920682e-01
4.719999999999999751e-01,2.945177617379045043e-01,-1.796668667780601525e-01,-1.873541822021332903e-01
4.729999999999999760e-01,1.893263756268349363e-01,-8.124041846230892205e-02,-1.871661001420859838e-01
4.739999999999999769e-01,6.040547879028972111e-02,6.662302412533045726e-02,-9.664270099590575869e-02
4.749999999999999778e-01,-1.539810594806926836e-01,1.700465533647761707e-01,1.391703877218727382e-02
4.759999999999999787e-01,-2.435914613959549724e-01,2.229898230320453978e-01,1.272071540017525593e-01
4.769999999999999796e-01,-2.874579559664857675e-01,1.321082958008852892e-01,1.550886766649925419e-01
4.779999999999999805e-01,-1.496417249619187984e-01,2.495436805404615752e-02,1.640676586949588456e-01
4.789999999999999813e-01,2.214270330345220056e-02,-1.217611721228339938e-01,7.107637855744997069e-02
4.799999999999999822e-01,1.786648714363310853e-01,-2.385042909945405687e-01,-5.993069727570805166e-02
4.809999999999999831e-01,2.840076821819992325e-01,-2.295285996454841937e-01,-1.624454465599800557e-01
4.819999999999999840e-01,2.368191076146866914e-01,-1.018449786945321983e-01,-1.599876626701873528e-01
4.829999999999999849e-01,9.385153706348550728e-02,-2.854117589665628590e-03,-8.527162539976326783e-02
4.839999999999999858e-01,-9.711026983505859078e-02,1.733312096607532993e-01,-3.479346639384565953e-02
4.849999999999999867e-01,-2.514931593069056892e-01,2.093140284770364234e-01,1.063344121486381327e-01
4.859999999999999876e-01,-2.849096860833715272e-01,1.522139840485338680e-01,1.654215594398519285e-01
4.869999999999999885e-01,-2.144900862762557092e-01,8.944222124641974803e-02,1.633251905892034173e-01
4.879999999999999893e-01,-2.937544707747036590e-02,-1.131609868306908129e-01,8.744746363137491374e-02
4.889999999999999902e-01,1.721626040095745602e-01,-1.856803250926603588e-01,-1.716352609799925294e-02
4.899999999999999911e-01,2.591517476091218519e-01,-2.286334057048669544e-01,-1.496287640882380532e-01
4.909999999999999920e-01,2.464840561909687755e-01,-1.591442720324282856e-01,-1.745790553011563884e-01
4.919999999999999929e-01,1.603973618738369078e-01,-1.265966505061458941e-02,-1.312344818704044846e-01
4.929999999999999938e-01,-5.866887226448241205e-02,1.752865902149868815e-01,-3.066025843505507456e-02
4.939999999999999947e-01,-1.864673467105884830e-01,2.024190126145318791e-01,2.382117667279910062e-02
4.949999999999999956e-01,-3.136875700002985656e-01,2.146793237313895930e-01,1.228805442579782858e-01
4.959999999999999964e-01,-2.483628303229588052e-01,1.192569948061374951e-01,1.628711437235477177e-01
4.969999999999999973e-01,-1.118710807001713631e-01,-5.147824050547010477e-02,1.159546514250200666e-01
4.979999999999999982e-01,1.427989705853813240e-01,-1.532848306532066940e-01,3.637080263970129956e-02
4.989999999999999991e-01,2.840225164155393278e-01,-2.553274557349523577e-01,-7.616243909282600921e-02
5.000000000000000000e-01,2.655873696722848010e-01,-1.918532503727448102e-01,-1.380022404359462496e-01
5.010000000000000009e-01,2.095468764800155204e-01,-3.467578906061714872e-02,-1.332327337853097537e-01
5.020000000000000018e-01,1.350572297202509361e-02,1.150349421070982897e-01,-7.327346746106602748e-02
5.030000000000000027e-01,-1.722068452794490445e-01,2.417667069836697269e-01,1.286525711553361193e-02
5.040000000000000036e-01,-2.819485264899441179e-01,1.961766666263389525e-01,1.138706929974320770e-01
5.050000000000000044e-01,-2.715760408982530461e-01,1.446077331642891262e-01,1.506900782432225583e-01
5.060000000000000053e-01,-1.531538862710574989e-01,-1.094007506622959175e-02,1.515397389678329598e-01
5.070000000000000062e-01,6.439124179014107940e-02,-1.379912007490660397e-01,6.401729013725662720e-02
5.080000000000000071e-01,2.542374201950661217e-01,-2.823237224378294941e-01,-6.237160741575620976e-02
5.090000000000000080e-01,3.173839146677793766e-01,-1.452657099472739188e-01,-1.195966378259950280e-01
5.100000000000000089e-01,2.226974769562939382e-01,-9.739055911088136119e-02,-1.833426659325556041e-01
5.110000000000000098e-01,7.428308406450034873e-02,8.385117191868088349e-02,-1.046072550507848448e-01
5.120000000000000107e-01,-1.206372236676835907e-01,2.369022950138054417e-01,-6.276151890282255508e-02
5.130000000000000115e-01,-2.786244276520338237e-01,2.110312040745069007e-01,1.149035111998472636e-01
5.140000000000000124e-01,-2.915267448495942326e-01,1.699218209448600803e-01,1.380727548070024568e-01
5.150000000000000133e-01,-2.013509242003351796e-01,1.910854423361569784e-02,1.818131123910314006e-01
5.160000000000000142e-01,-2.919812307457477375e-03,-1.235685192440691693e-01,6.506650838598952713e-02
5.170000000000000151e-01,1.423942033030996257e-01,-2.037331989821236089e-01,7.296765629956796125e-03
5.180000000000000160e-01,2.784839155279157374e-01,-2.441246897251883041e-01,-6.463248444805694271e-02
5.190000000000000169e-01,2.699320198261622172e-01,-8.545378983555405872e-02,-1.709564862482489678e-01
5.200000000000000178e-01,1.176332954055488433e-01,4.419221014756709309e-02,-1.664861501346828754e-01
5.210000000000000187e-01,-7.005625924190575504e-02,1.603648948070059421e-01,-8.289386515234717367e-02
5.220000000000000195e-01,-1.985784532040277550e-01,2.374768411658428613e-01,4.622950563315697536e-02
5.230000000000000204e-01,-2.857802397418079954e-01,1.711669135645217943e-01,1.116448020799473695e-01
5.240000000000000213e-01,-2.434594811694713312e-01,3.837362055109647119e-02,1.850634220513672490e-01
5.250000000000000222e-01,-5.237853584194596818e-02,-1.051715201044459425e-01,1.383159702863388518e-01
5.260000000000000231e-01,1.184911741802308488e-01,-2.283363564330020967e-01,5.579019248051546309e-02
5.270000000000000240e-01,2.658969021099057972e-01,-2.215971150297831593e-01,-5.762607383332745553e-02
5.280000000000000249e-01,2.820421190395455691e-01,-1.374315046212117863e-01,-1.203455142070555539e-01
5.290000000000000258e-01,1.349182799959884604e-01,-2.193249121710670949e-02,-1.750403806721513855e-01
5.300000000000000266e-01,-2.324696023635540801e-02,1.539977782037449117e-01,-1.033152368797229242e-01
5.310000000000000275e-01,-1.766538850351661027e-01,2.381799957069072882e-01,-6.937750220598157269e-03
5.320000000000000284e-01,-2.865580990959684660e-01,1.705529902897727212e-01,9.294275281488591223e-02
5.330000000000000293e-01,-2.559854948263102781e-01,6.580921020505832442e-02,2.220307762911525040e-01
5.340000000000000302e-01,-1.283282780890900587e-01,-6.578046430327069705e-02,1.392965865548563276e-01
5.350000000000000311e-01,5.721116561276821250e-02,-1.994894422272229795e-01,9.491752733382904927e-02
5.360000000000000320e-01,2.205676465261937891e-01,-2.484266936016213123e-01,-3.093741120754617616e-02
5.370000000000000329e-01,2.969249155827334841e-01,-1.742909451613293137e-01,-1.132136880462352724e-01
5.380000000000000338e-01,2.124609082944378946e-01,-3.499959596962051028e-02,-1.703873370065644710e-01
5.390000000000000346e-01,7.115662658811505725e-02,1.043601129257148846e-01,-1.850171676114867048e-01
5.400000000000000355e-01,-1.132034792681950591e-01,2.250143377571492131e-01,-5.495946877300585814e-02
5.410000000000000364e-01,-2.825806952213089085e-01,2.227879694055913129e-01,5.045737897914348569e-02
5.420000000000000373e-01,-2.884497707293289248e-01,9.165889328297448235e-02,1.417519107244022414e-01
5.430000000000000382e-01,-1.377701852997542664e-01,-3.696808661385535960e-02,1.680820098704889076e-01
5.440000000000000391e-01,3.113763622313757765e-02,-1.848647054707274195e-01,1.431150125051492694e-01
5.450000000000000400e-01,1.705954977354410818e-01,-2.173089173048939338e-01,3.337272760482637435e-02
5.460000000000000409e-01,3.073043493499828527e-01,-1.747453065590244825e-01,-9.319471153163501331e-02
5.470000000000000417e-01,2.605896984431659846e-01,-5.574635090085770101e-02,-1.434941080076977682e-01
5.480000000000000426e-01,1.621849924765958739e-01,8.748364590026903864e-02,-1.744386699916588013e-01
5.490000000000000435e-01,-7.254975036143777867e-02,1.981336450377667036e-01,-7.700205488358521921e-02
5.500000000000000444e-01,-2.194176178385053300e-01,2.114491836150046433e-01,-2.171377181854750385e-02
5.510000000000000453e-01,-2.704754665740537467e-01,1.625802325784059532e-01,1.206127358433913416e-01
5.520000000000000462e-01,-2.151852853376235164e-01,1.174274094638574385e-02,1.471479485838736168e-01
5.530000000000000471e-01,-7.866361415292266734e-02,-1.692375404498398794e-01,1.501452537550978239e-01
5.540000000000000480e-01,1.428157074346199096e-01,-2.318029042817487118e-01,9.915410058274674865e-02
5.550000000000000488e-01,2.841560880978208914e-01,-2.014901991171900442e-01,-5.057458876099982237e-02
5.560000000000000497e-01,2.298289472684598711e-01,-9.214534668074776669e-02,-1.086033742523238588e-01
5.570000000000000506e-01,1.816008052945627116e-01,5.926196922372540393e-02,-1.486122796330702489e-01
5.580000000000000515e-01,-8.801322457946285371e-03,1.862798677167810946e-01,-1.325012746304558287e-01
5.590000000000000524e-01,-2.211716777089554609e-01,2.141327832473970683e-01,-3.131982716486095969e-02
5.600000000000000533e-01,-2.885730223583798382e-01,1.556358802948978048e-01,7.955532826867750540e-02
5.610000000000000542e-01,-2.504858225751971368e-01,2.385065224400661349e-02,1.639212913104225455e-01
5.620000000000000551e-01,-1.014685023180412343e-01,-1.098067499518376039e-01,1.324103132963889984e-01
5.629999999999999449e-01,6.175293603765993899e-02,-1.784570590840722504e-01,9.789059330536792336e-02
5.639999999999999458e-01,2.252570938237637432e-01,-1.957429015679236495e-01,3.044453284734159257e-02
5.649999999999999467e-01,2.830260778845050118e-01,-1.033302061745135780e-01,-9.461158612262600409e-02
5.659999999999999476e-01,2.192753784397548367e-01,7.249306261160901044e-02,-1.716360593689079672e-01
5.669999999999999485e-01,5.458743260895679295e-02,1.897709613213216517e-01,-1.656365983770602679e-01
5.679999999999999494e-01,-1.260956021757869416e-01,2.529707102815526576e-01,-7.063822623205975870e-02
5.689999999999999503e-01,-2.478566426231020026e-01,1.969970269879677827e-01,8.560741845193814425e-03
5.699999999999999512e-01,-3.151120874282895001e-01,3.443625137659128699e-02,1.486016377363059415e-01
5.709999999999999520e-01,-1.570680470140755070e-01,-8.716572972181921286e-02,1.757057328007322339e-01
5.719999999999999529e-01,2.308772412483705780e-02,-1.880172955663630963e-01,1.337007899736315508e-01
5.729999999999999538e-01,2.024576206581982230e-01,-2.317887152869066159e-01,3.424513609486158627e-02
5.739999999999999547e-01,2.558142297399640386e-01,-1.366821222974921313e-01,-7.469790462625219840e-02
5.749999999999999556e-01,2.453189075486070791e-01,3.489773699187372763e-02,-1.679234020244568248e-01
5.759999999999999565e-01,8.123556494680143902e-02,1.433674419290344448e-01,-1.359674097124118630e-01
5.769999999999999574e-01,-9.057706739540899443e-02,2.279060457843917753e-01,-6.493772128479229078e-02
5.779999999999999583e-01,-2.604011933618121111e-01,2.052101679111360266e-01,3.197774869184165196e-03
5.789999999999999591e-01,-3.074053633930035057e-01,6.397739795863741086e-02,1.175529177873379655e-01
5.799999999999999600e-01,-2.361854973964127025e-01,-1.003372355138282962e-01,2.065524329276176296e-01
5.809999999999999609e-01,-5.398377457504545396e-02,-2.166294809363527862e-01,1.599778582119875114e-01
5.819999999999999618e-01,1.694776580574837155e-01,-2.204190556171491400e-01,1.025035954491839846e-01
5.829999999999999627e-01,2.660355693683085776e-01,-1.335797995302733521e-01,-2.146448351389120685e-02
5.839999999999999636e-01,2.906473659025140543e-01,2.404261800595649222e-03,-1.328943442199557179e-01
5.849999999999999645e-01,1.075916940907060276e-01,1.529429811839297104e-01,-1.582162951116762861e-01
5.859999999999999654e-01,-4.401696831324804216e-02,1.845221647137959275e-01,-1.346813898597625236e-01
5.869999999999999662e-01,-2.059742774248174146e-01,2.512423698239968917e-01,-5.519209414157384697e-02
5.879999999999999671e-01,-2.680606487746221012e-01,1.052430762534426328e-01,5.133158323980357290e-02
5.889999999999999680e-01,-2.470180819550501505e-01,-4.731466083970021358e-02,1.697011159408159109e-01
5.899999999999999689e-01,-6.992307288790530762e-02,-1.756610848957710358e-01,1.758811641648010682e-01
5.909999999999999698e-01,1.159469585549801618e-01,-2.796804193437097963e-01,1.334261932836376674e-01
5.919999999999999707e-01,2.630592007940818489e-01,-1.880025524498448730e-01,2.408134164296510046e-02
5.929999999999999716e-01,3.171179870369533749e-01,-3.929416874496634987e-02,-1.222139025045586580e-01
5.939999999999999725e-01,2.160639375917522420e-01,9.089863433194600439e-02,-1.670560766828219079e-01
5.949999999999999734e-01,3.212795002958111767e-02,1.933194759856786682e-01,-1.696855687113319466e-01
5.959999999999999742e-01,-1.655732811378633207e-01,2.174850479877083465e-01,-1.084537314651632389e-01
5.969999999999999751e-01,-2.886061477506752238e-01,1.188077322267565850e-01,2.064537549336868325e-02
5.979999999999999760e-01,-2.601931700064363806e-01,1.109820679265553431e-02,1.212465548667938237e-01
5.989999999999999769e-01,-1.278976658435060088e-01,-1.514355759838151294e-01,1.620858551979466045e-01
5.999999999999999778e-01,3.934309032127227684e-02,-2.316362819673596085e-01,1.655445997777544587e-01
6.009999999999999787e-01,2.331827093432894682e-01,-2.223684477125195957e-01,8.499740499734956267e-02
6.019999999999999796e-01,3.025847656560818333e-01,-9.645193068376237133e-02,-1.982254184197024260e-02
6.029999999999999805e-01,2.410863556589041556e-01,4.536512117092612179e-02,-1.280002913954000621e-01
6.039999999999999813e-01,7.789292759568031133e-02,2.211052004952109018e-01,-1.433735569096231399e-01
6.049999999999999822e-01,-1.058839290710273245e-01,2.389943127902490749e-01,-1.567289488212942339e-01
6.059999999999999831e-01,-2.310447136896649489e-01,1.879555235494161924e-01,-2.267068366559400402e-02
6.069999999999999840e-01,-2.567807531927344677e-01,4.275492396126941153e-02,6.326874492855241727e-02
6.079999999999999849e-01,-1.436290699903879919e-01,-1.348526143557357559e-01,1.589340405554581226e-01
6.089999999999999858e-01,-1.285443153009901453e-02,-2.159051118152576221e-01,1.236464106269428154e-01
6.099999999999999867e-01,1.648675644030027920e-01,-1.987862581294231323e-01,1.138784365625199607e-01
6.109999999999999876e-01,2.873642045929876709e-01,-1.233005637426464185e-01,4.690686351882181714e-03
6.119999999999999885e-01,2.280731425148456448e-01,4.702616520268156769e-02,-1.120008254297814448e-01
6.129999999999999893e-01,1.560374341889677607e-01,1.654312535608671031e-01,-2.020257989685364242e-01
6.139999999999999902e-01,-2.105547006627613363e-02,2.410012841594300903e-01,-1.222111507505333483e-01
6.149999999999999911e-01,-2.060302106269559785e-01,1.937869347838035716e-01,-1.032697226379858807e-01
6.159999999999999920e-01,-2.981254732593126011e-01,4.976155749749982399e-02,4.296397662147136837e-02
6.169999999999999929e-01,-2.535721556562975376e-01,-1.032954754862703411e-01,1.689313654913922047e-01
6.179999999999999938e-01,-6.696603452642468923e-02,-1.909122777520921299e-01,1.629541776586664048e-01
6.189999999999999947e-01,1.094279729614412305e-01,-2.092895777856290662e-01,1.293907685185717860e-01
6.199999999999999956e-01,2.421901575001424167e-01,-1.370593749255736016e-01,5.110577423941990716e-02
6.209999999999999964e-01,2.541236671611511455e-01,-7.495565198107735118e-03,-8.673829308617682365e-02
6.219999999999999973e-01,1.777469100508967115e-01,1.550088429448131244e-01,-1.518265021447626484e-01
6.229999999999999982e-01,-1.552915192365990696e-02,2.344889951835687214e-01,-1.728056531754169622e-01
6.239999999999999991e-01,-2.012531487825568455e-01,2.242364149805342322e-01,-1.293625660449768677e-01
6.250000000000000000e-01,-2.633785501034872079e-01,7.687097911983910292e-02,2.691714272974009628e-02
6.260000000000000009e-01,-2.627501687373338668e-01,-6.777893639914621404e-02,9.784192147292308794e-02
6.270000000000000018e-01,-1.122534406048685818e-01,-1.802594309470907930e-01,1.584028695420906796e-01
6.280000000000000027e-01,8.896698360647214976e-02,-2.574856702363920724e-01,1.792644916071906291e-01
6.290000000000000036e-01,2.277877049151480759e-01,-1.921515560072252771e-01,8.016914910036324060e-02
6.300000000000000044e-01,2.679325255370446635e-01,-4.847451422242209963e-03,-1.947247995406290941e-02
6.310000000000000053e-01,2.233587077374948882e-01,1.240261261639401119e-01,-1.412041415541609168e-01
6.320000000000000062e-01,4.003580104414218577e-02,1.996115756063824020e-01,-1.657884933979283382e-01
6.330000000000000071e-01,-1.647150514669070143e-01,2.152411126541197428e-01,-1.487255169979856961e-01
6.340000000000000080e-01,-2.442930174128770116e-01,1.182682259497086635e-01,-6.986722146361891428e-02
6.350000000000000089e-01,-2.781978724962300697e-01,-1.768467013813925306e-02,3.109908924967975941e-02
6.360000000000000098e-01,-1.587170279501591563e-01,-1.895662905821632882e-01,1.345056252619270531e-01
6.370000000000000107e-01,1.670326188098121252e-03,-2.122276136074670860e-01,1.509543924955650263e-01
6.380000000000000115e-01,1.790906234477697423e-01,-1.930547260365920725e-01,1.039152305050265734e-01
6.390000000000000124e-01,2.660922375650037752e-01,-3.407823837561241298e-02,2.721299446124801971e-02
6.400000000000000133e-01,2.703900742184884853e-01,9.778139003584924993e-02,-8.165668144265807171e-02
6.410000000000000142e-01,1.082752763478866259e-01,2.018123570894408692e-01,-1.300116332884926063e-01
6.420000000000000151e-01,-5.306278997013474247e-02,2.240883911110106153e-01,-1.667742300116367427e-01
6.430000000000000160e-01,-1.972945795488031673e-01,1.397281500952090583e-01,-6.391217757306402736e-02
6.440000000000000169e-01,-2.500503525573001262e-01,2.835286864862862329e-04,2.883340063855474589e-02
6.450000000000000178e-01,-2.176454036051043983e-01,-1.616589364689501318e-01,1.153525316408393064e-01
6.460000000000000187e-01,-4.266359847354084245e-02,-2.452948444761231250e-01,1.405054343110660464e-01
6.470000000000000195e-01,1.229192436390027232e-01,-1.903868492108608812e-01,1.404484473905598663e-01
6.480000000000000204e-01,2.703635409002192458e-01,-8.354995770191286919e-02,8.440447121502472894e-02
6.490000000000000213e-01,3.102621936750020182e-01,8.257813046449893890e-02,-8.225296649997866638e-02
6.500000000000000222e-01,1.876863807623624092e-01,1.886996102260413422e-01,-1.328773526865691390e-01
6.510000000000000231e-01,-5.794494112260624268e-03,2.241152117842213909e-01,-1.461660115561796147e-01
6.520000000000000240e-01,-1.797048855848150661e-01,1.427787202707085090e-01,-1.052289353378974418e-01
6.530000000000000249e-01,-2.437871521513172157e-01,4.985276134275364729e-02,-4.313803624586598495e-02
6.540000000000000258e-01,-2.295157174299951308e-01,-9.140625583349688832e-02,6.278644237946563733e-02
6.550000000000000266e-01,-1.218282984303319938e-01,-2.047635115446888032e-01,1.704638340791038154e-01
6.560000000000000275e-01,1.082456218855572527e-01,-2.358803724007657310e-01,1.892913916694086429e-01
6.570000000000000284e-01,2.414388525643772210e-01,-9.834134179089733252e-02,1.042754080546705597e-01
6.580000000000000293e-01,2.834133132126031573e-01,1.389194727724945080e-02,-2.106184210479954827e-02
6.590000000000000302e-01,1.737039932055381986e-01,1.824377107359055616e-01,-1.230480782203116907e-01
6.600000000000000311e-01,1.437916885532817927e-02,2.169356210546858621e-01,-1.571255516899577320e-01
6.610000000000000320e-01,-1.352484574785801918e-01,2.081113948158427041e-01,-1.484991195482214810e-01
6.620000000000000329e-01,-2.540405557334905473e-01,4.574859896456240360e-02,-7.287099026530614865e-02
6.630000000000000338e-01,-2.929307546948354823e-01,-1.180656756051418343e-01,1.285453549429469398e-02
6.640000000000000346e-01,-1.400265106488083333e-01,-1.942791979387718526e-01,1.269805313047763506e-01
6.650000000000000355e-01,4.037253279352497060e-02,-2.220790491046412685e-01,1.678394096048543838e-01
6.660000000000000364e-01,2.285539683239097009e-01,-1.384865378130417934e-01,1.362237166693562596e-01
6.670000000000000373e-01,3.059160674733171215e-01,3.109705551582441115e-03,1.341044010583110693e-02
6.680000000000000382e-01,2.549938941355849864e-01,1.477090325280227268e-01,-8.092737805508534721e-02
6.690000000000000391e-01,8.830549404267691582e-02,1.947975807153228822e-01,-1.465673816273631302e-01
6.700000000000000400e-01,-1.312931518454758806e-01,1.985870028582018276e-01,-1.581471314149658081e-01
6.710000000000000409e-01,-2.635363848294698941e-01,1.153350700108489030e-01,-1.062365850628360503e-01
6.720000000000000417e-01,-3.089593299683216499e-01,-5.225208288339467516e-02,-1.264161456534188899e-03
6.730000000000000426e-01,-1.894938333780222806e-01,-1.800844808634283478e-01,1.259406294285931871e-01
6.740000000000000435e-01,-1.863868672941019003e-02,-2.228782490971186470e-01,1.424387794589981326e-01
6.750000000000000444e-01,1.587137161966421239e-01,-1.716124298801256776e-01,1.317196131841355256e-01
6.760000000000000453e-01,2.560560104137767357e-01,-2.181793024480657359e-02,1.160422848335379564e-01
6.770000000000000462e-01,2.254605374323800926e-01,1.292729842103739202e-01,-2.113455976004164835e-02
6.780000000000000471e-01,1.541653308263574162e-01,2.147366669755527424e-01,-1.407645624934469319e-01
6.790000000000000480e-01,-4.351250445040061310e-02,2.083174138867633640e-01,-1.783477351983495940e-01
6.800000000000000488e-01,-2.197599046937099565e-01,1.436176363600077666e-01,-1.449896938774345445e-01
6.810000000000000497e-01,-2.438363764771592779e-01,6.905695966616387516e-04,-3.317389909367523398e-02
6.820000000000000506e-01,-2.539119425919675321e-01,-1.650579389289504317e-01,3.716945832762382634e-02
6.830000000000000515e-01,-9.889380845187098479e-02,-2.188407619628255085e-01,1.363665226637277017e-01
6.840000000000000524e-01,9.032621794652409553e-02,-2.109063402177784041e-01,1.452848322092943067e-01
6.850000000000000533e-01,2.749153904948891114e-01,-3.796801647369058008e-02,1.244694051468739626e-01
6.860000000000000542e-01,3.169383289337556198e-01,9.129049177207966548e-02,2.376755506568076562e-02
6.870000000000000551e-01,1.828378557714806230e-01,1.978125918049728760e-01,-8.711029483417029318e-02
6.879999999999999449e-01,2.363516100967765279e-02,2.134043256510736730e-01,-1.283101265857846396e-01
6.889999999999999458e-01,-1.825071333092189718e-01,1.506622407491862714e-01,-1.418531639031196112e-01
6.899999999999999467e-01,-2.551647992211910076e-01,-1.827131954928515453e-03,-1.049221659261662526e-01
6.909999999999999476e-01,-2.937328465557870749e-01,-1.608969009323470423e-01,2.866626677173832877e-02
6.919999999999999485e-01,-1.576334538955124209e-01,-2.504198597288816996e-01,1.265604101250173141e-01
6.929999999999999494e-01,7.991666384972084813e-02,-2.162545510840485075e-01,1.515369665186256098e-01
6.939999999999999503e-01,2.353015046631690144e-01,-1.339032760316224979e-01,1.281397233614764986e-01
6.949999999999999512e-01,2.990181689036764956e-01,6.346902194530777697e-02,7.184937013118890270e-02
6.959999999999999520e-01,2.314941652286824914e-01,1.908995877572460531e-01,-5.784853954106265739e-02
6.969999999999999529e-01,8.727002587826669655e-02,2.450502920508360327e-01,-1.672100016481824769e-01
6.979999999999999538e-01,-6.488582888142471750e-02,1.825947988215746998e-01,-1.771073141022155573e-01
6.989999999999999547e-01,-2.649035208860921475e-01,4.192521697559334348e-02,-1.224612762705730717e-01
6.999999999999999556e-01,-3.033038375847149082e-01,-1.140219665749403616e-01,-6.592268315988840388e-02
7.009999999999999565e-01,-1.648719113538515968e-01,-2.152966573961560826e-01,8.166802559550899454e-02
7.019999999999999574e-01,9.378973742315931464e-03,-2.080162119622410433e-01,1.453862208547798684e-01
7.029999999999999583e-01,1.965608460929968437e-01,-1.406897108953166220e-01,1.679835914972546418e-01
7.039999999999999591e-01,2.662229045079121947e-01,4.417020165934130299e-02,1.021566812250712525e-01
7.049999999999999600e-01,2.741839914235483233e-01,1.644573671087210531e-01,1.994067338531307215e-02
7.059999999999999609e-01,1.234545601095166922e-01,2.111059342042470865e-01,-1.195896093650777592e-01
7.069999999999999618e-01,-8.387203208337210003e-02,1.883283230840059608e-01,-1.795359225186207996e-01
7.079999999999999627e-01,-2.337227700580806200e-01,7.599040299295384271e-02,-1.265249250907795608e-01
7.089999999999999636e-01,-2.725401881625480471e-01,-7.170741929234453194e-02,-3.404231122203259241e-02
7.099999999999999645e-01,-2.211943122580636856e-01,-1.916010090451968351e-01,4.962509652213838163e-02
7.109999999999999654e-01,-6.828615923221167949e-02,-2.626437101367236071e-01,1.106233433554822954e-01
7.119999999999999662e-01,1.410138769779007706e-01,-1.672960202797089124e-01,1.350120143555175178e-01
7.129999999999999671e-01,2.551067035600961264e-01,-1.157032174136621121e-02,1.403126407092957773e-01
7.139999999999999680e-01,2.761653695654196494e-01,1.300892479588863504e-01,4.884201648404549317e-02
7.149999999999999689e-01,1.441596401639499425e-01,1.933462220355161576e-01,-7.948820658186529775e-02
7.159999999999999698e-01,-3.608437224485321060e-02,2.123532169091834065e-01,-1.415447704395327022e-01
7.169999999999999707e-01,-1.880051459720821494e-01,1.145407575690496893e-01,-1.591959420608908826e-01
7.179999999999999716e-01,-2.514592426632726307e-01,-2.779237261654934205e-02,-1.135018064863397708e-01
7.189999999999999725e-01,-2.766460556504029000e-01,-1.855369015262925136e-01,6.609306434063389954e-03
7.199999999999999734e-01,-1.184866436635488712e-01,-2.274330601133087715e-01,1.281517480345482074e-01
7.209999999999999742e-01,4.166785052254889238e-02,-1.723161067081245001e-01,1.706531569170882667e-01
7.219999999999999751e-01,2.448343105791675745e-01,-4.812717789511453820e-02,1.396201205320276029e-01
7.229999999999999760e-01,2.899737102076141437e-01,1.496001751363207344e-01,9.534021932274755473e-02
7.239999999999999769e-01,2.109176299976306124e-01,2.332996422293600880e-01,-7.261414580467770441e-02
7.249999999999999778e-01,4.760262606112928424e-02,2.272334826790259887e-01,-1.190860689267450173e-01
7.259999999999999787e-01,-1.513329142883033940e-01,1.224651174839905127e-01,-1.481719693065960963e-01
7.269999999999999796e-01,-2.418301106299318437e-01,-1.618317490702905065e-02,-1.256782357274646711e-01
7.279999999999999805e-01,-2.674069738324976742e-01,-1.666684701870239371e-01,-6.536352018139415798e-02
7.289999999999999813e-01,-1.638161274322014749e-01,-2.449896779139292546e-01,6.083980423530988696e-02
7.299999999999999822e-01,2.700101066961893906e-02,-1.939739016701502727e-01,1.171976757550901443e-01
7.309999999999999831e-01,1.903808293447646627e-01,-6.886697872939102905e-02,1.622433797003798583e-01
7.319999999999999840e-01,2.806441154334856636e-01,8.430961083075254325e-02,9.591241691746740794e-02
7.329999999999999849e-01,2.735561180337325871e-01,1.877417062801814696e-01,-3.654858425100365477e-03
7.339999999999999858e-01,1.071240110708923526e-01,2.434633554665182609e-01,-1.203176468994898857e-01
7.349999999999999867e-01,-5.551700847391174976e-02,1.661790182836057339e-01,-1.811629690790534652e-01
7.359999999999999876e-01,-2.326738550467341016e-01,3.035308776243274970e-02,-1.625605751593415249e-01
7.369999999999999885e-01,-2.980569367957343063e-01,-1.268688314589817567e-01,-8.610978234787916574e-02
7.379999999999999893e-01,-1.968403559467077069e-01,-2.332381061531255961e-01,4.360928222815967786e-02
7.389999999999999902e-01,-3.678294798225514167e-02,-1.986581201322548673e-01,1.337919444922595347e-01
7.399999999999999911e-01,1.729072911303543569e-01,-1.097376643590283057e-01,1.667103351134009148e-01
7.409999999999999920e-01,2.717641521571886321e-01,4.812613955914191166e-02,1.481513454583121003e-01
7.419999999999999929e-01,2.498448469223321922e-01,1.682987593124638248e-01,7.202173614722144623e-02
7.429999999999999938e-01,1.698676440217232186e-01,2.043496580451429068e-01,-6.759763693166208343e-02
7.439999999999999947e-01,-1.960553523922644800e-02,1.758890856280536374e-01,-1.611983172771733475e-01
7.449999999999999956e-01,-1.883013775521996946e-01,5.936371445044914819e-02,-1.545253132074259905e-01
7.459999999999999964e-01,-2.668388294967256047e-01,-1.233684221792896024e-01,-1.356460084125075960e-01
7.469999999999999973e-01,-2.495420237900710658e-01,-2.340279933771081122e-01,1.400564768660546300e-02
7.479999999999999982e-01,-8.876576247331437186e-02,-2.210606409424065166e-01,1.002304729980329490e-01
7.489999999999999991e-01,1.045979678831303328e-01,-1.131521843179312536e-01,1.331942659648054361e-01
7.500000000000000000e-01,2.418564571586113710e-01,1.098418159780395649e-02,1.701495670645624680e-01
7.510000000000000009e-01,2.797567607304650705e-01,1.667109016718414660e-01,9.011070820050720576e-02
7.520000000000000018e-01,2.186669169608362051e-01,2.260523817608674768e-01,-5.248326668045557447e-03
7.530000000000000027e-01,5.013574168141436693e-02,1.804518118680448757e-01,-1.427402896169749635e-01
7.540000000000000036e-01,-1.565173277313779421e-01,6.688411331852196773e-02,-1.533982934920106456e-01
7.550000000000000044e-01,-2.184524501829439580e-01,-7.087923378584014278e-02,-1.286111092764082031e-01
7.560000000000000053e-01,-2.832888117994635246e-01,-2.170613079702744530e-01,-6.188136753347117658e-02
7.570000000000000062e-01,-1.357754886730425103e-01,-2.174673133155561877e-01,5.202755686353918718e-02
7.580000000000000071e-01,1.862825646806346921e-02,-1.428418123364082193e-01,1.340279869136014046e-01
7.590000000000000080e-01,2.165593027298840234e-01,-1.024144829956498415e-02,1.708057730593863788e-01
7.600000000000000089e-01,3.015413037937748064e-01,1.419537040110383508e-01,1.119806198279636178e-01
7.610000000000000098e-01,2.235753964309804831e-01,2.502592030946354518e-01,1.516505367010848385e-02
7.620000000000000107e-01,9.612766341165845940e-02,2.246908979536511586e-01,-7.007321012072224853e-02
7.630000000000000115e-01,-1.065165514525118207e-01,8.136972006852649653e-02,-1.531520658773316279e-01
7.640000000000000124e-01,-2.326323537824634968e-01,-6.475252376722324954e-02,-1.302966968996553954e-01
7.650000000000000133e-01,-2.834946400802177968e-01,-1.881680280272288730e-01,-8.066725054385352756e-02
7.660000000000000142e-01,-1.732797579573955582e-01,-2.000028341033658341e-01,-1.534811568962470701e-02
7.670000000000000151e-01,-1.017853864981095764e-02,-1.950489282782684464e-01,7.735510720482609293e-02
7.680000000000000160e-01,1.203081212026382157e-01,-5.631428907642471032e-02,1.681463685739497671e-01
7.690000000000000169e-01,2.540448986034560819e-01,8.366318397039879118e-02,1.790890568774652913e-01
7.700000000000000178e-01,2.636751385732012398e-01,1.723846638906174344e-01,8.465517128989126505e-02
7.710000000000000187e-01,1.227279238155326579e-01,2.298839874722105880e-01,-5.978747100599695469e-02
7.720000000000000195e-01,-3.416104011463881596e-02,1.262315561055263047e-01,-1.316228329911024453e-01
7.730000000000000204e-01,-2.353751867130998987e-01,-4.350969668195236312e-02,-1.463563942661796347e-01
7.740000000000000213e-01,-2.744646256067205248e-01,-1.673064394671532340e-01,-1.182151940628296954e-01
7.750000000000000222e-01,-2.069200013328479082e-01,-2.068249404872427033e-01,-2.213600950279864116e-02
7.760000000000000231e-01,-6.330340243006792045e-02,-1.822180822607325779e-01,7.899615041999311082e-02
7.770000000000000240e-01,9.928851135944061213e-02,-8.315552899202253989e-02,1.685700949664210302e-01
7.780000000000000249e-01,2.723195621724961435e-01,8.391811970984419666e-02,1.452320078901305767e-01
7.790000000000000258e-01,2.820472610105811961e-01,1.937972247302555406e-01,1.105562731447875813e-01
7.800000000000000266e-01,1.647868038797205281e-01,1.914943132522373970e-01,-2.352442156576054280e-02
7.810000000000000275e-01,2.303716052264989655e-02,1.237506659356194250e-01,-1.172955847853738298e-01
7.820000000000000284e-01,-1.650111797339010866e-01,-8.231242570119779237e-03,-1.411356930170408197e-01
7.830000000000000293e-01,-2.652019697575448975e-01,-1.244371556993298933e-01,-1.506311443329099720e-01
7.840000000000000302e-01,-2.664094483525844548e-01,-1.917194294672504018e-01,-1.250402378307331197e-01
7.850000000000000311e-01,-1.535635891641992934e-01,-2.238509509517105922e-01,1.734753887242168613e-02
7.860000000000000320e-01,7.906195094623065522e-02,-9.854059186986495467e-02,1.339715974381789076e-01
7.870000000000000329e-01,2.184860981766900967e-01,7.135559710404626443e-02,1.862911524665646357e-01
7.880000000000000338e-01,2.811967539242292147e-01,1.941557125089567737e-01,1.399970167408718658e-01
7.890000000000000346e-01,2.069557702747673589e-01,2.415853930727245302e-01,5.923685584740936289e-02
7.900000000000000355e-01,7.214091161034856536e-02,1.851610907238996073e-01,-5.415495348125167613e-02
7.910000000000000364e-01,-1.566176863139339404e-01,6.115696814774641138e-02,-1.401726802321032750e-01
7.920000000000000373e-01,-2.257488234702998142e-01,-1.219153853449410074e-01,-1.997284527138264432e-01
7.930000000000000382e-01,-2.575223163738987742e-01,-2.062004716776948410e-01,-1.416077403760292730e-01
7.940000000000000391e-01,-1.957835310924384842e-01,-2.409108464944657857e-01,-6.657133583769526616e-03
7.950000000000000400e-01,-1.214772269553530785e-02,-1.431079200417188779e-01,1.104134833913333197e-01
7.960000000000000409e-01,1.736637615517867272e-01,1.713986647436343408e-02,1.149728932470098219e-01
7.970000000000000417e-01,2.847962495257031490e-01,1.474019571525809758e-01,1.621904696658028611e-01
7.980000000000000426e-01,2.609775639913227141e-01,2.079339953584553313e-01,8.198372329354541854e-02
7.990000000000000435e-01,1.438084807189407011e-01,1.857113193501930826e-01,-1.942100345722266169e-02
8.000000000000000444e-01,-3.548740768694146064e-02,6.269039282818972270e-02,-1.069093021406856414e-01
8.010000000000000453e-01,-2.046660022560514713e-01,-9.501312599586062002e-02,-1.765381965187438618e-01
8.020000000000000462e-01,-2.759260489417449391e-01,-1.834491756495445769e-01,-1.309334971756510591e-01
8.030000000000000471e-01,-2.473366430087265699e-01,-2.396169214146801063e-01,-6.102212179300357808e-02
8.040000000000000480e-01,-6.453966523634972752e-02,-1.482283924947873921e-01,5.168118085412937157e-02
8.050000000000000488e-01,1.168613908922567224e-01,-1.472208497982341845e-02,1.205813178338574765e-01
8.060000000000000497e-01,2.707532800915913862e-01,1.605769576533654930e-01,1.654341458919871277e-01
8.070000000000000506e-01,2.922455430604046778e-01,2.240687934165775663e-01,1.267595820612586188e-01
8.080000000000000515e-01,1.752422882497949863e-01,1.944729739615223274e-01,2.321151332085414493e-02
8.090000000000000524e-01,6.189370096993314016e-03,1.170352539796177815e-01,-7.428257708233350354e-02
8.100000000000000533e-01,-1.818520081628473839e-01,-2.008501333576711775e-02,-1.575842291962775976e-01
8.110000000000000542e-01,-2.744810985644510759e-01,-1.980133609090455604e-01,-1.793271636813909831e-01
8.120000000000000551e-01,-2.634856216982108257e-01,-2.038270025598946655e-01,-9.561966979488251139e-02
8.129999999999999449e-01,-9.458988267202286804e-02,-1.691034953239739791e-01,2.750438265432925133e-02
8.139999999999999458e-01,9.020243722818532817e-02,-4.436040214113359109e-02,1.160399146162980205e-01
8.149999999999999467e-01,2.021570769955718105e-01,6.621372306540779240e-02,1.680049237462095113e-01
8.159999999999999476e-01,3.054707322246051349e-01,1.999694815187033625e-01,1.527327918731163081e-01
8.169999999999999485e-01,2.032035644008452768e-01,2.233981409457594380e-01,3.890732806240929792e-02
8.179999999999999494e-01,8.195603538696791257e-02,1.415981358011429991e-01,-5.423158810422495923e-02
8.189999999999999503e-01,-1.225328429471304603e-01,2.726863616062282294e-03,-1.367301927043593213e-01
8.199999999999999512e-01,-2.383184659035781916e-01,-1.676499819057221397e-01,-1.476028003116826304e-01
8.209999999999999520e-01,-2.948238980641516571e-01,-2.083047913255622607e-01,-1.388325608275864653e-01
8.219999999999999529e-01,-2.023687879079871799e-01,-2.071548182471023292e-01,-1.800039102761896367e-02
8.229999999999999538e-01,3.363249608714567740e-02,-9.273672679238931238e-02,9.533739626729063887e-02
8.239999999999999547e-01,1.693319462693875510e-01,4.795863026865455209e-02,1.513024200823727405e-01
8.249999999999999556e-01,2.657596874076886828e-01,1.784960875849896933e-01,1.512320743525875089e-01
8.259999999999999565e-01,2.593344352564179722e-01,2.358111850369621065e-01,1.533041317715268248e-01
8.269999999999999574e-01,9.646016861199195602e-02,1.386582184848599020e-01,-8.753958956588165502e-03
8.279999999999999583e-01,-5.521970429458862573e-02,2.935816633151152114e-02,-1.268539049020576681e-01
8.289999999999999591e-01,-2.966270103623090959e-01,-1.088312560124918560e-01,-1.702357577363330932e-01
8.299999999999999600e-01,-2.686588879570712685e-01,-2.366046265535244886e-01,-1.644172681450720153e-01
8.309999999999999609e-01,-2.223767631408841428e-01,-2.615741332948807174e-01,-6.125993027712131611e-02
8.319999999999999618e-01,-5.786975192922560324e-02,-1.336075812331607715e-01,5.876280960288070981e-02
8.329999999999999627e-01,1.304051356338180034e-01,2.449334678701828999e-02,9.691927834840149969e-02
8.339999999999999636e-01,2.783086522797528217e-01,1.953621802039287314e-01,1.398836894564366440e-01
8.349999999999999645e-01,2.774310632815915612e-01,2.247276545625489230e-01,1.100102290134032657e-01
8.359999999999999654e-01,1.644509672231606601e-01,2.022524077894395922e-01,3.030023161937757392e-02
8.369999999999999662e-01,-3.943886387798061638e-02,5.420874495622595574e-02,-1.051182606686569543e-01
8.379999999999999671e-01,-1.944653547583012621e-01,-1.148947207362615436e-01,-1.642766665194577147e-01
8.389999999999999680e-01,-2.772504189252077977e-01,-2.292552277113373005e-01,-1.601431111113275629e-01
8.399999999999999689e-01,-2.432603318773630674e-01,-2.268828630179045847e-01,-1.416648042660909323e-01
8.409999999999999698e-01,-9.722501615835374422e-02,-1.757735427482076118e-01,-1.108590792882161759e-02
8.419999999999999707e-01,8.414732356283560755e-02,-4.181865684127453360e-03,6.173544248393447037e-02
8.429999999999999716e-01,2.563269296700679267e-01,1.617456163709905248e-01,1.276538202139960443e-01
8.439999999999999725e-01,2.905672226644823164e-01,2.377073859578886506e-01,1.902191167133243932e-01
8.449999999999999734e-01,2.020714398914741916e-01,1.770840889926850181e-01,6.987498568119770992e-02
8.459999999999999742e-01,4.889740179210309845e-02,9.612121678706593564e-02,-4.182530351393922569e-02
8.469999999999999751e-01,-1.258333248586198660e-01,-6.937840165500068490e-02,-1.385670491103608570e-01
8.479999999999999760e-01,-2.656014537875021064e-01,-1.652405154057815795e-01,-1.675043440429228037e-01
8.489999999999999769e-01,-2.757815596147195625e-01,-2.386893224468026875e-01,-1.407830020470019206e-01
8.499999999999999778e-01,-1.523227968219783013e-01,-1.357066139813140615e-01,-3.869297658218536634e-02
8.509999999999999787e-01,4.513960205528334824e-02,-1.603165015075636718e-02,4.463173515598600066e-02
8.519999999999999796e-01,2.023145766872200269e-01,1.118669056258370792e-01,1.401434741767721703e-01
8.529999999999999805e-01,3.038004120608168712e-01,1.997687286642881865e-01,1.880658239305401935e-01
8.539999999999999813e-01,2.457752604499836846e-01,1.966304411633678917e-01,1.159496247860277718e-01
8.549999999999999822e-01,8.945148244998096798e-02,1.251126901783999879e-01,3.200485787144578126e-02
8.559999999999999831e-01,-1.090630627508125672e-01,-3.485109175660190683e-02,-9.281293526184497544e-02
8.569999999999999840e-01,-2.176881064768422247e-01,-1.846818236038344219e-01,-1.683286123611268670e-01
8.579999999999999849e-01,-2.548629766772138039e-01,-2.279848058232916419e-01,-1.646384792003384445e-01
8.589999999999999858e-01,-2.010280233266854288e-01,-2.202711675910883626e-01,-1.107683646589646131e-01
8.599999999999999867e-01,-2.034995217262896075e-02,-7.896901063950163835e-02,-1.532985664695916527e-03
8.609999999999999876e-01,1.771879933970791909e-01,1.193842349333553848e-01,9.787756012304583975e-02
8.619999999999999885e-01,3.088357148732877033e-01,2.020901206493038726e-01,1.550751598095852224e-01
8.629999999999999893e-01,2.565426747723331125e-01,1.948105167042222252e-01,1.501363139097962596e-01
8.639999999999999902e-01,1.308306076267744811e-01,1.076524820535944699e-01,8.328735225548833387e-02
8.649999999999999911e-01,-2.939535263060750331e-02,1.846943005438769422e-02,-4.525594478092529599e-02
8.659999999999999920e-01,-2.372545908236844692e-01,-1.365406538737419517e-01,-1.572846316290744673e-01
8.669999999999999929e-01,-3.015607540912725870e-01,-2.393142533206765732e-01,-1.832441202335979014e-01
8.679999999999999938e-01,-2.107859037674342240e-01,-1.931063608939659892e-01,-1.365350331702068765e-01
8.689999999999999947e-01,-7.813912918165717703e-02,-9.388522646532880545e-02,-5.081622184307883761e-02
8.699999999999999956e-01,1.048665546070571691e-01,6.281448139135693831e-02,7.862525370919370982e-02
8.709999999999999964e-01,2.518191599523944002e-01,2.146730358082973578e-01,1.548584127914071074e-01
8.719999999999999973e-01,2.874566226308705730e-01,2.540968487750401850e-01,1.725072269649584600e-01
8.729999999999999982e-01,1.943378258261923008e-01,1.553591662213434921e-01,8.194675942709164773e-02
8.739999999999999991e-01,3.178336661511856759e-02,3.661580988772716871e-02,-4.665837745556456612e-02
8.750000000000000000e-01,-1.933393303425736953e-01,-1.389568907482413851e-01,-1.192585687767626773e-01
8.760000000000000009e-01,-2.898053408879627812e-01,-2.240620308906477731e-01,-1.628585170153129813e-01
8.770000000000000018e-01,-2.514723905212378208e-01,-2.550111362560845141e-01,-1.801574668603404539e-01
8.780000000000000027e-01,-1.045684089227047336e-01,-8.868723487139866524e-02,-7.607955601152530112e-02
8.790000000000000036e-01,5.726574192603627739e-02,5.006962828853233488e-02,4.533644371689848906e-02
8.800000000000000044e-01,2.072707526910532727e-01,1.777110129981925302e-01,1.212147105907765282e-01
8.810000000000000053e-01,3.025485583920254351e-01,2.614219185482001828e-01,1.871000152624008872e-01
8.820000000000000062e-01,2.359724274817583123e-01,1.637605787029398907e-01,1.543708969889167892e-01
8.830000000000000071e-01,3.335633465356100530e-02,5.456716088608981607e-02,8.560269968858645606e-02
8.840000000000000080e-01,-1.032902298977999428e-01,-8.631788616277422110e-02,-4.206217529690660373e-02
8.850000000000000089e-01,-2.396578417094865354e-01,-2.173907438009823612e-01,-1.555331841341483223e-01
8.860000000000000098e-01,-2.444733044307600134e-01,-2.329781176543657406e-01,-1.801187918769031060e-01
8.870000000000000107e-01,-2.174998747556242951e-01,-9.712127223702672618e-02,-1.301467949403093405e-01
8.880000000000000115e-01,1.794857373784471827e-02,-1.625706074070686416e-03,-1.093861180648823383e-03
8.890000000000000124e-01,1.786013516518701605e-01,1.665757532584015710e-01,1.098954313633257740e-01
8.900000000000000133e-01,2.509505706060501384e-01,2.120005608790333507e-01,1.769887299086317367e-01
8.910000000000000142e-01,2.445121452600800271e-01,2.190871288303325726e-01,1.793777820250595234e-01
8.920000000000000151e-01,1.299650455051729048e-01,6.908605273692883242e-02,7.875834571823595032e-02
8.930000000000000160e-01,-9.984757098716315338e-02,-7.039605029531813274e-02,-2.989926817905914913e-02
8.940000000000000169e-01,-2.355499142115989042e-01,-1.870504148352706841e-01,-1.140266021688016163e-01
8.950000000000000178e-01,-3.075359242739354459e-01,-2.494882433262184673e-01,-1.870049226405353648e-01
8.960000000000000187e-01,-2.153928000078920435e-01,-1.632586313022355573e-01,-1.466665836420683044e-01
8.970000000000000195e-01,-3.936203412693596582e-02,-3.287048663810489962e-02,-5.999305341586495116e-02
8.980000000000000204e-01,1.371598757376239208e-01,1.333569927838912372e-01,7.033190017412835338e-02
8.990000000000000213e-01,2.378770366864206010e-01,2.048708739360967090e-01,1.577537674883278396e-01
9.000000000000000222e-01,2.547932039673245774e-01,2.116023042573325907e-01,1.502160432431763892e-01
9.010000000000000231e-01,1.771093483501979815e-01,1.079450250382805176e-01,1.192076425680192592e-01
9.020000000000000240e-01,-1.682492930023926419e-03,-2.526834643200396441e-02,2.432000715078832392e-02
9.030000000000000249e-01,-1.851732673138412610e-01,-1.677880027948115138e-01,-9.321527676484929470e-02
9.040000000000000258e-01,-2.794934201031730736e-01,-2.454931670586517345e-01,-1.718776541334238184e-01
9.050000000000000266e-01,-2.466161628143923590e-01,-1.644549627742634135e-01,-1.565489754333527772e-01
9.060000000000000275e-01,-7.633793364550038596e-02,-6.218724095647996247e-02,-8.489262493341037663e-02
9.070000000000000284e-01,7.566172257968810377e-02,8.029142526892014964e-02,1.724108688217503710e-02
9.080000000000000293e-01,2.514472202380845234e-01,2.259466581164994159e-01,9.498022323109270304e-02
9.090000000000000302e-01,2.633438354084064459e-01,2.395124356079239847e-01,1.796150664286272070e-01
9.100000000000000311e-01,2.032166961664622351e-01,1.225901392578544608e-01,1.622809244193875455e-01
9.110000000000000320e-01,4.351664430377942538e-02,9.748187876448653408e-03,5.756719969727714520e-02
9.120000000000000329e-01,-1.526928148977036437e-01,-1.637052862544810528e-01,-6.625717119546070677e-02
9.130000000000000338e-01,-2.791340443105681524e-01,-2.280050791684924416e-01,-1.505310028606625938e-01
9.140000000000000346e-01,-2.640134494057940207e-01,-2.301453838460904844e-01,-1.656402173201380335e-01
9.150000000000000355e-01,-1.552789415505088089e-01,-8.292398295996296353e-02,-1.031916314525047895e-01
9.160000000000000364e-01,2.041890683044158758e-03,4.578705564597863181e-02,-3.863607547303598427e-02
9.170000000000000373e-01,2.395546726262351989e-01,2.246229531265794832e-01,9.323071932531579176e-02
9.180000000000000382e-01,3.128526295550547176e-01,1.774073847828893102e-01,1.952336850527264522e-01
9.190000000000000391e-01,2.367723878492793976e-01,1.555587750020254456e-01,1.534479740022738625e-01
9.200000000000000400e-01,9.763801466916460781e-02,2.687945844556048278e-02,8.885615164584385883e-02
9.210000000000000409e-01,-7.823392928717846917e-02,-1.192331047992834792e-01,3.660503140998075909e-03
9.220000000000000417e-01,-2.295729326708147444e-01,-2.294282266006978377e-01,-1.376235973962493808e-01
9.230000000000000426e-01,-2.421422452347302412e-01,-2.040217202738985047e-01,-1.602667430665793147e-01
9.240000000000000435e-01,-2.126762006647853198e-01,-1.170078273101326366e-01,-1.383542400451626686e-01
9.250000000000000444e-01,-2.685902934319411503e-02,2.196205206984654101e-02,-6.898771007723779325e-02
9.260000000000000453e-01,1.437864088492741832e-01,1.729638969099166756e-01,4.863879703512673236e-02
9.270000000000000462e-01,2.762834130460000703e-01,2.151515716094594688e-01,1.301162251085942190e-01
9.280000000000000471e-01,2.670936816839591388e-01,1.743937920645064477e-01,1.784674001642453656e-01
9.290000000000000480e-01,1.816530552360099693e-01,7.606459314075381117e-02,1.134726995714849390e-01
9.300000000000000488e-01,-4.563391952215310049e-02,-7.054646416667781361e-02,2.741982126382936161e-02
9.310000000000000497e-01,-2.108261819225291933e-01,-2.001645397859122544e-01,-7.111826379969450607e-02
9.320000000000000506e-01,-2.683778096707962191e-01,-2.293466597464346723e-01,-1.569962317143050734e-01
9.330000000000000515e-01,-2.005273878637525986e-01,-1.447083392792863077e-01,-1.585843525151330868e-01
9.340000000000000524e-01,-6.191424517019251256e-02,-2.753772353702677381e-02,-1.118142175125471649e-01
9.350000000000000533e-01,8.126469199704881852e-02,1.444566195664476194e-01,-1.770274794509958975e-03
9.360000000000000542e-01,2.436415579428010958e-01,2.134206620985171776e-01,6.994709988441906445e-02
9.370000000000000551e-01,2.809414484704086390e-01,1.910554932853826826e-01,1.566186656419243650e-01
9.379999999999999449e-01,2.169949713553115112e-01,8.202260901597759057e-02,1.515624156659409194e-01
9.389999999999999458e-01,4.244572281487936360e-02,-7.404627740939201397e-02,9.226796843094935141e-02
9.399999999999999467e-01,-1.804427858868600520e-01,-1.945537388404354195e-01,-1.260905171031063629e-02
9.409999999999999476e-01,-2.398127792240916378e-01,-2.410324109919164959e-01,-1.200672242441403886e-01
9.419999999999999485e-01,-2.744139760209643453e-01,-1.434006175642861258e-01,-1.658085000166805711e-01
9.429999999999999494e-01,-1.396420143549472193e-01,-8.178027747678151549e-02,-1.351697103203575168e-01
9.439999999999999503e-01,6.066851871269957758e-02,1.253336723748166570e-01,-6.260918477970262019e-02
9.449999999999999512e-01,2.275685354630078150e-01,2.147667737760479423e-01,7.773128826605119057e-02
9.459999999999999520e-01,2.788992287738559783e-01,2.170797079049854306e-01,1.464977730616298379e-01
9.469999999999999529e-01,2.450482834585284431e-01,1.416125312989592877e-01,1.839327966896158462e-01
9.479999999999999538e-01,7.692436777713722307e-02,-1.947694830963341353e-02,1.077273811573307705e-01
9.489999999999999547e-01,-7.962924888353663244e-02,-1.763389584276215394e-01,4.626122680794168829e-02
9.499999999999999556e-01,-2.516128686477274723e-01,-2.406711744811472209e-01,-1.104137776345984895e-01
9.509999999999999565e-01,-3.062724430814281473e-01,-1.735504160735788226e-01,-1.698550367404028649e-01
9.519999999999999574e-01,-2.108447762168842166e-01,-3.434885273839779346e-02,-1.405484441452987121e-01
9.529999999999999583e-01,7.343581021538812250e-04,1.066349052477196663e-01,-7.539973195800120376e-02
9.539999999999999591e-01,1.493059656393212475e-01,2.092644770131526222e-01,2.656031801063634540e-02
9.549999999999999600e-01,2.817682678449627831e-01,2.562033958787537369e-01,1.004343113992772762e-01
9.559999999999999609e-01,2.313496969150181382e-01,1.633969976948193570e-01,1.918460075010564592e-01
9.569999999999999618e-01,1.305601848958298783e-01,-7.630270263680827801e-03,1.607940505096895345e-01
9.579999999999999627e-01,-2.953175294140990281e-02,-1.091715944191359311e-01,4.287468146868828739e-02
9.589999999999999636e-01,-1.776777396961179423e-01,-2.420002358060086844e-01,-4.158112969164348000e-02
9.599999999999999645e-01,-2.895384812976553590e-01,-2.314009064679651007e-01,-1.296750303337057819e-01
9.609999999999999654e-01,-2.230766080272404694e-01,-7.938946773742264207e-02,-1.791155765034233571e-01
9.619999999999999662e-01,-7.315995529825290722e-02,4.538317619815980530e-02,-1.569823397240875662e-01
9.629999999999999671e-01,1.060594910569332971e-01,1.800227794639460976e-01,-1.620498811962003960e-02
9.639999999999999680e-01,2.944903950834525386e-01,2.314854308627322388e-01,1.016683972300066463e-01
9.649999999999999689e-01,2.721923307226343236e-01,1.966680686405884726e-01,1.526995692198195864e-01
9.659999999999999698e-01,2.237188626298931005e-01,2.198066031348512236e-02,1.569840470832601087e-01
9.669999999999999707e-01,3.925797988841105840e-02,-1.062743595201023350e-01,1.069989467801935601e-01
9.679999999999999716e-01,-1.697378980600562082e-01,-2.320136547279167683e-01,3.940002726421458316e-03
9.689999999999999725e-01,-2.886319450831706379e-01,-2.399815643242736163e-01,-7.299532685749376970e-02
9.699999999999999734e-01,-2.803351881764142850e-01,-1.511559209186768837e-01,-1.318856093957885833e-01
9.709999999999999742e-01,-1.153448107885337026e-01,3.045174257035831653e-02,-1.591750360462112213e-01
9.719999999999999751e-01,6.435406291735612516e-02,1.499846406638875029e-01,-3.602040769584802238e-02
9.729999999999999760e-01,2.581752814251400685e-01,2.781270045899017496e-01,8.821708180097283594e-03
9.739999999999999769e-01,2.797808462669319485e-01,2.055942840924935566e-01,1.262425346022593708e-01
9.749999999999999778e-01,2.206529977572946055e-01,5.084805103640079732e-02,1.740615036230813151e-01
9.759999999999999787e-01,7.117485350969117441e-02,-7.769731237499562237e-02,1.311974273375275113e-01
9.769999999999999796e-01,-1.382281740159608252e-01,-2.122197077633304341e-01,3.779508759838647730e-02
9.779999999999999805e-01,-2.365708589122385297e-01,-2.445835176720232151e-01,-7.916126900294548352e-02
9.789999999999999813e-01,-2.544753469211938346e-01,-1.497974687175269715e-01,-1.952331400695805630e-01
9.799999999999999822e-01,-2.001469974252712281e-01,-2.105385372209579026e-02,-1.730731669880934132e-01
9.809999999999999831e-01,8.855197286415653762e-03,1.414277395165108586e-01,-9.545077845937251226e-02
9.819999999999999840e-01,1.931670356497461605e-01,2.131800579316180666e-01,1.660214792833727276e-02
9.829999999999999849e-01,2.802536754921500228e-01,1.995619260045272125e-01,1.050727184764891770e-01
9.839999999999999858e-01,2.518827480001663011e-01,1.072581167246439982e-01,1.477279920004047065e-01
9.849999999999999867e-01,1.338720139243898821e-01,-5.197032568787744722e-02,1.710695655848015750e-01
9.859999999999999876e-01,-7.293843980013713091e-02,-1.935330913389202712e-01,7.375800360731063487e-02
9.869999999999999885e-01,-2.619489168476256125e-01,-2.111424121725035685e-01,-7.124446468372856722e-02
9.879999999999999893e-01,-2.773503676035564691e-01,-1.714456446751333185e-01,-1.632609825519603097e-01
9.889999999999999902e-01,-2.381608282845637525e-01,-7.741682457049743615e-02,-1.517995058111109852e-01
9.899999999999999911e-01,-7.125077898956735933e-02,1.019844453438909920e-01,-1.307117918870706053e-01
9.909999999999999920e-01,1.426579770304151895e-01,2.080359351346555141e-01,-4.562588011065402127e-02
9.919999999999999929e-01,2.600581458456286965e-01,1.828155180521490730e-01,8.569211989801261975e-02
9.929999999999999938e-01,2.845823089496830605e-01,9.896885166163910119e-02,1.857045512072961480e-01
9.939999999999999947e-01,1.739838991024026671e-01,-1.170273786247286348e-03,1.757796210254915226e-01
9.949999999999999956e-01,-1.350087134440665186e-02,-1.500532935475533958e-01,1.548896922747975968e-01
9.959999999999999964e-01,-1.707044318266174865e-01,-2.575796351739830237e-01,2.978289499075129423e-02
9.969999999999999973e-01,-2.998894538454902614e-01,-2.105132692860204602e-01,-1.003263251551174962e-01
9.979999999999999982e-01,-3.008721204271520566e-01,-5.678639443350559646e-02,-1.678158979150105590e-01
9.989999999999999991e-01,-1.408023250188411013e-01,8.618765835461640601e-02,-1.779070311246144509e-01
1.000000000000000000e+00,7.263838119228205326e-02,2.181568495993314871e-01,-8.045382770433272268e-02
1.000999999999999890e+00,2.159267375454451965e-01,2.331940893826068006e-01,5.115604508456818994e-02
1.002000000000000002e+00,2.688800630706187911e-01,1.345040103816325938e-01,8.833162395848642712e-02
1.002999999999999892e+00,2.191182642018253135e-01,1.690005822933506735e-02,1.743980788646106728e-01
1.004000000000000004e+00,5.242719628104620250e-02,-1.290017170333420116e-01,1.120022137545185759e-01
1.004999999999999893e+00,-9.126747823322539643e-02,-2.181445006584354918e-01,5.850548527912437929e-02
1.006000000000000005e+00,-2.759716313153970924e-01,-2.145257140950090624e-01,-8.828456778787749371e-02
1.006999999999999895e+00,-2.744987136151731955e-01,-1.144621302606351476e-01,-1.097274951449924985e-01
1.008000000000000007e+00,-1.564186487848585327e-01,5.372636191101665820e-02,-1.784064031089763747e-01
1.008999999999999897e+00,-1.230213022162508557e-03,1.681816556167244070e-01,-1.442122945744665485e-01
1.010000000000000009e+00,1.763465890339396269e-01,2.154365893028754031e-01,-2.621617338671276484e-02
1.010999999999999899e+00,2.816861091930535355e-01,1.891705086116708678e-01,1.042035613958006424e-01
1.012000000000000011e+00,2.299013030268502733e-01,4.586621985645541327e-02,1.501637747467224615e-01
1.012999999999999901e+00,1.322221282312279200e-01,-1.023127600948539884e-01,1.843068822820336794e-01
1.014000000000000012e+00,-5.779403775268049381e-02,-1.865706623300525946e-01,8.806081984856373168e-02
1.014999999999999902e+00,-2.196845431085699685e-01,-2.000678214060668536e-01,9.419825877857713331e-03
1.016000000000000014e+00,-2.659505121843739328e-01,-1.478948663782571060e-01,-1.342328062365973074e-01
1.016999999999999904e+00,-2.097095849887589958e-01,2.263241960429483030e-02,-1.844210051085422297e-01
1.018000000000000016e+00,-6.819561865054699079e-02,1.186092974366196595e-01,-1.176673171196923745e-01
1.018999999999999906e+00,1.297632575557589596e-01,2.488230901208467183e-01,-2.527946418557955321e-02
1.020000000000000018e+00,2.808327808983168139e-01,1.796412532508810389e-01,4.760076034563012065e-02
1.020999999999999908e+00,2.837773922088867029e-01,8.353402753920977086e-02,1.207207186020446826e-01
1.022000000000000020e+00,1.629281012369871162e-01,-6.226912262463387554e-02,2.031710526415306806e-01
1.022999999999999909e+00,-3.537419457022974306e-02,-1.859336198923211836e-01,1.388702074816658416e-01
1.024000000000000021e+00,-1.752823985177115462e-01,-2.253171881199609872e-01,-5.181969318532819724e-03
1.024999999999999911e+00,-2.871443752251113257e-01,-1.488754647831234679e-01,-8.959792080737549735e-02
1.026000000000000023e+00,-2.283806681215516943e-01,-2.627093910149837577e-02,-1.705047777002678400e-01
1.026999999999999913e+00,-1.118464708520777312e-01,1.217862688218134815e-01,-1.720398727109446746e-01
1.028000000000000025e+00,1.245610109023768952e-01,2.196373323480889650e-01,-8.852680435110837909e-02
1.028999999999999915e+00,2.644772978657872198e-01,2.025937125000353001e-01,1.285927988393559089e-02
1.030000000000000027e+00,2.912731098262118512e-01,1.069879643988488754e-01,9.648460957902366131e-02
1.030999999999999917e+00,1.964205034793596039e-01,-5.156692440349993495e-02,1.650311202825866241e-01
1.032000000000000028e+00,4.260251588735252011e-03,-1.701914911430982558e-01,1.726609883317999639e-01
1.032999999999999918e+00,-1.463546295837578615e-01,-2.061648979872883480e-01,6.615091661432387360e-02
1.034000000000000030e+00,-2.627521076412176471e-01,-1.716583895760317446e-01,-4.699392485274681702e-03
1.034999999999999920e+00,-2.712607326577056166e-01,-5.138686235426389443e-02,-1.296592945672461750e-01
1.036000000000000032e+00,-1.776657783216005482e-01,1.230573278954808919e-01,-1.629540413054928472e-01
1.036999999999999922e+00,5.819180719647481376e-02,1.774730392849144245e-01,-1.389749886871911866e-01
1.038000000000000034e+00,2.086168824202103700e-01,2.435147748877705132e-01,-7.063131753414400582e-02
1.038999999999999924e+00,3.078154231455044743e-01,1.190630591743198213e-01,4.583781946114055122e-02
1.040000000000000036e+00,2.428441588074618240e-01,-4.500151600127719198e-03,1.391707736251846794e-01
1.040999999999999925e+00,8.581167804592629289e-02,-1.393232448555861147e-01,1.999087668499507642e-01
1.042000000000000037e+00,-1.042699806762743403e-01,-2.230309451941516197e-01,1.214708276816165722e-01
1.042999999999999927e+00,-2.200924352607620815e-01,-1.968754107939271747e-01,-1.881833665333435338e-02
1.044000000000000039e+00,-2.740890887641448947e-01,-3.986628072206225420e-02,-1.153927078600490846e-01
1.044999999999999929e+00,-1.796193267265228377e-01,7.412312586327557407e-02,-1.683250982839603060e-01
1.046000000000000041e+00,-1.644787219025447417e-02,1.943719163161647390e-01,-1.502706877748842818e-01
1.046999999999999931e+00,1.855402936006138870e-01,2.260316525264567389e-01,-9.183886882748128200e-02
1.048000000000000043e+00,2.695997997118788625e-01,1.598627030776645364e-01,1.965845016155520764e-02
1.048999999999999932e+00,2.755400480633979909e-01,7.741682424412392113e-03,1.017314396602364696e-01
1.050000000000000044e+00,1.670702922346140318e-01,-1.282115712823159170e-01,1.705430490980414659e-01
1.050999999999999934e+00,-9.853526276404446504e-02,-2.146497001589126874e-01,1.464101841056986153e-01
1.052000000000000046e+00,-2.115794914309873931e-01,-2.204962182717406238e-01,4.523929972526128523e-02
1.052999999999999936e+00,-2.760753694157224158e-01,-9.364007659653485194e-02,-8.264699545219625354e-02
1.054000000000000048e+00,-2.437796776734684479e-01,4.483631781218149620e-02,-1.722339445498186350e-01
1.054999999999999938e+00,-9.887182738373338775e-02,1.712668624608357504e-01,-2.027758065383165609e-01
1.056000000000000050e+00,1.012360724163868797e-01,2.208832648950707911e-01,-1.130145922010758058e-01
1.056999999999999940e+00,2.710757390271187339e-01,1.648513103893977372e-01,-2.995226733579650288e-02
1.058000000000000052e+00,2.617790998004401182e-01,1.768849983913033802e-02,1.032838380793022065e-01
1.058999999999999941e+00,1.736103529221496022e-01,-1.233303615129740516e-01,1.213463529194957063e-01
1.060000000000000053e+00,2.279514620318275758e-02,-2.302821522238950036e-01,1.739188880739997167e-01
1.060999999999999943e+00,-1.490011917898902971e-01,-2.328085667464310504e-01,6.629011706553462890e-02
1.062000000000000055e+00,-2.872032301653700825e-01,-1.469858604444092276e-01,-1.654767046143844345e-02
1.062999999999999945e+00,-2.885686200920735134e-01,-7.109218997504662685e-03,-1.258316501065109838e-01
1.064000000000000057e+00,-1.205388292559740615e-01,1.473763920711884667e-01,-1.589762313769992885e-01
1.064999999999999947e+00,9.743638888473155069e-02,2.216463332408621367e-01,-1.392870716416683696e-01
1.066000000000000059e+00,2.155486162987244048e-01,2.003237048318927682e-01,-6.045707553188432726e-02
1.066999999999999948e+00,2.592497864386167361e-01,7.105703356860471054e-02,5.006355513685383646e-02
1.068000000000000060e+00,2.306593384439228622e-01,-1.106950153026823591e-01,1.480989420915433952e-01
1.068999999999999950e+00,6.393150132783090300e-02,-1.603752204848323815e-01,1.667792270066318361e-01
1.070000000000000062e+00,-8.615112464901929223e-02,-2.137232981064142445e-01,1.210352374196180109e-01
1.070999999999999952e+00,-2.586644482858289629e-01,-1.627999686446666983e-01,1.427322141780736076e-02
1.072000000000000064e+00,-3.144428198629385385e-01,-3.955629502952109910e-02,-9.523070503610150950e-02
1.072999999999999954e+00,-1.910839423951770644e-01,9.612435799174211259e-02,-1.727496786465009815e-01
1.074000000000000066e+00,4.730174444522988048e-02,2.132226727117525200e-01,-1.605030875220734288e-01
1.074999999999999956e+00,1.788204265540336846e-01,2.391700204664464757e-01,-7.677978123496928542e-02
1.076000000000000068e+00,2.627921018597679792e-01,1.051869185736511170e-01,-7.359341109346282175e-03
1.076999999999999957e+00,2.602275780414297635e-01,-4.764089320801577487e-02,1.151107387654805303e-01
1.078000000000000069e+00,1.583746113433295855e-01,-1.959803041029714032e-01,1.693595424216146894e-01
1.078999999999999959e+00,-8.723271211386736390e-02,-2.234427542645914810e-01,1.328941257628690475e-01
1.080000000000000071e+00,-2.275638414663118114e-01,-1.932489704509424144e-01,7.687284557222601178e-02
1.080999999999999961e+00,-2.510159214167450026e-01,-4.391466330934680473e-02,-4.910504572307942961e-02
1.082000000000000073e+00,-2.086619223863604988e-01,1.073488783536172414e-01,-1.465460315185740103e-01
1.082999999999999963e+00,-6.885751868538531051e-02,2.334575757351424474e-01,-1.972725614148504725e-01
1.084000000000000075e+00,1.276443316794901861e-01,2.235047773542404581e-01,-1.572262119589502849e-01
1.084999999999999964e+00,2.698325526387550521e-01,1.454350873495953433e-01,-5.094051884252114720e-02
1.086000000000000076e+00,2.419437893593316402e-01,-4.744001336016492182e-02,6.164691284416271705e-02
1.086999999999999966e+00,1.626668741054322631e-01,-1.248415133212740363e-01,1.580097883918542001e-01
1.088000000000000078e+00,-1.606178110677775397e-02,-1.983189763421348562e-01,1.701087148155497608e-01
1.088999999999999968e+00,-1.889344768593945179e-01,-2.347227260834841567e-01,1.138760716287437608e-01
1.090000000000000080e+00,-2.930025984497783287e-01,-4.508407647613215524e-02,-7.630143352748338173e-03
1.090999999999999970e+00,-2.326050092414184145e-01,5.865863140083822647e-02,-1.197766910657115796e-01
1.092000000000000082e+00,-1.428914014116952902e-01,2.100087157649679070e-01,-1.749369375031462892e-01
1.092999999999999972e+00,7.173494527127581566e-02,2.348962901114141355e-01,-1.576316728807154732e-01
1.094000000000000083e+00,2.221809905099632887e-01,1.397726082141497461e-01,-6.183677840538411713e-02
1.094999999999999973e+00,3.002571706198643442e-01,1.704544656308331838e-02,3.626558981817727678e-02
1.096000000000000085e+00,2.080479529003416983e-01,-1.284648189887670211e-01,1.233408862848080073e-01
1.096999999999999975e+00,1.182109829690774182e-02,-2.210395870330821577e-01,1.456634043260521816e-01
1.098000000000000087e+00,-1.586822444916277108e-01,-2.078297054940453359e-01,1.362105832711922593e-01
1.098999999999999977e+00,-2.536817961764140095e-01,-1.020611589493379268e-01,4.004392543061204707e-02
1.100000000000000089e+00,-2.512159825115790612e-01,5.361464498023365416e-02,-7.868446241538186448e-02
1.100999999999999979e+00,-1.460482848172158510e-01,1.879527881792116828e-01,-1.487877038771457383e-01
1.102000000000000091e+00,3.298126458958133833e-02,1.971117727638580508e-01,-1.778674833229927366e-01
1.102999999999999980e+00,1.915143029052616963e-01,2.180334656256901205e-01,-1.281891347115894364e-01
1.104000000000000092e+00,2.800045022653201432e-01,5.666823981734803867e-02,-1.065414904239560777e-02
1.104999999999999982e+00,2.650827039780323524e-01,-1.213309314043925086e-01,1.073305655828118987e-01
1.106000000000000094e+00,9.249989801896420227e-02,-2.121665657863486265e-01,1.679324063035624037e-01
1.106999999999999984e+00,-7.199076543471866207e-02,-2.313259431794327803e-01,1.574372515298984587e-01
1.108000000000000096e+00,-2.108241717602984122e-01,-1.090218794769685362e-01,1.026054431692502711e-01
1.108999999999999986e+00,-2.702928248853201376e-01,4.446560035372084177e-03,-1.750321194044554204e-02
1.110000000000000098e+00,-2.296193794613634320e-01,1.539262930142874797e-01,-1.472131189117481809e-01
1.110999999999999988e+00,-2.312644936736903828e-02,2.272550619824469653e-01,-1.553256632228566525e-01
1.112000000000000099e+00,1.317749040928891391e-01,2.035899715166538948e-01,-1.651656922776097713e-01
1.112999999999999989e+00,2.825657667679836171e-01,9.447870230431396066e-02,-8.045684253657066354e-02
1.114000000000000101e+00,2.732358796664746681e-01,-5.805032131028115688e-02,5.888991412337664377e-02
1.114999999999999991e+00,1.625069339995074413e-01,-1.773867465679420663e-01,1.430450084943052091e-01
1.116000000000000103e+00,-2.932083724494338392e-02,-2.065621038799973219e-01,1.535919624067569877e-01
1.116999999999999993e+00,-1.606346849824008549e-01,-2.009538443915591388e-01,1.355167672125754952e-01
1.118000000000000105e+00,-3.089873788066923588e-01,-4.787124926220658744e-02,2.183946374552646688e-02
1.118999999999999995e+00,-2.339555399918804013e-01,1.124898022280078624e-01,-9.173688244315800211e-02
1.120000000000000107e+00,-1.110574573088144029e-01,2.303264803344579892e-01,-1.395448550438922464e-01
1.120999999999999996e+00,6.619394365988762186e-02,2.112137199702220636e-01,-1.156904788959471214e-01
1.122000000000000108e+00,2.642073406738451591e-01,9.783797159064146209e-02,-8.361553400624405219e-02
1.122999999999999998e+00,2.752261564285183870e-01,-8.038055832255260047e-02,5.426318558603268616e-02
1.124000000000000110e+00,1.878914416062240911e-01,-1.704587638104481662e-01,1.112997659172802467e-01
1.125000000000000000e+00,1.209045455715131341e-02,-1.855381691021290302e-01,2.060926451405623305e-01
1.125999999999999890e+00,-1.388615693441606069e-01,-1.854034729613923127e-01,1.472387007198230624e-01
1.127000000000000002e+00,-2.694655892875345571e-01,-5.579381213654205363e-02,6.994667895900577581e-02
1.127999999999999892e+00,-2.245197299319096618e-01,6.818638070460703027e-02,-7.563336735747989981e-02
1.129000000000000004e+00,-1.550989773017861506e-01,2.080437957512786540e-01,-1.264002873445952135e-01
1.129999999999999893e+00,4.456071468465799823e-02,1.955780111272162336e-01,-1.699723783632345608e-01
1.131000000000000005e+00,2.333551479964151021e-01,1.422815258445330189e-01,-1.029264067344993760e-01
1.131999999999999895e+00,3.037264150279870289e-01,-2.086698669662379046e-02,-1.674018260880363873e-02
1.133000000000000007e+00,2.391065346398205116e-01,-1.087021173334609264e-01,5.599210601524867020e-02
1.133999999999999897e+00,9.446930260228442178e-02,-2.307687360125475762e-01,1.360306552803041691e-01
1.135000000000000009e+00,-1.011850663720964827e-01,-2.045482279907798739e-01,1.889973235709259403e-01
1.135999999999999899e+00,-2.588113644032989380e-01,-8.797186380760436963e-02,9.999523288919344444e-02
1.137000000000000011e+00,-2.691143917277806774e-01,7.254631910275620432e-02,1.710929449136203498e-02
1.137999999999999901e+00,-1.698376911189175553e-01,1.840304896825451231e-01,-8.987755513537458441e-02
1.139000000000000012e+00,-3.257638393415472622e-02,2.666105632370623923e-01,-1.895214205455924283e-01
1.139999999999999902e+00,1.736636365091668299e-01,1.561122514366074521e-01,-1.617823461297009102e-01
1.141000000000000014e+00,2.773589303724283139e-01,5.112276054222478217e-02,-1.032502975502468529e-01
1.141999999999999904e+00,2.781407693060893305e-01,-1.449442878210757679e-01,1.503985664684135033e-02
1.143000000000000016e+00,1.249433536444788662e-01,-2.631961985325779185e-01,1.435692992144525781e-01
1.143999999999999906e+00,-3.756762414765329322e-02,-1.944493240149264279e-01,1.647822631892334466e-01
1.145000000000000018e+00,-2.099167160250107744e-01,-1.087890307202650231e-01,1.386007244721841059e-01
1.145999999999999908e+00,-2.895180204351331943e-01,5.365531296497413200e-02,7.481722375659112523e-02
1.147000000000000020e+00,-2.476554179797702815e-01,1.767220310138283290e-01,-1.124631013498166021e-01
1.147999999999999909e+00,-1.003493188022724775e-01,2.412656234518232579e-01,-1.883506751759761177e-01
1.149000000000000021e+00,9.229460555339080718e-02,2.004511812940967530e-01,-1.606905935123690288e-01
1.149999999999999911e+00,2.665903819819782639e-01,9.184788451241532314e-02,-1.152300849627360818e-01
1.151000000000000023e+00,2.863409757161853864e-01,-6.678160613562968140e-02,-2.848270659181141237e-02
1.151999999999999913e+00,1.824677969445350767e-01,-2.168309599256829923e-01,7.462224263895587961e-02
1.153000000000000025e+00,-1.355779147974980458e-03,-2.251501814453521766e-01,1.495602519166134847e-01
1.153999999999999915e+00,-1.962500667560669876e-01,-1.829921538689818217e-01,1.405420276154857040e-01
1.155000000000000027e+00,-2.705341422144054153e-01,-8.140396084482800360e-03,8.116545598534433137e-02
1.155999999999999917e+00,-2.581102606888022177e-01,1.145576230353051450e-01,-4.317170815712381010e-02
1.157000000000000028e+00,-1.511130271311228457e-01,2.354557390010270923e-01,-1.243586559976403161e-01
1.157999999999999918e+00,7.797948525328872449e-02,2.194203331102984045e-01,-1.623304417984069992e-01
1.159000000000000030e+00,2.259100868479623492e-01,7.875027139339942084e-02,-1.590176279126135905e-01
1.159999999999999920e+00,2.752565883552832160e-01,-7.849848097647144085e-02,-8.260707198474540047e-02
1.161000000000000032e+00,2.399992754578636478e-01,-1.662870399233806473e-01,6.008874771122375835e-02
1.161999999999999922e+00,1.126984900271172235e-01,-2.142738934916015581e-01,1.576001983834955933e-01
1.163000000000000034e+00,-1.001459554242627031e-01,-1.606467481100218864e-01,1.902480837721011175e-01
1.163999999999999924e+00,-2.745684563229851549e-01,-2.449239757910096418e-02,1.128876511543651373e-01
1.165000000000000036e+00,-2.518104527522078140e-01,9.599279446856226472e-02,-1.335373669447576742e-03
1.165999999999999925e+00,-2.036454125637081614e-01,1.972469540320627157e-01,-7.189604868966061046e-02
1.167000000000000037e+00,8.771342210609534050e-04,2.434663673886488799e-01,-1.714488683130822866e-01
1.167999999999999927e+00,1.842640485886239410e-01,1.319524711459668376e-01,-1.610123228624149860e-01
1.169000000000000039e+00,2.910540135176934440e-01,-1.703753204445762615e-02,-7.677725902684014170e-02
1.169999999999999929e+00,2.666445240428926833e-01,-1.417995155748806302e-01,4.473384317938044336e-02
1.171000000000000041e+00,1.222130369776020242e-01,-2.134078505884024202e-01,1.459257100322536860e-01
1.171999999999999931e+00,-4.755959092234936930e-02,-2.155756537976150633e-01,1.571444665838253041e-01
1.173000000000000043e+00,-2.296753266658135839e-01,-2.274811311458130661e-02,1.535066562694143433e-01
1.173999999999999932e+00,-2.616751218898194509e-01,7.774861755962973742e-02,7.787381181711047762e-02
1.175000000000000044e+00,-2.234106864991911023e-01,1.845472603404686718e-01,-4.210945826170400808e-02
1.175999999999999934e+00,-4.134882377972122491e-02,2.379691086828736590e-01,-1.489084681428225476e-01
1.177000000000000046e+00,1.266119819131489854e-01,1.609690185706936782e-01,-1.611712456602866217e-01
1.177999999999999936e+00,2.676460479097276246e-01,3.481929857783423038e-02,-1.220475556246595622e-01
1.179000000000000048e+00,2.846634416280060531e-01,-1.657851346910999002e-01,-5.396811739194291857e-02
1.179999999999999938e+00,1.451271111426414850e-01,-1.926326669962240834e-01,4.095239729285218150e-02
