time,acc_x,acc_y,acc_z
0.000000000000000000e+00,-5.911965455133099123e-01,-3.779764438630885404e-01,-3.047895636754955340e-01
1.000000000000000021e-03,-3.749774808999392639e-01,-1.249371888187068014e-01,-3.461620974961364672e-01
2.000000000000000042e-03,-6.114694443982961018e-03,1.994598985818102910e-01,-1.789002323523489202e-01
3.000000000000000062e-03,2.784459635791126653e-01,3.350963414639578919e-01,3.765331728387157073e-02
4.000000000000000083e-03,2.981098138312065493e-01,2.768473160849914683e-01,1.366313234001474419e-01
5.000000000000000104e-03,1.500005089233246713e-01,4.145517321022468282e-02,8.989082691973190875e-02
6.000000000000000125e-03,-5.271783464008427539e-02,-3.958976229807288985e-03,-2.517418030973820123e-02
7.000000000000000146e-03,-1.741484554165898674e-02,6.569658148320099700e-02,-9.350787523806926294e-02
8.000000000000000167e-03,2.131636111334417605e-01,2.546112637366226283e-01,4.525340395848766184e-02
8.999999999999999320e-03,4.745025768367661101e-01,3.748049406506713810e-01,2.228948734375009177e-01
1.000000000000000021e-02,5.113539059406191356e-01,2.075174326495462795e-01,3.525666997380356160e-01
1.099999999999999936e-02,2.704691587486999227e-01,-6.439491197558935842e-02,3.008174367413403716e-01
1.200000000000000025e-02,-1.371358343502606381e-01,-3.443762259544281279e-01,9.574554634309948020e-02
1.299999999999999940e-02,-4.386114956962037237e-01,-4.233273482890506090e-01,-6.479398684933639074e-02
1.400000000000000029e-02,-3.741022237497695913e-01,-2.196523300262063771e-01,-2.205010493061396737e-01
1.499999999999999944e-02,-1.491731321349952233e-01,-5.910668271667265244e-02,-1.268720352107678417e-01
1.600000000000000033e-02,5.141562181290277450e-02,4.546717731325581463e-02,-2.112081282952282812e-02
1.700000000000000122e-02,-1.199589184586572974e-02,-9.907722714761268978e-02,7.607433750871876732e-02
1.799999999999999864e-02,-2.397783592590922441e-01,-2.707989292576487572e-01,-3.930559437644191162e-02
1.899999999999999953e-02,-4.301057059642892644e-01,-2.742052870634625328e-01,-2.219358737729080211e-01
2.000000000000000042e-02,-4.293808275349683679e-01,-8.707893481041203976e-02,-3.044604684815768181e-01
2.100000000000000130e-02,-7.545415622714009285e-02,2.286646695126314244e-01,-2.762668277634311997e-01
2.199999999999999872e-02,3.254782329672328278e-01,4.122746624207812016e-01,-3.569983473018225467e-02
2.299999999999999961e-02,5.152181001690854245e-01,4.049687061423918322e-01,1.769363999833357126e-01
2.400000000000000050e-02,3.757578205873872701e-01,1.682167352618445522e-01,2.757721330321543096e-01
2.500000000000000139e-02,1.095069222339672549e-01,-8.125348987241855225e-03,1.959784806873331731e-01
2.599999999999999881e-02,-8.614174898819396131e-02,-6.327547224758905964e-02,5.325352987587147341e-02
2.699999999999999969e-02,4.891882461630966267e-02,8.375365156017934576e-02,-3.206784355851550333e-02
2.800000000000000058e-02,2.570196188498437007e-01,2.417877539965054834e-01,6.753438677338299834e-02
2.900000000000000147e-02,4.225008480571878500e-01,1.746160729990967331e-01,2.291565840424206746e-01
2.999999999999999889e-02,2.836019067398039550e-01,-9.104972433998043124e-02,2.837862643333454726e-01
3.099999999999999978e-02,-1.043093997895438441e-01,-4.015170720896801271e-01,1.866202289839142547e-01
3.200000000000000067e-02,-4.474722198183532229e-01,-5.024387481756101836e-01,-4.909304688555092555e-02
3.300000000000000155e-02,-5.674599455193136688e-01,-3.462061673696630315e-01,-2.381255035068255421e-01
3.400000000000000244e-02,-3.695326414234220147e-01,-7.755371926988674502e-02,-3.182630111023949659e-01
3.500000000000000333e-02,-6.369377850913303385e-02,1.151732341777316759e-01,-1.618121228464363404e-01
3.599999999999999728e-02,5.399493888007800280e-02,6.648450335806016520e-02,-2.366139226232430448e-02
3.699999999999999817e-02,-4.049132164629134535e-03,-1.037441044698881737e-01,1.044420997575854285e-02
3.799999999999999906e-02,-2.080194072590700050e-01,-1.882429235235402731e-01,-5.655702596869639082e-02
3.899999999999999994e-02,-3.059875462263758061e-01,-5.639294079414212263e-02,-2.094412281319958102e-01
4.000000000000000083e-02,-1.091820772874808332e-01,2.154050247197669410e-01,-2.633082788742377445e-01
4.100000000000000172e-02,2.742041800145640917e-01,4.360844561874381298e-01,-8.279974921103777641e-02
4.200000000000000261e-02,5.543333158894521162e-01,4.172251338676175036e-01,1.298128021290279321e-01
4.299999999999999656e-02,5.942724627978324126e-01,1.806515112283411661e-01,2.872973830478806057e-01
4.399999999999999745e-02,2.967314439752674060e-01,-5.792809199018106314e-02,3.027750530607882240e-01
4.499999999999999833e-02,-2.072711194597177259e-02,-2.017502605327393117e-01,1.493036894109084634e-01
4.599999999999999922e-02,-1.507788640401078739e-01,-1.103821274286331672e-01,-5.375559473862786923e-03
4.700000000000000011e-02,-1.943358338591761117e-02,7.032097420989891212e-02,-2.689119075717960952e-02
4.800000000000000100e-02,1.908589993986113120e-01,9.872821520898932002e-02,6.335242238422791883e-02
4.900000000000000189e-02,2.076902163942013213e-01,-3.996568452171070374e-02,1.547870661548178262e-01
5.000000000000000278e-02,-6.753401151047326578e-02,-3.272030818250392104e-01,2.053345672990303239e-01
5.099999999999999672e-02,-4.023032924710596148e-01,-4.761164958675260794e-01,3.284891894758123349e-02
5.199999999999999761e-02,-5.929720325623756283e-01,-3.892751055250732173e-01,-1.821793543557483630e-01
5.299999999999999850e-02,-4.866921739460025598e-01,-7.056789079872295700e-02,-3.648543531417400843e-01
5.399999999999999939e-02,-1.952220818128880542e-01,1.583162146721403818e-01,-3.233405621673168251e-01
5.500000000000000028e-02,1.312759401048330388e-01,2.318711658312390678e-01,-1.538066665205192196e-01
5.600000000000000117e-02,2.380326555478292361e-01,1.083416663276878522e-01,3.303538258850805681e-02
5.700000000000000205e-02,8.416623565001900287e-02,-4.904899340111480710e-02,8.032708224524502671e-02
5.800000000000000294e-02,-1.114071131972128592e-01,-3.496082012902269193e-02,-8.826080895717434288e-03
5.899999999999999689e-02,-1.203527008896689149e-01,1.555791682738539849e-01,-9.042035317811765449e-02
5.999999999999999778e-02,1.556710377074943530e-01,3.797883556871274879e-01,-1.138446739986150730e-01
6.099999999999999867e-02,4.862138426108171818e-01,4.289385360316977924e-01,1.827835472366390671e-02
6.199999999999999956e-02,5.960762878920211616e-01,2.465340121096107895e-01,2.520994263776192845e-01
6.300000000000000044e-02,4.054901653472594569e-01,-7.879547414011681128e-02,3.685095579011068989e-01
6.400000000000000133e-02,1.844344852403826535e-02,-3.023516273378174524e-01,3.254584697058874321e-01
6.500000000000000222e-02,-2.685732617039232051e-01,-2.872478504253946907e-01,9.313933142393665543e-02
6.600000000000000311e-02,-3.308715441646453703e-01,-1.044259501511791977e-01,-9.417906861396073415e-02
6.700000000000000400e-02,-1.391799565987455745e-01,1.634330985275860709e-02,-1.229108421931241618e-01
6.800000000000000488e-02,8.271367701912722692e-02,-3.257084070656413727e-02,-3.034714827228914349e-02
6.900000000000000577e-02,1.436862224897195520e-02,-2.190572008850198704e-01,7.790260859281694650e-02
7.000000000000000666e-02,-2.298328504551833962e-01,-3.730824775260420667e-01,7.510633289515428190e-02
7.099999999999999367e-02,-5.128448064690536157e-01,-3.597538351453277161e-01,-9.059382057013955214e-02
7.199999999999999456e-02,-5.448703915913993834e-01,-8.275002796440465713e-02,-2.854982141031451870e-01
7.299999999999999545e-02,-2.253502417548114145e-01,2.691395014880537118e-01,-3.545777092921093554e-01
7.399999999999999634e-02,1.360038199710330575e-01,4.307554179153025298e-01,-2.181269464299452343e-01
7.499999999999999722e-02,3.898418309991662500e-01,3.045398032975620284e-01,-2.574904863824064791e-02
7.599999999999999811e-02,3.436725332816492062e-01,7.977114762384462932e-02,1.791430065534939109e-01
7.699999999999999900e-02,1.286357468179999408e-01,-2.640389970889557916e-02,1.907423183540148115e-01
7.799999999999999989e-02,-1.906049344564483480e-02,5.712881689498260085e-02,6.809364453648025783e-02
7.900000000000000078e-02,2.092072848339422697e-02,2.337093791162312972e-01,-5.788847702120317185e-02
8.000000000000000167e-02,2.750385005888201784e-01,3.241480226443724799e-01,-4.946536786327392077e-02
8.100000000000000255e-02,4.955297087091292130e-01,2.180906023058592491e-01,1.335607539644802499e-01
8.200000000000000344e-02,4.165299855810957186e-01,-1.143628421861451611e-01,2.776727710130703075e-01
8.300000000000000433e-02,9.340158451888400104e-02,-3.733305095365938575e-01,3.344794799171907917e-01
8.400000000000000522e-02,-3.013654975596660734e-01,-4.098554254843779221e-01,2.224551590426458725e-01
8.500000000000000611e-02,-4.740055456361728092e-01,-2.546921417488136052e-01,-3.511201429399218171e-02
8.599999999999999312e-02,-3.590034160959694742e-01,-1.772747315980333430e-02,-2.203164838048631280e-01
8.699999999999999400e-02,-1.286400279003703795e-01,4.871326764203504772e-02,-2.204811096300939577e-01
8.799999999999999489e-02,5.390040451118556508e-02,-7.510800009472011485e-02,-1.009542364337606274e-01
8.899999999999999578e-02,-2.774465003634682403e-02,-2.323025983306234998e-01,2.753343721242233755e-02
8.999999999999999667e-02,-2.862473146148599157e-01,-2.571522691179276010e-01,-2.417180070739133671e-02
9.099999999999999756e-02,-4.190299535462496117e-01,-3.599894126367343683e-02,-1.432758622612040345e-01
9.199999999999999845e-02,-3.220751814565502857e-01,2.361692461205890103e-01,-2.500064232017905619e-01
9.299999999999999933e-02,5.403513868805746856e-02,4.446276583872617039e-01,-2.723329582481883726e-01
9.400000000000000022e-02,4.297883017128756866e-01,4.015295267802702628e-01,-1.028406911429279313e-01
9.500000000000000111e-02,5.430931293659714276e-01,1.496178497136343710e-01,1.511561738142894462e-01
9.600000000000000200e-02,3.592990962746553940e-01,-6.103581514318822537e-02,2.792108040316492179e-01
9.700000000000000289e-02,4.474121107146683540e-02,-7.588185927928481345e-02,2.433196488520978640e-01
9.800000000000000377e-02,-9.275796861724934506e-02,4.737828351622223183e-02,1.134765115977734856e-01
9.900000000000000466e-02,2.543016007650414009e-02,2.064104748609325024e-01,5.077855484800899988e-03
1.000000000000000056e-01,2.742578222360758100e-01,1.573961335868618860e-01,-1.365647811239156144e-03
1.010000000000000064e-01,3.464464250851807536e-01,-1.045977507417725910e-01,1.210268599231571762e-01
1.019999999999999934e-01,1.104051540457617192e-01,-3.594644266417359457e-01,2.197750396172210574e-01
1.029999999999999943e-01,-2.541924586151746990e-01,-4.965666624844845001e-01,2.259311280679099920e-01
1.039999999999999952e-01,-5.525433659778645756e-01,-3.577797276491071488e-01,2.440268457337754077e-02
1.049999999999999961e-01,-5.334399163659350185e-01,-1.366662416634607975e-02,-1.974337196752058432e-01
1.059999999999999970e-01,-2.910015769437182542e-01,1.663648941335475473e-01,-3.190855460541536237e-01
1.069999999999999979e-01,1.355633904469440848e-02,1.124355660495180709e-01,-2.679247707107184628e-01
1.079999999999999988e-01,1.699890470614091320e-01,-1.975724801273571335e-02,-8.451592232643852232e-02
1.089999999999999997e-01,-2.389289404808945649e-03,-1.004647510548504485e-01,3.374054342520391159e-02
1.100000000000000006e-01,-2.208467436289197339e-01,-2.602806584143876542e-02,7.501057271168059572e-03
1.110000000000000014e-01,-2.162638010618266049e-01,2.116205736573117668e-01,-8.808616636028655800e-02
1.120000000000000023e-01,1.717898208517562239e-02,4.601234952021980851e-01,-2.019792605535981056e-01
1.130000000000000032e-01,4.049752503547673910e-01,4.714632892780072915e-01,-1.436873241849911664e-01
1.140000000000000041e-01,6.116249805662601347e-01,2.160598335054703389e-01,6.591030969053952859e-02
1.150000000000000050e-01,4.825619215178627575e-01,-8.383328212219155751e-02,2.680901022373282094e-01
1.160000000000000059e-01,1.774821330377017170e-01,-2.222996447346972382e-01,3.487472380928727800e-01
1.170000000000000068e-01,-9.532193837526627134e-02,-1.242037674602322755e-01,2.579082110371007097e-01
1.179999999999999938e-01,-2.235005793436067867e-01,-4.215166427625476921e-03,4.761911142341181818e-02
1.189999999999999947e-01,-4.274909965943415879e-02,1.036065895733799813e-01,-5.896837728887254632e-02
1.199999999999999956e-01,1.686527473539622402e-01,-5.927821984331205218e-02,-5.365720657432465623e-02
1.209999999999999964e-01,1.012464235563326348e-01,-2.731224639432107693e-01,8.844773608385661512e-02
1.219999999999999973e-01,-1.445932279302798995e-01,-4.715864563018595246e-01,1.774917519204396721e-01
1.229999999999999982e-01,-4.725577148593447241e-01,-3.549336576337746019e-01,9.259590745575060899e-02
1.239999999999999991e-01,-6.144221008962729158e-01,-5.321673591544136273e-02,-9.842199155429780244e-02
1.250000000000000000e-01,-4.188306699164698887e-01,2.641881286609477075e-01,-3.014965883242168299e-01
1.260000000000000009e-01,-3.509182336413337044e-02,3.031097252896527983e-01,-3.524434369535301981e-01
1.270000000000000018e-01,2.476301798193892290e-01,1.380582683585099835e-01,-2.370040452050856117e-01
1.280000000000000027e-01,2.284783376464304405e-01,-1.992250146199404243e-02,-1.459310066216314324e-02
1.290000000000000036e-01,9.239800800673353409e-02,-1.467505123146514712e-02,1.073607850220742455e-01
1.300000000000000044e-01,-9.332544264513807641e-02,1.463801959139080511e-01,1.131646340745127849e-01
1.310000000000000053e-01,-3.352528786337635736e-02,3.390869309939513188e-01,-5.469319756807516225e-02
1.320000000000000062e-01,2.416248271043634765e-01,3.987973873811846981e-01,-1.261644565258679407e-01
1.330000000000000071e-01,5.569274355485579475e-01,2.079395157304185504e-01,-3.341243736509548479e-02
1.340000000000000080e-01,5.663717019217225923e-01,-1.011044055405385250e-01,1.801267328777011734e-01
1.350000000000000089e-01,2.839208286255070490e-01,-3.257560670906768374e-01,3.256460552202095071e-01
1.360000000000000098e-01,-1.281735410911808981e-01,-3.352551789668221649e-01,3.467498226308391440e-01
1.370000000000000107e-01,-3.405311277892721367e-01,-1.304700442098816748e-01,2.046969939281398088e-01
1.380000000000000115e-01,-3.265524601943464722e-01,4.463560153408838572e-04,-3.361412545742187979e-02
1.390000000000000124e-01,-1.546142398743901025e-01,1.596114144756295358e-02,-1.543646881839229879e-01
1.400000000000000133e-01,7.852898035912991848e-02,-1.869176759480151995e-01,-1.146389408836444024e-01
1.409999999999999865e-01,-2.910093269127445037e-02,-3.481991091977524877e-01,2.543676429317823576e-02
1.419999999999999873e-01,-3.100018211440091487e-01,-2.935869285983218613e-01,4.692954450372475300e-02
1.429999999999999882e-01,-5.467125790155944465e-01,-5.042473309032734913e-02,-2.587440160870256578e-02
1.439999999999999891e-01,-4.174334326948936358e-01,2.712118712231542106e-01,-1.961219727376129762e-01
1.449999999999999900e-01,-9.904357568589754190e-02,4.150063929230319859e-01,-3.275853657234280014e-01
1.459999999999999909e-01,2.536771219223397655e-01,3.213059858635172739e-01,-2.963979894821306416e-01
1.469999999999999918e-01,4.513217004225341111e-01,7.696685941572860290e-02,-9.261358821141076059e-02
1.479999999999999927e-01,3.217404978918299019e-01,-7.587334696348772833e-02,1.400575489256404293e-01
1.489999999999999936e-01,1.117598796789855270e-01,2.875955622522647151e-02,2.217390663260261907e-01
1.499999999999999944e-01,-5.355678151824107280e-02,1.966923215687663984e-01,2.033975451528011180e-01
1.509999999999999953e-01,1.042021690702849973e-01,3.144185031083612247e-01,3.636624808174424711e-02
1.519999999999999962e-01,3.223931538623446280e-01,1.704171442451000440e-01,-3.958403085933000221e-02
1.529999999999999971e-01,4.403186084886330232e-01,-1.551783197452107355e-01,6.137881497006499043e-02
1.539999999999999980e-01,2.766985510546877691e-01,-3.681039469560912214e-01,2.179113104437757908e-01
1.549999999999999989e-01,-7.357266551671391708e-02,-4.112691717931681867e-01,3.028521937383284457e-01
1.559999999999999998e-01,-4.134863369071859474e-01,-2.582245818720822483e-01,2.922563290956782800e-01
1.570000000000000007e-01,-5.347259817988510022e-01,-2.134450100115990734e-02,4.542737991880027582e-02
1.580000000000000016e-01,-3.077175869210722614e-01,6.979533827461445461e-02,-1.859283073970392774e-01
1.590000000000000024e-01,-5.519152352153726404e-02,1.071524972642048934e-02,-2.787055911515933238e-01
1.600000000000000033e-01,6.590710566925171709e-02,-1.852219640333296613e-01,-1.849012471930671087e-01
1.610000000000000042e-01,-8.522992964894841872e-02,-2.095912555275852018e-01,-4.823046375959152282e-02
1.620000000000000051e-01,-3.129374587827609133e-01,-6.984861217390770510e-03,5.273456654906321511e-02
1.630000000000000060e-01,-3.473004625023745628e-01,2.613429157440294026e-01,-5.724162274949397972e-02
1.640000000000000069e-01,-1.759696402415631411e-01,5.093853568504584928e-01,-1.948385719033561281e-01
1.650000000000000078e-01,2.306172552753689153e-01,4.128755790768843803e-01,-3.030048641116698249e-01
1.660000000000000087e-01,5.347186247751407606e-01,1.614131678483837207e-01,-2.038572326471093377e-01
1.670000000000000095e-01,5.588206154675141590e-01,-7.590977633486602205e-02,4.347843298827150371e-02
1.680000000000000104e-01,2.612397022036554994e-01,-1.342900871566415077e-01,2.440631427250169461e-01
1.690000000000000113e-01,-4.620760851691166175e-03,-6.577640371068380065e-03,3.166205214303149384e-01
1.700000000000000122e-01,-8.739303497613110094e-02,1.267830419204549197e-01,1.884165276265021283e-01
1.710000000000000131e-01,5.178456516117140029e-02,1.047244555448966913e-01,5.190202310719543161e-02
1.719999999999999862e-01,2.395742704603625872e-01,-1.184425649248034562e-01,-5.983222813155791853e-02
1.729999999999999871e-01,2.472989356795170790e-01,-3.541161103034063395e-01,5.679816139653021817e-02
1.739999999999999880e-01,1.114476127193809183e-03,-4.710708442259874951e-01,1.850975798188139732e-01
1.749999999999999889e-01,-3.850675151791365658e-01,-3.070319557073767913e-01,2.370851791885456861e-01
1.759999999999999898e-01,-5.991026451113301565e-01,-5.436789486315703190e-02,1.124192204718979932e-01
1.769999999999999907e-01,-5.072558008116117012e-01,1.829527035833395932e-01,-1.513499283637012860e-01
1.779999999999999916e-01,-1.838008102792587917e-01,1.902068885219731775e-01,-2.995784575910289127e-01
1.789999999999999925e-01,1.205955130151485366e-01,4.569581849534033735e-02,-3.534420939966140263e-01
1.799999999999999933e-01,1.560199756183535680e-01,-8.584064371440597307e-02,-1.644228241442212135e-01
1.809999999999999942e-01,-2.155357124462254498e-02,-3.348436066334371103e-02,-7.344162368404570304e-03
1.819999999999999951e-01,-1.594209157280031819e-01,2.253311634809397057e-01,6.813135233631563425e-02
1.829999999999999960e-01,-1.438842771779888230e-01,4.417739436624357197e-01,-1.958924005100745255e-02
1.839999999999999969e-01,1.484555905571013634e-01,3.969319113458660286e-01,-1.669868855465924395e-01
1.849999999999999978e-01,4.918653815041202915e-01,1.856642559769776379e-01,-1.880335784400843646e-01
1.859999999999999987e-01,5.802380638292776727e-01,-1.448650118756274474e-01,-1.819347126811638599e-02
1.869999999999999996e-01,4.112342944455901206e-01,-2.739061437241200325e-01,1.929066854366551509e-01
1.880000000000000004e-01,5.181566055595968751e-02,-2.261376157258926101e-01,3.511821428666345168e-01
1.890000000000000013e-01,-2.485140540004516785e-01,-4.651433749384704941e-02,3.028312109701883914e-01
1.900000000000000022e-01,-1.821494858936838490e-01,5.797708071014665010e-02,1.389147739467282983e-01
1.910000000000000031e-01,-2.240607352193834875e-02,-6.203836112932969993e-02,-3.074016665948898011e-02
1.920000000000000040e-01,1.313516948451055599e-01,-2.863383275694449948e-01,-8.245960087452774978e-02
1.930000000000000049e-01,5.967146402516828457e-02,-4.372901734021948372e-01,-2.084363068440002117e-02
1.940000000000000058e-01,-2.604476926485019272e-01,-3.352325237622353349e-01,1.194225353065196255e-01
1.950000000000000067e-01,-5.364284282576686769e-01,-3.359293413221781099e-02,1.029557024688684819e-01
1.960000000000000075e-01,-5.666234917320096542e-01,2.596814976040589529e-01,-4.314349434930057903e-02
1.970000000000000084e-01,-2.791592020655763173e-01,3.550272942777487062e-01,-2.567944730099347428e-01
1.980000000000000093e-01,1.332534626839050607e-01,2.006492950428409305e-01,-3.925064958750928978e-01
1.990000000000000102e-01,3.217642682999715675e-01,-9.218842539374058967e-03,-2.998484451371902781e-01
2.000000000000000111e-01,3.001904118002619581e-01,-3.687995693445554612e-02,-8.068256695203160356e-02
2.010000000000000120e-01,4.177533819370839174e-02,1.211156281351453284e-01,1.009743844967034287e-01
2.020000000000000129e-01,-4.433997867568156837e-02,3.375977294402139339e-01,1.503491912123475771e-01
2.030000000000000138e-01,6.413759821956746543e-02,3.496338245013747570e-01,3.217948120527934497e-02
2.039999999999999869e-01,3.437642747449302649e-01,1.475574526652450869e-01,-3.264161984600522787e-02
2.049999999999999878e-01,5.237442779051550978e-01,-1.804082420597232783e-01,-6.256139713913538847e-02
2.059999999999999887e-01,4.821764193675874832e-01,-3.913709457957690319e-01,1.015163295116137260e-01
2.069999999999999896e-01,1.296122550946783025e-01,-3.627183542653065751e-01,2.627713342389881301e-01
2.079999999999999905e-01,-2.485300259800255762e-01,-1.350169140180483562e-01,3.363945888867447276e-01
2.089999999999999913e-01,-4.302180169007360222e-01,2.979462794399807650e-03,2.422997047458746167e-01
2.099999999999999922e-01,-3.080812172562400475e-01,8.979898179001593109e-03,4.161532056339990737e-02
2.109999999999999931e-01,-4.819987102487497538e-02,-1.518380845055992412e-01,-1.509655105507969886e-01
2.119999999999999940e-01,5.021764137946338469e-02,-2.993062486548594969e-01,-1.828455622413257542e-01
2.129999999999999949e-01,-9.243603055784470335e-02,-2.451698872659713591e-01,-8.039482498212346950e-02
2.139999999999999958e-01,-3.756747558610951110e-01,-2.156943861892112943e-03,1.712276974547451494e-02
2.149999999999999967e-01,-4.805982447000816116e-01,2.765958374604590153e-01,3.489051667836471499e-02
2.159999999999999976e-01,-3.004435417461748803e-01,4.260788330138245428e-01,-1.159276132206420729e-01
2.169999999999999984e-01,5.476595091618195049e-02,3.423537205644427428e-01,-2.753129884103877600e-01
2.179999999999999993e-01,4.032185742205673384e-01,4.987414103581575692e-02,-3.374498380131327191e-01
2.190000000000000002e-01,5.006774158425031374e-01,-5.322322573840485710e-02,-1.832455528246274556e-01
2.200000000000000011e-01,2.891825892423715572e-01,-4.711934869201508946e-02,4.310769463425589282e-02
2.210000000000000020e-01,5.468234236879553067e-02,1.305921536030837937e-01,2.444301793451313654e-01
2.220000000000000029e-01,-2.159973731615259795e-02,2.786191789674646313e-01,2.391345269484478619e-01
2.230000000000000038e-01,9.394815481365291487e-02,1.064640498961755416e-01,1.057924433637797285e-01
2.240000000000000047e-01,3.391387929670958146e-01,-1.391140434914700241e-01,-1.255730292823757817e-02
2.250000000000000056e-01,3.960201984599480696e-01,-4.331931650323028737e-01,-1.149559824865462737e-02
2.260000000000000064e-01,1.664343475039995468e-01,-4.530242642294483035e-01,1.382807838845128701e-01
2.270000000000000073e-01,-2.462815905853883436e-01,-2.704432973728364553e-01,2.725973363016147011e-01
2.280000000000000082e-01,-5.166835851293725135e-01,-1.447626472831054639e-02,2.775800369254077804e-01
2.290000000000000091e-01,-5.400950879579178299e-01,9.795198627940189529e-02,1.017325252288716203e-01
2.300000000000000100e-01,-2.776665077680184335e-01,3.310332047803762195e-02,-1.341014499864373877e-01
2.310000000000000109e-01,-1.241388080946999317e-02,-1.243274299438657943e-01,-2.776989102302746537e-01
2.320000000000000118e-01,1.014062880200251593e-01,-1.521811669569082259e-01,-2.911593999423651713e-01
2.330000000000000127e-01,-7.860152079530766112e-02,1.621544067783198479e-03,-9.027234628121616478e-02
2.340000000000000135e-01,-2.827119996079802133e-01,2.928464040096817600e-01,6.210685841645269614e-03
2.349999999999999867e-01,-2.820216041627486292e-01,4.926121069749114789e-01,7.254173461688886819e-03
2.359999999999999876e-01,4.302659366763571247e-03,4.060362070183806127e-01,-1.298492720369334164e-01
2.369999999999999885e-01,3.653127141438672343e-01,1.246802173132935398e-01,-2.612707509866025735e-01
2.379999999999999893e-01,5.764303302437813192e-01,-1.399787355822116330e-01,-1.923831766009596322e-01
2.389999999999999902e-01,4.791934432471721683e-01,-1.792366099617754283e-01,-1.735870183370222600e-02
2.399999999999999911e-01,1.615215846152969481e-01,-2.328110258743201072e-02,1.947138566433188611e-01
2.409999999999999920e-01,-7.536596601734982248e-02,9.337821331566613370e-02,3.022934925623630975e-01
2.419999999999999929e-01,-9.168421654053948711e-02,1.010912193929460190e-01,2.867528340943383824e-01
2.429999999999999938e-01,9.589421632726401190e-02,-1.510278053878426618e-01,1.099388459323362294e-01
2.439999999999999947e-01,2.178759762966208102e-01,-4.051914230841169862e-01,-6.376535426565500819e-02
2.449999999999999956e-01,2.031383360080239175e-01,-4.547734643734461235e-01,-7.640673280529113563e-03
2.459999999999999964e-01,-1.124574403428609398e-01,-3.065586463122120242e-01,9.032229375641148694e-02
2.469999999999999973e-01,-4.665541528301068164e-01,-1.964542724905996018e-02,2.125229637185205855e-01
2.479999999999999982e-01,-6.089308276205492865e-01,2.162660398340091605e-01,1.601254508951027444e-01
2.489999999999999991e-01,-4.280755833205937000e-01,2.274373453823971547e-01,-4.739170251380016990e-02
2.500000000000000000e-01,-4.616143453811140385e-02,4.533924831850216081e-02,-2.921881491839025125e-01
2.510000000000000009e-01,2.084274988263426498e-01,-5.938610121607595244e-02,-3.241737427081526901e-01
2.520000000000000018e-01,1.523762055069464161e-01,-8.014039131962802376e-03,-2.551638995962834389e-01
2.530000000000000027e-01,5.912151198875235762e-03,2.122828487209129089e-01,-7.525906032615871377e-02
2.540000000000000036e-01,-1.472720694186027968e-01,4.563711198319219675e-01,5.899419366923459862e-02
2.550000000000000044e-01,-5.907422769729288314e-02,3.883201231735293746e-01,2.655271826590018674e-02
2.560000000000000053e-01,2.889668688955366882e-01,1.680694263421062262e-01,-3.756422243833971997e-02
2.570000000000000062e-01,5.414120705036102876e-01,-1.449164145149547944e-01,-1.417775817061661947e-01
2.580000000000000071e-01,5.658516522662955239e-01,-3.262974489814698398e-01,-9.425294883686177738e-02
2.590000000000000080e-01,3.397879650957189579e-01,-2.437064956804339821e-01,1.230898763961468245e-01
2.600000000000000089e-01,-6.259046961904066175e-02,-7.887009412742292114e-02,2.971694538156440801e-01
2.610000000000000098e-01,-2.890866609182654590e-01,3.681608288438056875e-02,3.341142485181934907e-01
2.620000000000000107e-01,-2.154108906337054985e-01,-3.910055163547068030e-02,2.173502775232511730e-01
2.630000000000000115e-01,2.130040226784338415e-03,-3.068325266543017737e-01,1.577775790642065024e-02
2.640000000000000124e-01,1.180245928305633102e-01,-4.016018616760218540e-01,-1.131960826942452619e-01
2.650000000000000133e-01,-5.492069279052993330e-02,-2.800001835995482580e-01,-9.314381454638807900e-02
2.660000000000000142e-01,-3.322427500460377048e-01,3.388162411008890929e-02,2.038551617773431621e-02
2.670000000000000151e-01,-5.433499129785254178e-01,3.199162414207264438e-01,1.040689055078550945e-01
2.680000000000000160e-01,-5.082893193975297486e-01,3.693491683683331472e-01,3.752103607750521819e-02
2.690000000000000169e-01,-1.256125013708543625e-01,2.095160174393853880e-01,-1.443660359937845028e-01
2.700000000000000178e-01,2.348645631077590501e-01,5.019685730825231007e-02,-3.248745247607114361e-01
2.710000000000000187e-01,4.125868179700725724e-01,-3.358276130617516425e-02,-3.628157097915901685e-01
2.720000000000000195e-01,2.686874360218201030e-01,1.211277231898695433e-01,-1.720709821686838559e-01
2.730000000000000204e-01,4.336977969114404197e-02,2.983743845664653116e-01,4.165366735914691892e-02
2.740000000000000213e-01,-5.359449227144254951e-02,3.254508626120717896e-01,1.760787352127023142e-01
2.750000000000000222e-01,1.043435150121283933e-01,1.286359704778379798e-01,1.312894764252150459e-01
2.760000000000000231e-01,3.835081089672964239e-01,-1.789284188782667151e-01,1.074980973099855155e-03
2.770000000000000240e-01,5.097621654307659123e-01,-4.038401869016269297e-01,-5.543818934150909067e-02
2.780000000000000249e-01,3.524396367288896714e-01,-4.047644048796708582e-01,-9.362270940828670840e-03
2.790000000000000258e-01,-4.668763760179189815e-02,-1.558200494877660935e-01,1.763280769238130263e-01
2.800000000000000266e-01,-3.809419002535863186e-01,2.901778778703359082e-02,3.458508436336760195e-01
2.810000000000000275e-01,-4.237940625380663406e-01,3.789935710801348168e-02,2.931001532296008127e-01
2.819999999999999729e-01,-2.967710743597756218e-01,-1.102229875061494779e-01,1.137777157154122726e-01
2.829999999999999738e-01,-4.440363414146952098e-02,-3.007831609081981772e-01,-1.166636769365846787e-01
2.839999999999999747e-01,2.939306613736865706e-02,-2.105422750070811699e-01,-2.286086617687768108e-01
2.849999999999999756e-01,-1.554094777461768329e-01,4.114852368527258109e-02,-1.339889481303893626e-01
2.859999999999999765e-01,-3.640176092943887554e-01,3.643176965115046961e-01,-2.777886596781902959e-02
2.869999999999999774e-01,-4.118840438533108439e-01,4.494952603126625701e-01,3.676338830014273806e-02
2.879999999999999782e-01,-1.739308973895231647e-01,3.343284920685042905e-01,-5.313386927411758998e-02
2.889999999999999791e-01,2.069897650450528981e-01,9.187796731481349954e-02,-2.130768094743653029e-01
2.899999999999999800e-01,4.902864320367339990e-01,-7.588287214705073669e-02,-3.429158746135218538e-01
2.909999999999999809e-01,4.891862527213341472e-01,-4.812480432913678052e-02,-2.581387809175748060e-01
2.919999999999999818e-01,2.439583513505783896e-01,9.723181821400982139e-02,-3.900275579544641019e-02
2.929999999999999827e-01,-1.718903763456869349e-02,2.195659485948829037e-01,2.288896581363451532e-01
2.939999999999999836e-01,-3.632131109800749297e-02,6.440519529907513807e-02,2.692700176957785740e-01
2.949999999999999845e-01,1.552751041729965031e-01,-1.881497460042324543e-01,1.914331756111471161e-01
2.959999999999999853e-01,3.516954644917303363e-01,-4.567675583849723497e-01,7.524434465355081536e-02
2.969999999999999862e-01,3.121932067876410644e-01,-4.764676635529667137e-01,2.836849990679267148e-03
2.979999999999999871e-01,-7.602181652927042683e-03,-2.575762415333308630e-01,4.841968700319360802e-02
2.989999999999999880e-01,-4.078130021397694538e-01,8.262161808174543418e-03,1.961915663584720138e-01
2.999999999999999889e-01,-5.851835245827009535e-01,1.339650731561754793e-01,2.813902592789015999e-01
3.009999999999999898e-01,-4.696964743356865091e-01,7.776109318003569804e-02,1.477375133981804756e-01
3.019999999999999907e-01,-1.875595725797969682e-01,-1.091588782072868136e-01,-5.726125290408717872e-02
3.029999999999999916e-01,6.515873296624100086e-02,-1.413913483539607219e-01,-2.595451110757916457e-01
3.039999999999999925e-01,8.867330887586342969e-02,6.880658129265491973e-02,-3.358351032852643914e-01
3.049999999999999933e-01,-1.150450506207340018e-01,3.300382168962320839e-01,-1.920093040620694802e-01
3.059999999999999942e-01,-2.680565018025762303e-01,4.828034308638459726e-01,-7.853536034971406177e-02
3.069999999999999951e-01,-2.050992259855819455e-01,3.946002155802100786e-01,1.126235247891740725e-02
3.079999999999999960e-01,1.382012420276280962e-01,1.250984358056937973e-01,-6.248874233540263612e-02
3.089999999999999969e-01,4.723028612488338607e-01,-1.474841344186396119e-01,-1.476854224792764625e-01
3.099999999999999978e-01,6.000107490477686323e-01,-2.186284767670833296e-01,-2.120661137298502641e-01
3.109999999999999987e-01,4.253522104635915069e-01,-1.008718838744558088e-01,-8.370482637767187595e-02
3.119999999999999996e-01,3.201311344359773076e-02,7.552212087335775925e-02,1.402902821409573175e-01
3.130000000000000004e-01,-1.707259337535849963e-01,4.267705553932864271e-02,3.171654306990140948e-01
3.140000000000000013e-01,-1.287686301031579494e-01,-1.299161127750748934e-01,3.298328043566211010e-01
3.150000000000000022e-01,4.758657996258400247e-02,-3.671763087378162593e-01,1.818358294920162099e-01
3.160000000000000031e-01,2.117223477823859668e-01,-4.856202236073806078e-01,-1.494049015309681372e-02
3.170000000000000040e-01,5.246063010657020520e-02,-2.847413545205504382e-01,-6.709180672363374009e-02
3.180000000000000049e-01,-2.733850809224812051e-01,2.621904265243596086e-02,1.764923667857202713e-02
3.190000000000000058e-01,-5.519524527304274786e-01,2.448973601989495041e-01,1.221307146499053392e-01
3.200000000000000067e-01,-6.212514858898646741e-01,2.465589328812414216e-01,1.475396254618175085e-01
3.210000000000000075e-01,-2.858102799472683198e-01,9.959313670700660481e-02,5.306773267341403227e-02
3.220000000000000084e-01,7.353152854259535631e-02,-4.615677569928282320e-02,-1.824478677260710224e-01
3.230000000000000093e-01,2.734008619239446380e-01,-1.247497035973345368e-03,-3.564082931960853573e-01
3.240000000000000102e-01,1.680057262368934989e-01,2.353689512608403422e-01,-3.299555011258921144e-01
3.250000000000000111e-01,-4.408214841910444715e-02,3.989921774452367398e-01,-1.310698079900966539e-01
3.260000000000000120e-01,-1.396096686830295419e-01,3.767982394309625227e-01,2.537998312180746174e-02
3.270000000000000129e-01,4.103397466070079352e-02,1.367129678300100515e-01,7.328059039532866525e-02
3.280000000000000138e-01,3.799370626481755053e-01,-2.390566596759357287e-01,3.103792612583498173e-02
3.290000000000000147e-01,5.755139246655939234e-01,-3.662997374755909696e-01,-7.814423448791125992e-02
3.300000000000000155e-01,4.818220535314717279e-01,-2.761312377883753943e-01,-8.612885555405870586e-02
3.310000000000000164e-01,1.571432477538266537e-01,-9.433108685786104064e-02,2.599292806415671661e-02
3.320000000000000173e-01,-2.119571279255133278e-01,4.799752467274677470e-02,2.566275040495601401e-01
3.330000000000000182e-01,-3.455345020625797403e-01,-3.547144073079050441e-02,3.716124643533769700e-01
3.340000000000000191e-01,-2.665288064713252081e-01,-2.407513846229243915e-01,3.092455658837020005e-01
3.350000000000000200e-01,1.033767808871721532e-02,-3.686396566383539075e-01,6.576333659818141275e-02
3.360000000000000209e-01,3.178845770730884951e-02,-2.620189026243345265e-01,-1.423292998166100221e-01
3.370000000000000218e-01,-1.115300691260375371e-01,3.003645252795564269e-02,-1.680693457214786357e-01
3.380000000000000226e-01,-4.191800051810773420e-01,3.532777373217985128e-01,-4.433251656823758435e-02
3.390000000000000235e-01,-5.377867490131560402e-01,3.919502459888717927e-01,5.068602834983509942e-02
3.400000000000000244e-01,-3.533336075033562396e-01,2.688504496790510845e-01,8.064649627738847137e-02
3.410000000000000253e-01,6.539710082608087005e-02,3.450923166574319106e-02,-7.905124244184508209e-02
3.420000000000000262e-01,3.827205883846540035e-01,-2.475988314752170308e-02,-2.566358265190846755e-01
3.430000000000000271e-01,4.443344616672599834e-01,1.063704383562866645e-01,-3.635514810060687663e-01
3.439999999999999725e-01,2.214451971597741486e-01,2.730376720457226569e-01,-2.640504110506142199e-01
3.449999999999999734e-01,-1.182990389055528675e-02,3.118522216908838907e-01,-5.955581626311854532e-02
3.459999999999999742e-01,-3.853547105249421206e-02,6.836818051585588640e-02,1.682395465127187462e-01
3.469999999999999751e-01,1.669412113105505913e-01,-2.024755632695641183e-01,2.196499860231890811e-01
3.479999999999999760e-01,4.059947986545234255e-01,-4.520641058045294369e-01,8.784883616347839708e-02
3.489999999999999769e-01,4.558931669820409094e-01,-4.135638992395668234e-01,-2.333340142520069771e-02
3.499999999999999778e-01,2.268697859100026193e-01,-1.784042568781425142e-01,-3.845612749208875050e-03
3.509999999999999787e-01,-1.902007978326880899e-01,4.991557300724693003e-02,8.885503130710058206e-02
3.519999999999999796e-01,-4.732990401447064732e-01,6.631614915451580772e-02,2.404252150150448797e-01
3.529999999999999805e-01,-5.228608432143475593e-01,-7.222815726709561068e-02,3.037161485322725230e-01
3.539999999999999813e-01,-2.273881561520631478e-01,-2.588584583312295018e-01,1.461804616626465325e-01
3.549999999999999822e-01,2.359546444796694481e-02,-1.524375866244038480e-01,-8.447720282767542943e-02
3.559999999999999831e-01,1.638450934725166688e-02,2.339354380561827276e-02,-2.159002371983652635e-01
3.569999999999999840e-01,-1.901477610237721494e-01,3.660773562346792409e-01,-2.059589174482528151e-01
3.579999999999999849e-01,-3.387166931399653858e-01,4.769563906820183941e-01,-1.067246327580923665e-01
3.589999999999999858e-01,-3.258343355666079022e-01,3.631636367743240057e-01,-2.246943665698242221e-02
3.599999999999999867e-01,-8.009743462242643192e-03,7.880835930339163964e-02,-1.895677812502761725e-02
3.609999999999999876e-01,3.406513542110361503e-01,-9.780163308333836292e-02,-1.170857608218473789e-01
3.619999999999999885e-01,6.011790833861491157e-01,-1.078416674461951386e-01,-3.002832158093021175e-01
3.629999999999999893e-01,4.703480988177293209e-01,5.701735973883900743e-02,-2.688364877312728329e-01
3.639999999999999902e-01,1.859661043935842695e-01,1.478882996452512977e-01,-8.742363971021951952e-02
3.649999999999999911e-01,-9.439954483307198829e-02,5.913028206913985979e-02,1.325477321546855158e-01
3.659999999999999920e-01,-5.722601196750631142e-02,-1.906795193078927031e-01,2.867213890269568188e-01
3.669999999999999929e-01,1.322564370763334995e-01,-4.560821336380678770e-01,2.822622674821975153e-01
3.679999999999999938e-01,3.165564152314369606e-01,-4.881300778215638125e-01,1.203241806120531054e-01
3.689999999999999947e-01,2.005654583240234212e-01,-2.255887911426689152e-01,-4.188953381440409240e-02
3.699999999999999956e-01,-1.688078136924872907e-01,-2.385431711194525503e-03,-2.179715454599961272e-02
3.709999999999999964e-01,-4.920080337542093174e-01,1.961421187417101974e-01,1.097978589782693665e-01
3.719999999999999973e-01,-6.240086462480977092e-01,1.481794530765369600e-01,2.244170283620482709e-01
3.729999999999999982e-01,-3.777797649061691021e-01,-4.941044957463987947e-02,2.004058298840674934e-01
3.739999999999999991e-01,-6.477839037842736403e-02,-1.108060326916527061e-01,-1.235247116550127443e-02
3.750000000000000000e-01,1.463143890493571742e-01,1.792944218774830331e-02,-2.076824683253881976e-01
3.760000000000000009e-01,9.583306433120557244e-02,3.105886337511358231e-01,-3.106384553115933422e-01
3.770000000000000018e-01,-1.393952336044984586e-01,4.927468143280077650e-01,-2.929641300231434209e-01
3.780000000000000027e-01,-2.337743509841027634e-01,3.638345066557858720e-01,-1.046747589262336381e-01
3.790000000000000036e-01,-6.579171951471061985e-02,1.011880969101404543e-01,4.074195023667719073e-02
3.800000000000000044e-01,2.707323272239438583e-01,-1.939629838149524443e-01,2.195941431414808256e-02
3.810000000000000053e-01,5.585473640149973829e-01,-2.877957367787312704e-01,-8.928838342143616269e-02
3.820000000000000062e-01,5.679218033851440861e-01,-1.688469910113881145e-01,-1.801376898382875402e-01
3.830000000000000071e-01,2.732562081487284744e-01,3.653813450079900112e-03,-1.221003235611897164e-01
3.840000000000000080e-01,-6.173684885584799359e-02,5.112890673907898031e-02,3.737111320681560378e-02
3.850000000000000089e-01,-2.279673121867224761e-01,-1.430391172506768616e-01,2.386804166007306938e-01
3.860000000000000098e-01,-1.349553965582146464e-01,-3.679347484246530686e-01,3.675432157218532780e-01
3.870000000000000107e-01,8.964990205544821900e-02,-4.432985977334514271e-01,2.497540067886501181e-01
3.880000000000000115e-01,1.169710201457875992e-01,-2.520303205179376116e-01,7.338898166634023890e-02
3.890000000000000124e-01,-6.378090887925651209e-02,6.588697447617583580e-02,-5.583409988691343667e-02
3.900000000000000133e-01,-3.776715398234327670e-01,2.702480589643281306e-01,-5.026297640566456532e-02
3.910000000000000142e-01,-6.047978291758558944e-01,3.213761139939029232e-01,3.078900804165420751e-02
3.920000000000000151e-01,-4.747409272362351218e-01,1.590915540128972072e-01,1.446350892310303560e-01
3.930000000000000160e-01,-1.307920478297986966e-01,-2.705399932186141471e-02,8.560366272601999116e-02
3.940000000000000169e-01,1.838160596277566006e-01,2.131658449353040358e-02,-1.216057394027189043e-01
3.950000000000000178e-01,3.297107755664216988e-01,1.727873506125745251e-01,-3.280399870818799246e-01
3.960000000000000187e-01,1.917412907149778356e-01,3.901965176118409873e-01,-3.498032562693881298e-01
3.970000000000000195e-01,-2.522802186456848256e-02,3.241209497339573309e-01,-2.378619762733163445e-01
3.980000000000000204e-01,-6.603697710257254438e-02,1.017561414915859053e-01,-5.416472183969889970e-04
3.990000000000000213e-01,1.495832731322065956e-01,-2.400367632598329748e-01,1.211966668086968540e-01
4.000000000000000222e-01,4.585355899134636593e-01,-4.074872376859520196e-01,1.107954277607480359e-01
4.010000000000000231e-01,5.882992719630936174e-01,-3.335114164965677364e-01,3.784668139038891224e-03
4.020000000000000240e-01,3.717080628902944550e-01,-7.495389437693630863e-02,-9.034876300231341195e-02
4.030000000000000249e-01,-2.063693273063863659e-02,4.455165449495757796e-02,-5.803954454313332151e-02
4.040000000000000258e-01,-3.078426493156187771e-01,-2.555542567587560515e-02,1.612912752693690388e-01
4.050000000000000266e-01,-3.901526875836471842e-01,-2.112910030567823894e-01,3.389120133475396202e-01
4.060000000000000275e-01,-1.852061277650959292e-01,-3.134355560102122795e-01,3.487271237145962988e-01
4.069999999999999729e-01,1.365671565743682963e-03,-1.919443946169373805e-01,1.653435643548682721e-01
4.079999999999999738e-01,-5.945971862058747719e-03,1.058110567961632054e-01,-6.148729559890589447e-02
4.089999999999999747e-01,-2.023863406825350264e-01,3.776042711744333480e-01,-1.769745460551730432e-01
4.099999999999999756e-01,-4.214876238949800125e-01,4.400029037645639129e-01,-1.474732585149324537e-01
4.109999999999999765e-01,-4.446550031798660041e-01,2.685686528826075614e-01,-3.799257309790977227e-02
4.119999999999999774e-01,-2.185088074631853228e-01,4.256794622366813496e-02,4.819702094457265634e-02
4.129999999999999782e-01,1.998920096372095168e-01,-4.169010604483700672e-02,5.519192563825037895e-03
4.139999999999999791e-01,4.773289930146370486e-01,-1.623215986562456846e-03,-2.151215045437244733e-01
4.149999999999999800e-01,4.147164086104708769e-01,2.100671330887786126e-01,-3.310959992833674148e-01
4.159999999999999809e-01,1.935391602063106509e-01,2.460356016034254412e-01,-2.774711667958845718e-01
4.169999999999999818e-01,-3.210105450210928857e-02,6.825843844277455774e-02,-1.043541503245122154e-01
4.179999999999999827e-01,-3.590209712190891439e-02,-2.887989958403437418e-01,1.351105457988739100e-01
4.189999999999999836e-01,1.949402258798388632e-01,-4.632413480604798961e-01,2.509585728049626430e-01
4.199999999999999845e-01,4.094466635928764031e-01,-4.291890075829223883e-01,2.004774367897226572e-01
4.209999999999999853e-01,3.746165629241345330e-01,-1.842532265243714551e-01,3.641048236491493950e-02
4.219999999999999862e-01,2.626903978449169827e-02,5.619690314636020118e-02,-2.662805325296973766e-02
4.229999999999999871e-01,-3.475983076591073750e-01,1.294999755134897679e-01,3.773978091149159803e-02
4.239999999999999880e-01,-5.322868164365437416e-01,-3.757048239029616571e-02,1.878815269315990688e-01
4.249999999999999889e-01,-4.334196734294080144e-01,-1.785522874433516649e-01,2.954469283871897778e-01
4.259999999999999898e-01,-1.277842671373556893e-01,-1.506205702435467475e-01,2.563355005384738705e-01
4.269999999999999907e-01,6.844278022305491649e-02,8.633955315616090309e-02,5.487992606629555487e-02
4.279999999999999916e-01,1.392440039011225324e-02,3.870313792689187848e-01,-1.859213351649647850e-01
4.289999999999999925e-01,-1.963216777104753175e-01,4.770741185322376343e-01,-2.613303328158363414e-01
4.299999999999999933e-01,-3.455037133618020229e-01,3.789508929412810367e-01,-2.046999220859488655e-01
4.309999999999999942e-01,-2.233338515413683112e-01,7.446097275740827526e-02,-3.262533341506448220e-02
4.319999999999999951e-01,1.364092965324758266e-01,-1.349139809596359707e-01,5.371839920812354618e-02
4.329999999999999960e-01,4.987437326374776214e-01,-1.086371987127586897e-01,-5.361590598407033059e-02
4.339999999999999969e-01,5.800109768300025781e-01,1.339961837580785561e-02,-1.615837371080935392e-01
4.349999999999999978e-01,3.774268191214796286e-01,1.123130441693200587e-01,-2.502898506774604015e-01
4.359999999999999987e-01,7.223420684865419772e-02,3.802793991534477586e-02,-1.937826994870837927e-01
4.369999999999999996e-01,-1.267451443087329044e-01,-1.967104109807766010e-01,7.288243431362009805e-02
4.380000000000000004e-01,-4.807488012973647196e-02,-4.229241732386266883e-01,2.809312979746629857e-01
4.390000000000000013e-01,1.612187619731589583e-01,-4.698436413991149974e-01,3.350123446306714214e-01
4.400000000000000022e-01,2.542734254548605355e-01,-2.168819886848838974e-01,1.859658461432381060e-01
4.410000000000000031e-01,3.926651083944113912e-02,1.056295846709861125e-01,3.294730775684381191e-02
4.420000000000000040e-01,-2.786805610382137033e-01,2.508484897964136096e-01,-3.487242865674646669e-02
4.430000000000000049e-01,-5.503653056034346625e-01,1.755329748348763985e-01,3.599339762062409021e-02
4.440000000000000058e-01,-5.707314000222311057e-01,3.188581840753485722e-03,1.712391869421114876e-01
4.450000000000000067e-01,-2.843082464119699448e-01,-4.492992497896328846e-02,1.840280318574250562e-01
4.460000000000000075e-01,6.488450793281924645e-02,5.861077611043434554e-02,7.797586297305576786e-02
4.470000000000000084e-01,1.946640675451631053e-01,2.911449440847563297e-01,-1.437330403504891441e-01
4.480000000000000093e-01,9.799774433405279706e-02,4.410038608867252186e-01,-3.392341207263916969e-01
4.490000000000000102e-01,-8.647234203978684808e-02,3.975484633035782922e-01,-3.359010456553214174e-01
4.500000000000000111e-01,-1.129013663339771961e-01,6.992911379413695172e-02,-1.835358723269341075e-01
4.510000000000000120e-01,1.084226599408953315e-02,-2.237859098239952105e-01,-4.827834043891030165e-03
4.520000000000000129e-01,3.859173151267989432e-01,-3.180312054051653292e-01,8.638071899844489143e-02
4.530000000000000138e-01,5.859074666323093039e-01,-1.793571980759956497e-01,-2.632621888042752795e-02
4.540000000000000147e-01,5.004391652112409883e-01,4.223472095365877338e-03,-1.215799036570916480e-01
4.550000000000000155e-01,1.423180125958417308e-01,4.200669924155081558e-02,-1.517805180230576423e-01
4.560000000000000164e-01,-1.598977918377270935e-01,-1.168878735184085832e-01,-8.091294258449059640e-03
4.570000000000000173e-01,-3.265559138835005260e-01,-3.303575227220914012e-01,2.009994921024047254e-01
4.580000000000000182e-01,-1.202658539137832355e-01,-4.012093242684822147e-01,3.412074675824661174e-01
4.590000000000000191e-01,5.829832085689626298e-02,-2.186786813774638238e-01,3.278507723539364482e-01
4.600000000000000200e-01,1.105085370731988675e-01,1.304329447408470455e-01,1.499721302669910772e-01
4.610000000000000209e-01,-9.571172317514670125e-02,3.407404660333279156e-01,-6.472499333851720882e-02
4.620000000000000218e-01,-4.568630968808509163e-01,3.431083588853949262e-01,-1.439118100071944406e-01
4.630000000000000226e-01,-6.124409609863274984e-01,1.705915159306109208e-01,-6.438609088180542728e-02
4.640000000000000235e-01,-3.651320875976958868e-01,3.552913073197040000e-02,1.353588542823361551e-01
4.650000000000000244e-01,1.424592561749998300e-02,-2.044200705182147582e-02,9.008233439246014773e-02
4.660000000000000253e-01,3.276537234555951250e-01,1.755398892432262214e-01,-2.081019130787666732e-02
4.670000000000000262e-01,3.708555111240252056e-01,3.209032682138929782e-01,-2.318177938204858679e-01
4.680000000000000271e-01,1.596925350513909436e-01,3.071807912771101212e-01,-3.636811164334386448e-01
4.689999999999999725e-01,-2.931741293763799258e-02,4.990782853829366789e-02,-3.089625084646194231e-01
4.699999999999999734e-01,-2.779897225842774960e-02,-2.500521968251890881e-01,-9.114887322526800395e-02
4.709999999999999742e-01,2.023614968097090516e-01,-4.216610489079529733e-01,1.249144389104363262e-01
4.719999999999999751e-01,4.624985433083310116e-01,-3.290682992813195318e-01,1.796788421935368862e-01
4.729999999999999760e-01,4.950751798341002652e-01,-1.072155072388553537e-01,8.193885456190327932e-02
4.739999999999999769e-01,2.078406813900524619e-01,5.691045978165357178e-02,-5.596805767584405594e-02
4.749999999999999778e-01,-1.946530247820283666e-01,9.185434868567710076e-03,-7.559186771965814566e-02
4.759999999999999787e-01,-4.576202033104003197e-01,-1.814130017132874750e-01,9.456090487487446572e-02
4.769999999999999796e-01,-4.189685650559612506e-01,-3.166835569930236405e-01,2.699511079329261487e-01
4.779999999999999805e-01,-1.433186841255954247e-01,-1.850752434336705998e-01,3.159023375404471090e-01
4.789999999999999813e-01,2.018269795904994654e-02,1.203270022614766482e-01,2.590092270414480757e-01
4.799999999999999822e-01,-1.512486263652228560e-02,3.612447651738974752e-01,-4.619377635654422359e-03
4.809999999999999831e-01,-2.271825296502008318e-01,4.414792401937186472e-01,-1.875431346571174718e-01
4.819999999999999840e-01,-4.249492542968363318e-01,3.024244926607257966e-01,-2.296404023664725957e-01
4.829999999999999849e-01,-3.486289243889319489e-01,-1.564295299763637098e-02,-1.359134677473170516e-01
4.839999999999999858e-01,-7.514248363505476869e-02,-8.940108054280461458e-02,-1.534936130995414628e-02
4.849999999999999867e-01,3.335928530886282384e-01,8.142627865400904955e-03,8.853535734558227229e-04
4.859999999999999876e-01,5.199079169363671760e-01,1.903245256109018235e-01,-1.121562560663324909e-01
4.869999999999999885e-01,4.254885420647043226e-01,2.052115441273527074e-01,-2.677336942297610101e-01
4.879999999999999893e-01,1.271910798355715411e-01,5.331226182561982913e-02,-3.164706171928398648e-01
4.889999999999999902e-01,-5.164369983963124078e-02,-2.683574926107706315e-01,-1.614742792101634405e-01
4.899999999999999911e-01,1.024384070134315601e-02,-4.736127345759498231e-01,7.974920288088402365e-02
4.909999999999999920e-01,2.608361925499710909e-01,-3.883977161324227434e-01,2.491933526176358937e-01
4.919999999999999929e-01,3.700071779091193003e-01,-1.885859885005949643e-01,2.445879389614368238e-01
4.929999999999999938e-01,2.451735000730457803e-01,7.337494999362825787e-02,1.362081551440920968e-01
4.939999999999999947e-01,-9.295170909111404034e-02,1.701835209590672471e-01,-3.538868948158074845e-02
4.949999999999999956e-01,-4.485410599901266115e-01,1.347851841377283554e-02,-1.967787004470904905e-02
4.959999999999999964e-01,-5.479633238919398019e-01,-1.185291579848004040e-01,1.190783370412321629e-01
4.969999999999999973e-01,-3.926154513787351585e-01,-1.190158576471860713e-01,2.666252113999509343e-01
4.979999999999999982e-01,-6.489729727247425806e-02,1.133455794831418062e-01,2.635841843581085420e-01
4.989999999999999991e-01,1.150788861944188196e-01,3.536144113637473829e-01,9.974889379137431844e-02
5.000000000000000000e-01,1.694614512607098972e-02,4.712010374082092889e-01,-1.356805064539206573e-01
5.010000000000000009e-01,-1.927910007672479498e-01,3.512380101344018124e-01,-2.817475831372212025e-01
5.020000000000000018e-01,-3.028083871073215527e-01,5.498047765596862646e-02,-2.944751981204475344e-01
5.030000000000000027e-01,-1.103648144303249340e-01,-1.845436073827531331e-01,-1.114579814893256748e-01
5.040000000000000036e-01,2.777664400315489335e-01,-2.117598714267027171e-01,1.284554069267911623e-02
5.050000000000000044e-01,5.617335361773454494e-01,1.307651340302434101e-02,2.540379535777187101e-03
5.060000000000000053e-01,6.064783877018868896e-01,7.214680976911111432e-02,-9.336751273482638003e-02
5.070000000000000062e-01,2.743206162120960800e-01,-4.413831430549852827e-04,-2.047400397520223458e-01
5.080000000000000071e-01,-5.802362695822804728e-02,-2.297302885762495805e-01,-1.724534784241143759e-01
5.090000000000000080e-01,-1.631142606594405131e-01,-4.093084673487040193e-01,-1.795700276600409664e-02
5.100000000000000089e-01,-6.922752398688668263e-02,-4.256918631514673979e-01,1.942896235441574637e-01
5.110000000000000098e-01,1.598169688823866119e-01,-2.071620825352732675e-01,3.371483057265083905e-01
5.120000000000000107e-01,1.663258491905459102e-01,9.462804156798380883e-02,2.778917625003870517e-01
5.130000000000000115e-01,-8.361028989113064580e-02,2.813069357742170595e-01,1.251498833072385575e-01
5.140000000000000124e-01,-3.910232667800790374e-01,1.904507324097670096e-01,-3.012111061127473177e-02
5.150000000000000133e-01,-5.825013244584433814e-01,4.814032949803895983e-02,-5.045207548137626424e-02
5.160000000000000142e-01,-4.797819396610709108e-01,-7.148850826385219626e-02,6.701816912281580163e-02
5.170000000000000151e-01,-1.933071983130280891e-01,3.567588573060393592e-02,1.648457653984621296e-01
5.180000000000000160e-01,1.493916542006854531e-01,3.025321163720959272e-01,1.102876940071101652e-01
5.190000000000000169e-01,2.795666898679612378e-01,4.126439881475714166e-01,-4.686339112732254564e-02
5.200000000000000178e-01,9.590336423568186774e-02,3.210044155394829457e-01,-2.376123491726617187e-01
5.210000000000000187e-01,-8.564719522380905004e-02,-7.549549942181066689e-04,-3.630013641284219883e-01
5.220000000000000195e-01,-9.331225978007741395e-02,-2.531689625154934786e-01,-2.258610083560454729e-01
5.230000000000000204e-01,1.801228016864045989e-01,-3.839397920067211256e-01,-8.763117154420044241e-02
5.240000000000000213e-01,4.812962500012313294e-01,-1.963506315320853457e-01,6.493457112190247071e-02
5.250000000000000222e-01,5.728175400152067942e-01,-4.480294739089277223e-02,7.058648019118517192e-02
5.260000000000000231e-01,3.584545807815254781e-01,3.198486927896238008e-02,-1.095867573756846916e-02
5.270000000000000240e-01,2.212862731499399584e-03,-9.616225484214067920e-02,-1.402632997659495617e-01
5.280000000000000249e-01,-2.798736039307612722e-01,-3.268993544622161296e-01,-9.288922343939197412e-02
5.290000000000000258e-01,-2.985252661862153878e-01,-3.608077139609918160e-01,1.120000428413951143e-01
5.300000000000000266e-01,-1.294675439013519280e-01,-1.651531999146080842e-01,3.056307234464293310e-01
5.310000000000000275e-01,5.612562997938635306e-02,1.470784643550752668e-01,3.536173730610814858e-01
5.320000000000000284e-01,1.633422562599508993e-02,3.743071184829366294e-01,2.151321655920648002e-01
5.330000000000000293e-01,-2.342849598265467348e-01,3.447978516365917123e-01,1.866441169824448187e-02
5.340000000000000302e-01,-5.110404066893188268e-01,1.615997336455539113e-01,-1.076519062133909771e-01
5.350000000000000311e-01,-5.435785996743144333e-01,-2.195675454440364910e-02,-1.261828990002368256e-01
5.360000000000000320e-01,-2.474188137189811121e-01,2.178112829136445543e-03,-1.249521907398779344e-02
5.370000000000000329e-01,1.588892317617073835e-01,1.371860506377550748e-01,8.193834524454508828e-02
5.380000000000000338e-01,3.867309530419096864e-01,2.958993899683790563e-01,5.245279655639657410e-03
5.390000000000000346e-01,3.609200790705402451e-01,2.516133362607796964e-01,-1.799412567126200679e-01
5.400000000000000355e-01,9.841910253972925571e-02,2.261727116716794397e-02,-3.284675840223648668e-01
5.410000000000000364e-01,-5.185609665382388128e-02,-3.085549078247785126e-01,-3.425559612666176923e-01
5.420000000000000373e-01,1.208256726486305228e-02,-4.607236273511849389e-01,-1.640880562699072454e-01
5.430000000000000382e-01,2.247723773021798599e-01,-3.271604158426371645e-01,6.842663557180873879e-02
5.440000000000000391e-01,4.979565360771422977e-01,-1.169612736261234354e-01,2.235338836291262399e-01
5.450000000000000400e-01,3.912662866572991782e-01,7.236068208240575839e-02,1.748816407315159083e-01
5.460000000000000409e-01,9.410002365570430127e-02,1.442412036326526717e-02,2.268972270603390393e-02
5.470000000000000417e-01,-2.982620800206509104e-01,-1.460509541461824934e-01,-3.576152684233745160e-02
5.480000000000000426e-01,-4.976722907854008726e-01,-2.443939665006200912e-01,4.956783788908238758e-02
5.490000000000000435e-01,-3.799974300490391310e-01,-1.112893340615106336e-01,1.787990802280744196e-01
5.500000000000000444e-01,-1.443236358633307459e-01,1.305802294025773524e-01,3.077996122735106588e-01
5.510000000000000453e-01,5.752316681614977334e-02,4.374805622058690613e-01,2.999274553306122137e-01
5.520000000000000462e-01,-5.781665591968433021e-02,4.372713365109827666e-01,9.916866794539085095e-02
5.530000000000000471e-01,-2.531182153664813805e-01,2.560493062574280554e-01,-1.505247698685189539e-01
5.540000000000000480e-01,-3.884230562835711553e-01,1.973296476389513332e-02,-2.167971108679340730e-01
5.550000000000000488e-01,-2.499877452701854685e-01,-1.210207227844943834e-01,-2.291556243508509338e-01
5.560000000000000497e-01,8.373357358680923179e-02,-8.323854376186179405e-02,-4.270405330252859122e-02
5.570000000000000506e-01,4.858210712955068344e-01,1.404792729906427506e-01,3.238964496273569194e-02
5.580000000000000515e-01,5.650669455050489898e-01,1.724553199838732565e-01,-5.428871057490018692e-02
5.590000000000000524e-01,3.609083635156235537e-01,-2.349151663414211430e-02,-2.113639988773716172e-01
5.600000000000000533e-01,3.623596878207233779e-02,-2.794882707104192066e-01,-2.735135152940720293e-01
5.610000000000000542e-01,-8.414156837300358627e-02,-4.886338922718758693e-01,-2.478865353012639217e-01
5.620000000000000551e-01,1.589737173527256200e-02,-4.282015259637413362e-01,-1.975849884849724403e-02
5.629999999999999449e-01,2.185778841252508653e-01,-1.475394389314285126e-01,2.041915805298085418e-01
5.639999999999999458e-01,3.077856261330963461e-01,9.344923488790958521e-02,3.174372056385391661e-01
5.649999999999999467e-01,1.152887018404145925e-01,1.926679655456453588e-01,2.156509228570245296e-01
5.659999999999999476e-01,-2.788360744561041993e-01,5.126266392563658125e-02,4.059644027757297602e-02
5.669999999999999485e-01,-5.580200119629007416e-01,-1.020885239485935375e-01,-2.745181274190843304e-02
5.679999999999999494e-01,-5.627508250849332372e-01,-7.911743752228020399e-02,1.014056278867910346e-02
5.689999999999999503e-01,-2.989062628187432180e-01,1.186946110445963737e-01,1.961583359863074971e-01
5.699999999999999512e-01,4.942997584272120631e-02,3.928255308012509883e-01,2.289370274635699198e-01
5.709999999999999520e-01,1.317795022325844723e-01,4.712730104131876430e-01,1.834443206612470789e-01
5.719999999999999529e-01,4.651169035965242032e-02,2.996236074605498345e-01,-7.005115602467940072e-02
5.729999999999999538e-01,-1.663861414168156805e-01,-1.656317181786425355e-02,-2.770715790735055473e-01
5.739999999999999547e-01,-2.106171107213808680e-01,-2.163592848103781108e-01,-3.306146966073504889e-01
5.749999999999999556e-01,2.309980020277891191e-02,-2.419982030085107427e-01,-1.895533870127914799e-01
5.759999999999999565e-01,3.941264855650203347e-01,-8.556240765857985042e-02,-7.377405593858903099e-02
5.769999999999999574e-01,5.972130245183348007e-01,8.745038977508408362e-02,4.811869092032622364e-02
5.779999999999999583e-01,5.058697410948793660e-01,3.745264457136402575e-02,-2.362345167073092583e-02
5.789999999999999591e-01,1.491701496388949111e-01,-1.885367177136267336e-01,-1.258584534573086444e-01
5.799999999999999600e-01,-1.368460882071781681e-01,-4.183462740661235135e-01,-2.059958587774985972e-01
5.809999999999999609e-01,-2.100711704295281090e-01,-4.231969104321726127e-01,-1.314348656914899605e-01
5.819999999999999618e-01,-4.694323013964302183e-02,-1.354279250101082244e-01,1.429748073775929940e-01
5.829999999999999627e-01,1.372521730052535249e-01,1.533960861593352820e-01,3.054966887169322520e-01
5.839999999999999636e-01,9.954059804640352782e-02,3.217021376681176714e-01,3.181196271117258112e-01
5.849999999999999645e-01,-1.649181759742663067e-01,2.232032141844580431e-01,1.888701718242382643e-01
5.859999999999999654e-01,-4.683041267925958651e-01,7.961896204729240756e-02,8.207563072684503566e-03
5.869999999999999662e-01,-5.954855180415331573e-01,-4.131392784814291036e-02,-8.268608746131651810e-02
5.879999999999999671e-01,-4.229972237273481594e-01,6.651083301658683444e-02,-1.640255222036674995e-02
5.889999999999999680e-01,-8.099623380447061247e-03,2.377377383502820019e-01,1.158902780772035207e-01
5.899999999999999689e-01,2.695529381157563131e-01,4.018091807968888207e-01,1.460593531151625490e-01
5.909999999999999698e-01,2.819199953209712284e-01,3.068629353015053240e-01,1.281339961118630778e-02
5.919999999999999707e-01,9.948697952363198815e-02,1.814723030453871053e-02,-1.759564947669171042e-01
5.929999999999999716e-01,-9.371812630072817729e-02,-2.824925901241104875e-01,-3.429001190903465113e-01
5.939999999999999725e-01,-4.391542042278277769e-02,-3.919181704049900516e-01,-3.378200653304324064e-01
5.949999999999999734e-01,2.399118506359698422e-01,-2.469427764123463265e-01,-1.871215949214910801e-01
5.959999999999999742e-01,5.235900801668814664e-01,-4.711725042506322014e-02,5.338310641161497783e-02
5.969999999999999751e-01,5.125615701389658607e-01,5.953036510255608343e-02,1.311205994966599120e-01
5.979999999999999760e-01,2.339094793672625849e-01,-7.946819098134125237e-02,7.678130255492005007e-02
5.989999999999999769e-01,-1.258413071866444632e-01,-2.781532309313513029e-01,-7.061674855281058205e-02
5.999999999999999778e-01,-3.788508504721240788e-01,-3.186062314055088107e-01,-5.906198726204976712e-02
6.009999999999999787e-01,-3.205038481785832949e-01,-1.154833738802191201e-01,4.735305792391884122e-02
6.019999999999999796e-01,-9.562007432816058139e-02,1.650768166376489210e-01,2.543948144211794493e-01
6.029999999999999805e-01,6.331618335711745871e-02,4.224530050939269143e-01,3.675493937754437113e-01
6.039999999999999813e-01,-4.711579676343467110e-02,4.110581172246956516e-01,2.851683283737538321e-01
6.049999999999999822e-01,-2.953657368482831003e-01,1.987752864436685418e-01,7.883845515173486251e-02
6.059999999999999831e-01,-5.291627918927037655e-01,-2.441787555742349139e-02,-8.720363597904551289e-02
6.069999999999999840e-01,-4.401763064299709649e-01,-3.174292704483869243e-02,-1.880054873333234233e-01
6.079999999999999849e-01,-8.423305619490606411e-02,1.129477855902328576e-01,-9.149613989398126812e-02
6.089999999999999858e-01,2.958781410231459130e-01,2.489900687433930226e-01,1.090452276294347905e-02
6.099999999999999867e-01,4.845220742446283979e-01,2.131541691063162658e-01,6.271399151728369870e-02
6.109999999999999876e-01,3.436034637316727758e-01,-2.573075797886143976e-02,-6.096327774332904736e-02
6.119999999999999885e-01,7.929431229793496017e-02,-3.633325172256977598e-01,-2.491449836069893620e-01
6.129999999999999893e-01,-3.294148987548713853e-02,-5.114534498332850010e-01,-3.146739936395570036e-01
6.139999999999999902e-01,1.180350626203749143e-01,-3.665056117072965081e-01,-2.296643112715910373e-01
6.149999999999999911e-01,3.148862372881812144e-01,-9.602908241303588499e-02,-4.065620037634845585e-02
6.159999999999999920e-01,4.358874239105900994e-01,8.422790688089851208e-02,1.908690338396281660e-01
6.169999999999999929e-01,2.745665825173966845e-01,1.030346100128118753e-01,2.379626249153670436e-01
6.179999999999999938e-01,-9.168872097177738212e-02,-9.842171606165912856e-02,1.371906108718019268e-01
6.189999999999999947e-01,-4.409481420193652190e-01,-2.052024842242521074e-01,5.929317093093582243e-03
6.199999999999999956e-01,-5.372554456553823021e-01,-9.267256381355387651e-02,-2.028288293390979533e-02
6.209999999999999964e-01,-3.179989982612214661e-01,1.738421376197905599e-01,1.326683670897673972e-01
6.219999999999999973e-01,-5.020226832665933281e-02,4.121598166802118435e-01,2.537073525530461615e-01
6.229999999999999982e-01,6.937944406673200726e-02,4.583822746169589069e-01,2.991798149799131945e-01
6.239999999999999991e-01,-9.041871293564170131e-02,2.808763545538617845e-01,1.460674759377304788e-01
6.250000000000000000e-01,-2.806121444221917893e-01,2.477679793329458976e-03,-4.660883878475952091e-02
6.260000000000000009e-01,-3.524890301146342275e-01,-1.430486712125978166e-01,-2.500170443110727447e-01
6.270000000000000018e-01,-1.256529395146950279e-01,-8.095929480768508657e-02,-2.777284948911959428e-01
6.280000000000000027e-01,2.679942393502088849e-01,1.090970309416155609e-01,-1.523856042068822414e-01
6.290000000000000036e-01,5.483043103177862587e-01,1.409913967318285333e-01,-2.073882989453420221e-03
6.300000000000000044e-01,5.657901520788822802e-01,-4.890864338609809438e-03,2.459070504466714241e-02
6.310000000000000053e-01,2.767624344540481895e-01,-2.986637804796042905e-01,-9.247067708966015542e-02
6.320000000000000062e-01,-2.044756526781368877e-02,-4.643198622052868152e-01,-2.556084816926090797e-01
6.330000000000000071e-01,-1.370783434952285718e-01,-4.330009010161100513e-01,-2.521634759305599327e-01
6.340000000000000080e-01,2.540364883281759703e-02,-1.554416826717096856e-01,-9.480535517387407574e-02
6.350000000000000089e-01,2.324730155139139720e-01,1.304945502684368708e-01,1.316688674236420331e-01
6.360000000000000098e-01,2.479388540773637961e-01,2.363321987514525602e-01,2.765627674027650307e-01
6.370000000000000107e-01,-2.785192551818497717e-02,7.288586572115290929e-02,3.164533373522336324e-01
6.380000000000000115e-01,-3.862468982893841329e-01,-4.820659589380870552e-02,1.443344319697353051e-01
6.390000000000000124e-01,-6.112730526257037500e-01,-7.425914491325966149e-02,-3.246337399131975221e-02
6.400000000000000133e-01,-5.066325957399401281e-01,1.062900205533522380e-01,-2.350502793168415816e-02
6.410000000000000142e-01,-1.672302003347217181e-01,3.752657637030220039e-01,8.433901017119169174e-02
6.420000000000000151e-01,1.082849784731601817e-01,4.565941720770085865e-01,1.870437844840208419e-01
6.430000000000000160e-01,1.849276718625348370e-01,2.816680548927770755e-01,1.722861375732819000e-01
6.440000000000000169e-01,1.567160002511353706e-02,-3.947610080581161196e-02,1.311470058199973657e-02
6.450000000000000178e-01,-1.506447635903034876e-01,-2.955772574184403756e-01,-2.408689023982836519e-01
6.460000000000000187e-01,-1.144849458029449929e-01,-2.948592302369513751e-01,-3.490226253626105835e-01
6.470000000000000195e-01,1.635819095007726431e-01,-1.115135247687134429e-01,-2.818747018604539356e-01
6.480000000000000204e-01,4.919682226638233957e-01,2.044674432636964245e-02,-1.343462576144800191e-01
6.490000000000000213e-01,6.184445661959506735e-01,-6.610565490237298343e-03,2.799292416741687439e-02
6.500000000000000222e-01,4.002231781308214775e-01,-2.134986125280826375e-01,2.136240731496389517e-02
6.510000000000000231e-01,2.693796028920521571e-02,-4.018094604588986485e-01,-3.927818785973546251e-02
6.520000000000000240e-01,-2.564964691830974863e-01,-3.572389182437071264e-01,-1.520755677907124070e-01
6.530000000000000249e-01,-2.386658514550297205e-01,-1.377497223675730464e-01,-1.204538753667888096e-01
6.540000000000000258e-01,-4.206715550780745078e-02,1.849242605293635600e-01,7.610021659895109536e-02
6.550000000000000266e-01,8.928438844827525644e-02,3.598646363676387128e-01,2.496245645681874625e-01
6.560000000000000275e-01,3.019165143058541445e-02,3.008038651874345160e-01,3.022362221729075760e-01
6.570000000000000284e-01,-2.720045848367816377e-01,7.944345857267104405e-02,2.935139423082944177e-01
6.580000000000000293e-01,-5.301420649726922285e-01,-1.871528850585544440e-02,2.522388240915080654e-02
6.590000000000000302e-01,-5.683783089275064038e-01,5.299133072415888185e-02,-9.310976818544874911e-02
6.600000000000000311e-01,-2.564570967945749569e-01,2.478692654137929219e-01,-7.909065782192457872e-02
6.610000000000000320e-01,8.805068668376711538e-02,3.867773146241355042e-01,-1.034952135250072694e-02
6.620000000000000329e-01,3.496988972568400023e-01,2.390470435037712893e-01,9.786526151565408393e-02
6.630000000000000338e-01,3.073746785418603467e-01,-6.993911100673319559e-02,5.431580937303447099e-02
6.640000000000000346e-01,8.186341629267528119e-02,-3.439049098055474429e-01,-1.328525969269591100e-01
6.650000000000000355e-01,-7.105829055276850770e-02,-4.045341240837459496e-01,-3.087730175182631376e-01
6.660000000000000364e-01,5.995086185410764684e-02,-2.553955612790983487e-01,-3.572238551370979232e-01
6.670000000000000373e-01,3.330470475826680099e-01,-4.706363927591033364e-02,-2.247560107458068668e-01
6.680000000000000382e-01,5.050469776761633556e-01,4.985713440483870162e-02,-4.041183591462872010e-03
6.690000000000000391e-01,4.284973728079591870e-01,-5.425399401551853767e-02,1.440751359308548030e-01
6.700000000000000400e-01,8.744226566675945833e-02,-2.185251388325417099e-01,1.180645317124092430e-01
6.710000000000000409e-01,-2.954750697108027291e-01,-3.000801078941267575e-01,3.886600212104520530e-02
6.720000000000000417e-01,-4.364876334092423482e-01,-7.598435171831828538e-02,-5.097335776147970260e-02
6.730000000000000426e-01,-3.374615047717587357e-01,2.108242286704210822e-01,-2.599393235064152013e-02
6.740000000000000435e-01,-6.682021792364534196e-02,4.382846760109360695e-01,1.400839826812610711e-01
6.750000000000000444e-01,5.691285427007339304e-02,4.468316718136169929e-01,3.343898270479208623e-01
6.760000000000000453e-01,-8.561598785049197302e-02,2.092963682383293944e-01,3.321660684008260200e-01
6.770000000000000462e-01,-3.516360437608578304e-01,-3.304247185803647902e-02,1.785142933094489293e-01
6.780000000000000471e-01,-4.724715159675031972e-01,-7.759093406571292151e-02,-3.846790978519554899e-02
6.790000000000000480e-01,-2.985001590202096544e-01,7.514426706302095027e-02,-1.971295815338196256e-01
6.800000000000000488e-01,1.056398448657048794e-01,2.183275547428457086e-01,-1.523139158276726191e-01
6.810000000000000497e-01,4.484212263856454106e-01,2.309852635071665272e-01,-4.650537168145858768e-02
6.820000000000000506e-01,5.188416691966999394e-01,-6.190973059118599214e-02,5.691373211202514076e-02
6.830000000000000515e-01,3.086112400020301627e-01,-3.439189041351634057e-01,-3.599861980119579974e-02
6.840000000000000524e-01,3.674732708750512444e-02,-4.926359001711982932e-01,-1.748120699864411653e-01
6.850000000000000533e-01,-7.882309469199386132e-02,-3.650206481270278358e-01,-3.280831990695399769e-01
6.860000000000000542e-01,9.655611946286865588e-02,-8.885281130929233162e-02,-2.428896775478523729e-01
6.870000000000000551e-01,3.121850481119465281e-01,1.224528146244262816e-01,-8.499272435032725892e-02
6.879999999999999449e-01,3.368776026850601735e-01,1.377830728771360369e-01,1.550469371367628468e-01
6.889999999999999458e-01,1.567996394421440898e-01,-5.056878614790159127e-02,2.501314102917540083e-01
6.899999999999999467e-01,-2.557446867230903642e-01,-1.870363004583341926e-01,2.059961015856170141e-01
6.909999999999999476e-01,-5.320342356353398028e-01,-8.310826598208341520e-02,5.255106623665586896e-02
6.919999999999999485e-01,-5.214328458854159409e-01,2.126036744756163166e-01,-4.409235076292027447e-03
6.929999999999999494e-01,-2.642509028043293906e-01,4.575948682239537879e-01,3.006835928531466709e-02
6.939999999999999503e-01,1.445042107432974350e-02,4.832461820334207903e-01,1.781287290358712361e-01
6.949999999999999512e-01,5.812339445921315545e-02,2.763562916502945166e-01,2.788355914605459840e-01
6.959999999999999520e-01,-6.874342079970423292e-02,-3.454276410187512997e-02,2.380380116998729034e-01
6.969999999999999529e-01,-2.642780783906163444e-01,-1.841578823628662875e-01,2.049061828222870779e-02
6.979999999999999538e-01,-2.520917018271561783e-01,-1.334129426977188060e-01,-2.443418838074427335e-01
6.989999999999999547e-01,2.033131871533252685e-02,1.289060174857739605e-02,-3.020728600833946786e-01
6.999999999999999556e-01,4.027561739416819497e-01,1.202416385745441046e-01,-2.378421465383275257e-01
7.009999999999999565e-01,5.878989900315346739e-01,-2.905739514874879081e-02,-5.588277524870107621e-02
7.019999999999999574e-01,4.783513543058359185e-01,-2.899829718707672699e-01,4.117362576662573354e-02
7.029999999999999583e-01,1.587687783967591804e-01,-4.743905796066981151e-01,-5.095856007748621186e-02
7.039999999999999591e-01,-1.094630593545833502e-01,-4.140776481594763414e-01,-1.335742658129932814e-01
7.049999999999999600e-01,-1.252512523320187532e-01,-1.059146159671513349e-01,-2.274404821742112282e-01
7.059999999999999609e-01,5.188569858126609174e-02,1.632361734618380800e-01,-1.684421799989644086e-01
7.069999999999999618e-01,1.997958131262388692e-01,2.554022115902684908e-01,5.783702338559621597e-02
7.079999999999999627e-01,1.078037129374827263e-01,1.445580538922869029e-01,2.719327717308516190e-01
7.089999999999999636e-01,-1.442012320268906689e-01,-8.971314187156903888e-03,3.537752605753459179e-01
7.099999999999999645e-01,-4.919628359905039439e-01,-5.899559231218669958e-02,2.131537614550761128e-01
7.109999999999999654e-01,-6.261812312320111928e-01,1.124392993771737986e-01,4.044061092111203570e-02
7.119999999999999662e-01,-4.110411234479079412e-01,3.506975492599099242e-01,-4.286525373038532760e-02
7.129999999999999671e-01,-4.208655460688176531e-02,4.255842533386813287e-01,2.117323386115293679e-02
7.139999999999999680e-01,2.114879103666860438e-01,2.598590743210512088e-01,1.220395334563007667e-01
7.149999999999999689e-01,2.323542435075990065e-01,-6.603062915722601733e-02,1.871984363278999530e-01
7.159999999999999698e-01,3.658351976201303611e-03,-2.740563888251902336e-01,5.826274079656363486e-02
7.169999999999999707e-01,-1.243446276064881922e-01,-2.757456117344693203e-01,-1.443773072305142291e-01
7.179999999999999716e-01,-3.175138790886355977e-02,-1.204425489365105323e-01,-2.920385115748651006e-01
7.189999999999999725e-01,2.628341603659632986e-01,-2.052571271135320789e-03,-2.962658436252921246e-01
7.199999999999999734e-01,6.072870281153560645e-01,-6.768653701500532485e-03,-2.044099692405477453e-01
7.209999999999999742e-01,5.804899987098847136e-01,-2.018673780183178057e-01,-6.370677163447281688e-03
7.219999999999999751e-01,2.389525043357304257e-01,-3.823118707599681976e-01,8.683438931472528544e-02
7.229999999999999760e-01,-1.375053580500658068e-01,-3.398308719401589850e-01,4.608209274263012217e-02
7.239999999999999769e-01,-3.115509942440484736e-01,-1.157683957466883601e-01,-9.728599206005016098e-02
7.249999999999999778e-01,-2.570499669867776782e-01,2.173735450364983335e-01,-1.034498981888533481e-01
7.259999999999999787e-01,-4.249148618035605840e-02,3.975732768596612066e-01,-1.927795117315544982e-02
7.269999999999999796e-01,9.577061459290557577e-02,3.021092124934553480e-01,1.952974714535639644e-01
7.279999999999999805e-01,-4.647341906740103806e-02,8.422462968545246786e-02,3.580957381827173935e-01
7.289999999999999813e-01,-3.119753091810398282e-01,-4.658914469100779165e-02,3.723781403506198351e-01
7.299999999999999822e-01,-5.382064384585801831e-01,1.444125366226943616e-03,1.362120991168570272e-01
7.309999999999999831e-01,-4.527742561964037127e-01,2.226712627699918012e-01,-7.411619993317222765e-02
7.319999999999999840e-01,-1.248273395144515047e-01,3.108816922871753263e-01,-1.327059501401659514e-01
7.329999999999999849e-01,3.017218150712842051e-01,1.615799528886101011e-01,-6.600026755827294311e-02
7.339999999999999858e-01,4.056481322317807559e-01,-8.230351300546485949e-02,1.798040444175109595e-02
7.349999999999999867e-01,2.672668046878433068e-01,-3.314576830784553563e-01,8.848859211597420726e-02
7.359999999999999876e-01,6.557060103054522526e-02,-4.367535761996245158e-01,-3.065814992228376584e-02
7.369999999999999885e-01,-1.828019876497333565e-02,-2.832998542067295400e-01,-2.365492035550979255e-01
7.379999999999999893e-01,8.983199246481698985e-02,-7.260438805760461960e-03,-3.480500486753931866e-01
7.389999999999999902e-01,3.994711159952721857e-01,7.208496923550530844e-02,-3.062215462445719849e-01
7.399999999999999911e-01,4.841072748992503172e-01,-1.183944680150648271e-02,-9.416475375737905218e-02
7.409999999999999920e-01,3.067606066489848571e-01,-2.291784433799898824e-01,1.407563642240644286e-01
7.419999999999999929e-01,-5.634797861247477918e-02,-2.526141021241483098e-01,1.997514725273501490e-01
7.429999999999999938e-01,-4.250545580089772901e-01,-1.015729233153052080e-01,1.344009404396599994e-01
7.439999999999999947e-01,-5.000506336023231579e-01,2.311272566644445581e-01,-4.311872892973930144e-02
7.449999999999999956e-01,-3.058726490963877831e-01,4.695528835932655798e-01,-2.523555353561286047e-02
7.459999999999999964e-01,-2.112884512387577102e-02,4.356609040136491529e-01,9.472074443788083831e-02
7.469999999999999973e-01,2.749070495993079233e-02,2.250513669472636313e-01,2.558001345146056482e-01
7.479999999999999982e-01,-1.573196174917075307e-01,-5.555628181207472593e-02,3.169405156152070302e-01
7.489999999999999991e-01,-4.014916207853618246e-01,-1.156923456485954849e-01,2.458214695131072658e-01
7.500000000000000000e-01,-3.916340077682992082e-01,1.297992316587100008e-02,-2.193826896747447849e-03
7.510000000000000009e-01,-1.651238858892210837e-01,1.650671985935999730e-01,-2.025596375268549909e-01
7.520000000000000018e-01,2.576886457490576432e-01,1.208994582201635276e-01,-2.695863498111777945e-01
7.530000000000000027e-01,5.369046914958839345e-01,-6.748555476673970266e-02,-1.508530423032074796e-01
7.540000000000000036e-01,5.396509373098454798e-01,-3.486112266664809778e-01,1.925236538249746080e-03
7.550000000000000044e-01,2.368732620932446631e-01,-4.814959870408275777e-01,1.428036522778589057e-02
7.560000000000000053e-01,-4.028939852029648355e-02,-3.292577874103423397e-01,-7.219934748413439629e-02
7.570000000000000062e-01,-6.447912557984310233e-02,-5.668824591735968643e-02,-2.608988074717948358e-01
7.580000000000000071e-01,1.044394075934319960e-01,1.464825172164482270e-01,-2.887979656174237131e-01
7.590000000000000080e-01,3.040123003362571463e-01,1.626765437639179912e-01,-1.388063874338490156e-01
7.600000000000000089e-01,2.914138184476234295e-01,-6.467586358416667867e-03,6.895027517545815332e-02
7.610000000000000098e-01,1.571409625097847443e-02,-1.175540156736392394e-01,2.743263353412233596e-01
7.620000000000000107e-01,-4.173172198039688530e-01,-5.461659150364132215e-02,2.345241567757964385e-01
7.630000000000000115e-01,-5.995538656837707814e-01,1.963463414308461996e-01,1.854305006188211036e-01
7.640000000000000124e-01,-4.753939135781797831e-01,4.180356095433958585e-01,2.126854666757403700e-03
7.650000000000000133e-01,-1.451953017233970078e-01,4.969898103636622988e-01,-1.836244762989405754e-02
7.660000000000000142e-01,1.065196155367309355e-01,2.254438027726081706e-01,7.586868986468087162e-02
7.670000000000000151e-01,8.028175507043491810e-02,-9.885812272846677962e-02,2.453133420705199408e-01
7.680000000000000160e-01,-8.326793857028991219e-02,-2.795114993169242612e-01,2.367430882396864000e-01
7.690000000000000169e-01,-2.544435264289898746e-01,-2.147854208802859322e-01,9.422013025631786887e-02
7.700000000000000178e-01,-1.830402431564195354e-01,3.150185181679158314e-02,-1.296217508933394658e-01
7.710000000000000187e-01,1.544278272067007851e-01,9.639741677456323266e-02,-3.054073789312791165e-01
7.720000000000000195e-01,5.569645447860217535e-01,-2.853971866873753274e-02,-2.888931129021715116e-01
7.730000000000000204e-01,5.936405205103691962e-01,-3.115300389214709087e-01,-1.423204645866471829e-01
7.740000000000000213e-01,4.143399260203429746e-01,-4.450228166861254775e-01,-8.841255494904423065e-05
7.750000000000000222e-01,2.666926267856747218e-02,-3.801974798041783954e-01,3.849625360102059551e-02
7.760000000000000231e-01,-1.867362643174951542e-01,-6.045662501614167128e-02,-6.498559487305766158e-02
7.770000000000000240e-01,-1.846903238871438480e-01,2.307260845879474664e-01,-1.825393291840768650e-01
7.780000000000000249e-01,1.646682160102854939e-02,3.176504525721485783e-01,-2.003644810654665598e-01
7.790000000000000258e-01,1.668287783781663702e-01,1.890722627575070758e-01,2.891037408089372138e-03
7.800000000000000266e-01,5.246307244083441013e-02,4.390852202824669162e-03,2.089041102103037506e-01
7.810000000000000275e-01,-2.942913429491745281e-01,-3.812275622707474165e-02,3.253351743961627740e-01
7.820000000000000284e-01,-5.315874214164552081e-01,1.255697139627440229e-01,3.214074308233704214e-01
7.830000000000000293e-01,-5.642186184525802561e-01,3.304209690775701813e-01,1.030059877835955012e-01
7.840000000000000302e-01,-2.997037948212409875e-01,3.943754186674207074e-01,-3.663239404795062826e-02
7.850000000000000311e-01,9.008553850173403599e-02,2.304297309086443257e-01,-3.976247575770354425e-02
7.860000000000000320e-01,2.867405689729779494e-01,-1.094365262238419650e-01,5.692146841046348549e-02
7.870000000000000329e-01,2.148429142030631178e-01,-3.297648995748467815e-01,1.448735984761995721e-01
7.880000000000000338e-01,1.118122304265227636e-03,-3.387049435541049092e-01,1.138383967768129973e-01
7.890000000000000346e-01,-6.707299482090135767e-02,-1.775665360370154988e-01,-7.239793307628174246e-02
7.900000000000000355e-01,8.365031396861490054e-02,3.783319143290836926e-03,-2.792559231363935801e-01
7.910000000000000364e-01,3.422102654583337733e-01,6.447780736081516750e-02,-3.391370160816839507e-01
7.920000000000000373e-01,5.629314953416226786e-01,-1.706293474553791933e-01,-2.656587490180601918e-01
7.930000000000000382e-01,4.706270110442102306e-01,-3.608418581974955908e-01,-1.049791061436730066e-01
7.940000000000000391e-01,1.147053037039099943e-01,-3.296207402636643358e-01,8.977420020615591023e-02
7.950000000000000400e-01,-2.229533472175299624e-01,-6.101072185303598600e-02,1.263589261963161681e-01
7.960000000000000409e-01,-3.752481275579534481e-01,2.487433472476194285e-01,-9.198423103618274393e-03
7.970000000000000417e-01,-2.635650342930526691e-01,4.244018934756420558e-01,-1.016659390692160464e-01
7.980000000000000426e-01,-2.297570116265128248e-02,3.499423607756891319e-01,-4.571719224180249841e-02
7.990000000000000435e-01,5.615912813223675887e-02,1.302857445798625002e-01,1.136571926375076480e-01
8.000000000000000444e-01,-1.315686710691746919e-01,-2.404138098415140729e-02,3.122944964276562207e-01
8.010000000000000453e-01,-4.053867409237158492e-01,-3.748508298036407060e-02,3.526810639120755986e-01
8.020000000000000462e-01,-5.267821973308227657e-01,1.933346150864743151e-01,2.136723451986965172e-01
8.030000000000000471e-01,-3.285580422316995430e-01,2.715609139872391387e-01,-7.138319211802821767e-04
8.040000000000000480e-01,4.657676705603220474e-02,1.710753705988344864e-01,-1.394861204605160609e-01
8.050000000000000488e-01,3.928964160002269002e-01,-9.738613144965657664e-02,-1.453051848665929124e-01
8.060000000000000497e-01,4.400601982222188679e-01,-3.739464355447423838e-01,-3.108684447595151668e-02
8.070000000000000506e-01,2.465280475382071179e-01,-4.786913993974669657e-01,6.445863516014543881e-02
8.080000000000000515e-01,1.495490921030898090e-02,-2.948829749876792361e-01,3.790722061768035406e-03
8.090000000000000524e-01,-2.388607744928271381e-02,-4.266666150532122392e-02,-1.343669306441223898e-01
8.100000000000000533e-01,1.451703697632228396e-01,9.210390207612247082e-02,-3.387755695566435077e-01
8.110000000000000542e-01,4.248394146540648286e-01,-6.007227626627397506e-04,-3.406462330108240288e-01
8.120000000000000551e-01,4.388734606076128419e-01,-1.916638804141189145e-01,-1.944848774505817668e-01
8.129999999999999449e-01,1.564092527737470095e-01,-1.961285864978596638e-01,6.647533629761424867e-02
8.139999999999999458e-01,-2.081216994817205734e-01,-2.762479996492905182e-02,1.996230208934593742e-01
8.149999999999999467e-01,-4.787899771188716125e-01,2.615273436622632119e-01,1.898933685407408756e-01
8.159999999999999476e-01,-4.822763741713369523e-01,4.538451583070721718e-01,7.818743800205275873e-02
8.169999999999999485e-01,-2.405550305167065694e-01,4.468823864083978359e-01,-3.921643633690610059e-02
8.179999999999999494e-01,1.740473953021344500e-02,1.768576998892347485e-01,2.049732343612904739e-02
8.189999999999999503e-01,3.034095761531244509e-02,-5.684907334042070548e-02,1.275689381631338326e-01
8.199999999999999512e-01,-1.631100996751525534e-01,-1.463417519460747107e-01,3.254957584336708454e-01
8.209999999999999520e-01,-3.457847084454929165e-01,-3.539097859273271363e-02,3.189335697557995064e-01
8.219999999999999529e-01,-3.271535850364226672e-01,1.430762633271643880e-01,8.906952538848743328e-02
8.229999999999999538e-01,-2.949581057948857683e-04,1.326850351447352583e-01,-1.426861888350533514e-01
8.239999999999999547e-01,3.757604814227306078e-01,-8.662863709797892497e-02,-2.665064257253045854e-01
8.249999999999999556e-01,5.907344145779853672e-01,-3.547124013783162222e-01,-2.535028045627398252e-01
8.259999999999999565e-01,4.804447509383488191e-01,-4.795450497071907514e-01,-4.920611928174784683e-02
8.269999999999999574e-01,1.625761430696739118e-01,-3.353776770509534488e-01,5.796652026562553600e-02
8.279999999999999583e-01,-7.709186667506902346e-02,-5.584935249796360579e-02,-2.741185101210431851e-02
8.289999999999999591e-01,-1.111924587055440478e-01,2.226080356170131447e-01,-1.613106267319655562e-01
8.299999999999999600e-01,1.031512311908930751e-01,1.669817453182267097e-01,-2.905711113069069929e-01
8.309999999999999609e-01,2.594940864145283688e-01,5.216806886707182900e-02,-2.123192272873867248e-01
8.319999999999999618e-01,2.020174486090358101e-01,-7.534484429823402885e-02,8.289864387406900917e-03
8.329999999999999627e-01,-1.454405118358058357e-01,-2.029221216633626118e-02,2.108522674611290337e-01
8.339999999999999636e-01,-5.077102831250566162e-01,2.300614909925763341e-01,3.385128811053758069e-01
8.349999999999999645e-01,-6.031369968900426315e-01,4.020163005386599986e-01,2.380821918668045156e-01
8.359999999999999654e-01,-4.247654906380756157e-01,4.616491009260970668e-01,6.950667421864213658e-02
8.369999999999999662e-01,-3.298501470124101664e-02,2.098812773939517928e-01,-1.728050406944911521e-02
8.379999999999999671e-01,1.668790313681999538e-01,-1.002879801839441781e-01,-1.624125486435526108e-02
8.389999999999999680e-01,8.171383378259404473e-02,-2.881971843452418303e-01,1.500592856573088052e-01
8.399999999999999689e-01,-5.548386630899591887e-02,-2.230685114878082631e-01,2.521116075471254714e-01
8.409999999999999698e-01,-1.954889820028125891e-01,-4.963633038275314102e-02,1.368044435948410631e-01
8.419999999999999707e-01,-4.876778266753881846e-02,5.567380183484825495e-02,-6.047218483956112028e-02
8.429999999999999716e-01,2.939894879107973757e-01,-8.464824288092631654e-02,-2.430735420318462514e-01
8.439999999999999725e-01,5.522279612394240811e-01,-2.654203299353472545e-01,-3.703451091143344920e-01
8.449999999999999734e-01,5.726274045429902149e-01,-3.875560331281993065e-01,-2.533061333372231827e-01
8.459999999999999742e-01,2.849263147019837628e-01,-3.236449830159238705e-01,-6.969230321861059896e-02
8.469999999999999751e-01,-7.700077541539900039e-02,-1.850032560800836390e-02,4.810579741925578856e-02
8.479999999999999760e-01,-2.438275766689559920e-01,2.627515723201256925e-01,-3.671608052135401281e-03
8.489999999999999769e-01,-1.823124731690146383e-01,3.764292300878719355e-01,-1.173097736086468890e-01
8.499999999999999778e-01,6.270937242875025686e-02,2.067728934374322702e-01,-1.843954295001274668e-01
8.509999999999999787e-01,1.038289278210141053e-01,-9.710157328695180959e-03,-7.662998445968521866e-02
8.519999999999999796e-01,-7.719076923632298137e-02,-2.914737552195996798e-02,1.111114662417335142e-01
8.529999999999999805e-01,-3.698068712952283787e-01,1.080368663950711655e-01,3.117991616668317478e-01
8.539999999999999813e-01,-6.109894120740165802e-01,3.201514758379174763e-01,3.631921905989719535e-01
8.549999999999999822e-01,-4.864858144392877337e-01,3.779810262780174956e-01,1.729858814257283772e-01
8.559999999999999831e-01,-1.499190927759676550e-01,1.738833343006904175e-01,3.209268045338379248e-03
8.569999999999999840e-01,2.359390534401616668e-01,-1.263130842599528569e-01,-1.090584530033120031e-01
8.579999999999999849e-01,3.688319176597660842e-01,-3.844205597629668514e-01,-7.825581428458164290e-02
8.589999999999999858e-01,2.176453189814803735e-01,-3.625341971761263382e-01,7.079274246649853997e-02
8.599999999999999867e-01,-2.152320220253180552e-02,-1.981644929137603983e-01,1.263132923169237587e-01
8.609999999999999876e-01,-5.796243171227399849e-02,2.984077528644907620e-02,5.967684278540772574e-02
8.619999999999999885e-01,1.366588343699519092e-01,5.885182455010731090e-02,-2.074235995229099516e-01
8.629999999999999893e-01,4.354423212952132638e-01,-1.145602598425231461e-01,-3.618603639821370010e-01
8.639999999999999902e-01,5.505734007817464359e-01,-2.977096729667247366e-01,-3.176411516997115769e-01
8.649999999999999911e-01,3.406007304545227710e-01,-2.563429815812763857e-01,-1.567991440562683803e-01
8.659999999999999920e-01,-5.973589648525769180e-02,-1.332626923120650009e-02,4.875262251433738758e-02
8.669999999999999929e-01,-3.801072569181501160e-01,3.148332500073219853e-01,1.468073121508384205e-01
8.679999999999999938e-01,-4.138667940182850780e-01,4.726598402665498910e-01,1.481916733746156123e-01
8.689999999999999947e-01,-2.376093375437130228e-01,3.627978038220005530e-01,-3.449488785625963450e-02
8.699999999999999956e-01,4.585827494315240088e-02,1.404036519090370028e-01,-7.550114232709095874e-02
8.709999999999999964e-01,3.136404678021564862e-02,-2.428576549063818368e-02,3.857489734048289570e-02
8.719999999999999973e-01,-1.696438254016863489e-01,-6.119453310915643623e-02,2.080886924427942652e-01
8.729999999999999982e-01,-4.297146467971296180e-01,9.922672567273096988e-02,3.625947239557714141e-01
8.739999999999999991e-01,-4.546311702428633139e-01,2.298996738304251164e-01,2.770562945840882585e-01
8.750000000000000000e-01,-1.906672029451532413e-01,1.513606121544130434e-01,1.053785691549032205e-01
8.760000000000000009e-01,2.011961503941575580e-01,-1.307367415540998390e-01,-1.270942520879015936e-01
8.770000000000000018e-01,4.626381703099867737e-01,-4.164790045379767047e-01,-2.245271749085085700e-01
8.780000000000000027e-01,4.307813877983105999e-01,-4.734714884703288273e-01,-1.040894997095026114e-01
8.790000000000000036e-01,1.698048200798825125e-01,-2.987448269978598692e-01,5.302591617020755571e-02
8.800000000000000044e-01,1.734809179457535988e-02,-1.788506175674907384e-02,5.437359608280394746e-02
8.810000000000000053e-01,4.767959441623506427e-03,1.350199633492850382e-01,-6.943499707154299205e-02
8.820000000000000062e-01,1.869857799166480816e-01,6.934754804003719075e-02,-2.350738391901756041e-01
8.830000000000000071e-01,4.049887349859203622e-01,-9.914545649764430757e-02,-3.578140788167796238e-01
8.840000000000000080e-01,3.092333682618377266e-01,-1.754044920760394199e-01,-2.536279745303777200e-01
8.850000000000000089e-01,-2.205280926312627038e-02,-7.265236457479063749e-03,-1.983975883773459598e-02
8.860000000000000098e-01,-3.521621525024393184e-01,2.597460239494649992e-01,1.788843646502538687e-01
8.870000000000000107e-01,-5.756836563627263370e-01,4.711964090901022417e-01,2.589175246495213911e-01
8.880000000000000115e-01,-4.645899314061068264e-01,4.369838424986041137e-01,1.315277019715112850e-01
8.890000000000000124e-01,-1.486323452026070413e-01,1.855466530383181600e-01,2.147954187284535632e-02
8.900000000000000133e-01,7.230269401795598461e-02,-6.133780359238361068e-02,-3.050952218876911912e-02
8.910000000000000142e-01,1.502804129805542128e-02,-2.106201267570091407e-01,9.849725850892460111e-02
8.920000000000000151e-01,-1.671071476579172599e-01,-7.323498574480817591e-02,2.442545252490449792e-01
8.930000000000000160e-01,-3.008145063093327631e-01,1.000631957717021681e-01,2.901649047145143934e-01
8.940000000000000169e-01,-1.907881286137020627e-01,9.980552815534972366e-02,1.671028813689039716e-01
8.950000000000000178e-01,1.591055327524997787e-01,-9.952214497252687142e-02,-7.210068591430916773e-02
8.960000000000000187e-01,4.901020566175864346e-01,-3.693715460238274906e-01,-2.629721274660911101e-01
8.970000000000000195e-01,6.030013224503840696e-01,-4.891981615912605053e-01,-2.776428734277161525e-01
8.980000000000000204e-01,3.956230122671188232e-01,-3.392237625115074318e-01,-1.491540983470196757e-01
8.990000000000000213e-01,5.203919385735285286e-02,-1.368771895932774200e-02,8.919506756669626918e-03
9.000000000000000222e-01,-1.446935351710638973e-01,2.406963123817699723e-01,3.113650905843396918e-02
9.010000000000000231e-01,-8.028492396790093411e-02,2.464815024606260563e-01,-8.006829683723873381e-02
9.020000000000000240e-01,1.333054797838120753e-01,1.029895998291030512e-01,-2.040471395479993566e-01
9.030000000000000249e-01,2.415134412289182964e-01,-3.006267955421080759e-02,-2.558921283425619753e-01
9.040000000000000258e-01,4.487385204718252751e-02,1.962129650825264818e-02,-1.255741540115496713e-01
9.050000000000000266e-01,-2.721180624871331610e-01,1.771138943063777782e-01,1.592667811321288041e-01
9.060000000000000275e-01,-5.987067250091899773e-01,4.196493665877686907e-01,2.938226554776163235e-01
9.070000000000000284e-01,-5.836776098189263573e-01,4.042592233587249950e-01,3.472659779775993383e-01
9.080000000000000293e-01,-2.617299851120903353e-01,2.043109131390634658e-01,1.604360521433294551e-01
9.090000000000000302e-01,4.299137420759692463e-02,-1.474133712368690396e-01,-3.715731267044201751e-03
9.100000000000000311e-01,2.181589574897336292e-01,-3.175232905988373266e-01,-6.134606624748373260e-02
9.110000000000000320e-01,9.139500655610451052e-02,-2.461576437667972184e-01,7.807680736818939371e-02
9.120000000000000329e-01,-6.701060499825595151e-02,-6.979638164981179227e-02,1.560855555809191886e-01
9.130000000000000338e-01,-1.210556785521149786e-01,2.600631554680230689e-02,1.690940077439813949e-01
9.140000000000000346e-01,6.223290504785862487e-02,-4.838443865517771253e-02,3.535173725658740523e-02
9.150000000000000355e-01,4.113989395449980657e-01,-2.676783683286919624e-01,-2.319845490255215692e-01
9.160000000000000364e-01,5.544590504327284730e-01,-4.233114933078546693e-01,-3.354855572794715468e-01
9.170000000000000373e-01,4.980640962438187547e-01,-3.063586363842720206e-01,-2.750106314166376742e-01
9.180000000000000382e-01,1.381659349238664181e-01,-2.986395878872785290e-04,-1.094033078870302045e-01
9.190000000000000391e-01,-2.101359268505584299e-01,2.667130820370625099e-01,3.374932728483303473e-02
9.200000000000000400e-01,-3.124813946125807318e-01,3.882122072639744292e-01,7.835721990739005771e-02
9.210000000000000409e-01,-1.487256499128797038e-01,2.541517087548745280e-01,-1.502195520571593043e-02
9.220000000000000417e-01,1.858534294311813342e-02,3.152440922338018564e-02,-1.036445624924669517e-01
9.230000000000000426e-01,8.717162345127379974e-02,-4.654186160069393591e-02,-1.143221745399006367e-01
9.240000000000000435e-01,-1.506084923865312897e-01,7.351877588733690683e-02,5.712445420375678734e-02
9.250000000000000444e-01,-4.296733008765908357e-01,3.026425774240104616e-01,2.396227606753564277e-01
9.260000000000000453e-01,-5.478054380908774501e-01,3.762997135254160797e-01,3.689583729175963667e-01
9.270000000000000462e-01,-3.630409649015111651e-01,1.467910302052186367e-01,3.020527561753019175e-01
9.280000000000000471e-01,2.938754251437899687e-02,-1.704060041055323604e-01,7.565948377398429292e-02
9.290000000000000480e-01,3.517945512484499382e-01,-4.063626827892116711e-01,-1.082848249392134449e-01
9.300000000000000488e-01,3.815416966210526395e-01,-4.253669863544235485e-01,-1.141336056172153890e-01
9.310000000000000497e-01,1.706655280379140160e-01,-2.035835423228690433e-01,-2.798663784394318874e-03
9.320000000000000506e-01,-6.505858489079105467e-02,1.274318087948821815e-02,8.695793334708543099e-02
9.330000000000000515e-01,-1.330757701173753901e-02,6.842838001108929313e-02,7.592485390599883199e-02
9.340000000000000524e-01,2.330617015589127594e-01,-8.999690147181117761e-02,-8.795674008392878607e-02
9.350000000000000533e-01,4.559967818340423529e-01,-2.342671513967491403e-01,-3.234815263715570821e-01
9.360000000000000542e-01,4.690032137932526601e-01,-2.536209844558143800e-01,-3.630966037560132698e-01
9.370000000000000551e-01,1.973512674006497880e-01,1.594936949754569358e-02,-2.115052701121125922e-01
9.379999999999999449e-01,-2.029548355812831051e-01,3.286570120418630392e-01,4.585958554280144574e-03
9.389999999999999458e-01,-4.723804790372534979e-01,4.679763888778397107e-01,1.716117347049349318e-01
9.399999999999999467e-01,-4.196840312836644937e-01,3.353096053174972058e-01,1.450598201810991139e-01
9.409999999999999476e-01,-1.895755996268078114e-01,1.335003840877700132e-01,4.869132097691348388e-02
9.419999999999999485e-01,3.108503856519109765e-02,-9.801038188755575864e-02,-3.525582533957914017e-02
9.429999999999999494e-01,-1.399248336384337037e-02,-6.653186586172801786e-02,-1.689066020654193118e-02
9.439999999999999503e-01,-2.185981845107847210e-01,8.704740214085682215e-02,1.447700768178709629e-01
9.449999999999999512e-01,-4.236047552500278868e-01,2.074265558142051602e-01,2.789682383001685362e-01
9.459999999999999520e-01,-3.695403994871463982e-01,1.329161942745028802e-01,3.727379589255481740e-01
9.469999999999999529e-01,-2.949958691239553191e-02,-1.662490492896781247e-01,1.702518464426143741e-01
9.479999999999999538e-01,3.577913669440728195e-01,-4.145045925441608325e-01,-7.259644806547968510e-02
9.489999999999999547e-01,5.272874420959212660e-01,-4.958247826728524599e-01,-2.110123954174055461e-01
9.499999999999999556e-01,4.351280627796780265e-01,-2.839668816785000383e-01,-1.813561637690007111e-01
9.509999999999999565e-01,1.426869449301915171e-01,8.956900620784111894e-03,-7.504153622210114893e-02
9.519999999999999574e-01,-6.109067796970278630e-02,1.739491490324691358e-01,2.109656718756247780e-03
9.529999999999999583e-01,-1.596260545137733258e-02,1.261850737681669554e-01,1.166720193384388621e-02
9.539999999999999591e-01,2.120738019779745132e-01,-2.542381813453742020e-02,-1.647209781552792796e-01
9.549999999999999600e-01,3.191232080361208201e-01,-1.276577135672613550e-01,-2.708669807941919694e-01
9.559999999999999609e-01,1.969732570991113429e-01,3.629544040301435539e-03,-2.596522364094994706e-01
9.569999999999999618e-01,-1.492241928411541796e-01,2.627644665407198876e-01,-1.020165571831821577e-01
9.579999999999999627e-01,-4.916759746324348423e-01,4.476468242800943353e-01,1.386289381719963409e-01
9.589999999999999636e-01,-5.597639587151272966e-01,4.379044798996795662e-01,2.666837128679034885e-01
9.599999999999999645e-01,-4.005986233367738181e-01,1.549899612381244740e-01,2.566202573535237841e-01
9.609999999999999654e-01,-5.664589931244267546e-02,-1.223931260354936268e-01,6.388990256404178392e-02
9.619999999999999662e-01,1.206465173378933470e-01,-2.324765359214612803e-01,-3.526638940171061137e-02
9.629999999999999671e-01,3.427011537984198802e-02,-1.187334943057051645e-01,2.036935655779602283e-02
9.639999999999999680e-01,-1.738238877749638811e-01,4.356294433826163326e-02,1.543639112945590641e-01
9.649999999999999689e-01,-2.439717118509234506e-01,7.540099502253104491e-02,2.658812855260525021e-01
9.659999999999999698e-01,-4.883399465766876529e-02,-8.100673925682953802e-02,2.347835798276072805e-01
9.669999999999999707e-01,3.004256175953236574e-01,-3.483740881303397652e-01,2.724644591669000623e-02
9.679999999999999716e-01,6.100382061430346115e-01,-4.772214797020974397e-01,-2.218779218671742270e-01
9.689999999999999725e-01,5.697370271537861575e-01,-3.441157264814474481e-01,-3.084805384307044429e-01
9.699999999999999734e-01,2.445933979255912605e-01,2.119921289554909521e-02,-2.243601610647600331e-01
9.709999999999999742e-01,-6.411869824339792856e-02,2.677882913577323554e-01,-6.450885065306076471e-02
9.719999999999999751e-01,-1.792341537277079566e-01,2.953908177302350113e-01,3.951659579693482527e-02
9.729999999999999760e-01,-5.265960322811887029e-02,1.048374402230761449e-01,6.804747947223922441e-03
9.739999999999999769e-01,1.499978785207332632e-01,-9.767054749980606104e-03,-1.502549328357164204e-01
9.749999999999999778e-01,1.487892685579785823e-01,1.755212808241502984e-02,-2.239925726218449376e-01
9.759999999999999787e-01,-7.384079785070320201e-02,1.830800845684116829e-01,-1.460589627925232004e-01
9.769999999999999796e-01,-4.135431530122757882e-01,3.647656850860470645e-01,7.067630324306095613e-02
9.779999999999999805e-01,-6.043118966391124447e-01,3.579797024425745988e-01,2.720462057580393944e-01
9.789999999999999813e-01,-4.689471600095581061e-01,1.212041564454989506e-01,3.539269070919374149e-01
9.799999999999999822e-01,-1.541888494961667633e-01,-1.790840246597468211e-01,2.041365754135637811e-01
9.809999999999999831e-01,1.919972479596805670e-01,-3.619321854470983757e-01,5.673252079162618283e-02
9.819999999999999840e-01,2.832822958607666974e-01,-2.897572797846952319e-01,-7.197915318434813803e-02
9.829999999999999849e-01,1.176388267360964635e-01,-9.550652697488991316e-02,-1.783208393995978219e-02
9.839999999999999858e-01,-5.222041931665793307e-02,5.013466043176462855e-02,1.181819064689631493e-01
9.849999999999999867e-01,-5.274306404638824664e-02,-3.692849037854933208e-02,1.656427363306918199e-01
9.859999999999999876e-01,1.689932384092386330e-01,-2.374132490764237213e-01,6.241729140366088918e-02
9.869999999999999885e-01,4.635459469134965427e-01,-3.537847033297635280e-01,-1.773660497873028319e-01
9.879999999999999893e-01,5.295596721212071367e-01,-2.396425851874137147e-01,-3.531746736402411879e-01
9.889999999999999902e-01,3.691135460638230725e-01,3.170618423066959984e-02,-3.453147443339177336e-01
9.899999999999999911e-01,-4.599259911470206241e-03,3.099676627526107842e-01,-1.848386632993682388e-01
9.909999999999999920e-01,-2.730658269090306955e-01,4.132346288564691661e-01,8.036119641103566273e-04
9.919999999999999929e-01,-3.554536853276454300e-01,2.639655226675086674e-01,9.629440071748716912e-02
9.929999999999999938e-01,-1.646221694687354797e-01,6.880959368898310891e-02,5.628486195355367205e-02
9.939999999999999947e-01,3.588461261288724419e-02,-5.122792750379401988e-02,-5.295428522239774977e-02
9.949999999999999956e-01,1.142413635641029677e-02,7.058545904458878029e-02,-9.750817972653892662e-02
9.959999999999999964e-01,-2.112454967948675377e-01,2.328451281803019246e-01,-3.312349866889506556e-02
9.969999999999999973e-01,-4.852760047581051173e-01,3.104832279835726405e-01,1.924993021254559622e-01
9.979999999999999982e-01,-5.243751889451554460e-01,1.014654162010708571e-01,3.436594432061683135e-01
9.989999999999999991e-01,-2.032268486172009447e-01,-2.000452131250703147e-01,3.296048923615259030e-01
1.000000000000000000e+00,2.074297953452469701e-01,-4.246465614707926051e-01,1.708290793670015073e-01
1.000999999999999890e+00,4.490899365316424752e-01,-4.377637777106769268e-01,-7.502304402864504174e-02
1.002000000000000002e+00,3.950982896491999630e-01,-2.119398248088493475e-01,-1.744429622547215286e-01
1.002999999999999892e+00,1.518149711487238596e-01,2.506174740188832697e-02,-8.330208159879932961e-02
1.004000000000000004e+00,-4.312122094496346342e-02,9.498773528264754795e-02,2.165932886876128713e-02
1.004999999999999893e+00,3.996482357142172592e-02,-8.873536207944585086e-02,8.655542651699169032e-02
1.006000000000000005e+00,2.636532478661289258e-01,-2.089124196075130002e-01,-3.629574726416597008e-02
1.006999999999999895e+00,4.648357332489505556e-01,-1.743743302305427456e-01,-2.422708847654620745e-01
1.008000000000000007e+00,3.617372838307588157e-01,3.972530521204257342e-02,-3.393775248131171152e-01
1.008999999999999897e+00,6.208922249507001223e-02,2.993765555836942482e-01,-2.854885608728420232e-01
1.010000000000000009e+00,-3.473353734019354877e-01,4.805267118036613549e-01,-7.998635396507051964e-02
1.010999999999999899e+00,-5.309203967587782236e-01,3.571946692903686382e-01,1.216730764345016202e-01
1.012000000000000011e+00,-4.107913691421472002e-01,1.192365527865093949e-01,2.144097185523186899e-01
1.012999999999999901e+00,-1.234416856318873296e-01,-1.110572108685230208e-01,1.472433740223922927e-01
1.014000000000000012e+00,6.344943380258136201e-02,-1.006806640395059710e-01,2.753592873890725601e-02
1.014999999999999902e+00,-1.321899848184003579e-02,1.288599546603269759e-02,-2.057961234239221587e-02
1.016000000000000014e+00,-2.572075023565009166e-01,1.514268051542687343e-01,4.650849439822334758e-02
1.016999999999999904e+00,-3.743229678403251492e-01,8.028001264009193561e-02,2.276078798406281078e-01
1.018000000000000016e+00,-2.628569529966159890e-01,-1.392501245730483062e-01,3.127035616267164753e-01
1.018999999999999906e+00,1.240568566593181488e-01,-4.249036786929262233e-01,2.227134084046368812e-01
1.020000000000000018e+00,4.652766588960378646e-01,-4.587321551707055356e-01,8.186485045141304179e-03
1.020999999999999908e+00,5.655378938517282572e-01,-2.782207027547124456e-01,-2.111067177876506384e-01
1.022000000000000020e+00,3.574694286944690713e-01,5.940437613147101642e-02,-2.739012367668448023e-01
1.022999999999999909e+00,7.932558242913338720e-02,2.089935454279264193e-01,-1.675200348752722834e-01
1.024000000000000021e+00,-1.131414416799201988e-01,1.805235172446486014e-01,-1.442242957286482205e-02
1.024999999999999911e+00,-2.142964293931703262e-02,-2.124158894313744883e-02,-1.649640378739566579e-03
1.026000000000000023e+00,1.971224743877371954e-01,-1.023264788689834670e-01,-1.015980803843966884e-01
1.026999999999999913e+00,2.911665423057219759e-01,1.043641957437833889e-02,-2.296690961141693021e-01
1.028000000000000025e+00,7.475360896139016109e-02,2.612914642489452266e-01,-2.829548989458239849e-01
1.028999999999999915e+00,-2.962525592643740491e-01,4.598520002096413428e-01,-1.729788848382783906e-01
1.030000000000000027e+00,-5.719963048354547164e-01,3.958941069992274464e-01,5.213354547221406982e-02
1.030999999999999917e+00,-5.502471220049192091e-01,1.378932927971212585e-01,2.901631825901624939e-01
1.032000000000000028e+00,-2.570633414640741132e-01,-1.700881195720155004e-01,2.848907104498294429e-01
1.032999999999999918e+00,8.567435558116706651e-02,-2.875690130409081502e-01,1.968995305651647099e-01
1.034000000000000030e+00,1.996356757859026054e-01,-1.619146867388797928e-01,1.671780568460825428e-02
1.034999999999999920e+00,2.345686786117992181e-02,5.698083020761486985e-04,-5.934232682183525343e-02
1.036000000000000032e+00,-1.510514228309192408e-01,7.074228291476768182e-02,5.703859842068194352e-02
1.036999999999999922e+00,-1.788613360857657097e-01,-9.636301402953129092e-02,2.051171771138300404e-01
1.038000000000000034e+00,5.075699875415499301e-02,-3.621558837329421632e-01,2.080997914047064412e-01
1.038999999999999924e+00,4.086640884175118948e-01,-4.302315017904459471e-01,8.797526972820726709e-02
1.040000000000000036e+00,6.259074450432108305e-01,-3.026696170312433432e-01,-1.901481831984191961e-01
1.040999999999999925e+00,4.799794036416075160e-01,2.173290707003184413e-02,-3.197799928204007602e-01
1.042000000000000037e+00,1.587977371608192134e-01,3.071118676265339187e-01,-3.111209066752873564e-01
1.042999999999999927e+00,-1.808327989520573109e-01,3.617358268567680279e-01,-1.715830239458835393e-01
1.044000000000000039e+00,-2.122504339561707420e-01,1.767757218095324379e-01,1.764524528628552691e-02
1.044999999999999929e+00,-6.227393708970395403e-02,-2.479041697133099395e-02,7.093226879240230320e-02
1.046000000000000041e+00,9.460039518430850281e-02,-3.207249571030968555e-02,-4.337958414147953523e-02
1.046999999999999931e+00,9.396260355001075093e-02,1.621707378658104604e-01,-1.723633069624458114e-01
1.048000000000000043e+00,-1.631283701612567805e-01,3.415353916346599572e-01,-1.810701291400877710e-01
1.048999999999999932e+00,-4.928541780130805683e-01,3.815254135724613360e-01,9.538006014889690741e-04
1.050000000000000044e+00,-6.155879472841286892e-01,1.218697043674011049e-01,2.206290928195264456e-01
1.050999999999999934e+00,-3.877885150460169683e-01,-2.013052661668129906e-01,3.411897319168500364e-01
1.052000000000000046e+00,3.830282684631096998e-03,-4.026951620347746785e-01,3.147865802520431466e-01
1.052999999999999936e+00,2.844478208577305156e-01,-3.176609700855919094e-01,1.515754008912268691e-01
1.054000000000000048e+00,3.258600819269864557e-01,-1.129237422236866323e-01,-5.926851976012864620e-02
1.054999999999999938e+00,1.027016070853298407e-01,1.581321784983140757e-02,-9.139082018784189243e-02
1.056000000000000050e+00,-3.498399803718062195e-02,-2.542336253071263846e-02,1.391743656431535317e-02
1.056999999999999940e+00,-1.301817478680747722e-02,-1.869303878827799636e-01,1.234556514024199581e-01
1.058000000000000052e+00,2.758765228230065092e-01,-3.313470063779545005e-01,8.225420212500954287e-02
1.058999999999999941e+00,5.133364202788571751e-01,-2.438007336629509081e-01,-8.337865962360169192e-02
1.060000000000000053e+00,5.244886986271669604e-01,5.507998318122307724e-02,-2.441204651538104176e-01
1.060999999999999943e+00,2.252392023198277748e-01,3.577736058799985130e-01,-3.558331431510627363e-01
1.062000000000000055e+00,-1.456281467269929242e-01,4.291623918272051696e-01,-2.922827680484265667e-01
1.062999999999999945e+00,-4.595663079726832745e-01,2.917088686548678922e-01,-6.425742251709788688e-02
1.064000000000000057e+00,-3.288449616672088904e-01,4.782862040253920560e-02,1.056638598280886104e-01
1.064999999999999947e+00,-1.270767667378089605e-01,-5.646544441393834546e-02,1.307993791047638854e-01
1.066000000000000059e+00,5.310097081051057960e-02,2.816227647665248482e-02,5.540061150836789877e-02
1.066999999999999948e+00,-3.221849775765531915e-02,1.922425365028689326e-01,-7.188152592826331511e-02
1.068000000000000060e+00,-3.176845927186274787e-01,2.589898039672581809e-01,-7.208799484434411098e-02
1.068999999999999950e+00,-4.546390252788335973e-01,1.066620083953435938e-01,1.244773103945500670e-01
1.070000000000000062e+00,-4.293739676289532459e-01,-2.398518016237133066e-01,3.078670798747288884e-01
1.070999999999999952e+00,-9.782489112936235132e-02,-4.569574799937229925e-01,3.788360610667110273e-01
1.072000000000000064e+00,3.337418569963067072e-01,-4.210392240188836066e-01,2.337175314325826980e-01
1.072999999999999954e+00,4.992728639478505315e-01,-2.364650409337064885e-01,-8.777485955515709759e-03
1.074000000000000066e+00,3.604603899887376395e-01,3.095363175590419569e-02,-1.437348626441536104e-01
1.074999999999999956e+00,1.032141237234632525e-01,1.166884473113726089e-01,-1.857630448695227199e-01
1.076000000000000068e+00,-3.744368540322716432e-02,-1.677959785034707427e-02,-5.105435072725405393e-02
1.076999999999999957e+00,3.907933300147462680e-02,-1.550985495770356437e-01,3.205644215231318733e-02
1.078000000000000069e+00,3.009269691435839666e-01,-1.516283848110726862e-01,5.570935781176004908e-02
1.078999999999999959e+00,4.336834103300143961e-01,8.950512438465252352e-02,-1.330216722817238184e-01
1.080000000000000071e+00,2.573811731589655261e-01,3.338012495364051091e-01,-3.004893727659540548e-01
1.080999999999999961e+00,-1.221690437303213500e-01,4.966441818783974282e-01,-2.991609993074206830e-01
1.082000000000000073e+00,-4.689712654040176232e-01,3.601806385234347374e-01,-1.716442061103788108e-01
1.082999999999999963e+00,-5.545814677725424691e-01,8.349258722691357826e-02,7.413502323553899931e-02
1.084000000000000075e+00,-3.319354533105001726e-01,-1.373210963642955695e-01,2.287020116290900962e-01
1.084999999999999964e+00,-3.006703582413314951e-02,-1.679415416973573938e-01,2.296002121126696771e-01
1.086000000000000076e+00,8.807655029587350970e-02,-1.850240026783998501e-02,9.399107482137243619e-02
1.086999999999999966e+00,-1.254438672490736442e-02,1.037126920063126539e-01,1.620646625203412588e-03
1.088000000000000078e+00,-2.759989078811936336e-01,3.219842130583611822e-02,2.001331438530846996e-02
1.088999999999999968e+00,-3.229721501482183399e-01,-1.711130573460210857e-01,1.538540385868702731e-01
1.090000000000000080e+00,-9.247135140577196488e-02,-4.239438369128641360e-01,2.902895239366846680e-01
1.090999999999999970e+00,2.966235223798714404e-01,-4.590192424765066059e-01,2.238202779079127291e-01
1.092000000000000082e+00,5.650143305488872780e-01,-2.590288599396767255e-01,8.832844483085811049e-02
1.092999999999999972e+00,5.437275320336482087e-01,4.833980297339487975e-02,-1.558133475488541198e-01
1.094000000000000083e+00,2.618992637943023949e-01,2.523977803241281292e-01,-3.065227392061150025e-01
1.094999999999999973e+00,-1.361112920566732824e-02,2.101460112230933985e-01,-2.397206520742350411e-01
1.096000000000000085e+00,-1.335964334449331048e-01,3.184504794563020047e-02,-7.691084196121103500e-02
1.096999999999999975e+00,1.945848329714947381e-02,-7.646746895176215197e-02,9.637224368835945951e-03
1.098000000000000087e+00,2.146235133157188280e-01,1.402945483601012247e-02,-4.596616369264425184e-02
1.098999999999999977e+00,2.315549399129697150e-01,2.939374729577144407e-01,-1.581107331739385058e-01
1.100000000000000089e+00,-5.564261133913781660e-02,4.468914235002792168e-01,-2.358514558714521758e-01
1.100999999999999979e+00,-4.117806973369951273e-01,3.711513482811862330e-01,-1.906494767279157676e-01
1.102000000000000091e+00,-6.293741848452083509e-01,1.074386923952984352e-01,-2.621108451735458186e-02
1.102999999999999980e+00,-4.794111301985124474e-01,-2.242738259481616703e-01,2.049919301775176006e-01
1.104000000000000092e+00,-1.333751252404287158e-01,-3.205832429630101066e-01,3.021596258006886693e-01
1.104999999999999982e+00,1.576939236890878560e-01,-1.817029537829856212e-01,2.401317141156863177e-01
1.106000000000000094e+00,2.382949881710104134e-01,7.295715991994582324e-03,5.542334927006924150e-02
1.106999999999999984e+00,2.214990335300732680e-02,2.992038852779989669e-02,-2.348106247360207469e-02
1.108000000000000096e+00,-1.565966917188804375e-01,-9.958926774945488225e-02,1.073041814146582715e-02
1.108999999999999986e+00,-1.185414616878983501e-01,-3.020020091956816533e-01,8.188613960367283062e-02
1.110000000000000098e+00,1.787064741567228054e-01,-3.866750824883300464e-01,1.754909025527011945e-01
1.110999999999999988e+00,4.950599492923303258e-01,-2.393662184572360463e-01,1.244190024551208307e-01
1.112000000000000099e+00,5.936297289329220961e-01,5.289761627866859661e-02,-7.973116762020007742e-02
1.112999999999999989e+00,3.616894823210220489e-01,3.389665982988646631e-01,-2.761600523793774076e-01
1.114000000000000101e+00,1.979894982211622637e-03,3.814703026786800955e-01,-3.715931592359750235e-01
1.114999999999999991e+00,-2.533023818582220699e-01,1.783144147585737638e-01,-2.692933166762445651e-01
1.116000000000000103e+00,-2.475147511021049407e-01,-3.757339584718891179e-02,-7.766623634445243840e-02
1.116999999999999993e+00,-6.002562861085384421e-02,-2.769500886005228993e-02,7.422822566153898516e-02
1.118000000000000105e+00,7.428584863769087387e-02,1.557139422468170609e-01,3.267607252471977503e-02
1.118999999999999995e+00,-1.066966676328080094e-02,3.367483410348631745e-01,-9.185438969832261658e-02
1.120000000000000107e+00,-2.937625165308379027e-01,3.216820876697958353e-01,-1.511464477077702762e-01
1.120999999999999996e+00,-5.460226377430950073e-01,8.795583767973520761e-02,-5.469868997485926448e-02
1.122000000000000108e+00,-5.286443336717783215e-01,-2.552411359500427745e-01,1.392626004477102164e-01
1.122999999999999998e+00,-2.536778373665803943e-01,-4.208704835398868749e-01,3.551905381711084053e-01
1.124000000000000110e+00,1.455160147779377966e-01,-3.675764010528544956e-01,3.743889771659557608e-01
1.125000000000000000e+00,3.498182949338466963e-01,-1.253208734585616602e-01,2.150084717731574335e-01
1.125999999999999890e+00,3.133517879461639732e-01,3.055976578155195425e-02,-1.807621364903856404e-03
1.127000000000000002e+00,1.042211797626348274e-01,1.993130812314967276e-02,-1.149784285695215486e-01
1.127999999999999892e+00,-6.834263340608605353e-02,-1.645825266227001205e-01,-7.613229510644656250e-02
1.129000000000000004e+00,4.901523193954446939e-02,-2.800768396857023501e-01,4.765867803911812833e-02
1.129999999999999893e+00,3.024528128595732612e-01,-1.871204811540653767e-01,1.292014929339120044e-01
1.131000000000000005e+00,5.149470548163125327e-01,9.542933565780027660e-02,1.409439059494011111e-02
1.131999999999999895e+00,4.232344125026285542e-01,3.686656783474387966e-01,-2.142797208450899771e-01
1.133000000000000007e+00,7.530022156340052120e-02,4.578947199011711433e-01,-3.529271275156107279e-01
1.133999999999999897e+00,-3.167284899697629941e-01,3.241189869409867863e-01,-3.077578570437287664e-01
1.135000000000000009e+00,-4.664207962261120444e-01,4.178872520014820929e-02,-1.493577631826500940e-01
1.135999999999999899e+00,-3.293340757699916854e-01,-1.122437895060424962e-01,6.612405024106378371e-02
1.137000000000000011e+00,-7.161508564642492247e-02,-4.184746224358561195e-02,1.551282865935240673e-01
1.137999999999999901e+00,3.054883758233815916e-02,1.246300730550729263e-01,1.222276468012395978e-01
1.139000000000000012e+00,-8.177093771287372026e-02,1.956033914240744853e-01,8.413045779089115342e-03
1.139999999999999902e+00,-3.027407103076101835e-01,5.629251027900315785e-02,-8.054767143243231342e-02
1.141000000000000014e+00,-4.638874732498698972e-01,-2.883263260142077677e-01,3.821323974967684445e-02
1.141999999999999904e+00,-2.775211306369460007e-01,-4.381353214015403785e-01,2.205257976658217545e-01
1.143000000000000016e+00,1.003929681300637089e-01,-4.239432328988315124e-01,3.441097219423953080e-01
1.143999999999999906e+00,4.923932605529143247e-01,-2.108410476567618430e-01,2.837491670462330973e-01
1.145000000000000018e+00,5.043630615533066797e-01,5.701826927870477790e-02,6.092978119508017654e-02
1.145999999999999908e+00,3.223807563082173866e-01,1.460070013933423561e-01,-1.241296904956115110e-01
1.147000000000000020e+00,2.747021372413960966e-02,2.527051812745164869e-02,-2.265902130850641905e-01
1.147999999999999909e+00,-6.382423335319319102e-02,-1.015512748415022121e-01,-1.313346205014590817e-01
1.149000000000000021e+00,6.887405470712965050e-02,-1.106901488464236416e-01,-5.557813388309230246e-03
1.149999999999999911e+00,3.136406438940642638e-01,9.277428351326522105e-02,2.841785413392175844e-03
1.151000000000000023e+00,3.358390033796787022e-01,3.350221509454122115e-01,-7.083138332141426796e-02
1.151999999999999913e+00,1.003680331079270655e-01,4.827600782050006090e-01,-2.362545115089377534e-01
1.153000000000000025e+00,-3.075640943584365683e-01,3.458933690159616270e-01,-3.150189229827200510e-01
1.153999999999999915e+00,-5.766994550808470787e-01,6.882087242977100172e-02,-1.973929569437299081e-01
1.155000000000000027e+00,-5.409131986973424455e-01,-1.581769187540153221e-01,-8.676733296475291207e-03
1.155999999999999917e+00,-2.678057752947757830e-01,-1.961816695502281438e-01,2.074777160665478570e-01
1.157000000000000028e+00,2.635846926395116543e-02,-4.602477497514767535e-02,2.506703294428982987e-01
1.157999999999999918e+00,1.003342983299185670e-01,6.298638476492351979e-02,2.060501600463409133e-01
1.159000000000000030e+00,-7.791745037587016753e-02,5.917324928580217080e-02,2.966794426410905572e-02
1.159999999999999920e+00,-2.354042881943753107e-01,-2.034061198480051069e-01,-4.064280611801981274e-02
1.161000000000000032e+00,-2.310468115934979361e-01,-4.418650994720327296e-01,9.506831482324316906e-02
1.161999999999999922e+00,6.595470346343206003e-02,-4.204710137073321974e-01,2.331878797583240848e-01
1.163000000000000034e+00,4.067164113517161006e-01,-2.054830281747844212e-01,2.947276485573996352e-01
1.163999999999999924e+00,5.990867094722892583e-01,9.977244746684786614e-02,1.707015467587225388e-01
1.165000000000000036e+00,4.831924637584570359e-01,2.640209785165386069e-01,-7.151479852401951276e-02
1.165999999999999925e+00,1.648446931616068534e-01,2.629786722669801291e-01,-2.818036906240239392e-01
1.167000000000000037e+00,-1.231194067372397422e-01,3.739050995651316267e-02,-3.124997229602349269e-01
1.167999999999999927e+00,-1.843689146391138400e-01,-4.562548281061712396e-02,-2.165488672825945649e-01
1.169000000000000039e+00,-3.423280384357851175e-02,4.758764646701237749e-02,-1.535919057212892756e-02
1.169999999999999929e+00,2.050492590922524117e-01,2.829082240238400270e-01,4.739121003643286673e-02
1.171000000000000041e+00,1.367636357961321547e-01,4.316793926152790450e-01,-2.378843049162547574e-02
1.171999999999999931e+00,-1.876358115580185615e-01,3.548740111384058316e-01,-1.938859010423653328e-01
1.173000000000000043e+00,-5.225441406215811657e-01,6.657072732455554531e-02,-2.201406256846260567e-01
1.173999999999999932e+00,-6.036564589452870777e-01,-2.653665228678415144e-01,-8.514435701417055746e-02
1.175000000000000044e+00,-3.925835624780405486e-01,-3.679028593366827637e-01,1.525420026840806353e-01
1.175999999999999934e+00,-1.564194074387721331e-02,-2.613584401681701697e-01,3.206274736297143324e-01
1.177000000000000046e+00,1.986343259301995012e-01,-5.363530543306450904e-02,3.129002501314326334e-01
1.177999999999999936e+00,2.385905549681131554e-01,4.560291053070746753e-02,1.614111488180417775e-01
1.179000000000000048e+00,1.816332786824150294e-02,-9.431673080580656177e-02,-5.725644448524015023e-02
1.179999999999999938e+00,-1.176921117587133997e-01,-3.281459290190984479e-01,-8.189415659444547468e-02
