time,acc_x,acc_y,acc_z
0.000000000000000000e+00,-1.845921717622360514e-01,-2.593797950189371537e-01,2.142350848779689051e-02
1.000000000000000021e-03,-5.395632377123872336e-01,-4.729701879449517143e-01,-2.738906678240404791e-01
2.000000000000000042e-03,-4.471501744778770271e-01,-2.301688045054438858e-01,-3.286463942401368077e-01
3.000000000000000062e-03,8.602891373794287200e-02,1.720138053471249040e-01,-1.069197239255608722e-01
4.000000000000000083e-03,5.038456089649889780e-01,4.472695714131887379e-01,2.121146103452279386e-01
5.000000000000000104e-03,4.900015550635316575e-01,2.714533193447111747e-01,3.147374557931250094e-01
6.000000000000000125e-03,-6.412783641370766417e-03,-1.459819043894877988e-01,1.447709059844902724e-01
7.000000000000000146e-03,-3.984091707337292232e-01,-3.707979348021411270e-01,-1.447678572913788375e-01
8.000000000000000167e-03,-3.919607722897627267e-01,-2.488827097561737145e-01,-2.723318839724498397e-01
8.999999999999999320e-03,-3.985817572514982476e-02,1.235815727036136680e-01,-1.310595087417606996e-01
1.000000000000000021e-02,3.420659622126243082e-01,3.499237478855804495e-01,1.095572298478505180e-01
1.099999999999999936e-02,3.632861830224478061e-01,1.670642101502614330e-01,2.153552039407068408e-01
1.200000000000000025e-02,1.294148084739158051e-02,-1.380276504527831183e-01,9.799434828132139175e-02
1.299999999999999940e-02,-3.485003379439382543e-01,-2.806201569537821738e-01,-1.207879555993940923e-01
1.400000000000000029e-02,-2.945526820790139166e-01,-1.042805599309573894e-01,-2.269328052354094016e-01
1.499999999999999944e-02,9.921886028246885980e-02,1.954805769313162911e-01,-7.984201237512551785e-02
1.600000000000000033e-02,4.064024591926659880e-01,3.095164123637604292e-01,1.504367861554716801e-01
1.700000000000000122e-02,3.064488573805114191e-01,7.289038238910776346e-02,2.506633504491432851e-01
1.799999999999999864e-02,-9.387468543236797414e-02,-2.560363195404620207e-01,4.966036970978510157e-02
1.899999999999999953e-02,-3.855477657835555960e-01,-3.140460049844003843e-01,-1.733674010614719985e-01
2.000000000000000042e-02,-3.433647813539426052e-01,-6.849359828892483126e-02,-2.852574360115099905e-01
2.100000000000000130e-02,1.130686922669759259e-01,2.672024736913014009e-01,-4.389706576011215278e-02
2.199999999999999872e-02,4.944086648214869872e-01,3.749335740098898029e-01,1.960428247629862342e-01
2.299999999999999961e-02,3.810043707842797889e-01,1.114016988393942420e-01,3.018439633369957020e-01
2.400000000000000050e-02,-9.559588082908204720e-02,-2.971718263180135322e-01,1.091269979362070597e-01
2.500000000000000139e-02,-5.478244872423760903e-01,-4.177445900587305472e-01,-1.916513801046156040e-01
2.599999999999999881e-02,-4.330733095847128511e-01,-1.565537131797936909e-01,-3.501059969890878421e-01
2.699999999999999969e-02,4.279514390570257620e-02,3.179253675574937876e-01,-2.347424508176232383e-01
2.800000000000000058e-02,5.052218644485222399e-01,4.803153694943584351e-01,1.672807253988809195e-01
2.900000000000000147e-02,5.621221239512930179e-01,2.770325747619729051e-01,3.613239115168958016e-01
2.999999999999999889e-02,6.835815386956652084e-02,-2.864578072899698902e-01,2.908237544767292571e-01
3.099999999999999978e-02,-4.886755045362240479e-01,-5.012281594002153673e-01,-6.762375932651691623e-02
3.200000000000000067e-02,-5.677505063760499571e-01,-3.231777766268684182e-01,-3.574929290306612106e-01
3.300000000000000155e-02,-1.526438248437821943e-01,1.651065230478422630e-01,-2.893751941864507460e-01
3.400000000000000244e-02,3.867168568305323628e-01,4.372072285001536995e-01,2.598001634629816883e-02
3.500000000000000333e-02,5.865908731645347318e-01,3.102081060978348903e-01,2.932605689903254875e-01
3.599999999999999728e-02,2.450419725890568834e-01,-1.505383921623190679e-01,3.068316411388944953e-01
3.699999999999999817e-02,-2.604295457691174764e-01,-3.943443574072830193e-01,4.517320922472164296e-02
3.799999999999999906e-02,-5.614092051123603655e-01,-2.632616253771025705e-01,-2.568858492184054043e-01
3.899999999999999994e-02,-2.093746717133547208e-01,1.015548491370430462e-01,-2.718328124062093232e-01
4.000000000000000083e-02,2.413196993019365022e-01,3.679600903192736805e-01,-1.094989893028163463e-01
4.100000000000000172e-02,4.081636623272046904e-01,2.405314929135435320e-01,2.254566901802291523e-01
4.200000000000000261e-02,1.876848496591423943e-01,-1.069635772786162869e-01,2.642030230848564920e-01
4.299999999999999656e-02,-2.094466059441172645e-01,-3.052083668184465970e-01,7.392715160204131608e-02
4.399999999999999745e-02,-4.005410053580682472e-01,-1.730803042651830881e-01,-1.735624468752423599e-01
4.499999999999999833e-02,-2.060917294008916822e-01,1.239171988501307359e-01,-2.179510412352269610e-01
4.599999999999999922e-02,2.488592399134164079e-01,2.907200682604348940e-01,-4.699676419901820112e-02
4.700000000000000011e-02,3.777219573175418232e-01,1.380096765556452221e-01,1.372294291193563998e-01
4.800000000000000100e-02,6.999269156809644066e-02,-1.800542878651981149e-01,1.821171294166612220e-01
4.900000000000000189e-02,-2.442684745235499388e-01,-2.767477273366064083e-01,3.660372603920754309e-02
5.000000000000000278e-02,-3.610496363959360688e-01,-1.250312783404418648e-01,-2.050095745325018204e-01
5.099999999999999672e-02,-6.871396726998860172e-02,2.100674382923902184e-01,-2.357450352921371672e-01
5.199999999999999761e-02,3.350033476618865524e-01,3.635864286234113951e-01,-4.031974099920920818e-02
5.299999999999999850e-02,4.402937381431994424e-01,1.357904851871893359e-01,2.189157689932589856e-01
5.399999999999999939e-02,9.396873500687052960e-02,-2.972240978771271691e-01,2.346772105981912715e-01
5.500000000000000028e-02,-3.425670241926311865e-01,-4.524869536654599900e-01,4.425277248867825336e-02
5.600000000000000117e-02,-5.573643955166671660e-01,-1.846289801036323786e-01,-2.622018167924909382e-01
5.700000000000000205e-02,-1.662351984381703895e-01,2.530890924916489038e-01,-3.240327605242940834e-01
5.800000000000000294e-02,3.632531887480393018e-01,4.877790427992494404e-01,-1.071818276019336214e-01
5.899999999999999689e-02,5.905712896892146846e-01,2.998725704790241031e-01,2.441178475156184913e-01
5.999999999999999778e-02,2.524690560508524029e-01,-2.282629682857852671e-01,3.526831513225584525e-01
6.099999999999999867e-02,-3.320889151028626474e-01,-4.904030359612092105e-01,1.703274994890557892e-01
6.199999999999999956e-02,-6.348768373321407310e-01,-2.938712014462689925e-01,-1.948831961111960609e-01
6.300000000000000044e-02,-3.385096191032519464e-01,1.801568669402907052e-01,-3.484185928350437278e-01
6.400000000000000133e-02,2.132607539473710956e-01,4.970129524287600908e-01,-2.322723625975191275e-01
6.500000000000000222e-02,5.885960578312811053e-01,3.213001909698147696e-01,8.709782466293257419e-02
6.600000000000000311e-02,4.247729261908306797e-01,-9.328419583078773059e-02,3.489673291616373074e-01
6.700000000000000400e-02,-1.007334185960020861e-01,-4.306767024291542345e-01,2.904387580908011635e-01
6.800000000000000488e-02,-5.030650223352723938e-01,-3.619565215620639265e-01,-7.617521618370548531e-02
6.900000000000000577e-02,-4.514014459748537655e-01,4.917240348026635788e-02,-2.923071914264025462e-01
7.000000000000000666e-02,-4.938699220684204805e-03,3.930159089120511817e-01,-3.212935493573191303e-01
7.099999999999999367e-02,4.225901447393320409e-01,3.049509587302424163e-01,7.578385006883012372e-03
7.199999999999999456e-02,4.123271711685051466e-01,-6.585235591081566031e-02,2.536006626845100920e-01
7.299999999999999545e-02,-1.011434787253832381e-02,-3.282751388169602436e-01,2.456021637554036130e-01
7.399999999999999634e-02,-3.841288144353460221e-01,-2.469409168492017470e-01,-4.622781641943244507e-03
7.499999999999999722e-02,-3.621024854853381880e-01,3.503241433991560738e-02,-1.725239803301256702e-01
7.599999999999999811e-02,2.373010414291128883e-02,3.015662507773022027e-01,-2.402764686550784845e-01
7.699999999999999900e-02,3.727818343891026731e-01,1.791742686340920265e-01,-1.750759104254122692e-02
7.799999999999999989e-02,2.423383675766019318e-01,-1.170851417855289511e-01,1.684703484560693965e-01
7.900000000000000078e-02,-6.356379092576799894e-02,-2.806155566200608242e-01,2.015001487925274504e-01
8.000000000000000167e-02,-3.765742564153059524e-01,-1.754183566001278893e-01,-4.304230855748044510e-02
8.100000000000000255e-02,-2.496590342117174788e-01,1.659205804958769348e-01,-1.939917252302014727e-01
8.200000000000000344e-02,1.131535478316210153e-01,3.303279326488601231e-01,-1.601332377987773614e-01
8.300000000000000433e-02,3.924343863147674583e-01,1.586472358814655370e-01,4.291144030567474454e-02
8.400000000000000522e-02,2.863335652511053153e-01,-1.890420273138755380e-01,2.525741777783029884e-01
8.500000000000000611e-02,-1.828411970484231930e-01,-3.800633094048850857e-01,1.635258745159069993e-01
8.599999999999999312e-02,-4.368378890665990388e-01,-2.258557312791560912e-01,-5.194279758828197063e-02
8.699999999999999400e-02,-3.564677942609377759e-01,2.089855221233230254e-01,-3.008099710519497871e-01
8.799999999999999489e-02,1.282023777869216175e-01,4.840207222601867754e-01,-2.469280462594098391e-01
8.899999999999999578e-02,5.277279515596454695e-01,2.853207996790812495e-01,1.546675169594810550e-02
8.999999999999999667e-02,4.167130194414128685e-01,-2.413986401999733966e-01,3.001779979878326787e-01
9.099999999999999756e-02,-1.444091339001713215e-01,-4.888622417016427191e-01,2.918422515520598393e-01
9.199999999999999845e-02,-5.360961512116049210e-01,-3.826290384306700321e-01,2.437755404249155114e-02
9.299999999999999933e-02,-5.457348798233955245e-01,1.323745846573998186e-01,-3.077491290105626165e-01
9.400000000000000022e-02,4.904955320113744879e-04,4.588948089662031604e-01,-3.350590663053521490e-01
9.500000000000000111e-02,5.065104002999641919e-01,3.556301531848912734e-01,-1.038703296989307162e-01
9.600000000000000200e-02,5.641469511992912578e-01,-7.814161296961959213e-02,2.117718336677388569e-01
9.700000000000000289e-02,7.611058079506032026e-02,-4.322614715933021379e-01,3.551694153685365229e-01
9.800000000000000377e-02,-4.148654798302522928e-01,-3.998423397570634585e-01,1.609698640811983439e-01
9.900000000000000466e-02,-5.977191528105394447e-01,-2.481697047037013243e-02,-1.652266859650919351e-01
1.000000000000000056e-01,-1.483874031161696583e-01,3.599948905040796787e-01,-3.308162163577231807e-01
1.010000000000000064e-01,3.351802108839984085e-01,4.029600988534399186e-01,-2.300585957639322554e-01
1.019999999999999934e-01,5.447783760676214726e-01,2.692713932109972244e-02,1.245549326823458536e-01
1.029999999999999943e-01,1.935810176524104531e-01,-3.078814446060504917e-01,3.110868894310727106e-01
1.039999999999999952e-01,-2.488209016248011107e-01,-3.116842935524860581e-01,2.547902563883006621e-01
1.049999999999999961e-01,-4.416873810407879186e-01,-8.741669580755971614e-03,-2.223799098543469480e-02
1.059999999999999970e-01,-1.638253569073708227e-01,2.559865475826934578e-01,-2.772863366546221564e-01
1.069999999999999979e-01,2.616172469204333662e-01,3.142433569331538612e-01,-2.093086445450867972e-01
1.079999999999999988e-01,3.960916744894444896e-01,-1.724407695868896556e-02,3.969295055970442632e-02
1.089999999999999997e-01,1.554079456300325734e-01,-2.456578503108102773e-01,2.026828059094973600e-01
1.100000000000000006e-01,-2.355331277190182426e-01,-2.126569711330428547e-01,2.059572324557286116e-01
1.110000000000000014e-01,-3.577269100860632212e-01,7.798112440684627777e-02,-1.990739350482948963e-02
1.120000000000000023e-01,-6.970967461894476969e-02,2.937980825012682096e-01,-2.123956861691449483e-01
1.130000000000000032e-01,2.837516616531395308e-01,1.995090559966631871e-01,-1.311927686564300366e-01
1.140000000000000041e-01,3.449399695827251033e-01,-8.633315993435840274e-02,5.449253875261072383e-02
1.150000000000000050e-01,4.832333882056442931e-02,-3.460953741864188360e-01,2.599094074643152341e-01
1.160000000000000059e-01,-3.647817372195166774e-01,-2.440964383846982999e-01,1.482644403175721881e-01
1.170000000000000068e-01,-4.402232851111430589e-01,1.517164620652022011e-01,-8.284619422180368453e-02
1.179999999999999938e-01,-7.794011251006889573e-02,4.051851335372468887e-01,-2.946955790876506498e-01
1.189999999999999947e-01,3.889557500859732175e-01,2.719084934013398236e-01,-1.802925915104627574e-01
1.199999999999999956e-01,5.315787479660111225e-01,-1.589833216327695975e-01,1.013333370900425245e-01
1.209999999999999964e-01,1.615355115935783736e-01,-4.672899183666204825e-01,2.976731724997341288e-01
1.219999999999999973e-01,-4.245517275013502290e-01,-3.351548441509942244e-01,2.461876613416814630e-01
1.229999999999999982e-01,-6.133584579056696739e-01,6.477428014981616300e-02,-4.725390787404170484e-02
1.239999999999999991e-01,-2.360642644272944457e-01,4.346122328622246678e-01,-3.381918391607813268e-01
1.250000000000000000e-01,3.271133536426177879e-01,3.947368217227080756e-01,-2.931870269194102874e-01
1.260000000000000009e-01,5.919747612331054398e-01,-2.913868270148403314e-02,1.874542603423265397e-02
1.270000000000000018e-01,3.465753119630501367e-01,-4.246679140243270201e-01,2.915656640586533621e-01
1.280000000000000027e-01,-2.493247316613790565e-01,-4.385104767211228105e-01,3.584500290078057594e-01
1.290000000000000036e-01,-6.135318735092349929e-01,-1.692538375026597999e-02,5.661358597290781780e-02
1.300000000000000044e-01,-3.834721416502304137e-01,3.554690573739338055e-01,-2.648877656841522876e-01
1.310000000000000053e-01,1.276430210009164845e-01,4.291555013579248512e-01,-3.082869024735171437e-01
1.320000000000000062e-01,5.437100791390894194e-01,9.816845136833232677e-02,-1.383936091105091026e-01
1.330000000000000071e-01,4.402784397569990960e-01,-3.090476356836064920e-01,1.904823962088813549e-01
1.340000000000000080e-01,-8.424095290058025709e-02,-3.949122676108186014e-01,3.524130832999730067e-01
1.350000000000000089e-01,-4.777737055090338636e-01,-1.156526950404638543e-01,1.698389822686813266e-01
1.360000000000000098e-01,-3.845179260591266579e-01,2.668471459088008757e-01,-1.462303047293096736e-01
1.370000000000000107e-01,3.785236425127713744e-02,2.966617279950576336e-01,-3.010252179291474373e-01
1.380000000000000115e-01,4.042621205964662678e-01,7.429548898178552074e-02,-1.834053951700796992e-01
1.390000000000000124e-01,3.327415992792219779e-01,-2.535148125489358750e-01,1.028152460701413640e-01
1.400000000000000133e-01,-3.742889722206034497e-02,-2.695927734068421788e-01,2.250721200918968101e-01
1.409999999999999865e-01,-3.467696109024805406e-01,-1.211456907713251777e-02,1.604974637279063809e-01
1.419999999999999873e-01,-2.771675017710565903e-01,2.546984724816580004e-01,-1.004294514406490479e-01
1.429999999999999882e-01,1.295008427189113243e-01,2.498314796820623185e-01,-2.018252336824262472e-01
1.439999999999999891e-01,3.260929573954862160e-01,-3.953376112189724984e-02,-1.138306153084531480e-01
1.449999999999999900e-01,2.817285764713974294e-01,-2.930303107741072388e-01,1.124946927020073345e-01
1.459999999999999909e-01,-1.414436140106618556e-01,-2.595386251466478278e-01,2.457898500952432064e-01
1.469999999999999918e-01,-4.238668327372668854e-01,7.614378536309736323e-02,9.932311846752144013e-02
1.479999999999999927e-01,-2.351762421007212167e-01,3.444502420092462880e-01,-1.196081132373091743e-01
1.489999999999999936e-01,1.874768013479813367e-01,2.817296416504729839e-01,-2.224007140767749469e-01
1.499999999999999944e-01,4.654188780053227226e-01,-5.348826796951393348e-02,-8.524976002801552821e-02
1.509999999999999953e-01,3.222673520355867072e-01,-4.122324012264974580e-01,1.678585919846634078e-01
1.519999999999999962e-01,-2.030218563441435753e-01,-3.308949133991312408e-01,2.806705152519847202e-01
1.529999999999999971e-01,-5.557427221009014762e-01,3.862075554333929683e-02,1.707739983098293945e-01
1.539999999999999980e-01,-3.804576534788336462e-01,4.247000980745709309e-01,-1.586244102000176071e-01
1.549999999999999989e-01,1.262284481379368495e-01,4.093030975925093240e-01,-3.421050143844596714e-01
1.559999999999999998e-01,5.418136801017010562e-01,9.679955669544543576e-03,-2.072760779413113374e-01
1.570000000000000007e-01,4.669329776798695764e-01,-4.138950849998203063e-01,1.293930835474133290e-01
1.580000000000000016e-01,-3.419538463451923110e-02,-4.368544967798991263e-01,3.614063841424376422e-01
1.590000000000000024e-01,-4.926565883700206872e-01,-7.016314259234994466e-02,2.935437362479054180e-01
1.600000000000000033e-01,-5.268230399561263377e-01,3.885628179317386910e-01,-3.920769031073227662e-02
1.610000000000000042e-01,-3.792723110015060878e-02,4.700862937097383121e-01,-3.521719396008124447e-01
1.620000000000000051e-01,4.461140065293511814e-01,1.217653608318536584e-01,-3.388994059481109655e-01
1.630000000000000060e-01,5.330379806410894261e-01,-2.880280803751134044e-01,-4.306646814391507094e-02
1.640000000000000069e-01,1.823888255482035703e-01,-4.342340460809445690e-01,3.403224842587829202e-01
1.650000000000000078e-01,-3.887601527392450240e-01,-1.437901717745158625e-01,3.428487700789031312e-01
1.660000000000000087e-01,-4.842698568471119347e-01,2.119580583357295045e-01,9.589586788870958778e-02
1.670000000000000095e-01,-2.004191640414332287e-01,4.012033665023902462e-01,-2.241522620959222889e-01
1.680000000000000104e-01,2.780471005402886941e-01,1.456600712829738964e-01,-3.331014901320272781e-01
1.690000000000000113e-01,4.754436401761311104e-01,-2.401403498687836036e-01,-1.236783756259422912e-01
1.700000000000000122e-01,1.963874849844492176e-01,-2.872796314336863999e-01,1.681851271394352865e-01
1.710000000000000131e-01,-2.405564981741708797e-01,-1.044567634083647528e-01,2.694903687138184845e-01
1.719999999999999862e-01,-3.945765583940914478e-01,1.924849409125289346e-01,1.197405482244662117e-01
1.729999999999999871e-01,-1.411305028585783938e-01,2.695561169951982694e-01,-1.811125453105018046e-01
1.739999999999999880e-01,2.474786157522071706e-01,5.175686678016079567e-02,-2.779617324485716412e-01
1.749999999999999889e-01,3.214896088202391367e-01,-2.548657103465389873e-01,-8.990486017389230644e-02
1.759999999999999898e-01,7.534213097659291092e-02,-2.721902297646099367e-01,1.134719607115193263e-01
1.769999999999999907e-01,-2.872352818471076152e-01,5.554746288593314513e-02,1.984302968146540724e-01
1.779999999999999916e-01,-3.844266851105931915e-01,3.186092531593721633e-01,7.632198709639183287e-02
1.789999999999999925e-01,-1.487339827120470054e-02,2.840240020949814648e-01,-1.624022586274516122e-01
1.799999999999999933e-01,3.688344225437010793e-01,-4.766826668394077982e-02,-2.258146328755753773e-01
1.809999999999999942e-01,3.880216496290408990e-01,-3.612225504566266565e-01,-4.128055259353027168e-02
1.819999999999999951e-01,-8.471976290320196688e-04,-3.467653418506372875e-01,2.017214802708576782e-01
1.829999999999999960e-01,-3.984360422944225322e-01,-1.436399931474542993e-02,2.745527437635610912e-01
1.839999999999999969e-01,-4.741761893897057378e-01,3.964599521699304630e-01,9.922640203024089833e-02
1.849999999999999978e-01,-1.037169951829144676e-01,4.326087476435353518e-01,-1.999472429798322126e-01
1.859999999999999987e-01,4.472210287113823068e-01,4.102171284788614508e-02,-3.161244794907226430e-01
1.869999999999999996e-01,5.666458901747835064e-01,-3.710368326971241748e-01,-1.363205841570870880e-01
1.880000000000000004e-01,1.802355285061799928e-01,-4.634302051471260175e-01,2.047376139597566758e-01
1.890000000000000013e-01,-4.155325787360019119e-01,-8.852880560863907178e-02,3.663032665714022196e-01
1.900000000000000022e-01,-6.196739361094107945e-01,3.300987928667151183e-01,1.895909258270566389e-01
1.910000000000000031e-01,-2.726841517355551026e-01,5.043177471356498076e-01,-1.596813631927365140e-01
1.920000000000000040e-01,3.076909838939276276e-01,1.323393954628970526e-01,-3.547291397546120106e-01
1.930000000000000049e-01,6.228840919283735733e-01,-2.974807839452593416e-01,-2.303171171909756398e-01
1.940000000000000058e-01,3.903710021412153397e-01,-4.686664476295419046e-01,1.170482918140249712e-01
1.950000000000000067e-01,-2.366952004296244694e-01,-1.838381208517447241e-01,3.364793136047981581e-01
1.960000000000000075e-01,-5.375891254649334261e-01,2.459839333453699706e-01,2.569776465984963676e-01
1.970000000000000084e-01,-4.006891537574195361e-01,4.218471217510786908e-01,-3.676204500123052103e-03
1.980000000000000093e-01,1.261621951823523324e-01,1.867189449427779091e-01,-3.049363215875441346e-01
1.990000000000000102e-01,5.209107037929245898e-01,-1.961205108241144690e-01,-3.066346088158870553e-01
2.000000000000000111e-01,4.030572116297707619e-01,-3.433644775071049704e-01,-1.502984029782813979e-02
2.010000000000000120e-01,-9.839096133852569259e-02,-1.874850183729047937e-01,2.422831846377900278e-01
2.020000000000000129e-01,-4.154061969950983424e-01,1.966473152720364104e-01,2.805932834091094952e-01
2.030000000000000138e-01,-3.338213655104075861e-01,2.827101520988740124e-01,6.739503190067747118e-02
2.039999999999999869e-01,7.779515467975432752e-02,1.361845366674229174e-01,-1.831496811764560251e-01
2.049999999999999878e-01,3.807029952813055784e-01,-1.988400136531452977e-01,-2.555023094805694006e-01
2.059999999999999887e-01,2.922864815525768600e-01,-3.012237923076855339e-01,-9.006486654782645818e-02
2.069999999999999896e-01,-1.130147864775266908e-01,-9.489412918528379592e-02,1.463031162466308932e-01
2.079999999999999905e-01,-3.799739552654580188e-01,2.249705684217773172e-01,2.158169254382548696e-01
2.089999999999999913e-01,-1.962344040870193373e-01,3.057317495352501746e-01,4.576282618343057579e-02
2.099999999999999922e-01,1.262912079077467831e-01,6.027490298678035013e-02,-1.669262064862983563e-01
2.109999999999999931e-01,3.690345833227482442e-01,-2.922718500690680288e-01,-1.778538224911508370e-01
2.119999999999999940e-01,1.972998133350756522e-01,-3.233870521410757704e-01,-1.201674337268513436e-02
2.129999999999999949e-01,-2.203096960236637369e-01,-5.044513090691436080e-02,1.719113676992918838e-01
2.139999999999999958e-01,-4.711102271189044899e-01,3.368817965103905188e-01,2.261720606295207214e-01
2.149999999999999967e-01,-2.990622149100863880e-01,4.292230009243767630e-01,-2.075512139921073529e-02
2.159999999999999976e-01,1.599104136111179075e-01,5.984448132428123873e-02,-2.124060094470266169e-01
2.169999999999999984e-01,5.483938880640568669e-01,-3.481058300940476635e-01,-2.499022333641343074e-01
2.179999999999999993e-01,3.599022515101690245e-01,-4.460809232466076968e-01,-2.396621518160763770e-02
2.190000000000000002e-01,-1.573108119126595816e-01,-1.507195634803623063e-01,2.074528355770366705e-01
2.200000000000000011e-01,-5.809890734583827987e-01,2.993442941858739381e-01,3.229340387357667597e-01
2.210000000000000020e-01,-4.652914165845353223e-01,5.012576306690352812e-01,9.419442872039754389e-02
2.220000000000000029e-01,1.017545007435706889e-01,2.172157471353322600e-01,-2.387656943935523302e-01
2.230000000000000038e-01,5.814935865791114322e-01,-2.822573703569558057e-01,-3.439148931399674258e-01
2.240000000000000047e-01,5.170321228908277833e-01,-4.500940675724943163e-01,-1.465250273542002823e-01
2.250000000000000056e-01,4.498387622457084706e-02,-2.558195381763881948e-01,2.308262626996243072e-01
2.260000000000000064e-01,-5.334530866827793538e-01,1.913848911129865937e-01,3.703718153541293856e-01
2.270000000000000073e-01,-5.518211077239840723e-01,4.598407662538191998e-01,2.078252195094111021e-01
2.280000000000000082e-01,-1.126561645111178039e-01,2.768351605297754148e-01,-1.037884352329824789e-01
2.290000000000000091e-01,4.388870523612857788e-01,-1.275896144211405292e-01,-3.491788452893472283e-01
2.300000000000000100e-01,5.422727296219573834e-01,-3.764457555612239492e-01,-2.390342170985380321e-01
2.310000000000000109e-01,1.380600716854170351e-01,-2.501825832778302172e-01,7.571776982629520314e-02
2.320000000000000118e-01,-3.085632495982665868e-01,8.340151365293868579e-02,3.040328608235596253e-01
2.330000000000000127e-01,-4.812946435730957040e-01,2.840090004409013824e-01,2.683239538327479856e-01
2.340000000000000135e-01,-1.319308309928950429e-01,1.657144655642431574e-01,-1.039884375491710068e-02
2.349999999999999867e-01,2.453326531163468327e-01,-1.332924473796847087e-01,-2.598026533079310085e-01
2.359999999999999876e-01,4.004205251335541393e-01,-3.101148908260349946e-01,-2.503432894654558649e-01
2.369999999999999885e-01,1.205949780117126502e-01,-1.501759887834898666e-01,-4.341523913886814051e-02
2.379999999999999893e-01,-2.666534932509081468e-01,1.914298868520958319e-01,2.054045213003858616e-01
2.389999999999999902e-01,-3.619376343791115280e-01,2.938510511457884666e-01,2.015155139710957943e-01
2.399999999999999911e-01,-5.987185555988024793e-02,1.168044060130290357e-01,-1.563646985702003139e-02
2.409999999999999920e-01,3.311327880560198111e-01,-2.384818588065856226e-01,-2.045814422787991804e-01
2.419999999999999929e-01,3.098487318137164159e-01,-3.261920975851284044e-01,-1.681220232553014560e-01
2.429999999999999938e-01,6.388241475671176291e-03,-8.589179823020501314e-02,1.015400396742742288e-02
2.439999999999999947e-01,-3.604398133700799089e-01,2.403607947207816731e-01,2.284387925563343136e-01
2.449999999999999956e-01,-3.876498715569439701e-01,4.004415564551933593e-01,1.597597462107168131e-01
2.459999999999999964e-01,-4.146020174304269890e-02,1.238210638349251103e-01,-3.974186000511926997e-02
2.469999999999999973e-01,4.214649272108087485e-01,-2.701429921828368830e-01,-2.277095179129694780e-01
2.479999999999999982e-01,4.368792842646074259e-01,-4.380413770974033727e-01,-1.804011501240846971e-01
2.489999999999999991e-01,3.839029264305380412e-02,-1.739983706921551243e-01,4.305164369758677362e-02
2.500000000000000000e-01,-4.487378370810889416e-01,2.841099254861716994e-01,2.522670036195532317e-01
2.510000000000000009e-01,-5.072984270617211244e-01,5.044196944609967703e-01,2.309662451618432477e-01
2.520000000000000018e-01,-1.225417250864716812e-01,2.462863975565679486e-01,-1.459838188632051406e-02
2.530000000000000027e-01,4.140534916332350157e-01,-2.393001344313367973e-01,-2.603150268047890181e-01
2.540000000000000036e-01,6.072281330634893282e-01,-5.215257431459302540e-01,-3.240073841993371118e-01
2.550000000000000044e-01,2.413851857295346570e-01,-2.831251684983373540e-01,-1.585516793434033067e-02
2.560000000000000053e-01,-3.648302203148602874e-01,1.417037377552507749e-01,2.397178664084768096e-01
2.570000000000000062e-01,-5.892672392039189910e-01,4.465190035937878776e-01,3.509492148487703966e-01
2.580000000000000071e-01,-3.214345396049230752e-01,2.756400558503966924e-01,1.434940388266178202e-01
2.590000000000000080e-01,2.828788023596200962e-01,-6.773227504242147756e-02,-2.204713492990036106e-01
2.600000000000000089e-01,5.917183962504667383e-01,-4.362393179381968689e-01,-3.565358970675776562e-01
2.610000000000000098e-01,3.624115945856904997e-01,-3.105271791093508482e-01,-1.217788499266846680e-01
2.620000000000000107e-01,-1.906696509644584814e-01,7.642791862263784153e-02,1.756974643363329036e-01
2.630000000000000115e-01,-5.287272621784141480e-01,3.462553618438850012e-01,3.144747217695358921e-01
2.640000000000000124e-01,-3.689153439435339799e-01,2.762208397573853724e-01,2.146035745790508820e-01
2.650000000000000133e-01,1.068006429062284129e-01,-9.570315786693300852e-02,-1.172353905844870231e-01
2.660000000000000142e-01,4.075886160596009500e-01,-2.586943169729344350e-01,-2.836761728306074204e-01
2.670000000000000151e-01,3.463098448692700226e-01,-2.173676779323041874e-01,-2.156744779551207913e-01
2.680000000000000160e-01,-8.724923746485939435e-02,9.671681283274692620e-02,5.502550100363589464e-02
2.690000000000000169e-01,-3.720614391003614907e-01,2.861476477539864338e-01,2.462085784361838503e-01
2.700000000000000178e-01,-2.864533567821586635e-01,1.531044023675211530e-01,2.253639548842040485e-01
2.710000000000000187e-01,1.169715370647585739e-01,-1.385966423466586661e-01,-4.099299222103457152e-02
2.720000000000000195e-01,3.860450268995461176e-01,-3.049658593332584822e-01,-2.342899862149011303e-01
2.730000000000000204e-01,2.467111665417560384e-01,-1.233841517967357998e-01,-1.506154804736226926e-01
2.740000000000000213e-01,-1.780936540491159237e-01,2.002509774968136147e-01,2.381937123029677014e-02
2.750000000000000222e-01,-3.852377953107768427e-01,3.553999450081850031e-01,2.188252602885638054e-01
2.760000000000000231e-01,-2.063180492606533356e-01,1.230138989177470138e-01,1.611206964540179420e-01
2.770000000000000240e-01,2.251524330839292931e-01,-2.576316007091781768e-01,-7.792513363959334416e-02
2.780000000000000249e-01,4.680833923845327260e-01,-4.073666030277368066e-01,-2.301242069109619148e-01
2.790000000000000258e-01,2.370450110139537270e-01,-1.931931664304650798e-01,-1.638357375610755007e-01
2.800000000000000266e-01,-2.395334671468020427e-01,2.586295009350446650e-01,1.168783407081969705e-01
2.810000000000000275e-01,-5.207015973081533522e-01,4.705465410229871526e-01,2.604832394315744759e-01
2.819999999999999729e-01,-3.426267867141129519e-01,2.675149959205214145e-01,1.478638456516415123e-01
2.829999999999999738e-01,2.292376649732823235e-01,-1.975348996645503730e-01,-1.265330162798213864e-01
2.839999999999999747e-01,5.553276654764398579e-01,-5.366138092901777679e-01,-3.367379758803213385e-01
2.849999999999999756e-01,3.852476758339531959e-01,-3.001414258571991622e-01,-2.121029247278899410e-01
2.859999999999999765e-01,-1.119069511188845872e-01,1.327413707966688117e-01,4.259181986333614167e-02
2.869999999999999774e-01,-5.863132910432838907e-01,4.732096482497791246e-01,3.343875956876329880e-01
2.879999999999999782e-01,-4.375626131919636563e-01,3.212508028426621087e-01,2.718264493707066021e-01
2.889999999999999791e-01,2.790107157525560655e-02,-7.578931179297694609e-02,2.012473044318123863e-02
2.899999999999999800e-01,5.610155468284196978e-01,-4.349020867433387449e-01,-3.094673326841327898e-01
2.909999999999999809e-01,5.162809176610940742e-01,-3.579874222121819938e-01,-3.169887319333860587e-01
2.919999999999999818e-01,5.876094021317662675e-02,2.431386956658372275e-02,-9.376784299914277254e-02
2.929999999999999827e-01,-5.102629431105433211e-01,3.804503620073967363e-01,2.603464013436571634e-01
2.939999999999999836e-01,-5.186033975094389570e-01,3.099361664866992494e-01,3.690300108186058137e-01
2.949999999999999845e-01,-1.026530018778286923e-01,-3.178852768870556438e-03,1.288669705051820047e-01
2.959999999999999853e-01,3.601227209945830898e-01,-3.047825107952932822e-01,-2.285901939516399306e-01
2.969999999999999862e-01,4.721577018679821158e-01,-2.807015551204738446e-01,-3.534958620340223345e-01
2.979999999999999871e-01,1.421323376028353347e-01,2.012150659469037414e-02,-1.643300921221242661e-01
2.989999999999999880e-01,-2.983023506513874379e-01,2.634004824122233024e-01,1.390571148039360938e-01
2.999999999999999889e-01,-3.765782821626019183e-01,2.506973711354116285e-01,3.205899099752217984e-01
3.009999999999999898e-01,-8.857104080480894537e-02,-4.541582050126870274e-02,1.487092818864910737e-01
3.019999999999999907e-01,2.804097847510489405e-01,-2.879533731107498107e-01,-1.039734829636944358e-01
3.029999999999999916e-01,3.510644278642974236e-01,-1.583999169851789679e-01,-2.369557685864893126e-01
3.039999999999999925e-01,2.723265113220721401e-02,1.091902183047386149e-01,-1.286696631717896000e-01
3.049999999999999933e-01,-2.785337016334890059e-01,3.313401823536444302e-01,9.710521330463114942e-02
3.059999999999999942e-01,-3.199682199693746343e-01,1.693082532773262650e-01,2.365394288816629886e-01
3.069999999999999951e-01,3.118115779440727535e-03,-1.864276167507115667e-01,9.861661779768177150e-02
3.079999999999999960e-01,3.542743665702370870e-01,-3.823734183531682929e-01,-1.240512708121082885e-01
3.089999999999999969e-01,3.602546760497552514e-01,-2.153661932859399775e-01,-2.260458373660868270e-01
3.099999999999999978e-01,-1.610008756312838324e-02,2.102921612675812402e-01,-1.147844491374389181e-01
3.109999999999999987e-01,-4.292731071016543387e-01,4.359965047669499549e-01,1.279743981951816933e-01
3.119999999999999996e-01,-3.982204234798915610e-01,2.528527347902594924e-01,2.701504856900485696e-01
3.130000000000000004e-01,1.816690203839087595e-02,-1.711657545015419501e-01,1.038537711058293705e-01
3.140000000000000013e-01,4.370232684532281420e-01,-4.957663047508126808e-01,-1.691488239036799679e-01
3.150000000000000022e-01,5.142946898368288000e-01,-3.547552334764764725e-01,-2.891710685321362551e-01
3.160000000000000031e-01,7.874649700846381162e-02,8.406121390129858706e-02,-1.516681641652140589e-01
3.170000000000000040e-01,-4.700109364217992525e-01,4.609015224198916849e-01,1.602469973364461509e-01
3.180000000000000049e-01,-6.014827376454225938e-01,3.735513470650712042e-01,3.457602585167842135e-01
3.190000000000000058e-01,-1.664349452650074612e-01,-4.599416258948152425e-02,1.887837013590396573e-01
3.200000000000000067e-01,4.251159688895420063e-01,-4.543153355939570370e-01,-1.172748538002534036e-01
3.210000000000000075e-01,6.176743488249505365e-01,-4.141170218312580364e-01,-3.755447310494719471e-01
3.220000000000000084e-01,2.599560318458498109e-01,-3.418796347635114086e-02,-2.495216555788923318e-01
3.230000000000000093e-01,-2.917389080161003068e-01,3.746066229327393304e-01,2.992869089004369237e-02
3.240000000000000102e-01,-6.147839080249564159e-01,3.902749872917701812e-01,3.473571465281407034e-01
3.250000000000000111e-01,-3.334843899199872452e-01,2.548722435291219529e-02,3.095116365815182569e-01
3.260000000000000120e-01,2.106502202757209452e-01,-3.169411675101621029e-01,1.225875093347468699e-02
3.270000000000000129e-01,5.273329354412228387e-01,-3.245874812766282314e-01,-3.057587355430945730e-01
3.280000000000000138e-01,3.260301825319648072e-01,-2.383262922813685417e-02,-3.274673639689554827e-01
3.290000000000000147e-01,-1.292375091036741530e-01,2.422872569330324077e-01,-5.410989952091899147e-02
3.300000000000000155e-01,-4.673074510615505828e-01,2.600947565555896124e-01,2.330007834921521692e-01
3.310000000000000164e-01,-3.359513667797432435e-01,-1.617584284737808020e-02,3.020490062031413458e-01
3.320000000000000173e-01,1.099541739922916816e-01,-2.449908992256125684e-01,1.507012038615842264e-01
3.330000000000000182e-01,3.892065276002705798e-01,-2.562803792820935733e-01,-1.851200122763964617e-01
3.340000000000000191e-01,2.582480101553802920e-01,2.226125609439153982e-02,-2.475308290281733603e-01
3.350000000000000200e-01,-1.277131592610961652e-01,2.624387709747761921e-01,-1.093567754313849449e-01
3.360000000000000209e-01,-3.692155967920654480e-01,2.210318685717669873e-01,1.661942855653154583e-01
3.370000000000000218e-01,-1.659215029743920100e-01,-1.032251514086170718e-01,1.877136060293370101e-01
3.380000000000000226e-01,2.176264075986306668e-01,-3.168033906918194531e-01,6.401961796926489145e-02
3.390000000000000235e-01,3.728325155049703743e-01,-2.185501289033591199e-01,-1.179549645781232114e-01
3.400000000000000244e-01,1.641038996130018968e-01,1.233859807109039669e-01,-1.954135390523351890e-01
3.410000000000000253e-01,-2.084982481259745057e-01,3.898273271243348215e-01,-7.512448066559150595e-02
3.420000000000000262e-01,-4.366212795815966330e-01,3.108301041339744386e-01,1.469732508549458361e-01
3.430000000000000271e-01,-1.786515918198956498e-01,-1.367434597646088046e-01,2.148908872329113595e-01
3.439999999999999725e-01,2.678014855667144589e-01,-4.322636362418129097e-01,5.208765819908971195e-02
3.449999999999999734e-01,5.353355753041697529e-01,-3.760632011846172795e-01,-1.657863001681711412e-01
3.459999999999999742e-01,2.628456270577622655e-01,6.839230466897250338e-02,-2.718906978161433341e-01
3.469999999999999751e-01,-2.773975059222669737e-01,4.355884674803457979e-01,-6.891346385429085453e-02
3.479999999999999760e-01,-5.849728067190834713e-01,4.295207949636022371e-01,2.140972357864485143e-01
3.489999999999999769e-01,-3.866640611236044078e-01,-5.498024801066507192e-03,3.367869286710352128e-01
3.499999999999999778e-01,2.282237831720372312e-01,-4.468416469061988194e-01,1.265442356926003709e-01
3.509999999999999787e-01,5.856615474742635774e-01,-4.608053022784657782e-01,-2.017487100990699445e-01
3.519999999999999796e-01,4.384774848565514693e-01,-5.172087991670928225e-02,-3.647721699349522617e-01
3.529999999999999805e-01,-1.070708241133320332e-01,3.655470592062652346e-01,-1.871995301787960364e-01
3.539999999999999813e-01,-5.724555105215264339e-01,4.305438259166750048e-01,1.582455105383799854e-01
3.549999999999999822e-01,-5.249881794628115106e-01,1.108347565226926873e-01,3.938922423594303224e-01
3.559999999999999831e-01,4.260528363082021625e-02,-2.738530842082735894e-01,2.232878529056804839e-01
3.569999999999999840e-01,5.226167594091766233e-01,-3.777359077393710463e-01,-9.559588631008066051e-02
3.579999999999999849e-01,4.859708517552229212e-01,-1.098614819183515723e-01,-3.736786980981402495e-01
3.589999999999999858e-01,6.966210771982937755e-02,2.535559737578503836e-01,-2.571416920711516729e-01
3.599999999999999867e-01,-4.087225746300133800e-01,3.102273632338313769e-01,3.856790923179220700e-03
3.609999999999999876e-01,-4.949666826746363379e-01,5.790692137605264050e-02,2.853899963456145716e-01
3.619999999999999885e-01,-5.601153457790596091e-02,-2.231208781837343280e-01,3.160845226277588238e-01
3.629999999999999893e-01,3.461894544697227682e-01,-2.793313354846575502e-01,8.090607649249868805e-03
3.639999999999999902e-01,4.057356383257519350e-01,-4.505395377121704931e-02,-2.326549784383414865e-01
3.649999999999999911e-01,2.931725345890735107e-02,2.315225582025181306e-01,-2.866985174908666112e-01
3.659999999999999920e-01,-2.900814453918431624e-01,2.531746107513629385e-01,-8.193291721949080841e-02
3.669999999999999929e-01,-3.429387358524589868e-01,-2.131286141147469004e-02,1.969344863255019784e-01
3.679999999999999938e-01,-9.481915386444368307e-03,-3.220030443869237868e-01,2.248810041106483470e-01
3.689999999999999947e-01,3.024787143432292602e-01,-2.651543937484153735e-01,4.851806835184444694e-02
3.699999999999999956e-01,3.293718377552320442e-01,5.352778532285475815e-02,-1.897265641511059753e-01
3.709999999999999964e-01,-4.913571972229208162e-02,3.409840347153177964e-01,-2.094854352995276781e-01
3.719999999999999973e-01,-3.543537121506158960e-01,3.138189710825950440e-01,-9.357213918768499117e-02
3.729999999999999982e-01,-3.217359573635324987e-01,-6.821286409565295583e-02,1.624080777929303165e-01
3.739999999999999991e-01,6.834187246278965178e-02,-3.832862990606540343e-01,2.032593088086586119e-01
3.750000000000000000e-01,4.115869765359242982e-01,-3.526774527798299252e-01,-1.795518136672301368e-02
3.760000000000000009e-01,3.963075875345637433e-01,1.514263425486488124e-02,-2.130389003611052046e-01
3.770000000000000018e-01,-4.844424592959099829e-02,4.111410884421521916e-01,-2.013731945929612410e-01
3.780000000000000027e-01,-4.815156674658980784e-01,3.985459327249969430e-01,-1.339752112278582222e-02
3.790000000000000036e-01,-4.541749859601981187e-01,1.355498120682125870e-02,2.526763638620502794e-01
3.800000000000000044e-01,2.577125585094177176e-02,-4.006611639562658311e-01,2.622806361879437831e-01
3.810000000000000053e-01,5.120119620320638942e-01,-4.607554290474307201e-01,1.408528103696299327e-02
3.820000000000000062e-01,5.328501513231448383e-01,-7.182112934152092010e-02,-2.602132223087900709e-01
3.830000000000000071e-01,1.417870925039318719e-01,3.386543766499140462e-01,-2.794583252159882902e-01
3.840000000000000080e-01,-4.247297190252876109e-01,4.802517955007105099e-01,-6.662047753630168101e-02
3.850000000000000089e-01,-6.303254996956771938e-01,1.432392689333782665e-01,2.361759000140549458e-01
3.860000000000000098e-01,-1.863986182310621853e-01,-2.828934634621816380e-01,3.475672628674049691e-01
3.870000000000000107e-01,4.216571424935597889e-01,-4.136297780439807670e-01,1.570091288439326715e-01
3.880000000000000115e-01,5.886607286084580837e-01,-1.816668470831665771e-01,-1.980911793108614261e-01
3.890000000000000124e-01,2.784105372396609712e-01,1.974799556318745375e-01,-3.597679500833202426e-01
3.900000000000000133e-01,-2.550032379399832516e-01,3.772913614055782849e-01,-1.937768930828922265e-01
3.910000000000000142e-01,-5.485908525359768362e-01,1.598185455788293796e-01,1.122089993608265113e-01
3.920000000000000151e-01,-2.993603973039578037e-01,-1.471461912547287754e-01,3.396231424327235127e-01
3.930000000000000160e-01,1.967591316232404075e-01,-3.007713429052290000e-01,2.533754725830477672e-01
3.940000000000000169e-01,4.926857485465573894e-01,-8.122738400362772282e-02,-6.387496347169799304e-02
3.950000000000000178e-01,2.903723688763048538e-01,2.072793675649046985e-01,-3.021603304943520363e-01
3.960000000000000187e-01,-1.323360443259525010e-01,2.891158420556589892e-01,-2.581354351849103335e-01
3.970000000000000195e-01,-3.921856260749931877e-01,4.734764481445784962e-02,1.655270565008895925e-02
3.980000000000000204e-01,-2.489112146233811995e-01,-2.321407592454237112e-01,2.347872129387419682e-01
3.990000000000000213e-01,1.365205405235149216e-01,-2.777909255345919481e-01,2.322345469938678353e-01
4.000000000000000222e-01,3.478210076543432616e-01,-1.713546735298954182e-02,-1.791415940983480740e-02
4.010000000000000231e-01,1.980417296636174940e-01,2.865873671413550761e-01,-1.949292816626851665e-01
4.020000000000000240e-01,-2.212815967839763531e-01,2.748303646781483089e-01,-1.971714521570917256e-01
4.030000000000000249e-01,-4.090686716227385777e-01,-5.040135581939645185e-03,2.718854654196129622e-02
4.040000000000000258e-01,-1.546881224140353450e-01,-2.922084615244393002e-01,1.838345593416576829e-01
4.050000000000000266e-01,2.538121998603843910e-01,-3.415186829210244412e-01,1.972148405162940654e-01
4.060000000000000275e-01,3.962951740905570897e-01,2.526331378782914580e-04,2.777251201428041025e-03
4.069999999999999729e-01,1.571796924627580361e-01,3.609450632074933107e-01,-1.647725013845182940e-01
4.079999999999999738e-01,-2.818018616067611282e-01,3.911411325798923588e-01,-1.762094592129596904e-01
4.089999999999999747e-01,-5.282417492212079235e-01,5.377195071502690465e-02,8.766801729147061240e-02
4.099999999999999756e-01,-2.500654379399475102e-01,-3.638121258981720230e-01,2.576195997730883480e-01
4.109999999999999765e-01,3.058517992079576309e-01,-4.429895419513628640e-01,1.849767175528930774e-01
4.119999999999999774e-01,5.742543872194707522e-01,-1.152878941217260339e-01,-4.746456462526919828e-02
4.129999999999999782e-01,3.204364398649917622e-01,3.210960706628839811e-01,-2.908856680913620152e-01
4.139999999999999791e-01,-2.340406631049403718e-01,4.905945186235172173e-01,-2.278365076775833442e-01
4.149999999999999800e-01,-5.911062730664180531e-01,2.025656200752218583e-01,2.297014966072560838e-02
4.159999999999999809e-01,-3.611990551361645707e-01,-2.665424382507504131e-01,2.996784526344684063e-01
4.169999999999999818e-01,1.376514327593407194e-01,-5.085903614441182885e-01,2.940419659470833724e-01
4.179999999999999827e-01,6.142195290337383318e-01,-2.280001636235678142e-01,3.171560071637295058e-02
4.189999999999999836e-01,4.638996535495049645e-01,2.279589949905357349e-01,-2.762561287368011098e-01
4.199999999999999845e-01,-1.061606029808394476e-02,3.843144823395672205e-01,-3.366539788504888109e-01
4.209999999999999853e-01,-5.186986177279568899e-01,1.657210769138150463e-01,-5.755525784763903391e-02
4.219999999999999862e-01,-4.853384057605456547e-01,-1.520583489522038256e-01,2.392094949927277836e-01
4.229999999999999871e-01,-2.495570286280056338e-02,-3.590105257458448551e-01,3.369226281319648297e-01
4.239999999999999880e-01,4.954662648072726827e-01,-1.645026760645157959e-01,1.780609814913509947e-01
4.249999999999999889e-01,4.728387132829647843e-01,1.502513338583609248e-01,-1.829267957483678431e-01
4.259999999999999898e-01,4.684989266444714723e-02,3.028791836091028755e-01,-3.469960091592926843e-01
4.269999999999999907e-01,-3.461192039896729411e-01,1.197586947894064974e-01,-2.278852398552186631e-01
4.279999999999999916e-01,-4.042700836960674837e-01,-1.401130098531366275e-01,7.291520712319278508e-02
4.289999999999999925e-01,-7.654169564191054542e-02,-2.722877559699586891e-01,2.870972925143631671e-01
4.299999999999999933e-01,3.355379301606619125e-01,-1.198222974954192971e-01,1.814963205667409207e-01
4.309999999999999942e-01,3.447962809642771131e-01,1.879197424456368337e-01,-6.149287428212755341e-02
4.319999999999999951e-01,3.900504433843307583e-02,2.842137132350794904e-01,-2.391030015027937883e-01
4.329999999999999960e-01,-3.189153071361490177e-01,5.260998065826828773e-02,-1.643887608555943958e-01
4.339999999999999969e-01,-3.227162123998889576e-01,-2.650193422208502736e-01,4.213152582151252767e-02
4.349999999999999978e-01,1.405799600932872498e-02,-3.113312945290487299e-01,2.132296254639972632e-01
4.359999999999999987e-01,3.592075452095814803e-01,-7.075229091890720967e-02,1.857897206325620776e-01
4.369999999999999996e-01,2.902352938057203291e-01,3.163879806582673981e-01,-7.034307631699665553e-02
4.380000000000000004e-01,-5.461628312247878564e-02,4.340072900111228149e-01,-1.941124998868933305e-01
4.390000000000000013e-01,-4.380463560763941389e-01,6.248263904459093465e-02,-1.313447463648332314e-01
4.400000000000000022e-01,-3.758526003767291845e-01,-3.164603230055048066e-01,1.012947077836666154e-01
4.410000000000000031e-01,7.116302553047321178e-02,-4.695286885353904260e-01,2.196430466355849265e-01
4.420000000000000040e-01,4.831856645846100973e-01,-1.502377869568196911e-01,1.425397888495845977e-01
4.430000000000000049e-01,4.377642739043020592e-01,2.913659083882657042e-01,-1.301327377895967197e-01
4.440000000000000058e-01,-2.967242909562112924e-02,4.649956686178152165e-01,-2.570886035203892583e-01
4.450000000000000067e-01,-4.938673296759247822e-01,2.118583574810643799e-01,-1.656030038272967297e-01
4.460000000000000075e-01,-4.878339038983616205e-01,-2.909386516201279971e-01,7.952683059788069608e-02
4.470000000000000084e-01,-5.002247834583982422e-02,-5.189073313581574753e-01,3.073497114165320010e-01
4.480000000000000093e-01,4.900118226824198842e-01,-2.812327613805348792e-01,2.277072747674913911e-01
4.490000000000000102e-01,6.180614767056056280e-01,1.898804473560464501e-01,-1.131756670420281663e-01
4.500000000000000111e-01,1.519932924626755666e-01,4.781751562071143158e-01,-3.360454264338118002e-01
4.510000000000000120e-01,-4.087793984573837580e-01,2.663977682351883480e-01,-2.719593576954200120e-01
4.520000000000000129e-01,-6.019708193257562456e-01,-1.134133767927807263e-01,2.676646322909657233e-02
4.530000000000000138e-01,-2.082549991159243219e-01,-3.984806351746067454e-01,3.186929170310378034e-01
4.540000000000000147e-01,3.192350730826771232e-01,-2.340520550320852322e-01,3.379275958332235708e-01
4.550000000000000155e-01,5.981980275682156067e-01,8.640008568790365218e-02,6.262255770007528477e-02
4.560000000000000164e-01,3.228968045803671805e-01,3.421819026328727364e-01,-2.824179177763146975e-01
4.570000000000000173e-01,-2.328849292755252043e-01,2.310648053172161542e-01,-3.617505341984313949e-01
4.580000000000000182e-01,-4.724052101384712543e-01,-1.101423560231286070e-01,-1.287220596400860673e-01
4.590000000000000191e-01,-2.526778364997250281e-01,-3.080656890307987283e-01,2.187655368196083916e-01
4.600000000000000200e-01,1.920280390173812468e-01,-1.811906435096949652e-01,3.140250448374048431e-01
4.610000000000000209e-01,3.663763569107651996e-01,1.345809507202582189e-01,1.558750391554664660e-01
4.620000000000000218e-01,2.076721020141271135e-01,2.668704100053481687e-01,-1.443810443115429998e-01
4.630000000000000226e-01,-1.654422569948010013e-01,9.935428555464546896e-02,-3.011094805870047075e-01
4.640000000000000235e-01,-3.807379288186925059e-01,-2.054233316939955423e-01,-1.466061062243230739e-01
4.650000000000000244e-01,-1.570720029515650928e-01,-3.270785573816814562e-01,7.521333132449259384e-02
4.660000000000000253e-01,2.159327705418795096e-01,-1.167042214707275233e-01,2.287134963854960401e-01
4.670000000000000262e-01,3.733011639060130338e-01,2.467110411797195368e-01,1.788182534589168593e-01
4.680000000000000271e-01,1.111262918287183599e-01,3.902267371590794620e-01,-1.121120725755226227e-01
4.689999999999999725e-01,-2.888570260047007565e-01,1.167437073281507309e-01,-1.939438620083216713e-01
4.699999999999999734e-01,-4.138525067769874832e-01,-3.226873352813215412e-01,-1.377446117548169757e-01
4.709999999999999742e-01,-1.266182118790788458e-01,-4.428305792308159239e-01,1.170640756520906767e-01
4.719999999999999751e-01,3.024350771023561202e-01,-1.835713896628738961e-01,2.273621013329897023e-01
4.729999999999999760e-01,4.701031532023829951e-01,2.470140582939769625e-01,6.793257840860794650e-02
4.739999999999999769e-01,1.782175364760670289e-01,4.586106754992904100e-01,-1.173389193707456563e-01
4.749999999999999778e-01,-3.440365126651577232e-01,2.419289374438274298e-01,-2.753193459553134881e-01
4.759999999999999787e-01,-5.534723119461580909e-01,-2.367567624534337167e-01,-8.441861767176545017e-02
4.769999999999999796e-01,-3.046194280182272784e-01,-4.891549271441306135e-01,1.576798506140826006e-01
4.779999999999999805e-01,3.170204768386581939e-01,-2.986167438951990438e-01,3.083889842427932626e-01
4.789999999999999813e-01,5.928259843107518412e-01,1.639999539773058512e-01,1.457800108647399340e-01
4.799999999999999822e-01,3.991117780577239649e-01,4.639648402060321253e-01,-1.474191984065066074e-01
4.809999999999999831e-01,-2.081563189322412355e-01,3.633947475991705645e-01,-3.441531452493238885e-01
4.819999999999999840e-01,-6.360835736089599513e-01,-1.015607339340406923e-01,-1.904771266296840238e-01
4.829999999999999849e-01,-4.442115854891887095e-01,-4.246911725670332594e-01,1.111315660558777757e-01
4.839999999999999858e-01,1.398088302253921722e-01,-3.501606705163066158e-01,3.504134302462686978e-01
4.849999999999999867e-01,5.615565922099753360e-01,3.338904352696709515e-02,2.734244276984892918e-01
4.859999999999999876e-01,4.494748790767256197e-01,2.977582999225823479e-01,-1.072093289215725470e-01
4.869999999999999885e-01,-5.351663029498761326e-02,2.929040368133563610e-01,-3.287617150282234890e-01
4.879999999999999893e-01,-4.850865400893742407e-01,-5.786106888002081478e-02,-2.963153597404658002e-01
4.889999999999999902e-01,-4.744779033294982962e-01,-2.984758029243717581e-01,-1.797495858829555385e-02
4.899999999999999911e-01,-2.472989241614488576e-02,-2.542488227545037782e-01,2.933601336768447143e-01
4.909999999999999920e-01,3.700607575709897179e-01,9.010855907935948206e-02,3.135572712471592083e-01
4.919999999999999929e-01,3.946947567501267740e-01,3.138190371528595257e-01,7.807370073980129943e-02
4.929999999999999938e-01,3.047332092324862851e-02,1.641732284451250246e-01,-2.216480552665760217e-01
4.939999999999999947e-01,-3.198952436536450783e-01,-1.354342136527912632e-01,-3.224334912509067563e-01
4.949999999999999956e-01,-3.483742949868127714e-01,-3.367833972053972391e-01,-1.183711810315351276e-01
4.959999999999999964e-01,-4.320820164483638037e-02,-1.326224019047554381e-01,1.653431528933313188e-01
4.969999999999999973e-01,3.330479742764094198e-01,1.628302170118606507e-01,2.427847526795009758e-01
4.979999999999999982e-01,2.907760864901977049e-01,3.597617418564057479e-01,1.023790607878398845e-01
4.989999999999999991e-01,-6.081678449884622695e-02,1.601257228752704376e-01,-1.129729774377285362e-01
5.000000000000000000e-01,-3.750547010379895463e-01,-2.192952194365246354e-01,-2.284737571520785993e-01
5.010000000000000009e-01,-2.629483806564602566e-01,-3.870621414084883249e-01,-9.458912085454727892e-02
5.020000000000000018e-01,1.146175275316030917e-01,-1.833659699043186375e-01,1.375241849072841582e-01
5.030000000000000027e-01,4.318174323573070184e-01,2.115702679841458544e-01,2.282847266675756270e-01
5.040000000000000036e-01,3.393650471572180471e-01,4.668622977244806238e-01,8.844654762536954817e-02
5.050000000000000044e-01,-1.085615962161159409e-01,2.495917915185570934e-01,-1.997605328096491439e-01
5.060000000000000053e-01,-4.907763400161579970e-01,-1.775771639358514342e-01,-2.177637543461067304e-01
5.070000000000000062e-01,-4.182831589215230128e-01,-4.603616688730527984e-01,-6.763808861739216416e-02
5.080000000000000071e-01,1.057581884430485314e-01,-3.312530478418064805e-01,2.138630682416433615e-01
5.090000000000000080e-01,5.363872502161712852e-01,1.283558820447537052e-01,2.667938920261673230e-01
5.100000000000000089e-01,4.916485273455061811e-01,4.937638969647055176e-01,6.002331797906510641e-02
5.110000000000000098e-01,2.676996702570912795e-02,3.847587035500118491e-01,-1.809692756765632349e-01
5.120000000000000107e-01,-5.352033679014731593e-01,-7.068611687043446778e-02,-2.974793903443411769e-01
5.130000000000000115e-01,-5.509249071460082803e-01,-4.311154889795749678e-01,-9.356945728731580481e-02
5.140000000000000124e-01,-9.151423422171507671e-02,-3.859839939764310723e-01,1.963651156348441840e-01
5.150000000000000133e-01,5.126652031905225559e-01,1.109552409198960934e-03,3.291229498769971396e-01
5.160000000000000142e-01,5.873812987153179677e-01,3.404682465109668543e-01,1.691945142727185047e-01
5.170000000000000151e-01,1.865463508537923698e-01,3.463217247484089989e-01,-1.583297457499105720e-01
5.180000000000000160e-01,-3.653789669024050113e-01,2.972392732830128267e-02,-3.893112212962486773e-01
5.190000000000000169e-01,-5.747395731012095998e-01,-2.733555147107377126e-01,-2.418670709133633745e-01
5.200000000000000178e-01,-2.542122932892528775e-01,-3.135761110015903852e-01,1.291145199459813875e-01
5.210000000000000187e-01,2.760321927207520787e-01,4.586024885299844200e-02,3.586102121730914138e-01
5.220000000000000195e-01,4.860812845934316950e-01,2.653657201242866082e-01,2.976770136848947423e-01
5.230000000000000204e-01,2.194126914320687904e-01,2.481380519555739794e-01,-2.290557070495867487e-02
5.240000000000000213e-01,-2.467276707257900770e-01,-4.738737671294718234e-02,-2.915202103994091187e-01
5.250000000000000222e-01,-4.322522969903659917e-01,-3.258320968082859537e-01,-3.204280708173017356e-01
5.260000000000000231e-01,-2.113919781865028491e-01,-2.099858085006771069e-01,-3.313385651034211205e-02
5.270000000000000240e-01,1.880236700915580983e-01,9.468013166258811009e-02,2.329418832881433032e-01
5.280000000000000249e-01,3.860484508908745283e-01,3.081475867394223855e-01,3.054138901818889695e-01
5.290000000000000258e-01,1.851525771162814971e-01,1.614965775085880906e-01,2.149414271196640677e-02
5.300000000000000266e-01,-2.065108428379482108e-01,-1.575430666657690049e-01,-2.209698388514914902e-01
5.310000000000000275e-01,-3.280268415423753248e-01,-3.438360773071317267e-01,-2.371328551979776933e-01
5.320000000000000284e-01,-1.168969558231493094e-01,-2.172050614553855119e-01,-1.309689441760450782e-02
5.330000000000000293e-01,2.498323981243414926e-01,1.508273461010827821e-01,1.614183202618826307e-01
5.340000000000000302e-01,4.032633855172906845e-01,4.490990981840166096e-01,2.012010988096226138e-01
5.350000000000000311e-01,8.955956572939738347e-02,3.154338835539842179e-01,3.553296796211882769e-02
5.360000000000000320e-01,-3.317546111896731986e-01,-1.467412627616700715e-01,-1.777402357810901334e-01
5.370000000000000329e-01,-4.225367627652046876e-01,-4.193585305984041112e-01,-1.324318099712269714e-01
5.380000000000000338e-01,-1.321055031658454060e-01,-3.416783455089756893e-01,2.631721006601933990e-02
5.390000000000000346e-01,3.581200849639215034e-01,6.792070991251471235e-02,2.035603700477253142e-01
5.400000000000000355e-01,5.324319582988503718e-01,4.689577240085940346e-01,2.163199586627241322e-01
5.410000000000000364e-01,2.177391254367334605e-01,3.550904453906489899e-01,-2.041609660799669282e-02
5.420000000000000373e-01,-3.115223477432897958e-01,-8.202946077641206854e-03,-2.582567499331605010e-01
5.430000000000000382e-01,-5.955624458829122947e-01,-4.069863958368404866e-01,-2.574277929693375988e-01
5.440000000000000391e-01,-2.852833949644190681e-01,-4.273063902373823164e-01,-3.670224243944255477e-02
5.450000000000000400e-01,3.068681369840682849e-01,-2.209365916955421255e-02,2.830423437742033976e-01
5.460000000000000409e-01,6.116321629564925866e-01,3.657078994738945932e-01,2.800099887422865530e-01
5.470000000000000417e-01,4.085817218354264035e-01,3.750734338772504506e-01,8.100378844578313975e-02
5.480000000000000426e-01,-1.775629560935315376e-01,8.816262467565734451e-02,-2.408185245008540865e-01
5.490000000000000435e-01,-5.907641325008873290e-01,-3.167297721149274214e-01,-3.414000138179848487e-01
5.500000000000000444e-01,-4.404537658880588458e-01,-3.646804892338927351e-01,-1.492183350189271174e-01
5.510000000000000453e-01,9.091423196304203314e-02,-7.187504337029655688e-02,2.012200486937055222e-01
5.520000000000000462e-01,5.041794823430220118e-01,2.613634171795689021e-01,3.694745358530353019e-01
5.530000000000000471e-01,4.363391008175147023e-01,2.967730217691331718e-01,1.889883135544245529e-01
5.540000000000000480e-01,-3.089603153184757381e-02,-5.341273819958821875e-03,-1.447667039698950220e-01
5.550000000000000488e-01,-3.680851215286972122e-01,-2.512451481691770350e-01,-3.543493856265076958e-01
5.560000000000000497e-01,-4.140322184931054528e-01,-2.330976316635210710e-01,-2.447193515391363206e-01
5.570000000000000506e-01,-3.218311007234998106e-02,2.792782564045897392e-03,1.193846024353009405e-01
5.580000000000000515e-01,3.540362682586186138e-01,2.769690618552518857e-01,2.948102889478814714e-01
5.590000000000000524e-01,3.463374231234729872e-01,2.209098537985352273e-01,2.566511486214531068e-01
5.600000000000000533e-01,-6.294608932631618782e-03,-4.185431661327248393e-02,-1.221167965338761270e-02
5.610000000000000542e-01,-3.745998441369864373e-01,-3.047170809378565992e-01,-2.889545437026447283e-01
5.620000000000000551e-01,-2.944891987110027087e-01,-2.145536550175544677e-01,-2.070567292101218870e-01
5.629999999999999449e-01,6.676341520645694139e-02,9.691176767046878748e-02,-2.588510505692753066e-02
5.639999999999999458e-01,3.687129805989057818e-01,3.900653870042281590e-01,2.173846561035512048e-01
5.649999999999999467e-01,2.712220549542069814e-01,2.837390817640800811e-01,2.098850065527095299e-01
5.659999999999999476e-01,-1.200772535847608041e-01,-8.653923581203819271e-02,-5.909790547704795415e-03
5.669999999999999485e-01,-4.075178115832345238e-01,-4.334346381621470012e-01,-2.070100084224791304e-01
5.679999999999999494e-01,-2.748165810515364460e-01,-3.636475997140310445e-01,-1.894509679807905855e-01
5.689999999999999503e-01,1.469768343892460527e-01,5.600880802652390134e-02,4.765166687692163477e-02
5.699999999999999512e-01,4.618345413774256891e-01,4.231378429051627088e-01,2.100525393010184150e-01
5.709999999999999520e-01,3.495897375517283967e-01,4.383045009423382488e-01,1.806175708347005082e-01
5.719999999999999529e-01,-1.166062942404088726e-01,4.827776159775176365e-03,-5.965375872753553299e-02
5.729999999999999538e-01,-5.304630615595514742e-01,-4.269988053501068692e-01,-2.424417680485339011e-01
5.739999999999999547e-01,-4.281750728303826414e-01,-4.202397965765320431e-01,-1.885292005854541098e-01
5.749999999999999556e-01,1.971989470286806406e-02,-6.378852309599621073e-02,7.855375858546759238e-02
5.759999999999999565e-01,5.379042600041861188e-01,3.415439877002552360e-01,2.675915876874295218e-01
5.769999999999999574e-01,5.393842371673961411e-01,4.541668307918985681e-01,2.377803858461825515e-01
5.779999999999999583e-01,4.256380251916258572e-02,1.546589169803113395e-01,-3.284069446265290571e-02
5.789999999999999591e-01,-5.076065264294864487e-01,-2.921746469599417750e-01,-3.051112990428071492e-01
5.799999999999999600e-01,-5.792936537366250027e-01,-3.922939399422382123e-01,-2.834916767012897743e-01
5.809999999999999609e-01,-1.340691820199314821e-01,-1.520062987953660905e-01,-4.210387129982166854e-03
5.819999999999999618e-01,4.088927287509245279e-01,2.653854873033247297e-01,2.947839487653342583e-01
5.829999999999999627e-01,5.447415874307951489e-01,3.827032026084228322e-01,3.699283219062651229e-01
5.839999999999999636e-01,1.605072993635316969e-01,1.149008032017659331e-01,1.169095509026550350e-01
5.849999999999999645e-01,-3.291145252080523997e-01,-2.133379334004204819e-01,-2.510385914747173541e-01
5.859999999999999654e-01,-5.166041909378710217e-01,-3.365100894195870440e-01,-3.536562986237349326e-01
5.869999999999999662e-01,-2.354675606032727853e-01,-3.980428518796969017e-02,-1.741076457975452851e-01
5.879999999999999671e-01,2.472498689992382870e-01,2.424747356722229685e-01,1.894399213113478753e-01
5.889999999999999680e-01,4.721729310101987487e-01,2.655741918551274838e-01,3.623575669310535874e-01
5.899999999999999689e-01,2.394168631732625230e-01,-2.863694603498397745e-02,1.733451701381817922e-01
5.909999999999999698e-01,-2.089748794186353509e-01,-2.875922519727554527e-01,-1.239374977255534443e-01
5.919999999999999707e-01,-4.103950972289507337e-01,-2.614766855855260030e-01,-3.063171443376376257e-01
5.929999999999999716e-01,-1.434281305820825081e-01,1.238819413122359790e-02,-2.453825705779743294e-01
5.939999999999999725e-01,2.395416673553792120e-01,3.393448217396621280e-01,9.124266888753465587e-02
5.949999999999999734e-01,3.060360573688211683e-01,2.828839532011770963e-01,2.728662646451414653e-01
5.959999999999999742e-01,8.958622746795839864e-02,-3.032101388073026038e-02,1.879025032184566124e-01
5.969999999999999751e-01,-2.650968657770134684e-01,-4.337120010336451559e-01,-6.735347673708313998e-02
5.979999999999999760e-01,-3.981633640784456585e-01,-3.652636996631286603e-01,-2.432024765760253948e-01
5.989999999999999769e-01,-7.494333019918675287e-02,-2.741497872009027344e-03,-1.461223773970407314e-01
5.999999999999999778e-01,3.748577527713818913e-01,3.776899359824804070e-01,6.382948211717789921e-02
6.009999999999999787e-01,4.640157296877261972e-01,4.172301887928776543e-01,2.136490406711732681e-01
6.019999999999999796e-01,1.021452367132198308e-01,5.569873383492721791e-02,1.231817974701855528e-01
6.029999999999999805e-01,-3.829036083129014334e-01,-3.758377595122874282e-01,-8.478803648501784251e-02
6.039999999999999813e-01,-5.128296971826175055e-01,-4.806451832743959263e-01,-2.346304177916482825e-01
6.049999999999999822e-01,-1.279061076077204206e-01,-9.675281530424342802e-02,-1.649763949856395961e-01
6.059999999999999831e-01,3.979153823022449354e-01,2.935548025591753207e-01,8.661834914410636299e-02
6.069999999999999840e-01,6.005673145034796656e-01,4.827872727599168412e-01,3.039064257583950490e-01
6.079999999999999849e-01,2.589867451675680332e-01,1.735283442236192075e-01,1.859842270093269578e-01
6.089999999999999858e-01,-3.269011141237892493e-01,-2.797430496201094852e-01,-1.221201999706664765e-01
6.099999999999999867e-01,-5.904984227257368268e-01,-4.307472941301068170e-01,-2.982877573870525434e-01
6.109999999999999876e-01,-3.618436072368379497e-01,-1.989351424409651625e-01,-2.374880393601206674e-01
6.119999999999999885e-01,2.320590369424963273e-01,2.150581294437245994e-01,1.159220385377570384e-01
6.129999999999999893e-01,5.627747558261788630e-01,3.768531626239630672e-01,3.525169769644062034e-01
6.139999999999999902e-01,4.334209840891417032e-01,1.832886302869367601e-01,3.082999986044868690e-01
6.149999999999999911e-01,-1.028069372973422768e-01,-2.004411706115747926e-01,-5.367231702926524017e-02
6.159999999999999920e-01,-5.295667591669646068e-01,-3.208375426988961943e-01,-2.784069741696506561e-01
6.169999999999999929e-01,-4.408408047268517205e-01,-1.596573836632028953e-01,-3.161016898750422799e-01
6.179999999999999938e-01,6.627039578203680614e-02,2.140807644049792513e-01,-4.879867284888991796e-02
6.189999999999999947e-01,4.558282836160633122e-01,2.702541513158064901e-01,2.894592488698812804e-01
6.199999999999999956e-01,4.164295963202334638e-01,8.515899835621590364e-02,3.880731609882128175e-01
6.209999999999999964e-01,-1.818821086628133812e-02,-1.779069730374217562e-01,1.085524192938018273e-01
6.219999999999999973e-01,-3.596970443815671881e-01,-2.675523810894157584e-01,-2.560158209499362458e-01
6.229999999999999982e-01,-3.362364302894812473e-01,-3.966017024200393232e-02,-3.164689445648251609e-01
6.239999999999999991e-01,2.402834389089137171e-02,2.651108418881817363e-01,-1.094610610208839180e-01
6.250000000000000000e-01,3.083046841418287110e-01,2.931079705057131335e-01,1.556772177579312522e-01
6.260000000000000009e-01,2.803872545177750197e-01,9.982514734298526121e-03,3.041922623073619603e-01
6.270000000000000018e-01,-7.659351306025050099e-02,-3.257991478459421053e-01,1.548193533419148227e-01
6.280000000000000027e-01,-3.424753551819790798e-01,-3.814515517724025861e-01,-9.742077631572797214e-02
6.290000000000000036e-01,-2.668543585923051631e-01,-4.362599093864019673e-02,-2.517870739237599298e-01
6.300000000000000044e-01,1.517714494978373851e-01,3.617129104636985781e-01,-1.569771009089049318e-01
6.310000000000000053e-01,4.106781209517572639e-01,3.900343894728235394e-01,9.074136327961747350e-02
6.320000000000000062e-01,2.681057928712382576e-01,7.039861400754107712e-02,2.484629382727052138e-01
6.330000000000000071e-01,-1.828535794354857469e-01,-4.004778736330799616e-01,8.305578428089152587e-02
6.340000000000000080e-01,-4.672538407810407080e-01,-4.613963377252165432e-01,-1.255203986575972874e-01
6.350000000000000089e-01,-2.990961055575734884e-01,-1.662574609674431769e-01,-2.287601341102562802e-01
6.360000000000000098e-01,1.602863577827165764e-01,3.175895476928608518e-01,-7.081066929573283375e-02
6.370000000000000107e-01,5.151103312861454731e-01,4.817312624815048849e-01,1.505264275579572264e-01
6.380000000000000115e-01,4.107953232049333381e-01,1.696681868353913658e-01,2.291643946487900430e-01
6.390000000000000124e-01,-1.091684028019424962e-01,-2.461992244152622633e-01,8.633311280836991619e-02
6.400000000000000133e-01,-5.488506170394552575e-01,-5.064261700881019790e-01,-2.058904343073942877e-01
6.410000000000000142e-01,-5.254713625261425713e-01,-2.219191655647171080e-01,-3.026710122496750754e-01
6.420000000000000151e-01,2.678358070978762231e-02,1.966245553797698609e-01,-1.390357733194119982e-01
6.430000000000000160e-01,5.287666815429946654e-01,4.303531755169337503e-01,1.779760775299057962e-01
6.440000000000000169e-01,5.527698860054673924e-01,2.334630754176320599e-01,3.346072676488473507e-01
6.450000000000000178e-01,8.427403389996653005e-02,-1.317248927158952698e-01,2.212567375086400001e-01
6.460000000000000187e-01,-4.771338059311321933e-01,-3.859587491478688737e-01,-1.371996563960863336e-01
6.470000000000000195e-01,-5.651623945291662787e-01,-1.946806085802622599e-01,-3.482333842606408214e-01
6.480000000000000204e-01,-1.631291235461164446e-01,1.097791455635629271e-01,-2.564932010839793830e-01
6.490000000000000213e-01,3.334021098230027791e-01,3.249818878654220922e-01,7.108339884614166271e-02
6.500000000000000222e-01,5.206697352780516042e-01,1.737277551800567033e-01,3.484082284204931823e-01
6.510000000000000231e-01,2.023598687166018317e-01,-1.539648339352308881e-01,3.036368930188627080e-01
6.520000000000000240e-01,-2.728550176145815298e-01,-2.890349647734870575e-01,9.149515066558715562e-03
6.530000000000000249e-01,-4.418414835425139020e-01,-1.014822119884745133e-01,-2.859161607172795994e-01
6.540000000000000258e-01,-1.866271239223045997e-01,1.988411966006292386e-01,-3.221749714019724875e-01
6.550000000000000266e-01,2.274349334354144603e-01,2.964082788753059083e-01,-7.392526256679192442e-02
6.560000000000000275e-01,3.954139916941091792e-01,7.998520975757199281e-02,2.369535764895427943e-01
6.570000000000000284e-01,1.192116330742129665e-01,-2.243707633161991233e-01,2.862532335302158115e-01
6.580000000000000293e-01,-2.035284125777447051e-01,-3.407369208486126233e-01,9.614828748381165635e-02
6.590000000000000302e-01,-3.572477163425550883e-01,-7.445825937916013271e-02,-1.840866088069151585e-01
6.600000000000000311e-01,-8.550338272130761363e-02,3.248249029856519199e-01,-2.984311218440851010e-01
6.610000000000000320e-01,2.755785622318658312e-01,3.701145838497482687e-01,-1.205688901014516645e-01
6.620000000000000329e-01,3.682487814261307113e-01,1.195390187215081973e-01,1.412732880914192579e-01
6.630000000000000338e-01,-3.719363048588706245e-03,-3.117135427205335874e-01,2.384865427788547543e-01
6.640000000000000346e-01,-3.553945132317078981e-01,-4.784664169567469649e-01,7.454128158309294983e-02
6.650000000000000355e-01,-4.079560364186585741e-01,-1.644308661256282389e-01,-1.345510522110866802e-01
6.660000000000000364e-01,-1.504227607027445839e-02,2.996192470327955215e-01,-2.160915185082760426e-01
6.670000000000000373e-01,4.176433642658735623e-01,5.120169193158988774e-01,-6.785976082918994401e-02
6.680000000000000382e-01,4.924784843037522397e-01,1.989760724206294240e-01,1.694195728951880808e-01
6.690000000000000391e-01,1.017059338406318542e-01,-2.374143881936836842e-01,2.060571849760401975e-01
6.700000000000000400e-01,-4.294780844637077766e-01,-5.185111842158676154e-01,1.552581800936344084e-02
6.710000000000000409e-01,-5.279150906980396574e-01,-2.502042619105998011e-01,-2.090727974049474136e-01
6.720000000000000417e-01,-1.569972257952073069e-01,1.634133494063925163e-01,-2.501240730296934722e-01
6.730000000000000426e-01,3.738492716844231678e-01,4.590365721349895511e-01,-3.934874015456459734e-02
6.740000000000000435e-01,6.129565095050933943e-01,3.033484604711896848e-01,2.208961232954372855e-01
6.750000000000000444e-01,2.993374644287321029e-01,-1.127854362439866670e-01,3.254239288454777168e-01
6.760000000000000453e-01,-2.600410333933381724e-01,-3.894528296798726030e-01,8.790436467065877724e-02
6.770000000000000462e-01,-6.080737659737546208e-01,-2.701433273152556436e-01,-1.929902702128146741e-01
6.780000000000000471e-01,-3.730687854655658775e-01,6.865242251430823950e-02,-3.399826470841929571e-01
6.790000000000000480e-01,1.891285335411173052e-01,3.391086820039241889e-01,-1.887932315183006859e-01
6.800000000000000488e-01,5.733130643877010213e-01,2.501520226649635026e-01,2.032355470124689312e-01
6.810000000000000497e-01,3.907001670852331965e-01,-5.877451791195718173e-02,3.811941341058165400e-01
6.820000000000000506e-01,-1.019937383227159794e-01,-2.755951895167042531e-01,1.877894561015070185e-01
6.830000000000000515e-01,-4.823000889681582359e-01,-2.039010107384433279e-01,-1.148058621311975891e-01
6.840000000000000524e-01,-3.993171127796763531e-01,9.769459025892771042e-02,-3.432171304298520798e-01
6.850000000000000533e-01,5.643393611793587339e-02,2.574178054566359508e-01,-3.046034282705425977e-01
6.860000000000000542e-01,3.945717014633191022e-01,1.262050172081574662e-01,8.165366785588719367e-02
6.870000000000000551e-01,3.134910232457816526e-01,-1.697734600062073274e-01,3.195791154058938988e-01
6.879999999999999449e-01,-5.229204370588510370e-02,-3.302040010969806150e-01,2.667885791516876326e-01
6.889999999999999458e-01,-3.716299851620860073e-01,-8.505216255837572126e-02,1.246400198827744485e-02
6.899999999999999467e-01,-2.490320848704357659e-01,2.248988436918560874e-01,-2.541042410459224965e-01
6.909999999999999476e-01,8.938091766267683425e-02,4.011584912514952195e-01,-2.765586132603829461e-01
6.919999999999999485e-01,3.318942601167746420e-01,1.453065830534554514e-01,-3.369395157187032169e-02
6.929999999999999494e-01,2.570976296292001861e-01,-2.761080660496988415e-01,1.806781166109455716e-01
6.939999999999999503e-01,-1.391084271114439996e-01,-4.372318620198543115e-01,2.102526939085420099e-01
6.949999999999999512e-01,-4.193986847145783070e-01,-1.818112656478619027e-01,6.559930375503224276e-02
6.959999999999999520e-01,-2.158880923620987435e-01,2.576313371991109102e-01,-1.750438752980405244e-01
6.969999999999999529e-01,2.081039414601237036e-01,4.343639858703056689e-01,-1.950645982160716940e-01
6.979999999999999538e-01,4.692193623031291061e-01,2.612049867214887855e-01,-2.686032491758425303e-02
6.989999999999999547e-01,2.817571785625505032e-01,-2.038847004612203417e-01,1.886053910171975878e-01
6.999999999999999556e-01,-2.086216952695655880e-01,-4.598754204056214601e-01,1.756275136985024077e-01
7.009999999999999565e-01,-5.577627759765584337e-01,-2.884724205978746459e-01,-7.801560040863270368e-04
7.019999999999999574e-01,-3.650453308684346032e-01,1.627308661766142805e-01,-2.049541036993896559e-01
7.029999999999999583e-01,1.486113607470390952e-01,5.172823514273776624e-01,-1.999725399248038771e-01
7.039999999999999591e-01,5.408328861178198776e-01,3.374085005093565015e-01,1.718672327174087383e-02
7.049999999999999600e-01,4.691737379011208797e-01,-9.865438564445555558e-02,2.300311542327471703e-01
7.059999999999999609e-01,-9.829820591992195766e-02,-4.427028281411654609e-01,2.472814885100986793e-01
7.069999999999999618e-01,-5.458371971372183440e-01,-3.406741599221841943e-01,-7.228936932424934181e-03
7.079999999999999627e-01,-5.143723048407787823e-01,2.944546911954784921e-02,-2.843774137006500613e-01
7.089999999999999636e-01,-7.441084479804458904e-03,3.454769907496597070e-01,-2.728169068370256967e-01
7.099999999999999645e-01,4.617318545075966285e-01,2.546258556107471316e-01,-7.134551841496460101e-02
7.109999999999999654e-01,5.504828444700198276e-01,-5.542626237010167545e-02,2.959738175236457658e-01
7.119999999999999662e-01,9.103191847018024530e-02,-3.057416117823149038e-01,3.301353779048685766e-01
7.129999999999999671e-01,-4.219440411992592121e-01,-2.053979937304481473e-01,1.200294022371913572e-01
7.139999999999999680e-01,-5.375772692300265776e-01,7.074255605308643613e-02,-1.940687555387372587e-01
7.149999999999999689e-01,-1.427056527096436100e-01,2.897767076443059087e-01,-3.808488131817687194e-01
7.159999999999999698e-01,3.209225210852405530e-01,1.955062683970307802e-01,-1.881975532326873868e-01
7.169999999999999707e-01,4.619979302777684760e-01,-9.789249910626438012e-02,1.431476288407985131e-01
7.179999999999999716e-01,1.843344217841463850e-01,-2.897017210980635249e-01,3.242159314067714626e-01
7.189999999999999725e-01,-2.638826127165699309e-01,-1.801205615876771138e-01,1.889378532161846980e-01
7.199999999999999734e-01,-4.250525941276562247e-01,1.370918103249474385e-01,-6.214237253123913729e-02
7.209999999999999742e-01,-9.331807081001780579e-02,3.429280299107990704e-01,-3.390537526317355388e-01
7.219999999999999751e-01,2.673315409517658114e-01,1.905493973115190975e-01,-2.114979316530790354e-01
7.229999999999999760e-01,3.435218858513511275e-01,-1.593242499422876657e-01,3.487561714735400165e-02
7.239999999999999769e-01,7.053682516012962922e-02,-3.897695317770453194e-01,2.574509062201053577e-01
7.249999999999999778e-01,-2.644215513240637527e-01,-2.452173528991989371e-01,2.662148834844976775e-01
7.259999999999999787e-01,-3.603347463581711430e-01,2.025486750430584570e-01,-2.471669324603876366e-02
7.269999999999999796e-01,-4.897178725351104128e-02,4.477195093305618157e-01,-2.004964899812222423e-01
7.279999999999999805e-01,3.413507173388433680e-01,2.951268527456111235e-01,-2.131944446430961981e-01
7.289999999999999813e-01,3.929034634415525806e-01,-1.954442378938044123e-01,1.444104890072270622e-02
7.299999999999999822e-01,-1.175834459983182700e-02,-4.742166593996812729e-01,1.808238863688500231e-01
7.309999999999999831e-01,-4.145820020199125211e-01,-2.964098689175516665e-01,1.700974199296236833e-01
7.319999999999999840e-01,-4.250390217819475236e-01,1.166255284436017448e-01,4.728224921625090102e-03
7.329999999999999849e-01,-9.836277425102411820e-02,4.756502755347012390e-01,-2.001276755958171505e-01
7.339999999999999858e-01,4.272483784875723556e-01,3.732534981457229506e-01,-1.599430803246293664e-01
7.349999999999999867e-01,5.626254819421887543e-01,-6.642926438283683344e-02,9.832923383373230741e-02
7.359999999999999876e-01,1.470525719763206007e-01,-4.285897815240800601e-01,2.363310967758164016e-01
7.369999999999999885e-01,-3.780964017734679827e-01,-3.965844413224126619e-01,1.415622999196288756e-01
7.379999999999999893e-01,-5.968667033248173936e-01,2.199761336072849488e-02,-8.631755113851630190e-02
7.389999999999999902e-01,-2.501668116617505322e-01,3.604570607481857314e-01,-2.563075227206656481e-01
7.399999999999999911e-01,3.256233095317597748e-01,3.358975810715174593e-01,-2.448555820709086561e-01
7.409999999999999920e-01,6.396830623613162237e-01,3.576570866679203067e-03,3.228326359294755171e-02
7.419999999999999929e-01,3.120016338577239479e-01,-3.249429648484814526e-01,2.964650994383554172e-01
7.429999999999999938e-01,-2.374149433030768030e-01,-2.944807057467940803e-01,2.972544059385605064e-01
7.439999999999999947e-01,-5.658781802069586808e-01,-3.497317713202050676e-02,2.294338133236905816e-03
7.449999999999999956e-01,-3.575298784798360829e-01,2.788420770872643839e-01,-3.280845461412899011e-01
7.459999999999999964e-01,1.366647903848689505e-01,2.154511847374005473e-01,-3.472522890887428937e-01
7.469999999999999973e-01,4.953634544988503308e-01,-2.065306472970294613e-02,-9.920758559020782796e-02
7.479999999999999982e-01,3.773003864235476845e-01,-2.218773462206591329e-01,2.816481188092015975e-01
7.489999999999999991e-01,-1.195805766413275545e-01,-1.872151155530995537e-01,3.890432642373155003e-01
7.500000000000000000e-01,-4.331794932517525898e-01,9.940015086371566111e-02,1.418408045861315470e-01
7.510000000000000009e-01,-3.513834710935231365e-01,3.044740358153236737e-01,-2.365964752450207820e-01
7.520000000000000018e-01,9.951661141531004118e-02,2.111591133944051291e-01,-3.149215052505954238e-01
7.530000000000000027e-01,3.899456051382993449e-01,-8.780074040776308930e-02,-2.003892240591055862e-01
7.540000000000000036e-01,2.704437210714868423e-01,-3.595400331939879179e-01,1.031459889304522370e-01
7.550000000000000044e-01,-1.069266531062787878e-01,-2.696082646951076245e-01,2.851340113866057679e-01
7.560000000000000053e-01,-3.719643638984279077e-01,1.186144384193017071e-01,2.093467146677082669e-01
7.570000000000000062e-01,-2.179942447595943633e-01,4.324311111247804429e-01,-1.020127863993874617e-01
7.580000000000000071e-01,1.638821405664189768e-01,2.833435529314505263e-01,-2.521861382857471523e-01
7.590000000000000080e-01,4.080616206436537552e-01,-1.447613382459873588e-01,-1.761295044489749329e-01
7.600000000000000089e-01,2.207790426847357768e-01,-4.310138898533744656e-01,4.369178712829765304e-02
7.610000000000000098e-01,-1.745735503052039117e-01,-3.429475147269150925e-01,2.313966159320618443e-01
7.620000000000000107e-01,-4.434756432253730840e-01,6.901706123491135880e-02,1.436462913034565470e-01
7.630000000000000115e-01,-2.674564781333642616e-01,4.763253959270465909e-01,-7.830206244992755915e-02
7.640000000000000124e-01,2.276275951095471928e-01,4.252072338022729325e-01,-2.151348030351199203e-01
7.650000000000000133e-01,5.363461676275983470e-01,-5.129294616458275440e-03,-1.047649077768067899e-01
7.660000000000000142e-01,3.175077584495399341e-01,-4.348596126939883177e-01,1.011054087444348409e-01
7.670000000000000151e-01,-2.198995360420688272e-01,-4.173937112485731626e-01,2.266607621710506615e-01
7.680000000000000160e-01,-5.866495860066242019e-01,-3.992080673081613296e-02,9.457130959143127125e-02
7.690000000000000169e-01,-4.258213373059738793e-01,3.581560458555367310e-01,-1.220097802903442052e-01
7.700000000000000178e-01,1.427335667627841753e-01,4.258641639975259685e-01,-2.809728646704034993e-01
7.710000000000000187e-01,5.909918027505632887e-01,7.129806625642531870e-02,-1.744507530721199351e-01
7.720000000000000195e-01,5.174600976220352644e-01,-3.153933278161629716e-01,1.209896675215144934e-01
7.730000000000000204e-01,-4.161945505781548815e-02,-3.668789426857079206e-01,3.052467324483376099e-01
7.740000000000000213e-01,-5.538275494048960912e-01,-6.350036006113672638e-02,2.180100546106052417e-01
7.750000000000000222e-01,-5.587880745300706220e-01,2.557904166652590350e-01,-1.181193567102006431e-01
7.760000000000000231e-01,-5.119081379425281103e-02,3.142403169711321387e-01,-3.431605943711159568e-01
7.770000000000000240e-01,4.538322304207397795e-01,4.236130986905350254e-02,-2.677917995952632801e-01
7.780000000000000249e-01,5.532591731198326368e-01,-2.528770917066234802e-01,5.930836627578221082e-02
7.790000000000000258e-01,1.323840086719921538e-01,-2.415220955800266300e-01,3.594161658160597850e-01
7.800000000000000266e-01,-3.834999530860860872e-01,-2.544107886669314672e-03,3.438875710018075571e-01
7.810000000000000275e-01,-5.122847586284471344e-01,2.294972166615381337e-01,3.685785462600654760e-02
7.820000000000000284e-01,-1.296857496362718853e-01,2.453337570523039524e-01,-2.670847500498813032e-01
7.830000000000000293e-01,3.088882035561456574e-01,-6.373039280120507133e-02,-3.297411205182458893e-01
7.840000000000000302e-01,4.137782025205390402e-01,-3.150609171846157630e-01,-1.118094989527277233e-01
7.850000000000000311e-01,8.586815732962271852e-02,-2.865401871157546854e-01,2.360380523651587348e-01
7.860000000000000320e-01,-3.059319871716704164e-01,5.952968652085663392e-02,3.426988152559077294e-01
7.870000000000000329e-01,-3.463331047855106593e-01,3.346945955496486436e-01,1.302221058381818897e-01
7.880000000000000338e-01,-6.956418573329352373e-02,3.242056459015138503e-01,-1.714441355465674277e-01
7.890000000000000346e-01,3.109073697099319911e-01,-6.056931822485929484e-02,-2.879576387359834566e-01
7.900000000000000355e-01,2.941212541418446458e-01,-4.117309208237983076e-01,-1.740771522151694228e-01
7.910000000000000364e-01,-2.675736910396374346e-03,-3.605626644195752961e-01,1.073082671348462441e-01
7.920000000000000373e-01,-3.354987082780297447e-01,2.414640199296036460e-02,2.531967742085393103e-01
7.930000000000000382e-01,-3.670801389954442273e-01,4.421108179567070917e-01,1.411290985696507794e-01
7.940000000000000391e-01,-1.214930448644935441e-02,4.101325305848461111e-01,-1.054233837806834995e-01
7.950000000000000400e-01,3.935956302812215202e-01,-1.991958787546743714e-02,-1.879750810895816915e-01
7.960000000000000409e-01,4.451655957644063966e-01,-3.921198161426172613e-01,-1.445751810471362919e-01
7.970000000000000417e-01,-1.627212575735038566e-02,-4.514723853268902687e-01,1.415449578802021602e-01
7.980000000000000426e-01,-4.640819439133085922e-01,-7.171921398124460334e-02,2.081422925854156947e-01
7.990000000000000435e-01,-5.052386670196709062e-01,3.391700988170619491e-01,6.706954798654234107e-02
8.000000000000000444e-01,-1.344847599665376647e-01,4.618252709892036734e-01,-1.416060862658641006e-01
8.010000000000000453e-01,4.207538809042867256e-01,1.226013176141606958e-01,-2.615214432463195404e-01
8.020000000000000462e-01,5.728442869523394654e-01,-3.099602213316522414e-01,-1.018466353163463428e-01
8.030000000000000471e-01,2.112981924937843980e-01,-4.146874483869694705e-01,1.860852165316725926e-01
8.040000000000000480e-01,-3.723856222073365085e-01,-1.138028500264965381e-01,2.835649802183057289e-01
8.050000000000000488e-01,-6.134391941905853463e-01,2.373105589672529492e-01,1.404952401415055785e-01
8.060000000000000497e-01,-2.582315176129689749e-01,4.108212045232588205e-01,-1.813422617038661921e-01
8.070000000000000506e-01,3.025140963577309106e-01,1.431086703039521624e-01,-3.335578904371488962e-01
8.080000000000000515e-01,5.809849518564527138e-01,-1.703139182492224846e-01,-2.066936989592881024e-01
8.090000000000000524e-01,3.425947534519278581e-01,-2.968914078700716219e-01,1.498849391622463501e-01
8.100000000000000533e-01,-2.175386132226146962e-01,-8.967661546147991103e-02,3.774503819484143485e-01
8.110000000000000542e-01,-5.264809140286608180e-01,2.368840280376607044e-01,2.573703161398565586e-01
8.120000000000000551e-01,-3.228347910977770185e-01,2.506905942455392444e-01,-7.882876926017576280e-02
8.129999999999999449e-01,1.376542681454224204e-01,1.475821449715371443e-02,-3.636684185125833579e-01
8.139999999999999458e-01,4.494513454326981572e-01,-2.646655038796675297e-01,-2.902184332960311974e-01
8.149999999999999467e-01,3.007634403552754132e-01,-2.640377948334863278e-01,1.572439645294443009e-02
8.159999999999999476e-01,-1.376219755056296568e-01,2.012440037600520329e-02,3.030493787439744735e-01
8.169999999999999485e-01,-3.488283727779801779e-01,3.008862086817290504e-01,2.893396606961790574e-01
8.179999999999999494e-01,-2.705904105072534094e-01,3.012727897298854152e-01,5.517380397645714474e-02
8.189999999999999503e-01,1.024235821048114503e-01,1.460783700436547351e-02,-2.483103660962849568e-01
8.199999999999999512e-01,3.520336940307179363e-01,-3.675128932960240458e-01,-3.360712582873708332e-01
8.209999999999999520e-01,2.021407561374834461e-01,-3.325282727049955200e-01,-7.666204904604141668e-02
8.219999999999999529e-01,-1.983262534508486996e-01,2.023862918219240196e-03,2.134720048740171294e-01
8.229999999999999538e-01,-3.867565935717250936e-01,3.814378296035176308e-01,2.712017063084357638e-01
8.239999999999999547e-01,-1.544136983936147123e-01,4.489967037589513432e-01,1.073544345680493145e-01
8.249999999999999556e-01,2.254934216172186645e-01,6.422575285805545708e-02,-1.480493117994453878e-01
8.259999999999999565e-01,4.303031614513479486e-01,-3.857018242405289010e-01,-2.414358053546294680e-01
8.269999999999999574e-01,2.459311330376510729e-01,-4.750629973394589478e-01,-7.572600521696908060e-02
8.279999999999999583e-01,-2.412425542299812542e-01,-1.089876103404126967e-01,1.553416270077595529e-01
8.289999999999999591e-01,-5.299041302530180797e-01,3.419143699765012090e-01,2.190011060082183159e-01
8.299999999999999600e-01,-2.949237324162957696e-01,4.603326802239927074e-01,5.163872876426194719e-02
8.309999999999999609e-01,2.752768836939673003e-01,1.643489891740048114e-01,-1.669630109294103215e-01
8.319999999999999618e-01,5.857074939318351881e-01,-2.704381395140605937e-01,-1.825615509515970125e-01
8.329999999999999627e-01,3.940803500475049126e-01,-4.521398303270934282e-01,-2.728239866087080190e-02
8.339999999999999636e-01,-2.029603540531152994e-01,-2.166880574074915577e-01,1.869947422482867994e-01
8.349999999999999645e-01,-6.191401385115568035e-01,1.944448199095610286e-01,2.686441281082067034e-01
8.359999999999999654e-01,-4.762007301478461962e-01,4.233542979046049370e-01,3.435605647035767235e-02
8.369999999999999662e-01,8.547857028518578149e-02,2.029664165022133926e-01,-2.505057877471740246e-01
8.379999999999999671e-01,5.186810039911319281e-01,-1.742746914480915177e-01,-3.019036222257207025e-01
8.389999999999999680e-01,5.588105378720376049e-01,-3.382849290820905686e-01,-1.024449668842700029e-01
8.399999999999999689e-01,1.728229367165206448e-02,-1.981414249026909602e-01,2.449249867839449757e-01
8.409999999999999698e-01,-4.665474928533189236e-01,1.614598365028383498e-01,3.672512293065232636e-01
8.419999999999999707e-01,-5.189937527046932786e-01,2.976555733876341536e-01,1.675291421728767327e-01
8.429999999999999716e-01,-5.293589660022555293e-02,1.179745767617272900e-01,-1.546835762930076630e-01
8.439999999999999725e-01,3.917850054836328200e-01,-2.123224481786359086e-01,-3.436997310004260564e-01
8.449999999999999734e-01,5.037434433708418702e-01,-2.720292668920872847e-01,-2.143852058703188124e-01
8.459999999999999742e-01,1.143857644832100284e-01,-4.445417342391880938e-02,1.331312746366738464e-01
8.469999999999999751e-01,-3.421578056405136237e-01,2.278332468897537322e-01,3.658931400666661782e-01
8.479999999999999760e-01,-4.073551023688217199e-01,3.059096029861638755e-01,2.851264462588234960e-01
8.489999999999999769e-01,-8.961717358474924344e-02,3.337286399257798769e-02,-6.238947986603858575e-02
8.499999999999999778e-01,2.905673568108696481e-01,-3.112063527519323136e-01,-3.071747931826790401e-01
8.509999999999999787e-01,3.547906392740622361e-01,-3.496366873894584115e-01,-2.647707126788456100e-01
8.519999999999999796e-01,-1.362194812179793636e-02,-2.424258409322656641e-02,-2.961705787877336529e-02
8.529999999999999805e-01,-3.319119504208799531e-01,3.399623161753784206e-01,2.500851340710050219e-01
8.539999999999999813e-01,-3.280276675312894241e-01,4.109447449936501351e-01,2.716477313750461642e-01
8.549999999999999822e-01,-1.034717949649791892e-02,8.259215459448884800e-02,4.862125509826722286e-02
8.559999999999999831e-01,3.561688193081329890e-01,-3.248723763230997874e-01,-1.902941231172918524e-01
8.569999999999999840e-01,3.518292636762201386e-01,-5.021478357233982726e-01,-2.661744934898753745e-01
8.579999999999999849e-01,-4.092047784856330667e-02,-1.356530174025805113e-01,-2.523134974342100545e-02
8.589999999999999858e-01,-4.195320507429088908e-01,3.307317149893785335e-01,2.057520304340815231e-01
8.599999999999999867e-01,-4.063401668113673648e-01,5.068871503391546574e-01,1.756558037382311699e-01
8.609999999999999876e-01,2.565979846950193488e-02,2.154483248976416521e-01,3.156538820488605235e-02
8.619999999999999885e-01,4.672212286080099086e-01,-2.226444723469200582e-01,-1.768965018634995889e-01
8.629999999999999893e-01,4.668171411158358874e-01,-4.909116839220469264e-01,-1.919183346072959040e-01
8.639999999999999902e-01,3.766401197195809458e-02,-2.606335483273334308e-01,1.641846529604714180e-02
8.649999999999999911e-01,-4.930032192768766808e-01,1.927122784996754268e-01,2.040353386227654331e-01
8.659999999999999920e-01,-5.859466953801226730e-01,4.153767838787291722e-01,2.548286891609702898e-01
8.669999999999999929e-01,-1.539018511853684767e-01,2.445954027136779674e-01,-3.728747627907890577e-02
8.679999999999999938e-01,4.418026977506058772e-01,-1.108049771188290011e-01,-2.746303044570027052e-01
8.689999999999999947e-01,6.028923978263203143e-01,-3.763746337853468016e-01,-2.446127912667253601e-01
8.699999999999999956e-01,2.230698250784564629e-01,-2.166675920873222250e-01,-3.402536440506315901e-02
8.709999999999999964e-01,-3.404663215715816871e-01,1.219202604764075271e-01,2.458523048131109889e-01
8.719999999999999973e-01,-6.247424512734078839e-01,3.466931960368416776e-01,2.965963952052516062e-01
8.729999999999999982e-01,-2.845084817299136648e-01,1.816604347932596619e-01,-2.326025570252044164e-03
8.739999999999999991e-01,2.498355503326171456e-01,-1.244196381132645496e-01,-2.627364814695783979e-01
8.750000000000000000e-01,5.770047270188478628e-01,-2.697276034680460843e-01,-3.482128344063740721e-01
8.760000000000000009e-01,3.098514955256216341e-01,-1.340489949304442263e-01,-7.450645576176390117e-02
8.770000000000000018e-01,-1.738940284363423017e-01,1.718481742190592076e-01,2.311869887067258267e-01
8.780000000000000027e-01,-4.768406711489864280e-01,2.748942581272766361e-01,3.759614989324565615e-01
8.790000000000000036e-01,-3.045669775205760432e-01,9.984476817872686705e-02,1.680963090536864435e-01
8.800000000000000044e-01,1.246989247208941665e-01,-2.125130392655828204e-01,-1.881902689659913364e-01
8.810000000000000053e-01,4.045235397911430275e-01,-3.270236886410006205e-01,-3.479133988568360869e-01
8.820000000000000062e-01,2.457312670556550949e-01,-8.616372621671081200e-02,-2.204402610687662967e-01
8.830000000000000071e-01,-1.186011522768725540e-01,2.547194395008982593e-01,9.409787308371972414e-02
8.840000000000000080e-01,-3.678398835712951565e-01,3.844311086298132230e-01,3.261170204491986579e-01
8.850000000000000089e-01,-1.859657775012110159e-01,1.185683425593895557e-01,2.296125488186779862e-01
8.860000000000000098e-01,2.195787799329345646e-01,-3.155022515140356587e-01,-2.305877397400867002e-03
8.870000000000000107e-01,4.076807404863234119e-01,-4.551304687419658324e-01,-2.265627364057746784e-01
8.880000000000000115e-01,1.644525631689781053e-01,-2.011327687451452961e-01,-2.553208163195326841e-01
8.890000000000000124e-01,-2.718791414268055262e-01,2.738370403992578805e-01,2.765426311477080581e-02
8.900000000000000133e-01,-4.316297401892062457e-01,5.053663194067350428e-01,2.062934644349446178e-01
8.910000000000000142e-01,-1.634395577584391301e-01,2.102255945576699536e-01,1.918039116275113698e-01
8.920000000000000151e-01,2.720322516319563788e-01,-2.532734590392902718e-01,-5.287057838683965200e-02
8.930000000000000160e-01,5.124684863256502299e-01,-4.774373564867389064e-01,-1.966090529673447107e-01
8.940000000000000169e-01,2.311389285448063324e-01,-2.849036017588966740e-01,-1.534858238395997165e-01
8.950000000000000178e-01,-3.251847851178590321e-01,1.735829545118436901e-01,6.194651575748634509e-02
8.960000000000000187e-01,-5.837266476741364007e-01,4.596554084363682069e-01,2.014428589986249907e-01
8.970000000000000195e-01,-3.003437674997149198e-01,3.177216641688547227e-01,1.713836009860481291e-01
8.980000000000000204e-01,1.847982343769613012e-01,-1.177920829437359845e-01,-6.087883637658779434e-02
8.990000000000000213e-01,5.760910102880687500e-01,-4.154809245417895314e-01,-2.408202349669663622e-01
9.000000000000000222e-01,4.163494582638544994e-01,-2.628155239154278400e-01,-1.983515887209941764e-01
9.010000000000000231e-01,-1.678511417179154863e-01,6.800056687329400495e-02,8.860895459066885083e-02
9.020000000000000240e-01,-5.794402212443434674e-01,3.245805127144085755e-01,2.772138116021202192e-01
9.030000000000000249e-01,-5.123126894545804166e-01,2.640429910710021533e-01,2.546201735648482845e-01
9.040000000000000258e-01,4.604385784553071542e-02,-7.697269980653413668e-02,-6.121438022356660846e-02
9.050000000000000266e-01,4.718619634744256053e-01,-2.974608712187159498e-01,-3.075266559055656601e-01
9.060000000000000275e-01,4.960435373027451411e-01,-2.057643346201676882e-01,-2.587175525626292383e-01
9.070000000000000284e-01,4.329809716478149467e-02,8.003577102333198079e-02,-1.160403948304337615e-02
9.080000000000000293e-01,-4.514620562931569991e-01,3.069351011576165744e-01,3.351844351349386186e-01
9.090000000000000302e-01,-4.739405928271734902e-01,1.588850763423995671e-01,3.344658828663617522e-01
9.100000000000000311e-01,-6.369403342202452356e-02,-1.497801689604916220e-01,5.819257773188687977e-02
9.110000000000000320e-01,3.738770986781471684e-01,-2.913930995347665531e-01,-2.382514144215469309e-01
9.120000000000000329e-01,4.209089049542849015e-01,-1.453351142421018538e-01,-3.607767768609990156e-01
9.130000000000000338e-01,1.113426742998783331e-01,2.280741379068217944e-01,-1.383079767697940055e-01
9.140000000000000346e-01,-3.326993180065040967e-01,3.327151052777611029e-01,1.957049656287161155e-01
9.150000000000000355e-01,-3.564324458263448125e-01,1.309240100291767794e-01,3.407460856524135440e-01
9.160000000000000364e-01,-4.918390395984751501e-02,-2.378475932006894611e-01,2.088553606602226720e-01
9.170000000000000373e-01,2.777535748043126196e-01,-3.895052539952172377e-01,-1.334529907477769173e-01
9.180000000000000382e-01,3.267479968570816129e-01,-1.952336476031369950e-01,-2.732212143618282796e-01
9.190000000000000391e-01,2.367207666464880844e-02,2.543360467916437884e-01,-1.817311185708299359e-01
9.200000000000000400e-01,-3.474889843541202339e-01,4.544081198473003402e-01,6.280577094258002480e-02
9.210000000000000409e-01,-3.209489441976161039e-01,2.488210477677920418e-01,2.542519209582801976e-01
9.220000000000000417e-01,6.491050672416902312e-02,-2.012643845225198513e-01,2.179653491699503620e-01
9.230000000000000426e-01,4.202280149830335265e-01,-5.208616680687983003e-01,-7.898814801937173447e-02
9.240000000000000435e-01,3.771498536603311025e-01,-3.205606795106319407e-01,-2.118208463872521263e-01
9.250000000000000444e-01,-4.039621417288451893e-02,1.266284958672864169e-01,-1.539342204515438128e-01
9.260000000000000453e-01,-4.792221350453778062e-01,4.554058839952428994e-01,9.527624849584423461e-02
9.270000000000000462e-01,-4.399738922433063526e-01,3.663406609817786430e-01,2.448203391508682325e-01
9.280000000000000471e-01,2.249390489285841774e-02,-1.021931222740570938e-01,9.469412446002765937e-02
9.290000000000000480e-01,5.107382113867867668e-01,-4.191447754659198277e-01,-1.040240795623830206e-01
9.300000000000000488e-01,5.124567820985195254e-01,-3.381823603364543240e-01,-2.078472654203601666e-01
9.310000000000000497e-01,7.405009987862312681e-02,-2.349810629194788378e-02,-1.282514467272350966e-01
9.320000000000000506e-01,-4.996306784376156052e-01,3.441858264379994981e-01,1.289962556759207402e-01
9.330000000000000515e-01,-6.057350363122916415e-01,3.349131608101530433e-01,2.923521662303382729e-01
9.340000000000000524e-01,-1.756272332420159288e-01,6.944381556048855736e-03,1.446066708969230563e-01
9.350000000000000533e-01,4.082418792069741897e-01,-3.009236287365958384e-01,-1.557728464959260706e-01
9.360000000000000542e-01,6.258264086090018496e-01,-2.654191742716119906e-01,-3.354792710961519986e-01
9.370000000000000551e-01,2.903236760465900956e-01,2.879457446103714582e-02,-2.279698097974532933e-01
9.379999999999999449e-01,-2.932198804481730980e-01,2.712266780334637861e-01,7.451913696379278140e-02
9.389999999999999458e-01,-5.457081497316903507e-01,1.968564978613751293e-01,3.304820109400637973e-01
9.399999999999999467e-01,-3.237619247950676571e-01,-6.701126237761291515e-02,2.833191593230159344e-01
9.409999999999999476e-01,2.358711228081577238e-01,-3.104009333929235726e-01,-1.354332347523238417e-02
9.419999999999999485e-01,4.851122952083014583e-01,-1.568165062423327039e-01,-3.402336402094886525e-01
9.429999999999999494e-01,2.830856794359261630e-01,1.403712532310879835e-01,-3.107075195725056971e-01
9.439999999999999503e-01,-1.699353780385186308e-01,3.315980995028965927e-01,-3.587753891694882291e-02
9.449999999999999512e-01,-3.806224567468813880e-01,1.795098475034991592e-01,3.187160588733092270e-01
9.459999999999999520e-01,-2.602720616010888999e-01,-1.611499000052821762e-01,3.103263748924507404e-01
9.469999999999999529e-01,1.547672806528108957e-01,-3.867584830465804480e-01,8.245434649859863241e-02
9.479999999999999538e-01,3.561759515628928341e-01,-2.201777335898628951e-01,-2.274295623279299072e-01
9.489999999999999547e-01,2.013404286572617330e-01,2.142472694961903568e-01,-2.945087276297880807e-01
9.499999999999999556e-01,-1.812595924927538626e-01,4.034309798110750078e-01,-1.376082206692527954e-01
9.509999999999999565e-01,-3.627147679956435611e-01,2.957189311320437830e-01,1.613977107366939001e-01
9.519999999999999574e-01,-1.148377258279376922e-01,-2.022465352111726955e-01,2.798175422032746495e-01
9.529999999999999583e-01,2.752664473149371571e-01,-4.659749374561083513e-01,1.420218804842520721e-01
9.539999999999999591e-01,4.497858712472101450e-01,-3.735303411714372968e-01,-1.230959474481128774e-01
9.549999999999999600e-01,1.463120791428629830e-01,1.195589343655753811e-01,-2.593589382422948897e-01
9.559999999999999609e-01,-3.121684657994939216e-01,4.549644382283211663e-01,-1.045498898207407878e-01
9.569999999999999618e-01,-4.980183751905641332e-01,3.735142381617314045e-01,1.064847126957245704e-01
9.579999999999999627e-01,-2.397727458459077976e-01,-2.248444721730175413e-02,2.083469619044373555e-01
9.589999999999999636e-01,3.178808697217450630e-01,-4.658310890581078278e-01,6.829383260708640768e-02
9.599999999999999645e-01,5.267854215211273949e-01,-3.964728183899353109e-01,-1.483130167079314277e-01
9.609999999999999654e-01,2.638089395656814107e-01,4.429439400941661241e-03,-2.085935591137381973e-01
9.619999999999999662e-01,-3.107786748889622142e-01,3.686243936413834965e-01,-6.324405465941222715e-02
9.629999999999999671e-01,-6.292984472931517637e-01,3.481533310190040309e-01,1.319486944106386950e-01
9.639999999999999680e-01,-3.668953357018449601e-01,6.079293371798348555e-02,2.476563219012500872e-01
9.649999999999999689e-01,2.386356626312284845e-01,-3.190664471753199560e-01,8.639908782419215838e-02
9.659999999999999698e-01,6.118510611705092472e-01,-3.316293422745944519e-01,-1.963622507184289434e-01
9.669999999999999707e-01,4.556708555595428423e-01,-1.835934820673812418e-02,-2.660183736387138898e-01
9.679999999999999716e-01,-9.160056552216649939e-02,2.508325407310402766e-01,-1.174845543449501289e-01
9.689999999999999725e-01,-5.436977290793945095e-01,3.127850177933964582e-01,2.143247886117885526e-01
9.699999999999999734e-01,-4.501589987845925345e-01,5.430093870010359314e-03,3.364868377471633698e-01
9.709999999999999742e-01,1.669767300584176425e-02,-2.732336622925625180e-01,1.676766989282649778e-01
9.719999999999999751e-01,4.618343953602551122e-01,-2.301526158856683768e-01,-1.375298586834391157e-01
9.729999999999999760e-01,4.356988379884226825e-01,5.118441462181539531e-02,-3.649950479293589400e-01
9.739999999999999769e-01,4.391584333113209004e-02,2.840901301717910221e-01,-2.541803631562516430e-01
9.749999999999999778e-01,-3.788953230283906293e-01,1.847521093291382976e-01,1.021708697621201978e-01
9.759999999999999787e-01,-3.907611475371589038e-01,-7.359682979495910105e-02,3.633724527911596502e-01
9.769999999999999796e-01,-4.382758552693232640e-02,-3.186365797384698717e-01,2.767381400600460450e-01
9.779999999999999805e-01,3.163094990372172788e-01,-2.376482436359373951e-01,1.536586895746655697e-02
9.789999999999999813e-01,3.497008619706720722e-01,1.322373834489249944e-01,-2.956122108122977155e-01
9.799999999999999822e-01,2.107267390540140325e-02,3.915814355213964593e-01,-2.919743633283855555e-01
9.809999999999999831e-01,-3.253457352248726453e-01,3.045539395525760362e-01,-2.399907511786212450e-02
9.819999999999999840e-01,-3.160601717051647053e-01,-1.205038215041158850e-01,2.444887267534780195e-01
9.829999999999999849e-01,3.096053650602469121e-02,-4.377157541703802224e-01,3.138642801380320813e-01
9.839999999999999858e-01,3.534038842466055153e-01,-3.362795406589730307e-01,5.990149573612286310e-02
9.849999999999999867e-01,2.929102480231289274e-01,1.051303014018878518e-01,-2.044062252696949022e-01
9.859999999999999876e-01,-8.247495140658253621e-02,4.252315453480660090e-01,-2.846460853861861318e-01
9.869999999999999885e-01,-3.948721818358436608e-01,4.228223103724882415e-01,-1.003325840120809082e-01
9.879999999999999893e-01,-3.610414103442579070e-01,-1.473601538996767435e-02,1.132931732551821641e-01
9.889999999999999902e-01,9.189832559199007100e-02,-4.379326914635712220e-01,2.453987266304355208e-01
9.899999999999999911e-01,4.694529608928439401e-01,-4.459133434150318598e-01,5.577824423793192876e-02
9.909999999999999920e-01,4.022721255871866131e-01,-7.256918319950679541e-02,-1.365514710387341346e-01
9.919999999999999929e-01,-5.861830561643997795e-02,3.714669976479350044e-01,-2.022219512549763842e-01
9.929999999999999938e-01,-5.331438018068471729e-01,3.940184091050418780e-01,-2.610001284274914360e-02
9.939999999999999947e-01,-5.199534033952364354e-01,8.519004553058676099e-02,1.808390215385654309e-01
9.949999999999999956e-01,-3.986433455207261806e-02,-3.207246330628530928e-01,2.006639623896613600e-01
9.959999999999999964e-01,4.807112098068763717e-01,-3.943409058096106201e-01,3.331243378613553408e-02
9.969999999999999973e-01,5.912833573895762695e-01,-1.155744802494758638e-01,-2.149263404826664003e-01
9.979999999999999982e-01,1.626433274402317442e-01,2.525211144316378831e-01,-2.659194084371939160e-01
9.989999999999999991e-01,-4.517704593532396173e-01,3.724819554611949468e-01,-1.979717753063644711e-02
1.000000000000000000e+00,-5.615531251488076192e-01,7.888307073841747952e-02,1.970374123210857364e-01
1.000999999999999890e+00,-2.045946541202821878e-01,-2.302053533950156883e-01,3.084538440008536275e-01
1.002000000000000002e+00,3.255423341377867152e-01,-2.744016735857224276e-01,8.654685658552564720e-02
1.002999999999999892e+00,5.677556229907679830e-01,-6.463588447720727825e-02,-2.242446908984720155e-01
1.004000000000000004e+00,2.475209216293793313e-01,2.791897930165553876e-01,-3.370991938095463381e-01
1.004999999999999893e+00,-2.602766242038972444e-01,2.630513788766901673e-01,-1.116576201763776754e-01
1.006000000000000005e+00,-5.024778985830307132e-01,-2.112765912566686929e-02,2.124061224625299338e-01
1.006999999999999895e+00,-3.210472408746589679e-01,-3.164785910180756834e-01,3.774486359506755706e-01
1.008000000000000007e+00,1.995465917025134039e-01,-2.397449594104026360e-01,2.129043494171636852e-01
1.008999999999999897e+00,4.464758238312246941e-01,8.561801669125662650e-02,-1.350432355814355778e-01
1.010000000000000009e+00,2.206653578991582820e-01,3.276649210392170164e-01,-3.536483119816868359e-01
1.010999999999999899e+00,-1.678398028512836371e-01,2.961904769002481896e-01,-2.585382323402622418e-01
1.012000000000000011e+00,-3.646898769795861028e-01,-3.579090102422106956e-02,7.122210346261782787e-02
1.012999999999999901e+00,-1.878365899901855984e-01,-3.805048092820929040e-01,2.994270784440991040e-01
1.014000000000000012e+00,2.163872256437621711e-01,-3.558574970541151239e-01,2.567374997648443902e-01
1.014999999999999902e+00,3.979854412605535185e-01,2.845921264120384805e-02,4.388259544106594238e-03
1.016000000000000014e+00,1.311608020941306962e-01,3.984165335725860513e-01,-2.935174522080895021e-01
1.016999999999999904e+00,-2.694887146789108345e-01,4.478869811179963523e-01,-2.698059825266249656e-01
1.018000000000000016e+00,-4.293469548152840654e-01,4.175620467058917956e-02,-4.070567017111213770e-02
1.018999999999999906e+00,-1.316985880891979321e-01,-3.991901704246765270e-01,2.418522966184973033e-01
1.020000000000000018e+00,3.044811085694812403e-01,-4.503371003974599995e-01,2.308756555806210087e-01
1.020999999999999908e+00,4.735953335182350177e-01,-7.272916910514827527e-02,3.139811131363252211e-02
1.022000000000000020e+00,1.750924705239391976e-01,3.146368274784279717e-01,-1.902938533327500903e-01
1.022999999999999909e+00,-3.454327319696718912e-01,4.471906391588399976e-01,-2.008780988434243076e-01
1.024000000000000021e+00,-5.220295282074826071e-01,1.068301495897046455e-01,-2.810781389853283033e-02
1.024999999999999911e+00,-2.347603743494633688e-01,-3.170973171835773097e-01,1.954540009079375473e-01
1.026000000000000023e+00,3.356560364719153866e-01,-4.663494226421989741e-01,1.733390682497244484e-01
1.026999999999999913e+00,5.946303447257493824e-01,-1.962301721904533280e-01,-3.174342225276587798e-02
1.028000000000000025e+00,3.291962542901913369e-01,2.359607126914768649e-01,-2.182192726418702988e-01
1.028999999999999915e+00,-2.827996730005984394e-01,3.571198356420859921e-01,-2.128907868179375218e-01
1.030000000000000027e+00,-5.963382133383029471e-01,1.116610260169500074e-01,4.002492349591495191e-02
1.030999999999999917e+00,-4.141269602378858661e-01,-2.322249419549939631e-01,2.359988400281534116e-01
1.032000000000000028e+00,1.500924076623666725e-01,-3.148760560692953625e-01,2.468656786205965792e-01
1.032999999999999918e+00,6.159519873894687692e-01,-1.077428312945773042e-01,-4.788165334154896070e-03
1.034000000000000030e+00,4.510339906953861333e-01,1.967662704408127128e-01,-2.320105366928818247e-01
1.034999999999999920e+00,-5.263731038384363708e-02,2.840174557881737782e-01,-2.916034937254563530e-01
1.036000000000000032e+00,-5.183030797425315361e-01,6.796266187061961866e-03,-4.510571368028742228e-02
1.036999999999999922e+00,-4.260119235350225408e-01,-2.574358148231104537e-01,2.702575157401136408e-01
1.038000000000000034e+00,1.501121973369343859e-02,-2.692268737934463974e-01,3.365193892429505507e-01
1.038999999999999924e+00,4.131644811633609637e-01,1.483995449616886883e-02,1.065055631443967560e-01
1.040000000000000036e+00,4.290653075054986498e-01,2.691628495643855756e-01,-2.615480297068331073e-01
1.040999999999999925e+00,2.885037926792803631e-02,2.924092012904385141e-01,-3.772450425504359495e-01
1.042000000000000037e+00,-3.808502345234373587e-01,-2.230200456948139634e-02,-1.786281408599956488e-01
1.042999999999999927e+00,-3.085328110200724616e-01,-3.524620648279605528e-01,1.827453105886031604e-01
1.044000000000000039e+00,-2.482043151273275253e-02,-3.856455259732823326e-01,3.633556621688034949e-01
1.044999999999999929e+00,3.059482019351172921e-01,-1.722122801551297447e-02,2.132226258680096076e-01
1.046000000000000041e+00,2.897286882548975595e-01,3.937661579009661406e-01,-9.001152505556379857e-02
1.046999999999999931e+00,-5.839650805746286061e-02,4.204479070989959877e-01,-2.694740487994961575e-01
1.048000000000000043e+00,-3.248232836175232729e-01,2.486852565733634057e-02,-2.354065606604601180e-01
1.048999999999999932e+00,-3.063111855430304398e-01,-3.767535105871237522e-01,3.382011517794129840e-02
1.050000000000000044e+00,1.411831131764052782e-01,-4.786524354443939533e-01,2.704582090509292103e-01
1.050999999999999934e+00,4.199512013005118893e-01,-1.153119289302131645e-01,2.247111067863424572e-01
1.052000000000000046e+00,3.097059321042416880e-01,3.297773171764918354e-01,-1.235752601853733895e-02
1.052999999999999936e+00,-1.538621729612447420e-01,4.729138475955649290e-01,-2.239412571292581922e-01
1.054000000000000048e+00,-5.077802161347068077e-01,1.758438649851781221e-01,-1.554090196389603939e-01
1.054999999999999938e+00,-3.743930844018012460e-01,-2.848755323524786998e-01,3.570334658666871053e-02
1.056000000000000050e+00,9.361744323402412804e-02,-4.776938932176383878e-01,2.520500145124054403e-01
1.056999999999999940e+00,5.656642416951583874e-01,-1.881924481177827124e-01,1.700981246468363794e-01
1.058000000000000052e+00,4.964371480437614892e-01,2.197065101707568191e-01,-6.838584628829742773e-02
1.058999999999999941e+00,-4.528583384933237976e-02,3.960429364491847015e-01,-2.228454096942380780e-01
1.060000000000000053e+00,-5.275477222447108039e-01,1.857679114460111802e-01,-1.401949857243776354e-01
1.060999999999999943e+00,-5.660406093018216511e-01,-2.047443579781965395e-01,7.071068223835046129e-02
1.062000000000000055e+00,-6.824315622375792811e-02,-3.834563070105212468e-01,2.279765436054248806e-01
1.062999999999999945e+00,4.892495712628551208e-01,-1.720040818668912008e-01,1.569653184102576815e-01
1.064000000000000057e+00,5.700131223916443668e-01,1.666032897088144671e-01,-8.377195955946402373e-02
1.064999999999999947e+00,1.501260859398631797e-01,3.190283704016728117e-01,-2.855976752736527069e-01
1.066000000000000059e+00,-3.822701774442346379e-01,1.271651491525130906e-01,-2.094853760921619457e-01
1.066999999999999948e+00,-5.498557889306093793e-01,-2.141542219914623901e-01,4.660872295460763426e-02
1.068000000000000060e+00,-1.823771507873812314e-01,-2.925815361674450332e-01,3.087562289573711483e-01
1.068999999999999950e+00,3.051144507836668351e-01,-9.046942331716840979e-02,3.120911077321618099e-01
1.070000000000000062e+00,5.013522820656193257e-01,2.111731464060388197e-01,-5.485900249450907130e-03
1.070999999999999952e+00,2.441555741701920967e-01,2.958636837338862180e-01,-3.477272617969155988e-01
1.072000000000000064e+00,-1.972173152914311334e-01,1.906134676010760171e-02,-3.656590092999099650e-01
1.072999999999999954e+00,-4.275319971052514156e-01,-2.843585310592360305e-01,-5.929480982603938660e-02
1.074000000000000066e+00,-1.796581207362329957e-01,-3.643896875627263277e-01,2.300123976002322324e-01
1.074999999999999956e+00,1.980719770233773935e-01,-6.278071863017223309e-02,3.488868991820699983e-01
1.076000000000000068e+00,4.084511814934866369e-01,3.182325963538972791e-01,1.050930183819533265e-01
1.076999999999999957e+00,1.467014068183504771e-01,4.016153235030166524e-01,-2.239881117348671846e-01
1.078000000000000069e+00,-1.979460008779381497e-01,1.064106746050737656e-01,-3.453624750503752061e-01
1.078999999999999959e+00,-3.944344744717457329e-01,-3.299714266958848063e-01,-1.475698673481691536e-01
1.080000000000000071e+00,-1.363860759812094980e-01,-4.428836388069257168e-01,1.439915224631916069e-01
1.080999999999999961e+00,2.614294922332394133e-01,-1.660760395233235043e-01,2.946842130427076989e-01
1.082000000000000073e+00,3.745105271366732658e-01,3.017529356288066178e-01,1.559213735516183363e-01
1.082999999999999963e+00,9.339804917897696901e-02,4.640666423060765822e-01,-1.206065197767988012e-01
1.084000000000000075e+00,-2.863284262836686134e-01,2.160008409409988894e-01,-2.667666743065522650e-01
1.084999999999999964e+00,-4.566313868869192882e-01,-2.458851810969593377e-01,-1.514388834712040999e-01
1.086000000000000076e+00,-1.122880801043949078e-01,-4.810763945167708666e-01,7.662886945425224916e-02
1.086999999999999966e+00,3.780798013528119950e-01,-2.432253833854684522e-01,2.309658626422001482e-01
1.088000000000000078e+00,5.459327282953920779e-01,1.620996284357625605e-01,1.288065930176756635e-01
1.088999999999999968e+00,1.770122203471888311e-01,4.490594320273541551e-01,-6.940781718838281988e-02
1.090000000000000080e+00,-3.359767055162244942e-01,2.737944825342327748e-01,-2.037954138790532554e-01
1.090999999999999970e+00,-6.115623874834906770e-01,-1.036394442778758584e-01,-1.268505905566422731e-01
1.092000000000000082e+00,-2.847085243988368708e-01,-4.308939654970923017e-01,1.024191674622121212e-01
1.092999999999999972e+00,3.360916156132583987e-01,-2.524891117145598995e-01,2.382616554602883796e-01
1.094000000000000083e+00,6.015679499107251527e-01,1.008725588681243096e-01,1.226162725465875791e-01
1.094999999999999973e+00,3.616241218270146995e-01,3.310624849790410051e-01,-1.530456727587694021e-01
1.096000000000000085e+00,-2.124900506998856631e-01,2.350519011540801173e-01,-3.368379550802184097e-01
1.096999999999999975e+00,-6.075214994892079723e-01,-1.113960789920456357e-01,-1.461556214399438447e-01
1.098000000000000087e+00,-4.143482433844834500e-01,-2.948030530170965280e-01,1.468141546644953221e-01
1.098999999999999977e+00,1.164930259524298989e-01,-1.508203722117922030e-01,3.383066223981985865e-01
1.100000000000000089e+00,5.234410910740672218e-01,1.333752101312507543e-01,2.021093059871068298e-01
1.100999999999999979e+00,4.353198990926186451e-01,3.090868792251406094e-01,-8.779944357459312787e-02
1.102000000000000091e+00,-1.427803756582621091e-02,1.151273262548851983e-01,-3.266152874393592476e-01
1.102999999999999980e+00,-4.378475655836515101e-01,-2.225264166674101318e-01,-2.672898120997350135e-01
1.104000000000000092e+00,-4.392163253145538460e-01,-3.262145164116678764e-01,3.781782486610878180e-02
1.104999999999999982e+00,1.679129901275584411e-02,-1.116265471714905644e-01,3.124581584638673748e-01
1.106000000000000094e+00,3.720400906305160182e-01,2.549440546046417011e-01,2.943385928004100260e-01
1.106999999999999984e+00,3.195364906247021852e-01,3.993582813141516863e-01,-2.706503070907324143e-03
1.108000000000000096e+00,-5.938373094175406451e-03,1.150471506304941854e-01,-2.762511657378050600e-01
1.108999999999999986e+00,-3.325402257151606755e-01,-2.854535085642306291e-01,-3.359022550257084183e-01
1.110000000000000098e+00,-2.688406250554421506e-01,-4.097199932099584996e-01,-8.951248226985954182e-02
1.110999999999999988e+00,6.366750302576476561e-02,-1.797853401022604658e-01,2.611266427465082085e-01
1.112000000000000099e+00,3.781168194165046570e-01,2.354951586447095457e-01,3.136745015852234197e-01
1.112999999999999989e+00,2.836592241309979778e-01,4.861330328050636473e-01,1.595858287080362259e-01
1.114000000000000101e+00,-1.456602425938744727e-01,2.602669169836127616e-01,-1.420632648375198814e-01
1.114999999999999991e+00,-4.210153126336964036e-01,-1.786630334377401763e-01,-2.889012503313730384e-01
1.116000000000000103e+00,-3.043297059842042240e-01,-4.797199698538684998e-01,-9.925078623437992575e-02
1.116999999999999993e+00,1.642397890631355217e-01,-3.039689967206852250e-01,1.224184505548539664e-01
1.118000000000000105e+00,4.897052165457319028e-01,1.729248750468269924e-01,2.172142949439364312e-01
1.118999999999999995e+00,3.621182280016193578e-01,4.473563891770348522e-01,1.355736997916594244e-01
1.120000000000000107e+00,-1.462286153053432014e-01,3.250368418992130581e-01,-1.096188806302039187e-01
1.120999999999999996e+00,-5.356310309946989978e-01,-7.002553672493204429e-02,-2.283261519957845709e-01
1.122000000000000108e+00,-4.340636723163929234e-01,-3.982798680903148481e-01,-7.842967764644794004e-02
1.122999999999999998e+00,5.396703858291200528e-02,-3.166973697347794658e-01,1.299499103671904465e-01
1.124000000000000110e+00,5.525045507200715411e-01,6.591567569658657311e-02,2.204783911674808305e-01
1.125000000000000000e+00,5.200953731521019696e-01,3.233530221035109675e-01,8.093663155964736511e-02
1.125999999999999890e+00,-8.379156962658222902e-04,2.941364486138971501e-01,-1.648482000979991369e-01
1.127000000000000002e+00,-5.083473498963247961e-01,-2.767235858489541789e-02,-2.489534991223047999e-01
1.127999999999999892e+00,-5.657144788880078545e-01,-2.964781140278267557e-01,-7.374046857164866242e-02
1.129000000000000004e+00,-1.040480464348733786e-01,-2.070309619374301191e-01,2.010627748318544461e-01
1.129999999999999893e+00,4.492983183028421701e-01,8.094481750078648397e-02,3.265225277281956773e-01
1.131000000000000005e+00,5.252174187367770752e-01,2.634098125211438712e-01,1.202783047442859410e-01
1.131999999999999895e+00,1.891697807420531785e-01,1.588330734512498066e-01,-1.834831844798298917e-01
1.133000000000000007e+00,-3.472805665942950704e-01,-1.497424729033744462e-01,-3.231723182687242790e-01
1.133999999999999897e+00,-5.129365764594877586e-01,-3.236684817789911572e-01,-1.780885254851872768e-01
1.135000000000000009e+00,-2.022664890840938645e-01,-1.640131700155295080e-01,1.944854018369815141e-01
1.135999999999999899e+00,2.667984308242363767e-01,2.027006795691898844e-01,3.805925109358077596e-01
1.137000000000000011e+00,4.683854175131074160e-01,3.486281744549495354e-01,2.472701294041788622e-01
1.137999999999999901e+00,1.979676661233193136e-01,1.806417154409320769e-01,-1.006207064448106647e-01
1.139000000000000012e+00,-2.163552453630486205e-01,-2.485425677002875700e-01,-3.642648126576759626e-01
1.139999999999999902e+00,-4.172126364130669396e-01,-4.181872368988172606e-01,-2.647503998990697882e-01
1.141000000000000014e+00,-1.728375546695142262e-01,-1.672609942693318863e-01,4.707156086324124772e-02
1.141999999999999904e+00,2.372021203889056462e-01,2.037095133411852832e-01,2.884288079582740805e-01
1.143000000000000016e+00,3.577889370816634274e-01,4.569087279555085201e-01,2.906650719961201834e-01
1.143999999999999906e+00,6.084637774019560630e-02,2.783181472149619529e-01,5.844558664773875228e-02
1.145000000000000018e+00,-2.733381348262052812e-01,-1.814252647972217358e-01,-2.769085437174449993e-01
1.145999999999999908e+00,-3.704096961722187498e-01,-4.710548825057495614e-01,-2.755155984421860937e-01
1.147000000000000020e+00,-3.257975340599329750e-02,-3.154038875440219325e-01,-6.486547780867525648e-02
1.147999999999999909e+00,3.375387845150991661e-01,1.065232273512088518e-01,2.054001708952006844e-01
1.149000000000000021e+00,4.448336571633911274e-01,4.240825047880407150e-01,2.698884780039580988e-01
1.149999999999999911e+00,7.057689488275371847e-02,3.428313240585328936e-01,4.709847854398388489e-02
1.151000000000000023e+00,-4.033324352228254694e-01,-2.393898201194345765e-02,-1.524118090559977434e-01
1.151999999999999913e+00,-5.173014746869214475e-01,-4.100730587550948103e-01,-2.329166621738024689e-01
1.153000000000000025e+00,-1.159957087694111072e-01,-3.824369852969473071e-01,-3.434779473259012839e-02
1.153999999999999915e+00,3.748980045701217345e-01,5.721161936906232065e-03,1.497308504586341571e-01
1.155000000000000027e+00,5.658861127677664582e-01,3.650824308114931083e-01,1.999899495703728047e-01
1.155999999999999917e+00,2.441821734900853635e-01,3.515485486936206772e-01,5.038902332978084653e-02
1.157000000000000028e+00,-3.631064879204229379e-01,-6.042899681741980590e-03,-1.991165654221790371e-01
1.157999999999999918e+00,-6.617285329301313412e-01,-2.849991693153887118e-01,-2.252323246599662876e-01
1.159000000000000030e+00,-3.500630953409563095e-01,-2.682724345849010206e-01,-9.147911071284644743e-03
1.159999999999999920e+00,2.443701923683538613e-01,-2.367542174873539518e-02,2.353966777012164169e-01
1.161000000000000032e+00,6.256519592694679277e-01,2.701074053828990684e-01,2.532349286513256303e-01
1.161999999999999922e+00,3.916112749625013656e-01,2.249344670804069579e-01,3.339251176148721328e-02
1.163000000000000034e+00,-1.773349860978794823e-01,-6.512575363040473686e-02,-2.556567879618477646e-01
1.163999999999999924e+00,-5.386916526929961258e-01,-2.635553070766534223e-01,-3.239951310695187159e-01
1.165000000000000036e+00,-4.145725910352876520e-01,-2.355397141710408038e-01,-5.900013452715949930e-02
1.165999999999999925e+00,6.897447058713614132e-02,1.075168524950913529e-01,2.292657397367688366e-01
1.167000000000000037e+00,4.686801426980975460e-01,2.997174317584122560e-01,3.262083756977610105e-01
1.167999999999999927e+00,3.836269315540184466e-01,2.109399303881815124e-01,1.460629002087937278e-01
1.169000000000000039e+00,-2.603211863234778864e-02,-1.373952718956336916e-01,-2.001117278867991511e-01
1.169999999999999929e+00,-3.628124219352285573e-01,-3.607487843753247048e-01,-3.589718565264684580e-01
1.171000000000000041e+00,-3.487003593113363054e-01,-2.209728499195420526e-01,-1.992371909618823322e-01
1.171999999999999931e+00,4.225753086084555604e-02,1.706254210446900010e-01,1.579735923056867497e-01
1.173000000000000043e+00,3.504744651578264314e-01,4.160763489951964655e-01,3.748066946309072667e-01
1.173999999999999932e+00,2.750259280129670469e-01,2.738119597092868451e-01,2.663487705932860439e-01
1.175000000000000044e+00,-7.750731314223043011e-02,-9.812866693652975980e-02,-4.462769506934443492e-02
1.175999999999999934e+00,-3.501363011117742396e-01,-4.528478761837116395e-01,-3.105440309732107607e-01
1.177000000000000046e+00,-2.576589878349241358e-01,-3.478418272523964294e-01,-3.050240323311141366e-01
1.177999999999999936e+00,1.338318124761735117e-01,7.120146909107764877e-02,1.042426546930192398e-02
1.179000000000000048e+00,4.114838992899270131e-01,4.461389506305872277e-01,2.765944644038667022e-01
1.179999999999999938e+00,2.805105434626651850e-01,3.899802373507821884e-01,2.499411698337586918e-01
