time,acc_x,acc_y,acc_z
0.000000000000000000e+00,4.758184457981473048e-01,3.901165058959443765e-01,2.838825773691095455e-01
1.000000000000000021e-03,2.816262150112494034e-01,1.828268484479411149e-01,1.980040960618681678e-01
2.000000000000000042e-03,-2.322810660311384803e-03,-1.123402164845484219e-01,1.693920464881981669e-02
3.000000000000000062e-03,-3.925227265697875945e-01,-3.520754282732680984e-01,-2.190845922124842748e-01
4.000000000000000083e-03,-4.655597769766210980e-01,-3.735826757122261421e-01,-2.689478739120340633e-01
5.000000000000000104e-03,-2.724857912904083967e-01,-1.523227577719722392e-01,-2.107369459922618649e-01
6.000000000000000125e-03,5.131150342352461258e-02,1.444127108178452912e-01,2.808291788119350249e-02
7.000000000000000146e-03,3.797830173135001153e-01,3.449558122562486617e-01,2.097117253757015687e-01
8.000000000000000167e-03,4.489550273863264218e-01,3.815739480054467503e-01,2.901631918866833248e-01
8.999999999999999320e-03,2.341527977993055620e-01,1.453024555145285834e-01,2.053621621183270851e-01
1.000000000000000021e-02,-1.155039327241595276e-01,-1.935671963508655558e-01,2.044631833287127373e-02
1.099999999999999936e-02,-3.987953710671395813e-01,-4.063002680569988145e-01,-2.319711398433339511e-01
1.200000000000000025e-02,-4.446163595746971953e-01,-3.667552742788483533e-01,-2.475781624051309193e-01
1.299999999999999940e-02,-2.188681810704025121e-01,-8.046516622916725925e-02,-1.814662023941685520e-01
1.400000000000000029e-02,1.592559243118949475e-01,1.913238615309610646e-01,1.424789958098450493e-02
1.499999999999999944e-02,4.066867096454575004e-01,3.805447853756141474e-01,2.368474786248692121e-01
1.600000000000000033e-02,4.749743997168610066e-01,2.826794639692706279e-01,2.821472156724275648e-01
1.700000000000000122e-02,2.031950581631363772e-01,3.476911244313102278e-02,1.950997205041953841e-01
1.799999999999999864e-02,-1.327225862345975116e-01,-1.985864569892871745e-01,-2.869008500450406091e-02
1.899999999999999953e-02,-4.237642256816753772e-01,-3.895302333103349834e-01,-2.394621889337913978e-01
2.000000000000000042e-02,-4.214741271285071256e-01,-2.977822016430126117e-01,-2.834935113263081230e-01
2.100000000000000130e-02,-1.963613441074434640e-01,1.784261754515025292e-02,-2.064025715149281348e-01
2.199999999999999872e-02,2.104647395560162726e-01,2.683911586157459173e-01,2.805564856822146888e-02
2.299999999999999961e-02,4.313705653372786331e-01,4.051553992640365975e-01,2.048328542678317099e-01
2.400000000000000050e-02,4.376144556082882109e-01,2.433812791300505318e-01,2.640632785687975215e-01
2.500000000000000139e-02,1.679453440229805306e-01,-2.669301574374843486e-02,1.783139179006274500e-01
2.599999999999999881e-02,-2.284157425894682847e-01,-3.239294438913285501e-01,-4.494375361762153326e-02
2.699999999999999969e-02,-4.630944916187385574e-01,-3.989511557446805967e-01,-2.306072881004452568e-01
2.800000000000000058e-02,-4.039937933107443646e-01,-2.418229912031477080e-01,-3.030862080190003804e-01
2.900000000000000147e-02,-1.128925596989982516e-01,4.891560629877030747e-02,-1.532993790088204022e-01
2.999999999999999889e-02,2.475383441503314907e-01,3.331345394390336501e-01,3.037330559221356960e-02
3.099999999999999978e-02,4.682721292576649819e-01,3.370739476056188177e-01,2.546866151437776615e-01
3.200000000000000067e-02,4.009411432203774939e-01,2.343417037535429903e-01,2.475936575675089790e-01
3.300000000000000155e-02,5.538003445200368607e-02,-1.150913218491170648e-01,1.814570436468839199e-01
3.400000000000000244e-02,-2.751383136157364295e-01,-3.845487718539669642e-01,-6.781939923666066572e-02
3.500000000000000333e-02,-5.020442337915227426e-01,-3.818562265348262041e-01,-2.360295299368706801e-01
3.599999999999999728e-02,-3.675263660215962735e-01,-1.398363544175106055e-01,-2.621504153422215544e-01
3.699999999999999817e-02,-7.265302300356364651e-02,1.371957191521142594e-01,-1.330976771572163486e-01
3.799999999999999906e-02,3.120216193321352360e-01,3.725011081268427282e-01,7.171269695753136608e-02
3.899999999999999994e-02,4.887260308825214228e-01,3.254829653713188220e-01,2.101322765536824400e-01
4.000000000000000083e-02,3.574482730625627158e-01,1.450569210208266513e-01,2.674055977517165728e-01
4.100000000000000172e-02,1.665575940822909551e-02,-1.983263443087601718e-01,1.642458180028104064e-01
4.200000000000000261e-02,-3.254898491880481304e-01,-3.740009946087404780e-01,-5.491459677084221946e-02
4.299999999999999656e-02,-4.506967336392938561e-01,-3.263644539141432599e-01,-2.459181941899731827e-01
4.399999999999999745e-02,-3.049244361252185231e-01,-7.561222475168634383e-02,-2.850225132890746305e-01
4.499999999999999833e-02,5.280517484960446650e-02,1.756766519960095974e-01,-1.391660925403362947e-01
4.599999999999999922e-02,3.489705879827065815e-01,3.612549378386644139e-01,9.681981809434267450e-02
4.700000000000000011e-02,4.841439765285264762e-01,3.288678307176712279e-01,2.650817545422503585e-01
4.800000000000000100e-02,3.109252980160711610e-01,5.779267524782755183e-02,2.604418164740509023e-01
4.900000000000000189e-02,-4.738502889756217307e-02,-2.288104830489162134e-01,1.274395809267735435e-01
5.000000000000000278e-02,-3.873166766875674183e-01,-3.833815204973595181e-01,-8.984325208061059997e-02
5.099999999999999672e-02,-4.622088292705921475e-01,-2.866815759717196710e-01,-3.177050291964346740e-01
5.199999999999999761e-02,-2.704118490557890220e-01,-2.900085570725230433e-02,-2.792646072710058269e-01
5.299999999999999850e-02,1.030171937147103117e-01,2.370138399426160170e-01,-8.897499615189774502e-02
5.399999999999999939e-02,3.745973216045340726e-01,3.740054547044706079e-01,1.132462869648352272e-01
5.500000000000000028e-02,4.599484222635735198e-01,2.618492680270598782e-01,2.229760049129763944e-01
5.600000000000000117e-02,2.651893219798461820e-01,-2.446087099056641276e-02,2.718519918362243271e-01
5.700000000000000205e-02,-1.387425526815221910e-01,-2.585492440123873248e-01,9.943189167502290704e-02
5.800000000000000294e-02,-3.770648618746204606e-01,-3.609624014338235209e-01,-1.277415761629262236e-01
5.899999999999999689e-02,-4.275947572522360018e-01,-2.403764814888486590e-01,-2.766872886398073494e-01
5.999999999999999778e-02,-2.361489346607065776e-01,4.274289376602875834e-02,-2.570625366408598733e-01
6.099999999999999867e-02,1.319616176712029298e-01,2.946320933177553059e-01,-1.113768070316418779e-01
6.199999999999999956e-02,3.934069087613873972e-01,3.743888169734513882e-01,1.186845072652521066e-01
6.300000000000000044e-02,4.483777889403100514e-01,2.210644990552746436e-01,2.821070068729460423e-01
6.400000000000000133e-02,1.907983378755267745e-01,-8.179366939518313562e-02,2.736636860697131968e-01
6.500000000000000222e-02,-1.794674792846516487e-01,-3.207583842154329568e-01,6.762565980836912627e-02
6.600000000000000311e-02,-4.242883717485349537e-01,-3.684597757448782041e-01,-1.157842347825375345e-01
6.700000000000000400e-02,-4.573954488051306111e-01,-1.465186512319921475e-01,-2.631169123486046812e-01
6.800000000000000488e-02,-1.510315350509271182e-01,1.214219668176260147e-01,-2.226132850104806382e-01
6.900000000000000577e-02,1.841337302727780734e-01,3.427720983822087342e-01,-8.902079553139891077e-02
7.000000000000000666e-02,4.625269043294843452e-01,3.511739752869195708e-01,1.604999752058183515e-01
7.099999999999999367e-02,4.238809199117389293e-01,1.814342306112993186e-01,2.836556024697156619e-01
7.199999999999999456e-02,1.448273908990832248e-01,-1.810256716839550861e-01,2.672076101531059567e-01
7.299999999999999545e-02,-2.488823255814074098e-01,-3.348171886563236499e-01,5.203620144043522716e-02
7.399999999999999634e-02,-4.497976079545787931e-01,-3.502881709590606740e-01,-1.145693713781442136e-01
7.499999999999999722e-02,-4.585462312285634168e-01,-8.458928238077521866e-02,-2.754794946476689654e-01
7.599999999999999811e-02,-1.146427749979490179e-01,1.883586868632871614e-01,-2.347655626821169572e-01
7.699999999999999900e-02,2.591649040960948835e-01,3.887613291100325830e-01,-6.070557424671079588e-02
7.799999999999999989e-02,4.478103422704925451e-01,3.235282235467429324e-01,1.774363719286388696e-01
7.900000000000000078e-02,3.867722890616465126e-01,5.567323722076059078e-02,2.692565937551466559e-01
8.000000000000000167e-02,6.877171437849979863e-02,-2.367870580501833244e-01,2.281808473550114014e-01
8.100000000000000255e-02,-2.432772928189752826e-01,-3.689435152436537080e-01,3.037740927453237705e-02
8.200000000000000344e-02,-4.620951532505891413e-01,-3.043890734724332137e-01,-1.377771450262021691e-01
8.300000000000000433e-02,-4.027776353603551573e-01,-5.381834365454908620e-02,-2.783314149499736545e-01
8.400000000000000522e-02,-4.862173845307431186e-02,2.565996259721192163e-01,-2.701437788334278833e-01
8.500000000000000611e-02,2.977611774140908052e-01,4.138394360780777159e-01,-4.904498078738886435e-02
8.599999999999999312e-02,5.207330108707872718e-01,2.488481210971130453e-01,1.758013568319778119e-01
8.699999999999999400e-02,3.863273626618857759e-01,-1.132146117424486821e-02,2.823484384471884323e-01
8.799999999999999489e-02,3.352682548586898709e-02,-2.535404820820806870e-01,2.330578688497431106e-01
8.899999999999999578e-02,-3.191025032418171592e-01,-4.023426793617612685e-01,5.947668103864826861e-02
8.999999999999999667e-02,-4.479542936751509941e-01,-2.286535444683114870e-01,-1.438796842011351718e-01
9.099999999999999756e-02,-3.619796681013781048e-01,3.939168907826089139e-02,-2.920371619044324629e-01
9.199999999999999845e-02,2.671292964128922642e-02,3.148512980816541296e-01,-2.238257018111640129e-01
9.299999999999999933e-02,3.451445278694760255e-01,3.590442299013568150e-01,-2.220828010383169709e-02
9.400000000000000022e-02,4.734299867820412344e-01,2.154265645178893296e-01,2.158349640741956954e-01
9.500000000000000111e-02,3.433151767709500257e-01,-8.190548462665421525e-02,2.857425123593252403e-01
9.600000000000000200e-02,-2.987122815526967179e-02,-3.009924857870004966e-01,2.274536221301311500e-01
9.700000000000000289e-02,-4.050905138957507923e-01,-3.952552797383267480e-01,2.978130419315772916e-03
9.800000000000000377e-02,-4.823132842513227492e-01,-1.588602491650582815e-01,-1.748941822071473640e-01
9.900000000000000466e-02,-2.879837114137122622e-01,8.574804642578248703e-02,-2.917393277296956300e-01
1.000000000000000056e-01,9.058848572912799046e-02,3.742491632460819839e-01,-2.218084350096484192e-01
1.010000000000000064e-01,3.811401773100917545e-01,3.354643874894258082e-01,-7.229748604385643346e-03
1.019999999999999934e-01,4.546925934364089428e-01,1.610061595644654286e-01,1.719096603617029373e-01
1.029999999999999943e-01,2.484818874035407132e-01,-1.838608414937676905e-01,2.900862678320223487e-01
1.039999999999999952e-01,-8.937601558556239334e-02,-3.866280268100584783e-01,2.120582575211824861e-01
1.049999999999999961e-01,-4.127211141514484649e-01,-3.233733342457185134e-01,-1.462112427455067830e-02
1.059999999999999970e-01,-4.179009743986183967e-01,-1.106630458683063450e-01,-2.545352810907725583e-01
1.069999999999999979e-01,-2.092965389849477109e-01,1.905793711588502082e-01,-2.994843078251475110e-01
1.079999999999999988e-01,1.382321950719158088e-01,3.722498708881987195e-01,-1.505118941563237667e-01
1.089999999999999997e-01,4.341755922883699936e-01,2.954431173970422098e-01,3.798173498811042992e-02
1.100000000000000006e-01,4.441331719207927686e-01,8.609781008770481248e-02,2.154468375223026755e-01
1.110000000000000014e-01,1.876068182340597801e-01,-2.124863405180693054e-01,2.780391834314095423e-01
1.120000000000000023e-01,-1.516796828476880410e-01,-3.874693494942434979e-01,1.818116819714198362e-01
1.130000000000000032e-01,-4.117899933391618861e-01,-2.784561157271727150e-01,-2.711630360950875035e-02
1.140000000000000041e-01,-4.570374396341406742e-01,-2.968470880729310798e-02,-2.386034509207522747e-01
1.150000000000000050e-01,-1.767686295797388785e-01,2.466401512288059761e-01,-2.874848702909061915e-01
1.160000000000000059e-01,1.876223713145054595e-01,3.423326376523365133e-01,-1.749066236415909859e-01
1.170000000000000068e-01,4.151108199539965682e-01,2.758156562852219773e-01,6.072419222783655840e-02
1.179999999999999938e-01,4.348112529035745855e-01,-2.969243888296619824e-02,2.359699292528975034e-01
1.189999999999999947e-01,1.380776313253147813e-01,-2.877761239746759458e-01,2.824032554940327233e-01
1.199999999999999956e-01,-2.088475497597654940e-01,-3.970638395550278310e-01,1.420923596607468753e-01
1.209999999999999964e-01,-4.143595323633078586e-01,-2.289440014046207339e-01,-5.408404589635005394e-02
1.219999999999999973e-01,-4.530955076411135596e-01,3.456690423165065945e-02,-2.367082545906550595e-01
1.229999999999999982e-01,-1.158391791369850765e-01,3.206608795449999993e-01,-2.661433404125638225e-01
1.239999999999999991e-01,2.576732362798363485e-01,3.711942732021288327e-01,-1.721660923625214779e-01
1.250000000000000000e-01,4.504833627879454294e-01,2.050624219583616070e-01,8.924650208983801736e-02
1.260000000000000009e-01,3.962559641722496750e-01,-5.979563164996849756e-02,2.299785702348854932e-01
1.270000000000000018e-01,9.855675028196358989e-02,-3.290847068877977288e-01,2.733809516724237665e-01
1.280000000000000027e-01,-2.964972065971319126e-01,-3.958316001437202636e-01,1.531655214531372211e-01
1.290000000000000036e-01,-4.301624518373075579e-01,-1.555818451508615974e-01,-7.402477477770248726e-02
1.300000000000000044e-01,-3.623628893932342443e-01,1.305894517783585673e-01,-2.557422050004966585e-01
1.310000000000000053e-01,-5.754470156463570990e-02,3.716719465528665056e-01,-2.643239208299399401e-01
1.320000000000000062e-01,2.696368665809522058e-01,4.045323652751661170e-01,-1.425576913612246754e-01
1.330000000000000071e-01,4.849236673809937392e-01,1.478218921097071703e-01,7.584528214430087678e-02
1.340000000000000080e-01,3.612577555121674888e-01,-1.102839217922376991e-01,2.289766203608193107e-01
1.350000000000000089e-01,2.193639615018045524e-02,-3.528736885307406368e-01,2.867529696801757733e-01
1.360000000000000098e-01,-3.147550882532119121e-01,-3.209609299257639159e-01,1.672125190310821408e-01
1.370000000000000107e-01,-4.512046574208394834e-01,-1.124561015561051369e-01,-1.170254944982347667e-01
1.380000000000000115e-01,-3.427107309406143276e-01,1.572578688127121427e-01,-2.929790469175799772e-01
1.390000000000000124e-01,8.626095677726607763e-03,3.546345793174633387e-01,-2.667348970616270631e-01
1.400000000000000133e-01,3.721027559170728694e-01,3.399795479831848044e-01,-1.187296926756974680e-01
1.409999999999999865e-01,4.531803224824353382e-01,8.532815981939395611e-02,8.394647522899051362e-02
1.419999999999999873e-01,3.125342128598795899e-01,-2.023434021639175795e-01,2.530301075683761836e-01
1.429999999999999882e-01,-7.606945335889864213e-02,-3.623873999866573103e-01,3.107062208411398019e-01
1.439999999999999891e-01,-3.592856521376500689e-01,-3.059637825006022438e-01,1.458648126777538079e-01
1.449999999999999900e-01,-4.742800393425068428e-01,-5.635760882387817056e-02,-1.006932806785682533e-01
1.459999999999999909e-01,-2.418863168616382509e-01,2.672130754594902458e-01,-2.628785660119211109e-01
1.469999999999999918e-01,7.958653914781184391e-02,3.507077134940054242e-01,-2.549629329532368538e-01
1.479999999999999927e-01,3.997446333218694359e-01,2.699380969688139342e-01,-9.961945145579387262e-02
1.489999999999999936e-01,4.536078489674206793e-01,1.338258426798028498e-02,1.227037658086993083e-01
1.499999999999999944e-01,2.759948111702397178e-01,-2.681648441477610945e-01,2.501262282745528309e-01
1.509999999999999953e-01,-1.374385322046259572e-01,-3.662985316926377632e-01,2.371193038400644104e-01
1.519999999999999962e-01,-3.824004024881797470e-01,-2.612218995220607631e-01,1.095623606665106498e-01
1.529999999999999971e-01,-4.860656804331327518e-01,4.673058136443581506e-02,-1.477765877523392890e-01
1.539999999999999980e-01,-2.381533898368369540e-01,2.980604229319430698e-01,-2.988762803753193253e-01
1.549999999999999989e-01,1.087354795598454993e-01,3.907830991445515600e-01,-2.633089221432029503e-01
1.559999999999999998e-01,4.355627001321913938e-01,2.408330256312586626e-01,-1.120719521188049406e-01
1.570000000000000007e-01,4.782128451721157636e-01,-7.375111113675111851e-02,1.252948191333720096e-01
1.580000000000000016e-01,1.893024484547802810e-01,-3.536965377098273966e-01,2.715469168958916102e-01
1.590000000000000024e-01,-1.326159542784996759e-01,-3.643273112697911209e-01,2.641277799222723210e-01
1.600000000000000033e-01,-4.280461318322268394e-01,-1.859344339510507482e-01,3.698270896210169301e-02
1.610000000000000042e-01,-4.774445107968469104e-01,1.072898273532333774e-01,-9.771941926832117264e-02
1.620000000000000051e-01,-1.531070665830072675e-01,3.454497623782972759e-01,-2.749833146646109561e-01
1.630000000000000060e-01,1.673886889668358968e-01,3.198078183447035650e-01,-2.409073786798061056e-01
1.640000000000000069e-01,4.063007579731175434e-01,1.440723309174548050e-01,-8.164923598796335058e-02
1.650000000000000078e-01,4.246483541017610497e-01,-1.543304254862153391e-01,1.398797207659427388e-01
1.660000000000000087e-01,1.279498861702409729e-01,-3.348928945149801106e-01,2.923542948602129710e-01
1.670000000000000095e-01,-2.300264309112327044e-01,-3.391823840152078939e-01,2.548522539270397513e-01
1.680000000000000104e-01,-4.533425212498312651e-01,-1.471494999885311350e-01,6.513729753187502691e-02
1.690000000000000113e-01,-3.857851746690056927e-01,1.515981902453003016e-01,-1.543891899132623646e-01
1.700000000000000122e-01,-1.116316793318612027e-01,3.854926899689751774e-01,-2.938601257712554760e-01
1.710000000000000131e-01,2.534071082880139936e-01,2.913882563775410106e-01,-2.324314712634523716e-01
1.719999999999999862e-01,4.656088170882513588e-01,8.365003083933079953e-02,-8.505266425821422782e-02
1.729999999999999871e-01,3.997104786646421548e-01,-2.227115015087867966e-01,1.601415020006956014e-01
1.739999999999999880e-01,9.270683148223742009e-02,-4.049542116443635709e-01,2.593846193070606931e-01
1.749999999999999889e-01,-2.739545145323342701e-01,-2.878650662993276765e-01,1.909495472746884637e-01
1.759999999999999898e-01,-4.627305823695341269e-01,-4.362043992634341560e-02,3.366326447929322840e-02
1.769999999999999907e-01,-3.774552307807733653e-01,2.336277639149462182e-01,-1.812469029598672565e-01
1.779999999999999916e-01,-5.625977917953942781e-02,3.955878442272521833e-01,-2.793278147052741245e-01
1.789999999999999925e-01,3.037029823413344709e-01,3.001278680630969364e-01,-2.007932317932066835e-01
1.799999999999999933e-01,4.674272608408184815e-01,5.392726764398644845e-02,-5.172035022072374311e-02
1.809999999999999942e-01,3.627330006207690194e-01,-2.532666662507170874e-01,1.526531726173211423e-01
1.819999999999999951e-01,1.178319771598916252e-02,-4.010686468482445588e-01,2.645317555788141983e-01
1.829999999999999960e-01,-3.130856670371054418e-01,-2.594370269070540580e-01,2.073257403970933388e-01
1.839999999999999969e-01,-4.702301707982261547e-01,-2.306372324460308904e-02,1.248129929113872376e-02
1.849999999999999978e-01,-3.264998512891348903e-01,2.575974021639400036e-01,-1.758096735865370686e-01
1.859999999999999987e-01,1.636044919914899504e-02,3.931011637465040565e-01,-3.253329317626694195e-01
1.869999999999999996e-01,3.462272232809868178e-01,2.083152737016181755e-01,-2.322261906026613365e-01
1.880000000000000004e-01,4.648438373621956443e-01,-4.102112984547819086e-02,-3.407688908207940140e-03
1.890000000000000013e-01,3.257463213771766286e-01,-3.399578472230205817e-01,1.765358061910184129e-01
1.900000000000000022e-01,-2.012619903897540710e-02,-3.522436931385017900e-01,2.736310709696303523e-01
1.910000000000000031e-01,-3.224209862571635887e-01,-2.068107709796097871e-01,2.711686536875804743e-01
1.920000000000000040e-01,-5.178795395965850590e-01,6.057618650529059817e-02,-1.487657430269264747e-03
1.930000000000000049e-01,-2.643245800849551297e-01,3.405363821950020964e-01,-2.101034953791820481e-01
1.940000000000000058e-01,1.132826660348704995e-01,3.421880066393080400e-01,-2.737204567839955360e-01
1.950000000000000067e-01,3.943518852667981522e-01,2.031540274520960143e-01,-1.904144307411727577e-01
1.960000000000000075e-01,4.486965452499841467e-01,-1.276424456858729350e-01,5.617110038454420883e-03
1.970000000000000084e-01,2.767447251690988708e-01,-3.539304749876782119e-01,2.097909469853865561e-01
1.980000000000000093e-01,-1.115136732517030826e-01,-3.635751232460149862e-01,2.872857645883893363e-01
1.990000000000000102e-01,-4.156231646362359977e-01,-1.725290906571959049e-01,1.730943689632416238e-01
2.000000000000000111e-01,-4.417412504519633853e-01,1.755524971947131363e-01,1.319466919274515926e-03
2.010000000000000120e-01,-2.452364715625759417e-01,3.583145062247874990e-01,-2.328839191135026743e-01
2.020000000000000129e-01,1.342493776608652822e-01,3.000297488997992756e-01,-2.580301129764989154e-01
2.030000000000000138e-01,4.094829429894005779e-01,9.928868250500925974e-02,-1.987951583210262885e-01
2.039999999999999869e-01,4.326009229915790955e-01,-1.955084936886198888e-01,4.315528272781783692e-02
2.049999999999999878e-01,2.530628550324579007e-01,-3.522884620912581921e-01,2.204181686132522244e-01
2.059999999999999887e-01,-1.934873476716544305e-01,-3.228145225432323961e-01,2.690317581244934808e-01
2.069999999999999896e-01,-4.635273338776099705e-01,-9.891139255965590571e-02,1.747497319286754058e-01
2.079999999999999905e-01,-4.519148410777363845e-01,2.246998741220801732e-01,-1.787442065902100641e-02
2.089999999999999913e-01,-1.741280999890995607e-01,3.476463055542750591e-01,-2.171904141680537359e-01
2.099999999999999922e-01,2.050501397223530586e-01,3.371456519903769378e-01,-2.746171863835156768e-01
2.109999999999999931e-01,4.505949147399606058e-01,5.116940100237361844e-02,-1.602523949507155820e-01
2.119999999999999940e-01,4.084499159935255364e-01,-2.564406511868271288e-01,3.961522532028852184e-02
2.129999999999999949e-01,1.515076284642867255e-01,-3.722111520637701454e-01,2.435277728237393302e-01
2.139999999999999958e-01,-1.926320025741452835e-01,-2.586689210410372808e-01,2.635344762548710307e-01
2.149999999999999967e-01,-4.554390974249857837e-01,2.913657382983740607e-02,1.433149183889418921e-01
2.159999999999999976e-01,-4.102830513581145477e-01,2.824368394759626533e-01,-7.253918053663420407e-02
2.169999999999999984e-01,-1.264823657191689599e-01,3.811864060755917882e-01,-2.360704795342234985e-01
2.179999999999999993e-01,2.411722388345450552e-01,2.263514277838439837e-01,-3.039836406245598477e-01
2.190000000000000002e-01,4.532722565627906874e-01,-5.226443675372233894e-02,-1.459777264267114738e-01
2.200000000000000011e-01,4.176383311734245818e-01,-3.191365487393276190e-01,7.676134080645978519e-02
2.210000000000000020e-01,9.176788216871994974e-02,-3.577662909699141913e-01,2.297557508156258810e-01
2.220000000000000029e-01,-2.718666130759500033e-01,-2.148173607820058895e-01,2.352836387546062835e-01
2.230000000000000038e-01,-4.760463555314948247e-01,9.057671026199985709e-02,1.428151119916076517e-01
2.240000000000000047e-01,-3.989954178892839987e-01,3.420843327623451779e-01,-8.079529795030310213e-02
2.250000000000000056e-01,-7.066781828828111456e-02,3.586275992510074007e-01,-2.677785337701939494e-01
2.260000000000000064e-01,3.114022365581714524e-01,1.613156347539418112e-01,-2.730570578934505832e-01
2.270000000000000073e-01,4.866307511272782160e-01,-1.290365733918897861e-01,-1.587471954765238003e-01
2.280000000000000082e-01,3.276144021400186346e-01,-3.387834870531509224e-01,6.268819584232346309e-02
2.290000000000000091e-01,2.674846101280388064e-02,-3.668284996430872247e-01,2.605850605021848287e-01
2.300000000000000100e-01,-3.474134108232101448e-01,-1.512389270870037050e-01,2.844636734094419528e-01
2.310000000000000109e-01,-4.635854171655421352e-01,1.511690348182995469e-01,1.172947816447545283e-01
2.320000000000000118e-01,-3.209396868023197125e-01,3.592988726253916743e-01,-6.564928368440876849e-02
2.330000000000000127e-01,-4.312689220600372797e-03,3.383199162977348351e-01,-2.480199549766962663e-01
2.340000000000000135e-01,3.449848833512734747e-01,8.010645151113333917e-02,-2.811581809931776310e-01
2.349999999999999867e-01,4.876130192273130937e-01,-1.870129812529290059e-01,-9.945515303270070773e-02
2.359999999999999876e-01,3.262309787382318693e-01,-3.804781203642377818e-01,1.095504019553454472e-01
2.369999999999999885e-01,-3.823519228233640543e-02,-3.535625805464687743e-01,2.590934723866787359e-01
2.379999999999999893e-01,-3.362854421868815558e-01,-8.193834164627722405e-02,2.846799710028761754e-01
2.389999999999999902e-01,-4.946793128694923491e-01,2.282238719324155563e-01,1.007276460010748803e-01
2.399999999999999911e-01,-2.718486800837241479e-01,3.932593780567588126e-01,-8.896542595840073453e-02
2.409999999999999920e-01,5.685498826189458454e-02,2.766744404049339412e-01,-2.413911753242460045e-01
2.419999999999999929e-01,4.135415668737658090e-01,5.183285998817950546e-02,-2.668496898279210661e-01
2.429999999999999938e-01,4.632803334848253352e-01,-2.216049584708562614e-01,-8.968725894033527379e-02
2.439999999999999947e-01,2.493422407758043857e-01,-4.130093005925443705e-01,1.239166705257003648e-01
2.449999999999999956e-01,-9.037378520463779097e-02,-2.661619314465671349e-01,2.590505286513352101e-01
2.459999999999999964e-01,-4.425046615620271684e-01,-4.546810969711415767e-02,2.422963696025817182e-01
2.469999999999999973e-01,-4.566451264697899415e-01,3.101259561745735027e-01,1.168512713030807337e-01
2.479999999999999982e-01,-2.623969437774816837e-01,4.159497603540615041e-01,-1.071737710091429513e-01
2.489999999999999991e-01,1.088514217906688536e-01,2.657821404483693417e-01,-2.736862381148211232e-01
2.500000000000000000e-01,4.288724107134059826e-01,-1.343512534639717745e-02,-2.418563968999103697e-01
2.510000000000000009e-01,4.543500765301532462e-01,-2.860046167437668707e-01,-1.066857186082982578e-01
2.520000000000000018e-01,2.120732006462421049e-01,-3.914592504053482358e-01,1.190874787039445659e-01
2.530000000000000027e-01,-1.781896699285923646e-01,-2.525719762294000859e-01,3.089562492496200630e-01
2.540000000000000036e-01,-4.185387142277271488e-01,7.770339225190887877e-02,2.865076303091097509e-01
2.550000000000000044e-01,-4.346871286269486934e-01,3.178950591288708383e-01,5.327539458581057041e-02
2.560000000000000053e-01,-1.992282068666662020e-01,3.371819729092450091e-01,-1.639216620098201405e-01
2.570000000000000062e-01,1.869045539732640260e-01,2.051006293564013871e-01,-2.883551454552852888e-01
2.580000000000000071e-01,4.365329423046450108e-01,-1.038310573506184831e-01,-2.406024859526922077e-01
2.590000000000000080e-01,4.289819065175218826e-01,-3.515261762878559293e-01,-8.871521681921858138e-02
2.600000000000000089e-01,1.377380151639681916e-01,-3.682880367160306090e-01,1.441041955456645873e-01
2.610000000000000098e-01,-2.001259282101993664e-01,-1.257918647044195815e-01,2.821161420045591450e-01
2.620000000000000107e-01,-4.717093772598498491e-01,1.267426974872081780e-01,2.633004847158801343e-01
2.630000000000000115e-01,-4.605662355289387722e-01,3.451831275575719671e-01,4.828248590512991545e-02
2.640000000000000124e-01,-1.639436476076228943e-01,3.332881597031390752e-01,-1.825033202061623616e-01
2.650000000000000133e-01,2.788585692559649165e-01,8.322572171523112683e-02,-2.976959458182512619e-01
2.660000000000000142e-01,4.391971180382986950e-01,-1.666643523650805370e-01,-2.449485674436855387e-01
2.670000000000000151e-01,4.039864072820902874e-01,-4.051611006722016239e-01,-6.690159798839472038e-02
2.680000000000000160e-01,1.108092370175194769e-01,-2.945316199615533592e-01,1.755380427630423013e-01
2.690000000000000169e-01,-2.611457482282747988e-01,-9.083231109394204750e-02,2.899647019887066079e-01
2.700000000000000178e-01,-4.668924055164368481e-01,2.400720415252545759e-01,2.174356292848113326e-01
2.710000000000000187e-01,-4.061222032304712126e-01,3.960841816953925010e-01,3.339264801766080037e-02
2.720000000000000195e-01,-6.396809668331054910e-02,3.118959040282170969e-01,-1.720752524441966635e-01
2.730000000000000204e-01,2.968454682923647447e-01,4.530695228958396548e-02,-2.500888889780992774e-01
2.740000000000000213e-01,4.834475710438874141e-01,-2.386331081543696109e-01,-2.374546536018467269e-01
2.750000000000000222e-01,3.413947465083483901e-01,-3.886015453489423122e-01,-4.665905290824614964e-03
2.760000000000000231e-01,6.279791897056954605e-03,-2.885161124159206225e-01,1.895978959035531097e-01
2.770000000000000240e-01,-3.481244539864027931e-01,-2.630371464456290193e-02,3.034714470805544573e-01
2.780000000000000249e-01,-5.391929439085102471e-01,2.482764623398319159e-01,2.318195038358329130e-01
2.790000000000000258e-01,-3.381446265035691900e-01,4.113238250353279390e-01,3.629324907800215994e-02
2.800000000000000266e-01,-2.951169081382034112e-02,2.788689237921661013e-01,-2.080276060501215774e-01
2.810000000000000275e-01,3.116868814210977945e-01,-4.105307886616083035e-02,-2.625908674487082983e-01
2.819999999999999729e-01,5.085805938834593309e-01,-3.115869208894132547e-01,-2.120244708119062016e-01
2.829999999999999738e-01,2.984397710755094524e-01,-3.776206942309863757e-01,3.695953234119984943e-02
2.839999999999999747e-01,-1.091525058619957980e-02,-2.136108537098400928e-01,1.880711129182315589e-01
2.849999999999999756e-01,-3.975655951165046331e-01,6.434767720374802435e-02,2.623172439977832227e-01
2.859999999999999765e-01,-4.496920434704184122e-01,2.915845201641794615e-01,2.054276434192296996e-01
2.869999999999999774e-01,-3.071880665906744912e-01,3.804827575080286794e-01,1.185751940278146829e-02
2.879999999999999782e-01,4.790666611811428971e-02,2.077578259313663522e-01,-2.176138331903940404e-01
2.889999999999999791e-01,3.426747783317701801e-01,-8.630433626859380924e-02,-2.803942582511225745e-01
2.899999999999999800e-01,4.834143167646292039e-01,-3.300596315220056254e-01,-2.065862798469667583e-01
2.909999999999999809e-01,2.573505698403329434e-01,-3.668017635787336750e-01,2.254405535764223475e-03
2.919999999999999818e-01,-9.107608491176190368e-02,-1.544270563579460409e-01,2.166295092609959727e-01
2.929999999999999827e-01,-3.931788062384889981e-01,1.550662824796131822e-01,2.549607765898587175e-01
2.939999999999999836e-01,-4.784939933310358717e-01,3.554775952519479976e-01,1.938128020330935342e-01
2.949999999999999845e-01,-2.425752341050169680e-01,3.662159564073488305e-01,-2.558837858985547192e-02
2.959999999999999853e-01,1.061740320743405908e-01,1.398074360841746744e-01,-2.180124833210886071e-01
2.969999999999999862e-01,4.106681474016209421e-01,-2.042742174999513660e-01,-2.591284957390175836e-01
2.979999999999999871e-01,4.470498580832500957e-01,-3.616691702332695546e-01,-1.757198546153820595e-01
2.989999999999999880e-01,2.551169319991284934e-01,-3.077671385453790709e-01,3.538960389879300394e-02
2.999999999999999889e-01,-1.881101931605073108e-01,-7.759738471182725528e-02,1.965395161591753093e-01
3.009999999999999898e-01,-4.110699098040542232e-01,2.630966068987602990e-01,2.958289223409609203e-01
3.019999999999999907e-01,-4.336092390252238027e-01,3.982252726555632338e-01,1.633631935534113344e-01
3.029999999999999916e-01,-1.974482697257369801e-01,3.152409399584703564e-01,-7.160246259334106245e-02
3.039999999999999925e-01,2.068732959012134776e-01,3.630604380626092226e-02,-2.156875809830260393e-01
3.049999999999999933e-01,4.457153322962104647e-01,-1.868699334672498102e-01,-2.947226928218046882e-01
3.059999999999999942e-01,4.406401383072496847e-01,-3.809169959871278599e-01,-1.469228548427613246e-01
3.069999999999999951e-01,1.562952977984180258e-01,-2.770598899634575951e-01,4.052226085490207019e-02
3.079999999999999960e-01,-2.325416878616434202e-01,-6.271034915140666355e-03,2.403434034991463741e-01
3.089999999999999969e-01,-4.394991210773852019e-01,2.322436532818739630e-01,2.661363770478422652e-01
3.099999999999999978e-01,-4.183747822415121997e-01,3.877876765929622049e-01,1.474347828778514169e-01
3.109999999999999987e-01,-1.228170505661921735e-01,2.610277338478729781e-01,-7.851785760274333781e-02
3.119999999999999996e-01,2.390016611872589070e-01,4.864592364771236702e-03,-2.373935421524304146e-01
3.130000000000000004e-01,4.648203765210748295e-01,-2.891349205507098841e-01,-2.907255511395566705e-01
3.140000000000000013e-01,4.418594165093483461e-01,-3.881733125501670711e-01,-1.301700773398387079e-01
3.150000000000000022e-01,5.971270235294274392e-02,-2.101704495997522848e-01,8.064451841016787026e-02
3.160000000000000031e-01,-2.594375200315559571e-01,8.496648828857768232e-02,2.399147365662719911e-01
3.170000000000000040e-01,-4.793112409541168684e-01,3.037908266004839541e-01,2.877102207106043696e-01
3.180000000000000049e-01,-3.564469535740266148e-01,3.888307852495561656e-01,1.378538219062980519e-01
3.190000000000000058e-01,-5.766403082965401022e-02,2.070006429941906867e-01,-8.025430388440810137e-02
3.200000000000000067e-01,3.010726842308938944e-01,-8.769541663464808234e-02,-2.415720554973394274e-01
3.210000000000000075e-01,4.978437309892269624e-01,-3.551853967454998151e-01,-3.005842394657569638e-01
3.220000000000000084e-01,3.465443099562381946e-01,-3.423963403295163799e-01,-1.228421008408886878e-01
3.230000000000000093e-01,2.588608323287846028e-02,-1.892320607636100160e-01,1.014152244479707698e-01
3.240000000000000102e-01,-3.062756621221284781e-01,1.226820221826136759e-01,2.657059859299786830e-01
3.250000000000000111e-01,-4.914380155852358101e-01,3.822915195640541608e-01,2.485371484588375368e-01
3.260000000000000120e-01,-3.362303441152171835e-01,3.387634068046425084e-01,1.324047264564263415e-01
3.270000000000000129e-01,2.541634320732442942e-02,1.296716749568791460e-01,-9.760546160948142813e-02
3.280000000000000138e-01,2.956735262092398120e-01,-1.529273843085640072e-01,-2.981600854771443987e-01
3.290000000000000147e-01,4.770274363101879023e-01,-4.106997076945501646e-01,-2.684830329583242636e-01
3.300000000000000155e-01,3.237120633729805852e-01,-3.390511720682574670e-01,-1.242018770428871821e-01
3.310000000000000164e-01,-2.638949598539173588e-02,-9.549141703368975442e-02,1.191515218410819504e-01
3.320000000000000173e-01,-3.522160780584154827e-01,1.849279440995922341e-01,2.714721498706706981e-01
3.330000000000000182e-01,-4.848848351776691157e-01,3.689982102098199879e-01,2.556754622785751274e-01
3.340000000000000191e-01,-2.958952808715988314e-01,3.505916966755804887e-01,1.152166321904850577e-01
3.350000000000000200e-01,8.944815595717772738e-02,4.449573094227324277e-02,-1.273624340709623992e-01
3.360000000000000209e-01,3.919032369749395062e-01,-2.274992954833775782e-01,-2.642422890551704984e-01
3.370000000000000218e-01,4.688701780249471818e-01,-4.110614638779492847e-01,-2.687949127322569742e-01
3.380000000000000226e-01,2.597631613566329656e-01,-2.729916744061749445e-01,-9.709962805172774047e-02
3.390000000000000235e-01,-1.308027319755065976e-01,-4.398391402738091593e-02,1.087211738409995937e-01
3.400000000000000244e-01,-4.042790634171303799e-01,2.337011594293007533e-01,2.771669661207976643e-01
3.410000000000000253e-01,-4.462627931274169013e-01,3.840279067355125697e-01,2.844594026059374947e-01
3.420000000000000262e-01,-2.575577823939122490e-01,2.708978895796428366e-01,9.745777420955104020e-02
3.430000000000000271e-01,1.141691288955784672e-01,6.158670603705997289e-03,-1.632570863012720863e-01
3.439999999999999725e-01,4.095983992004879615e-01,-2.988460642379082710e-01,-2.578397858698138756e-01
3.449999999999999734e-01,4.913824417642638220e-01,-3.719157762289448388e-01,-2.720132994459728559e-01
3.459999999999999742e-01,2.342887185870317079e-01,-2.649017721973629946e-01,-4.686158854075143237e-02
3.469999999999999751e-01,-1.308050083601142166e-01,3.448907182544862920e-02,1.148164999705782036e-01
3.479999999999999760e-01,-4.242176003961788400e-01,3.258580768191886579e-01,3.158376221100082648e-01
3.489999999999999769e-01,-4.487095247959062561e-01,3.754345148648749464e-01,2.647734003909988365e-01
3.499999999999999778e-01,-1.687228146975755239e-01,1.974688846443826418e-01,5.754801889336309817e-02
3.509999999999999787e-01,1.844970267617613013e-01,-8.482346422282725784e-02,-1.742894952159418365e-01
3.519999999999999796e-01,4.420225883023213842e-01,-3.105440079665227060e-01,-2.672291137893818558e-01
3.529999999999999805e-01,4.415706243172816126e-01,-3.771577581819953173e-01,-2.488692495215691636e-01
3.539999999999999813e-01,1.597148593158958796e-01,-1.830467678191840253e-01,-6.597703377243085976e-02
3.549999999999999822e-01,-2.428404432131866797e-01,1.195960363321772607e-01,1.540126325491863735e-01
3.559999999999999831e-01,-4.457884320919103804e-01,3.575228777814809522e-01,2.593773093745550540e-01
3.569999999999999840e-01,-4.605045693675507978e-01,3.774250353238560729e-01,2.633822938603482822e-01
3.579999999999999849e-01,-1.211013834668499267e-01,1.287712106455722316e-01,5.893497456141148089e-02
3.589999999999999858e-01,2.589041070885328422e-01,-1.623300914027076824e-01,-1.511185077591492565e-01
3.599999999999999867e-01,4.060175564759513356e-01,-3.528953697282710689e-01,-3.202804981553333263e-01
3.609999999999999876e-01,4.015566435889525443e-01,-3.487715869694532067e-01,-2.115460356814044540e-01
3.619999999999999885e-01,9.637730048585839426e-02,-1.292462371623495643e-01,-1.797865892685050412e-02
3.629999999999999893e-01,-2.295482978522233874e-01,1.870052029032020779e-01,1.760485363370567768e-01
3.639999999999999902e-01,-4.500154676509000029e-01,3.564819218912881338e-01,2.720444754499958262e-01
3.649999999999999911e-01,-3.772175760636378161e-01,3.135215645226909209e-01,1.962142506123034646e-01
3.659999999999999920e-01,-8.442571536663059928e-02,3.358787377378222999e-02,5.591826799614847687e-02
3.669999999999999929e-01,2.966512132622690645e-01,-2.428416308143538094e-01,-1.918029319820030720e-01
3.679999999999999938e-01,4.702288724091758798e-01,-3.904634978638304998e-01,-3.145365273274857709e-01
3.689999999999999947e-01,3.743909644460726716e-01,-3.007565428260538520e-01,-2.212031213277516339e-01
3.699999999999999956e-01,3.127543839427871647e-02,2.343375386295228416e-03,1.350631903415871159e-02
3.709999999999999964e-01,-3.366236756043322620e-01,2.418751810265616364e-01,1.928832346964503286e-01
3.719999999999999973e-01,-4.685323696735093080e-01,3.896773677403244096e-01,2.837344863116986748e-01
3.729999999999999982e-01,-3.310452779623268005e-01,2.742352734275178561e-01,2.116263862480239344e-01
3.739999999999999991e-01,2.408752632046726704e-03,-1.413393791961285815e-03,1.182328497062368894e-02
3.750000000000000000e-01,3.148731510116633547e-01,-3.108857642552255163e-01,-2.024367137872026268e-01
3.760000000000000009e-01,4.674231516592215474e-01,-3.814705341630783564e-01,-2.653002220369559683e-01
3.770000000000000018e-01,3.283344706549473635e-01,-2.433723323085932033e-01,-2.555974688674604867e-01
3.780000000000000027e-01,-3.047248421959347642e-02,6.586923474717515381e-02,1.086152763308832064e-02
3.790000000000000036e-01,-3.830156938263546973e-01,3.089350455247911742e-01,1.875157664133977331e-01
3.800000000000000044e-01,-4.875156324181795231e-01,3.789715924716814954e-01,2.700373958039113398e-01
3.810000000000000053e-01,-2.957122994778809133e-01,2.445316619774367262e-01,2.412839906216401598e-01
3.820000000000000062e-01,2.263902068481097804e-02,-9.771206805479940027e-02,-1.373709920334422775e-02
3.830000000000000071e-01,3.992479991545531681e-01,-3.378079832738385968e-01,-2.259522858216718721e-01
3.840000000000000080e-01,4.738161931542065886e-01,-3.807109059649589344e-01,-2.834766352369843534e-01
3.850000000000000089e-01,2.872052592519060421e-01,-1.803228785612843443e-01,-1.799036192899482745e-01
3.860000000000000098e-01,-8.407182700675816522e-02,1.234492982192985783e-01,-1.561783177779687247e-02
3.870000000000000107e-01,-4.205377523313855170e-01,3.046791282210248308e-01,2.630392977002527499e-01
3.880000000000000115e-01,-5.006971111433052846e-01,3.809437593077940054e-01,3.210033357968337109e-01
3.890000000000000124e-01,-2.897395737494637413e-01,1.678253694822554598e-01,1.814094619390159424e-01
3.900000000000000133e-01,1.127376114910865895e-01,-1.306591750661980911e-01,-1.865807242677264624e-02
3.910000000000000142e-01,4.369690927037121475e-01,-3.767798951190924339e-01,-2.123785948573343463e-01
3.920000000000000151e-01,4.447518507149710310e-01,-3.450528540446626269e-01,-2.858122640041386164e-01
3.930000000000000160e-01,2.171016479706089075e-01,-1.319425832596588521e-01,-1.581060259919647437e-01
3.940000000000000169e-01,-1.766294490704195252e-01,2.031156804438220553e-01,7.348817946977097282e-02
3.950000000000000178e-01,-4.541864288202673294e-01,3.502929804612552878e-01,2.190710592837961102e-01
3.960000000000000187e-01,-4.345889647189567495e-01,3.204180947941437374e-01,2.566777352092357023e-01
3.970000000000000195e-01,-2.267707982388643961e-01,6.092991400866352297e-02,1.436438838886536506e-01
3.980000000000000204e-01,1.486934813187237303e-01,-2.546449781446784022e-01,-7.331689691607692905e-02
3.990000000000000213e-01,4.246952476505388430e-01,-3.559011972385288658e-01,-2.053583686677945275e-01
4.000000000000000222e-01,4.829256550318085095e-01,-2.927354701722886254e-01,-2.335894233558202804e-01
4.010000000000000231e-01,1.808548535322470618e-01,-2.650579535803308101e-02,-1.436996054560048808e-01
4.020000000000000240e-01,-1.681112248151320210e-01,2.483258423156118888e-01,3.879827797235986531e-02
4.030000000000000249e-01,-4.137728758156173359e-01,3.488555849210774329e-01,2.428691023135832461e-01
4.040000000000000258e-01,-4.258075867066298259e-01,3.042825733816211797e-01,2.512241527381859907e-01
4.050000000000000266e-01,-1.417043177389945841e-01,3.865374481507678067e-02,1.676655181265255534e-01
4.060000000000000275e-01,2.637223779159270642e-01,-2.633320025129276543e-01,-6.487700456861056342e-02
4.069999999999999729e-01,4.675990901790494370e-01,-3.723791750858908567e-01,-2.594622746351286091e-01
4.079999999999999738e-01,4.367381705901419719e-01,-2.729845035877239701e-01,-2.668319580498283439e-01
4.089999999999999747e-01,8.828619883411943647e-02,3.445428042874561919e-02,-1.191678187069032252e-01
4.099999999999999756e-01,-2.590311312875323568e-01,3.215406189662132763e-01,7.215598598413366926e-02
4.109999999999999765e-01,-4.592223806346518167e-01,3.531413104312339235e-01,2.104480300118964642e-01
4.119999999999999774e-01,-3.543728835555117196e-01,2.119794723265603364e-01,3.104247551744097056e-01
4.129999999999999782e-01,-5.945297986355811692e-02,-5.454359316368401212e-02,1.685581042327846113e-01
4.139999999999999791e-01,3.073186110284452655e-01,-3.106059947768002316e-01,-1.140266197737286463e-01
4.149999999999999800e-01,4.670153706454209241e-01,-3.508949314827653487e-01,-2.710309257062495369e-01
4.159999999999999809e-01,3.895813912805377588e-01,-1.760981645447440569e-01,-2.726480512858701633e-01
4.169999999999999818e-01,3.925155252490872271e-02,8.879513712916209389e-02,-1.041171245353715719e-01
4.179999999999999827e-01,-2.991897299465469673e-01,3.539097178650487119e-01,7.975167264733161454e-02
4.189999999999999836e-01,-4.890637094140865004e-01,3.988538988985780853e-01,2.524316192408482262e-01
4.199999999999999845e-01,-3.683237307238179659e-01,1.543307033169601661e-01,2.625199428055075002e-01
4.209999999999999853e-01,-1.038665344101294755e-02,-1.206181914973040448e-01,1.278601728856089970e-01
4.219999999999999862e-01,3.385892466890510488e-01,-3.657805474854571304e-01,-8.731578885011097302e-02
4.229999999999999871e-01,4.939667504709079893e-01,-3.477318798615531836e-01,-2.739800659431458896e-01
4.239999999999999880e-01,3.463295634776465404e-01,-1.268146277461359439e-01,-2.387609776648950688e-01
4.249999999999999889e-01,-3.386991870403088800e-02,1.811594493747039347e-01,-9.472808124158441090e-02
4.259999999999999898e-01,-3.529562753344285819e-01,3.684147258682848869e-01,1.310526673680341148e-01
4.269999999999999907e-01,-4.620258076453866991e-01,3.403190263713261055e-01,2.649367344054340268e-01
4.279999999999999916e-01,-3.081922402941645878e-01,9.016107733969469518e-02,2.687243071312184206e-01
4.289999999999999925e-01,6.930174744753497817e-02,-1.979071396417562134e-01,8.207136993678443293e-02
4.299999999999999933e-01,3.880277399676152483e-01,-3.534491950092983337e-01,-9.075904639428915288e-02
4.309999999999999942e-01,4.926368273828193867e-01,-3.132143359212692380e-01,-2.433258820099140074e-01
4.319999999999999951e-01,2.374669843983983897e-01,-6.617592013828285658e-02,-2.569988874672866075e-01
4.329999999999999960e-01,-7.919908951283534393e-02,2.449153342585005666e-01,-8.286127360283238041e-02
4.339999999999999969e-01,-3.936475970847641004e-01,4.351011700654319747e-01,1.134304699646477843e-01
4.349999999999999978e-01,-4.622980143929581454e-01,2.846022178963847349e-01,2.562630171739598839e-01
4.359999999999999987e-01,-2.624793203939831399e-01,1.835122188073591565e-02,2.427161156861658564e-01
4.369999999999999996e-01,1.015204298816445583e-01,-2.518049350333282366e-01,7.745219476782330692e-02
4.380000000000000004e-01,4.059745764072263952e-01,-3.546808761290524692e-01,-1.087453257106906213e-01
4.390000000000000013e-01,4.658168193731352380e-01,-2.649705684965840691e-01,-3.040920482144966464e-01
4.400000000000000022e-01,2.221911986429588592e-01,2.540039646857640814e-03,-2.014928712206499606e-01
4.410000000000000031e-01,-1.527408139908404405e-01,2.947664303811514674e-01,-5.104201124364179248e-02
4.420000000000000040e-01,-4.752656738303075445e-01,3.744610483273828616e-01,1.368964759954487131e-01
4.430000000000000049e-01,-4.670184439585088887e-01,2.420224969128566272e-01,2.769065785124433798e-01
4.440000000000000058e-01,-2.119172447699806117e-01,-6.524570301294410624e-02,2.506224455960953112e-01
4.450000000000000067e-01,1.491622410002620136e-01,-3.226056213632710890e-01,4.988365000266697241e-02
4.460000000000000075e-01,4.309131279740525122e-01,-3.688127830097435167e-01,-1.564124055343061037e-01
4.470000000000000084e-01,4.927802955643792449e-01,-2.113174513998006265e-01,-2.772911846669905422e-01
4.480000000000000093e-01,1.579987717745206799e-01,9.306023892095011130e-02,-2.755940747651208778e-01
4.490000000000000102e-01,-1.927208803927958347e-01,3.001748212520694570e-01,-7.795025211137168730e-02
4.500000000000000111e-01,-4.457281391010164406e-01,3.510835641489711834e-01,1.933299700189449466e-01
4.510000000000000120e-01,-4.183694141950393686e-01,1.974658697576532340e-01,2.580264441017935950e-01
4.520000000000000129e-01,-1.062326559175438001e-01,-1.018354390916651336e-01,2.085278085284168748e-01
4.530000000000000138e-01,2.100010010759112145e-01,-3.944368595951286416e-01,7.632285755582361719e-02
4.540000000000000147e-01,4.655921068264028406e-01,-3.677838526707071232e-01,-1.541191015913281892e-01
4.550000000000000155e-01,4.028018033815921051e-01,-1.350099068361895194e-01,-3.204485708826983470e-01
4.560000000000000164e-01,6.995868499316038047e-02,1.346041460751286889e-01,-2.336778075715726932e-01
4.570000000000000173e-01,-2.476715154982444267e-01,3.777119727918716863e-01,-6.272553854083619262e-02
4.580000000000000182e-01,-4.789789701371082176e-01,3.303369475312940562e-01,2.004888436241520078e-01
4.590000000000000191e-01,-4.181760392731890819e-01,9.554369608463696151e-02,3.110837721772630182e-01
4.600000000000000200e-01,-6.569206185527115549e-02,-2.049511692847545141e-01,2.191946455291797491e-01
4.610000000000000209e-01,2.640464878160230233e-01,-3.695908789967516372e-01,1.212617942440752730e-02
4.620000000000000218e-01,4.805856185219609666e-01,-2.996877215517850801e-01,-1.904219837137536009e-01
4.630000000000000226e-01,4.080045748316762366e-01,-7.381246534395620451e-02,-2.365386367492293973e-01
4.640000000000000235e-01,2.306704670649799283e-02,2.239375286487969019e-01,-2.169929396278210409e-01
4.650000000000000244e-01,-3.071817673559539830e-01,3.849887155834065822e-01,-1.034243890327167341e-02
4.660000000000000253e-01,-4.762160563485298703e-01,2.765451057704009785e-01,1.752815536819362363e-01
4.670000000000000262e-01,-3.370515745676924690e-01,1.773281611216519921e-02,2.528578484899407508e-01
4.680000000000000271e-01,-3.179422574589089306e-02,-2.714983498832975184e-01,2.086619524868709719e-01
4.689999999999999725e-01,3.299911374189362090e-01,-3.754677816870676255e-01,1.756452148006679322e-03
4.699999999999999734e-01,4.637142121033136499e-01,-2.598096937547471619e-01,-2.157132786232893451e-01
4.709999999999999742e-01,3.535318709607340182e-01,2.546553775880745774e-02,-2.637918554910282931e-01
4.719999999999999751e-01,1.045687024335270610e-02,2.927692661933527507e-01,-1.760928333107373567e-01
4.729999999999999760e-01,-3.403408689019614131e-01,3.921154647137072846e-01,-2.001847273233340642e-03
4.739999999999999769e-01,-4.864257139673199837e-01,2.452739627558011004e-01,2.045440268436307663e-01
4.749999999999999778e-01,-2.998772036591921819e-01,-7.094368864097622129e-02,2.936201985174264339e-01
4.759999999999999787e-01,3.541075706327864031e-02,-2.933540056230113935e-01,1.863065484239794511e-01
4.769999999999999796e-01,3.900895024570164571e-01,-3.760692468709556646e-01,8.809037569137517093e-03
4.779999999999999805e-01,4.585325630462413482e-01,-2.135976834489039522e-01,-2.330748893287460655e-01
4.789999999999999813e-01,2.941710629305882008e-01,9.371570519634263297e-02,-3.125891468781875626e-01
4.799999999999999822e-01,-8.477276333088791527e-02,3.116306693520030091e-01,-1.580689594599193615e-01
4.809999999999999831e-01,-3.974156467365774215e-01,3.758300150903205461e-01,2.939917012912466113e-02
4.819999999999999840e-01,-4.472774805632268591e-01,1.757183919320062793e-01,2.243940870438717594e-01
4.829999999999999849e-01,-2.447594959417602190e-01,-1.329663616551693961e-01,2.952354841160119148e-01
4.839999999999999858e-01,1.080665017287212315e-01,-3.426475079865291540e-01,1.840001971441162787e-01
4.849999999999999867e-01,4.076476723439987349e-01,-3.227283269874905436e-01,-2.988146340946663468e-02
4.859999999999999876e-01,4.734903486254499194e-01,-1.417958218781104895e-01,-2.228014405801983233e-01
4.869999999999999885e-01,2.437219398215940414e-01,1.906366764716707352e-01,-2.546005286463855488e-01
4.879999999999999893e-01,-1.164042119516006529e-01,3.591462791795540510e-01,-1.560957682132080304e-01
4.889999999999999902e-01,-4.548541122645387014e-01,3.175520414920205425e-01,6.755270287616532698e-02
4.899999999999999911e-01,-4.444092145381175474e-01,9.436389812035297919e-02,2.226913827755242214e-01
4.909999999999999920e-01,-1.952229130814573665e-01,-1.777879562690275750e-01,2.750452244390180767e-01
4.919999999999999929e-01,1.479056200014949862e-01,-3.803417749531128877e-01,1.514164458278176584e-01
4.929999999999999938e-01,4.375710062980264770e-01,-3.095956054903283849e-01,-3.321381153759240396e-02
4.939999999999999947e-01,4.224787998423671365e-01,-9.559494377375711560e-02,-2.328576584802212190e-01
4.949999999999999956e-01,1.758469428558439851e-01,1.983240691985869997e-01,-2.915344028671756904e-01
4.959999999999999964e-01,-1.843498964897773984e-01,3.536353143997170156e-01,-1.624549964477736697e-01
4.969999999999999973e-01,-4.783366884682561104e-01,3.042462119867654358e-01,8.813208259061461325e-02
4.979999999999999982e-01,-4.137817477278405986e-01,2.177021696963019060e-02,2.384495972435031197e-01
4.989999999999999991e-01,-1.712986754401221723e-01,-2.565785856076128746e-01,2.644841999023491153e-01
5.000000000000000000e-01,2.541290390852650183e-01,-3.884316520545502693e-01,1.120263338488310390e-01
5.010000000000000009e-01,4.522166343168108060e-01,-2.839768646527728313e-01,-9.811567032053630788e-02
5.020000000000000018e-01,4.166563939276941020e-01,1.130091608105212794e-02,-2.077925081025042975e-01
5.030000000000000027e-01,1.211852953092112384e-01,2.542713236132418397e-01,-2.629387910447418819e-01
5.040000000000000036e-01,-2.595952108724392526e-01,3.519801611694316490e-01,-1.413572407156302169e-01
5.050000000000000044e-01,-4.496226564491075384e-01,2.499085210636557697e-01,5.768978106025778735e-02
5.060000000000000053e-01,-3.896185828738030765e-01,-4.752440783122894447e-02,2.627953991376953402e-01
5.070000000000000062e-01,-8.867562238137526032e-02,-3.265659797546248133e-01,2.321519850534619067e-01
5.080000000000000071e-01,2.961766168037285318e-01,-3.858690780898278438e-01,1.349713673249886836e-01
5.090000000000000080e-01,4.524283630370328213e-01,-2.525613824157720844e-01,-1.022110716346204262e-01
5.100000000000000089e-01,3.500980509306552135e-01,6.032176667860342234e-02,-2.614087638216889276e-01
5.110000000000000098e-01,4.791524144499084703e-02,3.343046851152832732e-01,-2.445272873713676964e-01
5.120000000000000107e-01,-3.057474659444742171e-01,4.066361945252657817e-01,-1.253719862060000134e-01
5.130000000000000115e-01,-5.003798861922861274e-01,2.006390766478463594e-01,1.235241842444933652e-01
5.140000000000000124e-01,-3.442365050170565488e-01,-1.724435110025653861e-01,3.064497161137852421e-01
5.150000000000000133e-01,-1.745444095784667859e-02,-3.229527826414860248e-01,2.609410502914988328e-01
5.160000000000000142e-01,3.606646126409461806e-01,-3.314858694763730962e-01,9.039820287386692022e-02
5.170000000000000151e-01,5.160034611485959655e-01,-1.303354796810871907e-01,-9.455011536760031532e-02
5.180000000000000160e-01,3.161813177077097414e-01,1.568161804284246286e-01,-2.765276698380110254e-01
5.190000000000000169e-01,1.217732274439652616e-02,3.812450979233631965e-01,-2.597590716108711395e-01
5.200000000000000178e-01,-3.419941203672201557e-01,3.330924880869864935e-01,-1.032133203907687896e-01
5.210000000000000187e-01,-4.659847100267017761e-01,1.411538762225130750e-01,1.222715350222675079e-01
5.220000000000000195e-01,-3.143538497193281711e-01,-2.191038964201402484e-01,2.800321859065894037e-01
5.230000000000000204e-01,5.017110221327245739e-02,-3.783425575511474848e-01,2.725626831503794034e-01
5.240000000000000213e-01,3.869124509115589028e-01,-3.149795629177000733e-01,7.111984637259666231e-02
5.250000000000000222e-01,4.923836032723669098e-01,-8.978165844202799784e-02,-1.277639754563545671e-01
5.260000000000000231e-01,2.849117352060092645e-01,2.125303411639991591e-01,-2.448793135153931877e-01
5.270000000000000240e-01,-7.941231023541096834e-02,3.723122832993094877e-01,-2.382412511941787159e-01
5.280000000000000249e-01,-4.038698469868921559e-01,2.983229672063836269e-01,-8.445925175547472352e-02
5.290000000000000258e-01,-4.874533991255520227e-01,8.325163629901416451e-02,1.223038015531802969e-01
5.300000000000000266e-01,-2.664789344243204128e-01,-2.580730658766132168e-01,2.649416908526664449e-01
5.310000000000000275e-01,9.776304904881299995e-02,-3.498021902154181406e-01,2.712789290212315740e-01
5.320000000000000284e-01,4.450225287064312751e-01,-2.717901635880811129e-01,4.288480294737946619e-02
5.330000000000000293e-01,4.322667916795066567e-01,-3.595019245854826073e-02,-1.295244295012120683e-01
5.340000000000000302e-01,2.483260734534608327e-01,2.390641640607281959e-01,-2.571612226077475971e-01
5.350000000000000311e-01,-1.438749544871076314e-01,4.037209950644767842e-01,-2.396060463667209206e-01
5.360000000000000320e-01,-4.388534248151029771e-01,2.731942529152003862e-01,-6.634876258019714590e-02
5.370000000000000329e-01,-4.342161702000674750e-01,-2.068211126504821556e-02,1.381705732054707148e-01
5.380000000000000338e-01,-2.184126704417220233e-01,-3.127342183710777324e-01,3.132835954279400426e-01
5.390000000000000346e-01,2.038104219554732754e-01,-3.613542506031540147e-01,2.153624877264503079e-01
5.400000000000000355e-01,4.596438667715041504e-01,-2.169714927993135478e-01,1.091618926386130756e-01
5.410000000000000364e-01,4.959585332671216928e-01,5.754049637942901946e-02,-1.863271122109305122e-01
5.420000000000000373e-01,1.986583830516180371e-01,3.224134684953655072e-01,-2.557563788573126162e-01
5.430000000000000382e-01,-2.055411282901930814e-01,3.580946447202968952e-01,-2.308471321539065091e-01
5.440000000000000391e-01,-4.143718806354299566e-01,2.154239400152961059e-01,-3.750453241574696478e-02
5.450000000000000400e-01,-3.925717275270408368e-01,-1.178005172877048673e-01,1.758734956522896853e-01
5.460000000000000409e-01,-1.223367957371853387e-01,-3.350299585412386816e-01,2.825239795569010615e-01
5.470000000000000417e-01,2.247050121195092176e-01,-3.612185461588884317e-01,2.400208372760393727e-01
5.480000000000000426e-01,4.307172408472459968e-01,-1.986827354078574970e-01,3.782944975361235418e-02
5.490000000000000435e-01,4.237729924310780771e-01,1.484061809426732992e-01,-1.914226308174627189e-01
5.500000000000000444e-01,1.180253772526782957e-01,3.625521772707557266e-01,-2.968885536918470791e-01
5.510000000000000453e-01,-2.516647890297967205e-01,3.390509839087298971e-01,-2.244132837724024387e-01
5.520000000000000462e-01,-4.438250393436051766e-01,1.079817448256377571e-01,-2.244752947405796728e-02
5.530000000000000471e-01,-3.766736914504002498e-01,-1.670352233785740437e-01,1.860956610598967775e-01
5.540000000000000480e-01,-7.977600231718572077e-02,-3.480003514218374394e-01,2.780418516144934071e-01
5.550000000000000488e-01,2.503719405706163470e-01,-3.475838036667283637e-01,2.217265408022883744e-01
5.560000000000000497e-01,4.803186801902581959e-01,-9.710890991683721052e-02,1.570238997117182718e-03
5.570000000000000506e-01,3.271959431045392552e-01,2.169320351417009241e-01,-2.162180672016617566e-01
5.580000000000000515e-01,5.657061721289242257e-02,3.809307162989477580e-01,-3.097809921623393414e-01
5.590000000000000524e-01,-3.202583982117154227e-01,3.278488843109295670e-01,-1.912075374262584004e-01
5.600000000000000533e-01,-4.877534270934048011e-01,5.501630051540557648e-02,5.121989119497664771e-03
5.610000000000000542e-01,-3.993642249957516377e-01,-2.560465835011416780e-01,2.227759753783031538e-01
5.620000000000000551e-01,-2.503052701562393997e-02,-3.714420188396600486e-01,2.617320168042988615e-01
5.629999999999999449e-01,3.430334767633793080e-01,-2.895289907663006201e-01,1.912758953040749055e-01
5.639999999999999458e-01,4.401232098831253658e-01,-2.850492804482659265e-02,5.164315454240293000e-03
5.649999999999999467e-01,3.323864344030161844e-01,2.493125425619851232e-01,-2.071418953541993846e-01
5.659999999999999476e-01,-7.057009810868214092e-03,3.822826777476125426e-01,-2.814927846134850919e-01
5.669999999999999485e-01,-3.395326136247744930e-01,2.292170885737142283e-01,-2.041615518744294699e-01
5.679999999999999494e-01,-4.740763503556433833e-01,8.321748521628235737e-03,2.861180978098864028e-02
5.689999999999999503e-01,-3.423910808667267047e-01,-3.062100649384550399e-01,2.079270668107628395e-01
5.699999999999999512e-01,7.130182605087906356e-02,-4.099299275466180004e-01,2.706543091834228143e-01
5.709999999999999520e-01,3.521814564767218325e-01,-2.364429960368943373e-01,1.627787078467948789e-01
5.719999999999999529e-01,4.663870169796284770e-01,9.146001098330079626e-02,-4.857142756932297280e-03
5.729999999999999538e-01,2.667170978447503948e-01,3.330911282517621808e-01,-2.192090987980399031e-01
5.739999999999999547e-01,-5.396142613259870963e-02,3.989457922481442487e-01,-2.600598927859787968e-01
5.749999999999999556e-01,-4.022616441819761302e-01,2.082453634237580731e-01,-2.118862341147295103e-01
5.759999999999999565e-01,-5.137030646668012679e-01,-1.271990102882650242e-01,1.840951113116756632e-02
5.769999999999999574e-01,-2.527718966941255307e-01,-3.282566056265348586e-01,2.543382211473417254e-01
5.779999999999999583e-01,1.024148069024275326e-01,-3.745965181096821417e-01,2.950696968170443690e-01
5.789999999999999591e-01,4.193670089418703451e-01,-1.408205572193226285e-01,1.759186196873173402e-01
5.799999999999999600e-01,4.534925733847401386e-01,1.382698491797545448e-01,-3.808036548047460945e-02
5.809999999999999609e-01,2.496408149655683362e-01,3.528159874892499159e-01,-2.081067539708137126e-01
5.819999999999999618e-01,-1.356201052490121628e-01,3.520113807391682115e-01,-2.795521910805242594e-01
5.829999999999999627e-01,-4.275225164240362696e-01,1.500105593761422995e-01,-1.490378995350364333e-01
5.839999999999999636e-01,-4.797972842474954591e-01,-1.735575653014385100e-01,4.898387938454477897e-02
5.849999999999999645e-01,-2.165430241471995310e-01,-3.726840103548833549e-01,2.413458360435559724e-01
5.859999999999999654e-01,1.829224458051592339e-01,-3.485625416541940358e-01,2.771698176655186807e-01
5.869999999999999662e-01,4.600941437376258047e-01,-9.535743602490295845e-02,1.928795221394825898e-01
5.879999999999999671e-01,4.401120330507096723e-01,2.064135867522215451e-01,-9.085172519828318971e-02
5.889999999999999680e-01,1.703096698469174775e-01,3.786173659501504973e-01,-2.274618774777625585e-01
5.899999999999999689e-01,-1.910664028389695290e-01,2.978821795738552103e-01,-2.675902889309654253e-01
5.909999999999999698e-01,-4.585381914758819843e-01,5.189093197829757614e-02,-1.471622662874190191e-01
5.919999999999999707e-01,-4.369533662887659098e-01,-2.666828689410946640e-01,8.232131094928694937e-02
5.929999999999999716e-01,-1.483417862381129770e-01,-3.890404585372613244e-01,2.654326700884086510e-01
5.939999999999999725e-01,2.036831836079738001e-01,-2.910165326020275334e-01,3.156729898749456864e-01
5.949999999999999734e-01,4.584738957809852966e-01,-4.247971213222496989e-02,1.615401564784457178e-01
5.959999999999999742e-01,4.023110741354118391e-01,2.644811385209857035e-01,-7.957302268166033254e-02
5.969999999999999751e-01,1.170111039399226172e-01,3.821570895380493327e-01,-2.657425340042035011e-01
5.979999999999999760e-01,-2.523672793264772340e-01,2.598640221117098359e-01,-2.579033068548030050e-01
5.989999999999999769e-01,-4.624988066621544824e-01,-6.253245748558480810e-02,-1.127918249669202372e-01
5.999999999999999778e-01,-3.617518241821281455e-01,-2.661754922335375917e-01,1.119508942982272576e-01
6.009999999999999787e-01,-7.744208733344544460e-02,-4.055092461501745849e-01,2.537071663043805048e-01
6.019999999999999796e-01,2.825799245690207573e-01,-2.286857248476207305e-01,2.672790080378409372e-01
6.029999999999999805e-01,4.632485084389552643e-01,3.637877802949096573e-02,1.114818099689955100e-01
6.039999999999999813e-01,4.095414945217592528e-01,3.639143613362322838e-01,-1.244929677401244994e-01
6.049999999999999822e-01,1.226164974563683993e-02,3.692228715344985646e-01,-2.788898133616721231e-01
6.059999999999999831e-01,-3.105668867062351124e-01,2.047342000272208140e-01,-2.426973259979206821e-01
6.069999999999999840e-01,-5.018594986057763885e-01,-8.947945709450841334e-02,-8.284152258599462859e-02
6.079999999999999849e-01,-3.493902490459440124e-01,-3.191969407913901602e-01,1.149706692839206484e-01
6.089999999999999858e-01,-9.005646713458373073e-03,-3.812492134636777386e-01,3.027008189834064500e-01
6.099999999999999867e-01,3.066488661667018945e-01,-1.928778350998643365e-01,2.422967009404151384e-01
6.109999999999999876e-01,4.844056869478068350e-01,9.661301584840403800e-02,1.237838060339743751e-01
6.119999999999999885e-01,3.261212230139333701e-01,3.845383398377733575e-01,-1.222556747212679706e-01
6.129999999999999893e-01,2.148840668328720442e-03,3.352790856544827780e-01,-2.613730530410960928e-01
6.139999999999999902e-01,-3.752857698833803046e-01,1.704215135261493153e-01,-2.709129805814725067e-01
6.149999999999999911e-01,-4.576521287097836121e-01,-1.309183283402791942e-01,-8.741751596673090485e-02
6.159999999999999920e-01,-3.551525569258775494e-01,-3.133459149542754396e-01,1.212283861664152224e-01
6.169999999999999929e-01,2.197584741340999695e-02,-3.440631789941661078e-01,2.624831289441642013e-01
6.179999999999999938e-01,3.547812092832031694e-01,-8.707899977169758499e-02,2.500518147055672546e-01
6.189999999999999947e-01,4.715371582250507676e-01,2.009577719919697636e-01,3.657735839353074697e-02
6.199999999999999956e-01,2.589400417094157025e-01,3.844700725172160993e-01,-1.190903076673655997e-01
6.209999999999999964e-01,-8.820613415219326348e-02,3.083838050103461792e-01,-2.756585259498142704e-01
6.219999999999999973e-01,-3.999359251724880493e-01,5.762120349504938621e-02,-2.546932634279870378e-01
6.229999999999999982e-01,-4.556073571071351247e-01,-2.439462524527070686e-01,-1.088396977973444535e-01
6.239999999999999991e-01,-2.765237851903260546e-01,-3.922962338833974605e-01,1.552544555200653931e-01
6.250000000000000000e-01,1.073573553790332508e-01,-3.146711812591690971e-01,2.807174481811800515e-01
6.260000000000000009e-01,3.912678777743331393e-01,-4.481704395065215507e-02,2.490361313140836141e-01
6.270000000000000018e-01,4.796527441916466628e-01,2.631293282402454858e-01,6.366068742483615983e-02
6.280000000000000027e-01,2.528561160680650732e-01,4.070862123745061512e-01,-1.489333485289738579e-01
6.290000000000000036e-01,-1.181036020779202139e-01,2.730440130217404171e-01,-3.203710196217759432e-01
6.300000000000000044e-01,-4.198068986611208642e-01,5.375025153303672996e-03,-2.567070785977643710e-01
6.310000000000000053e-01,-4.873746549254604488e-01,-2.557969703420495677e-01,-4.149127710791994383e-02
6.320000000000000062e-01,-1.884220204174976987e-01,-4.073531977812259730e-01,1.555544632399797900e-01
6.330000000000000071e-01,1.350972157757721059e-01,-2.214718225033802390e-01,2.713621527762243857e-01
6.340000000000000080e-01,4.284549493296416212e-01,3.654449868395789197e-02,2.320369094524646347e-01
6.350000000000000089e-01,4.319900393822937446e-01,2.786072319125258989e-01,4.096268145553982887e-02
6.360000000000000098e-01,1.547078222733931918e-01,3.551055649019015381e-01,-1.574017123649079364e-01
6.370000000000000107e-01,-1.922979299110588458e-01,2.277219006483161834e-01,-2.953830241884493057e-01
6.380000000000000115e-01,-4.481836164511237564e-01,-1.045687284749733242e-01,-2.426251701849376496e-01
6.390000000000000124e-01,-4.435799731171199967e-01,-3.338364663392450193e-01,-7.423844863248585391e-02
6.400000000000000133e-01,-1.591514079320045238e-01,-3.766533003429828885e-01,1.966385274101528635e-01
6.410000000000000142e-01,2.017803399650166529e-01,-1.761597071227035682e-01,2.717115150446693939e-01
6.420000000000000151e-01,4.460238358184571150e-01,1.295109006771875404e-01,2.262306345703573862e-01
6.430000000000000160e-01,3.866369285972823810e-01,3.601416480147087706e-01,-3.595028265748245570e-03
6.440000000000000169e-01,1.249369110942924604e-01,3.600621729173373864e-01,-1.921984365353290036e-01
6.450000000000000178e-01,-2.660540538448109560e-01,1.518490919754703627e-01,-2.815312071216962697e-01
6.460000000000000187e-01,-4.647562275307421942e-01,-1.434630649423955517e-01,-1.892441426226687817e-01
6.470000000000000195e-01,-3.945728513848545393e-01,-3.570203943939137536e-01,-3.784564221459887218e-02
6.480000000000000204e-01,-1.138353923263994011e-01,-3.611884599205173463e-01,1.948588772559500804e-01
6.490000000000000213e-01,2.276202231895067540e-01,-1.235122717901752792e-01,2.722262839221671893e-01
6.500000000000000222e-01,4.415039953580709997e-01,1.917446522795127895e-01,2.075378104523201428e-01
6.510000000000000231e-01,3.884778363619976749e-01,3.761208497687877350e-01,-1.716599079750686513e-02
6.520000000000000240e-01,5.807816214057510973e-02,3.404840919993438186e-01,-2.363828676594750822e-01
6.530000000000000249e-01,-3.082687242642948577e-01,1.076912485103343892e-01,-2.886329404140650090e-01
6.540000000000000258e-01,-4.474905212091787599e-01,-2.275400844936978917e-01,-2.233851079254732253e-01
6.550000000000000266e-01,-3.794985778870229587e-01,-3.696340385180380550e-01,1.822171037112934114e-02
6.560000000000000275e-01,-6.554835433928461914e-03,-3.150267702924154922e-01,1.857025555716719234e-01
6.570000000000000284e-01,3.140149341934973526e-01,-4.507795409878886245e-02,2.867356905262848921e-01
6.580000000000000293e-01,4.782179813945368618e-01,2.411099006750425378e-01,2.356464647600721440e-01
6.590000000000000302e-01,3.085320977405877629e-01,3.391307367764828662e-01,5.133662545149962272e-03
6.600000000000000311e-01,-1.922625083609550214e-02,2.743365932883153890e-01,-2.115436442737870237e-01
6.610000000000000320e-01,-3.400897235341739933e-01,5.761125573039426601e-02,-3.024958088513429177e-01
6.620000000000000329e-01,-4.552246332677749030e-01,-2.744666086805908067e-01,-1.602919580536578958e-01
6.630000000000000338e-01,-3.263033781295548441e-01,-3.718773650678783849e-01,7.198631896310437803e-03
6.640000000000000346e-01,4.993061108941959647e-02,-2.542592042753001325e-01,2.456784505589246215e-01
6.650000000000000355e-01,4.050323580871822426e-01,2.831982215612308812e-02,2.833963466225387084e-01
6.660000000000000364e-01,4.508756815871196588e-01,2.866694445279125425e-01,1.962018194424511308e-01
6.670000000000000373e-01,2.872120867928222299e-01,3.822171420082889348e-01,-5.500351900878053951e-02
6.680000000000000382e-01,-8.893967525133796015e-02,2.161670145346805405e-01,-2.244934608237846019e-01
6.690000000000000391e-01,-3.964432429883646969e-01,-4.180173198687667929e-02,-2.803915433049607442e-01
6.700000000000000400e-01,-4.824083935675484991e-01,-3.284994884571367235e-01,-1.701456806888917705e-01
6.710000000000000409e-01,-2.630298143318333115e-01,-3.767039650114598071e-01,4.202027877278257523e-02
6.720000000000000417e-01,5.493244848332244634e-02,-1.931361664821899526e-01,2.675493378203964712e-01
6.730000000000000426e-01,4.158991858832298827e-01,7.429156736831356300e-02,2.924430026158965634e-01
6.740000000000000435e-01,4.745562943054463800e-01,3.350262903219298760e-01,1.555301871395954050e-01
6.750000000000000444e-01,2.548460371956934867e-01,3.365345350313316830e-01,-5.385840167269308892e-02
6.760000000000000453e-01,-1.020107315163513301e-01,1.957627983806987937e-01,-2.744162996637588003e-01
6.770000000000000462e-01,-4.324115468697034004e-01,-1.269590832397274049e-01,-2.987081655699235228e-01
6.780000000000000471e-01,-4.652069218887032176e-01,-3.230009035175169796e-01,-2.050648529392362363e-01
6.790000000000000480e-01,-2.101829683127348913e-01,-3.187436181177015770e-01,8.085283237857784910e-02
6.800000000000000488e-01,1.836941742215697226e-01,-9.291712323517276051e-02,2.350332032138931770e-01
6.810000000000000497e-01,4.123161705211660921e-01,1.562783650700597660e-01,2.659464178011402002e-01
6.820000000000000506e-01,4.446469308747603710e-01,3.711837402533908481e-01,1.578497270122207474e-01
6.830000000000000515e-01,1.798041283751921626e-01,2.911281875089914428e-01,-6.670288035087000578e-02
6.840000000000000524e-01,-2.255150516641587499e-01,8.502993003573644515e-02,-2.417143719772770483e-01
6.850000000000000533e-01,-4.444105576119967704e-01,-1.961055277026185206e-01,-2.803137307056900451e-01
6.860000000000000542e-01,-4.604578521411841763e-01,-3.475111040434862297e-01,-1.501444867715098497e-01
6.870000000000000551e-01,-1.384574078717479284e-01,-3.053267172144068509e-01,7.944169121414111634e-02
6.879999999999999449e-01,2.453666260506287000e-01,-4.068465899128359542e-02,2.411717781984440423e-01
6.889999999999999458e-01,4.154537120489488200e-01,2.535278036155585446e-01,3.005698518005843201e-01
6.899999999999999467e-01,4.178254329238139664e-01,4.020296569328778991e-01,1.390975342899843092e-01
6.909999999999999476e-01,1.093795003125314497e-01,2.544155822311854886e-01,-7.222647070628714083e-02
6.919999999999999485e-01,-2.433219876104506241e-01,-1.458088218394891673e-02,-2.502188956112664231e-01
6.929999999999999494e-01,-4.512704543113745803e-01,-2.816771952885966379e-01,-2.942556777595277673e-01
6.939999999999999503e-01,-3.952112503569497060e-01,-4.184512809876148043e-01,-8.861708479492946822e-02
6.949999999999999512e-01,-9.863537192216415006e-02,-2.622132263157597176e-01,9.140590987974413217e-02
6.959999999999999520e-01,2.885198856442793280e-01,4.152853849338315750e-02,2.269572115595944461e-01
6.969999999999999529e-01,4.638488903817211684e-01,2.499541785139060002e-01,2.775299535986402999e-01
6.979999999999999538e-01,4.014272468247950254e-01,3.863371349244706376e-01,1.112872091546795728e-01
6.989999999999999547e-01,6.951335380661265162e-02,2.211936197137246429e-01,-9.294711960008809892e-02
6.999999999999999556e-01,-3.262787988529444183e-01,-5.743553002815992431e-02,-3.022611540052007606e-01
7.009999999999999565e-01,-4.744890583537481055e-01,-2.848931930445278149e-01,-2.990488135050288210e-01
7.019999999999999574e-01,-3.833030328967079736e-01,-3.403479173523412671e-01,-1.020318928477507159e-01
7.029999999999999583e-01,-5.158134371900765375e-02,-1.831407679579028502e-01,1.257933308634471004e-01
7.039999999999999591e-01,3.577665428952319648e-01,1.065186014362931727e-01,2.426764430606489498e-01
7.049999999999999600e-01,4.773733057614880648e-01,3.300429317776785165e-01,2.545866504968585242e-01
7.059999999999999609e-01,3.529275208533594332e-01,3.822933678169979088e-01,6.088148224874734976e-02
7.069999999999999618e-01,-1.352029422496132602e-02,1.813390841099192241e-01,-1.387108823781279809e-01
7.079999999999999627e-01,-3.504638926530542764e-01,-1.661689754670792329e-01,-2.692314718196004431e-01
7.089999999999999636e-01,-4.846114648546041570e-01,-3.476708403475798348e-01,-2.651005858799255765e-01
7.099999999999999645e-01,-3.385599888119750212e-01,-3.374058132782803976e-01,-1.146661858738814849e-01
7.109999999999999654e-01,4.642759751741178109e-02,-1.126758345702747605e-01,1.469213288918714277e-01
7.119999999999999662e-01,3.756463951568320692e-01,1.942631547902771982e-01,2.645412551677699953e-01
7.129999999999999671e-01,4.684653030200208734e-01,3.455938403352841748e-01,2.482172983782432174e-01
7.139999999999999680e-01,2.846596571775141804e-01,3.510721617754746227e-01,8.187143666269978970e-02
7.149999999999999689e-01,-7.277011142112750630e-02,1.081824586595594440e-01,-1.299291649892195533e-01
7.159999999999999698e-01,-3.693042494264563991e-01,-2.223725145508478329e-01,-2.740324767052206290e-01
7.169999999999999707e-01,-4.774436977181623631e-01,-3.606789365008898351e-01,-2.496672840553086081e-01
7.179999999999999716e-01,-2.540925048991937718e-01,-3.158763379377106939e-01,-7.655871737243245823e-02
7.189999999999999725e-01,9.212191325824893584e-02,-5.809001560553109927e-02,1.575371012979774332e-01
7.199999999999999734e-01,4.156487378522478182e-01,2.124707323715705476e-01,2.862171257583119854e-01
7.209999999999999742e-01,4.647963287696170176e-01,3.617050815377407247e-01,2.377472150562953412e-01
7.219999999999999751e-01,2.667990794766817997e-01,2.927158243965872764e-01,4.274316120447983758e-02
7.229999999999999760e-01,-1.018807504245541340e-01,-1.574683459449791045e-02,-1.962793753938405772e-01
7.239999999999999769e-01,-4.261462169599347649e-01,-2.558572962397970274e-01,-2.736957680313165664e-01
7.249999999999999778e-01,-4.727515511084281474e-01,-3.808632588198710422e-01,-1.969223042267123081e-01
7.259999999999999787e-01,-2.079812419659612666e-01,-2.600298605892344961e-01,-2.565915263368165680e-02
7.269999999999999796e-01,1.845867668631559211e-01,4.557540391488883180e-02,2.017431181001227702e-01
7.279999999999999805e-01,4.041195113139581241e-01,2.862739476240860337e-01,2.958676212315464182e-01
7.289999999999999813e-01,4.561097396256821312e-01,3.620086502870661360e-01,1.982468539953945452e-01
7.299999999999999822e-01,1.590841450561544801e-01,2.588641644195394664e-01,2.852745802621130256e-02
7.309999999999999831e-01,-1.737134762398691024e-01,-2.610374179370136133e-02,-1.434096456248382945e-01
7.319999999999999840e-01,-4.555641084157566190e-01,-3.135456928018870437e-01,-3.006438338523674814e-01
7.329999999999999849e-01,-4.304755297711607698e-01,-4.076493836223397116e-01,-2.268356650629677618e-01
7.339999999999999858e-01,-1.423983930799596620e-01,-2.242755337824201001e-01,-6.338012766042502508e-03
7.349999999999999867e-01,1.869088365974281296e-01,8.717544248367653514e-02,1.793326538964080674e-01
7.359999999999999876e-01,4.611294253232021689e-01,3.360582622906830852e-01,2.720695906674637787e-01
7.369999999999999885e-01,4.427220244420951301e-01,3.517569304898414129e-01,2.389343510481150568e-01
7.379999999999999893e-01,1.129786964925754145e-01,1.559443146945104219e-01,-1.654612162671674708e-03
7.389999999999999902e-01,-2.377722175056078135e-01,-1.309259545032055716e-01,-1.783040356578195207e-01
7.399999999999999911e-01,-4.469300054811277123e-01,-3.648691857171698083e-01,-2.461923463390145173e-01
7.409999999999999920e-01,-4.063267837739217847e-01,-3.510560099569876580e-01,-1.993881384829863379e-01
7.419999999999999929e-01,-1.059275596122245949e-01,-1.742578070326883388e-01,-1.849210775518305219e-02
7.429999999999999938e-01,2.822032039838043294e-01,2.124918540051094207e-01,1.799144309250345075e-01
7.439999999999999947e-01,4.941585557825618480e-01,3.174195338709741576e-01,2.868353022085325388e-01
7.449999999999999956e-01,4.003811328636422417e-01,3.675447710540155066e-01,2.067548277355847619e-01
7.459999999999999964e-01,6.601292063344424421e-02,1.043710091288492653e-01,-2.718604046573896635e-02
7.469999999999999973e-01,-3.334554114434026273e-01,-1.841115980588918510e-01,-2.016858642224032550e-01
7.479999999999999982e-01,-4.699276386808852735e-01,-3.893661421966855829e-01,-2.944015032434361689e-01
7.489999999999999991e-01,-3.813991249082646084e-01,-3.103954957201895404e-01,-1.997833183471653951e-01
7.500000000000000000e-01,-2.718697737510698820e-02,-5.400660516141451983e-02,-1.456655388605344360e-02
7.510000000000000009e-01,3.193400942898348416e-01,2.473010901187047417e-01,2.044573119218395796e-01
7.520000000000000018e-01,4.646527426473088807e-01,3.590733437773773185e-01,2.933501399018910716e-01
7.530000000000000027e-01,3.477484884555296918e-01,2.916313202446790820e-01,1.776662015870241751e-01
7.540000000000000036e-01,-3.154598268528945038e-02,1.179687831884469740e-02,1.604098498051768863e-03
7.550000000000000044e-01,-3.348287439755558426e-01,-2.520133124507534794e-01,-2.256734008762228683e-01
7.560000000000000053e-01,-4.706551914084898258e-01,-3.627074664776726576e-01,-2.789669591377069713e-01
7.570000000000000062e-01,-3.253502096343762751e-01,-2.689709722154812743e-01,-1.654545439930655282e-01
7.580000000000000071e-01,2.579684408214946365e-02,3.046522554964544230e-03,9.027770050974652516e-03
7.590000000000000080e-01,3.675195677135369432e-01,2.552976983423684287e-01,2.085930404176792874e-01
7.600000000000000089e-01,4.480392211961867766e-01,3.612953436539609320e-01,2.998001996817389325e-01
7.610000000000000098e-01,3.030295665394333593e-01,2.322836578376147876e-01,1.684664852421095815e-01
7.620000000000000107e-01,-8.753986938181980426e-02,-5.251968665597359781e-02,-1.520752017146107318e-02
7.630000000000000115e-01,-3.686450860093337112e-01,-2.937797349764449395e-01,-2.320471872102926603e-01
7.640000000000000124e-01,-4.839633706905891453e-01,-3.483805097067361745e-01,-2.741103893877859798e-01
7.650000000000000133e-01,-2.486947938010893588e-01,-2.055728168117519628e-01,-1.781421837164470501e-01
7.660000000000000142e-01,1.038961385607004018e-01,7.572610968115085772e-02,4.423974164976772483e-02
7.670000000000000151e-01,4.192018561454897152e-01,3.537542119377702354e-01,2.546150924407382665e-01
7.680000000000000160e-01,4.480707898038422399e-01,3.523835749643444148e-01,2.610305212259615981e-01
7.690000000000000169e-01,2.617131375007836769e-01,2.083501531888534153e-01,1.369915241218677138e-01
7.700000000000000178e-01,-1.376703760794694420e-01,-1.403442758196833395e-01,-8.103949075758253018e-02
7.710000000000000187e-01,-4.265212588166361618e-01,-3.476367701542915079e-01,-2.198479496371489317e-01
7.720000000000000195e-01,-4.613202801631342553e-01,-3.739114395079889408e-01,-2.999072174372306443e-01
7.730000000000000204e-01,-2.102358181682809080e-01,-1.410054824463190526e-01,-1.380563315050055140e-01
7.740000000000000213e-01,1.332952216955675395e-01,1.483003880895972237e-01,5.167131713994346787e-02
7.750000000000000222e-01,4.320915177141055885e-01,3.588379780281240605e-01,2.586200760743030402e-01
7.760000000000000231e-01,4.643104794457246776e-01,3.512824594341349416e-01,2.535909053229426502e-01
7.770000000000000240e-01,1.802218014966721349e-01,1.002848683467496699e-01,1.294561047042804836e-01
7.780000000000000249e-01,-2.085755587831705782e-01,-1.615558292977748167e-01,-9.193825428222503204e-02
7.790000000000000258e-01,-4.493900831023502351e-01,-3.608428134313683699e-01,-2.120607913373209752e-01
7.800000000000000266e-01,-4.207003492901146280e-01,-3.516806242791698511e-01,-3.109530949604070171e-01
7.810000000000000275e-01,-1.870184319447807386e-01,-1.012589185903592093e-01,-1.401448259009245023e-01
7.820000000000000284e-01,1.967731042325341628e-01,2.339549420929546986e-01,5.147136113572220451e-02
7.830000000000000293e-01,4.843821440564785585e-01,3.885804534663180876e-01,2.430805279108598782e-01
7.840000000000000302e-01,4.094777860754814092e-01,3.126410927610404622e-01,2.881757947842186751e-01
7.850000000000000311e-01,1.176995724471279342e-01,6.729655141473205038e-02,1.194735828842952846e-01
7.860000000000000320e-01,-2.438239163440948098e-01,-2.588225341083256192e-01,-1.213982894040873117e-01
7.870000000000000329e-01,-4.629590710889883165e-01,-3.638861204377045744e-01,-2.665189820918695829e-01
7.880000000000000338e-01,-4.159721135783720491e-01,-2.690876249091342376e-01,-2.784473731138391583e-01
7.890000000000000346e-01,-8.242541562526010945e-02,4.049067603853684014e-03,-1.440438033620159153e-01
7.900000000000000355e-01,2.487065716563384155e-01,2.825901399508434775e-01,1.293688738328402366e-01
7.910000000000000364e-01,4.597877250433083374e-01,3.779977799708848507e-01,2.879358146369705995e-01
7.920000000000000373e-01,3.484583449644438891e-01,2.582252616157157954e-01,2.934358645901727347e-01
7.930000000000000382e-01,6.442152582228151403e-02,-5.287505328617125161e-02,1.089268543961739305e-01
7.940000000000000391e-01,-3.057799565502512529e-01,-3.202905687884581298e-01,-1.247398382519730314e-01
7.950000000000000400e-01,-5.168221691670884521e-01,-3.711710413853970825e-01,-2.737998637342295427e-01
7.960000000000000409e-01,-3.030210455650901857e-01,-2.083778827655363985e-01,-2.772296789106193926e-01
7.970000000000000417e-01,-5.719651839920349840e-02,7.290519902302645960e-02,-8.983573639620685836e-02
7.980000000000000426e-01,2.800041230893255961e-01,3.157423818107012448e-01,1.373738604764019322e-01
7.990000000000000435e-01,4.860962481617872588e-01,3.983950312815751071e-01,2.978036016397579422e-01
8.000000000000000444e-01,3.447756573800533908e-01,1.780163747910732952e-01,2.736916412332067172e-01
8.010000000000000453e-01,1.019070205969786064e-02,-1.680022215044395251e-01,5.203730182726910847e-02
8.020000000000000462e-01,-3.307148550309940704e-01,-3.077605973386535743e-01,-1.430473445053226933e-01
8.030000000000000471e-01,-4.653602945460716955e-01,-3.858299236547497180e-01,-3.033324610995571380e-01
8.040000000000000480e-01,-3.337762836389102095e-01,-1.584959136174877992e-01,-2.331378808817136383e-01
8.050000000000000488e-01,3.261312059017941467e-02,1.490658061483137731e-01,-8.205770541928757156e-02
8.060000000000000497e-01,3.420426022082979078e-01,3.569551018106355555e-01,1.343674420617516907e-01
8.070000000000000506e-01,4.636235439626203991e-01,3.011049150952011533e-01,2.774446459067805293e-01
8.080000000000000515e-01,2.673412662352031566e-01,1.488505816345631061e-01,2.499045400502372949e-01
8.090000000000000524e-01,-2.834864655542620321e-02,-1.846394144355523737e-01,9.018949463183609239e-02
8.100000000000000533e-01,-3.867844003821291898e-01,-3.665439783720164657e-01,-1.682401764017037726e-01
8.110000000000000542e-01,-4.678006151695245363e-01,-3.190696628390582434e-01,-2.858932997706427059e-01
8.120000000000000551e-01,-2.434718951967714817e-01,-9.296308712045714406e-02,-2.153857417911871630e-01
8.129999999999999449e-01,8.221175319934635739e-02,2.211908687846750876e-01,-9.504479303557678005e-02
8.139999999999999458e-01,3.806730922755751090e-01,3.773517170878676885e-01,1.667257160008039363e-01
8.149999999999999467e-01,4.424872808726305617e-01,3.197060703292043393e-01,3.052002584868420132e-01
8.159999999999999476e-01,2.402764157880581675e-01,5.660613377883078057e-02,2.250759414980878226e-01
8.169999999999999485e-01,-1.056102837090136526e-01,-2.393160467193062302e-01,3.383864299499432515e-02
8.179999999999999494e-01,-3.893030178547386977e-01,-3.766704589656572622e-01,-1.778883175926934956e-01
8.189999999999999503e-01,-4.544071980453120441e-01,-2.522011239972515306e-01,-2.993870590825256639e-01
8.199999999999999512e-01,-2.185820221014161124e-01,-6.528293857036055955e-03,-2.203879981172328362e-01
8.209999999999999520e-01,1.551436798575708265e-01,2.663511716385398853e-01,-6.281096584416386019e-02
8.219999999999999529e-01,4.246444261169535772e-01,3.958475164373523314e-01,2.208401343997809518e-01
8.229999999999999538e-01,4.455560821299799912e-01,2.470432063714712578e-01,3.020568238478964496e-01
8.239999999999999547e-01,1.939327645669047806e-01,-5.472180856519017617e-02,2.466186957023228377e-01
8.249999999999999556e-01,-1.880019811388644879e-01,-2.802050411586370915e-01,2.278101881176479437e-02
8.259999999999999565e-01,-4.211284940337256533e-01,-3.507375840464789230e-01,-1.556824743179314186e-01
8.269999999999999574e-01,-4.314864178041520892e-01,-2.196112252606771398e-01,-3.052150943230708680e-01
8.279999999999999583e-01,-1.414658840920291205e-01,6.239889745382911496e-02,-2.185769696702387910e-01
8.289999999999999591e-01,2.322842001246149812e-01,2.812368541320025561e-01,-8.034486790248377775e-04
8.299999999999999600e-01,4.727979485510817592e-01,3.969557355633365203e-01,2.205864575816816608e-01
8.309999999999999609e-01,4.181377540039003526e-01,1.607181009754399537e-01,2.976946361846615208e-01
8.319999999999999618e-01,1.076304970772039848e-01,-1.312641471599491072e-01,2.144506938371696925e-01
8.329999999999999627e-01,-2.301739091453158803e-01,-3.249212519474877214e-01,-2.947596010683425742e-03
8.339999999999999636e-01,-4.442247905113200779e-01,-3.501671147377156124e-01,-1.827645620143680538e-01
8.349999999999999645e-01,-4.283835623028131034e-01,-1.800998297492278633e-01,-2.488185868622758146e-01
8.359999999999999654e-01,-1.179986775662467263e-01,1.351724092049955417e-01,-2.271728530967337123e-01
8.369999999999999662e-01,2.470428777630450934e-01,3.631936583178307365e-01,-2.772794598017855328e-02
8.379999999999999671e-01,4.561451424673816923e-01,3.390533914954713679e-01,2.210460334049441922e-01
8.389999999999999680e-01,3.680007069428407052e-01,1.571133704980888224e-01,3.058613304446941017e-01
8.399999999999999689e-01,9.001753671602175100e-02,-1.685740252143523299e-01,1.668120323758777168e-01
8.409999999999999698e-01,-2.815582428107435975e-01,-4.213593764323458335e-01,-2.611144606478343205e-02
8.419999999999999707e-01,-4.830781284764826267e-01,-3.470786944650607331e-01,-2.320483427455305447e-01
8.429999999999999716e-01,-3.397995097363281647e-01,-7.335303613715730975e-02,-2.933437273715199245e-01
8.439999999999999725e-01,-5.121305743990495207e-02,1.776601471200800475e-01,-1.889616894646336254e-01
8.449999999999999734e-01,3.111543626226360715e-01,3.628216889487382857e-01,1.842488879345221750e-02
8.459999999999999742e-01,4.835943010398197073e-01,3.110375653758168935e-01,2.079780349787964389e-01
8.469999999999999751e-01,3.391226962410652246e-01,7.623036018661419333e-02,2.967533680947413988e-01
8.479999999999999760e-01,1.689577519768037687e-03,-2.530256716953063201e-01,1.545932316145571805e-01
8.489999999999999769e-01,-3.285409819705156775e-01,-3.878022374908282055e-01,-3.347322302130447541e-02
8.499999999999999778e-01,-4.920826927302676679e-01,-3.205375609988820873e-01,-1.912272844953812889e-01
8.509999999999999787e-01,-3.439445519015304487e-01,-2.103183057860474880e-02,-2.630916303777041665e-01
8.519999999999999796e-01,4.166176875846029637e-02,2.618310357452024451e-01,-1.808873666168841210e-01
8.529999999999999805e-01,3.062490950856570082e-01,3.730167707123857590e-01,4.256501174579623015e-02
8.539999999999999813e-01,5.178723738785470099e-01,2.635373788487834212e-01,2.329975316546726849e-01
8.549999999999999822e-01,2.795256818516141939e-01,-2.268876688360331115e-02,2.762230475372333127e-01
8.559999999999999831e-01,-4.950376975934452084e-02,-2.445807503414886008e-01,1.639251628416686368e-01
8.569999999999999840e-01,-3.885057722576902850e-01,-3.873554771211916714e-01,-2.991160504047767760e-02
8.579999999999999849e-01,-4.624622877553143385e-01,-2.197944445987941586e-01,-1.931314138148879089e-01
8.589999999999999858e-01,-2.559843316280354664e-01,5.910771840093499707e-02,-2.893396340410483436e-01
8.599999999999999867e-01,7.461936971652584349e-02,2.977025220563168650e-01,-1.716438219135824061e-01
8.609999999999999876e-01,3.964254402578708536e-01,3.657663536824730111e-01,5.617482570561855432e-02
8.619999999999999885e-01,4.467318569053339572e-01,2.001990977299212271e-01,2.533123198511161855e-01
8.629999999999999893e-01,2.669410759327792149e-01,-9.361556045396203507e-02,2.873896775453175789e-01
8.639999999999999902e-01,-1.133576603803649052e-01,-3.024671472040588727e-01,1.518927603705769180e-01
8.649999999999999911e-01,-4.179187965670575489e-01,-3.715930398118595379e-01,-7.209325119679241278e-02
8.659999999999999920e-01,-4.878819499072391541e-01,-1.766272243038050360e-01,-2.618191842644735923e-01
8.669999999999999929e-01,-2.516437294492424592e-01,1.171985560214994226e-01,-2.842288374659704964e-01
8.679999999999999938e-01,1.808073748647116841e-01,3.668363406544575822e-01,-1.876647822656140885e-01
8.689999999999999947e-01,4.431161545109317812e-01,3.680854346584005454e-01,5.047538065343004643e-02
8.699999999999999956e-01,4.687196332770712237e-01,1.412954716187992399e-01,2.325270703288309926e-01
8.709999999999999964e-01,2.001647071862003024e-01,-1.614411605923339044e-01,2.142353425866824757e-01
8.719999999999999973e-01,-2.071837670863272418e-01,-3.904731249304516649e-01,1.555974094810017860e-01
8.729999999999999982e-01,-4.488197449670330852e-01,-3.462820061021051332e-01,-8.755096885034327481e-02
8.739999999999999991e-01,-4.081014028180495190e-01,-1.190786989394623935e-01,-2.536252886298393516e-01
8.750000000000000000e-01,-1.826774599846788527e-01,1.912440212255976102e-01,-3.288076401416810124e-01
8.760000000000000009e-01,2.376182296913378345e-01,3.706017027839161870e-01,-1.029289062414360384e-01
8.770000000000000018e-01,4.616856782082231492e-01,3.268655049232790932e-01,7.223335517118256721e-02
8.780000000000000027e-01,4.592436927940389824e-01,5.341164582863256599e-02,2.372617843474570387e-01
8.790000000000000036e-01,1.269500001901607555e-01,-2.495959490640776157e-01,2.438056680745448179e-01
8.800000000000000044e-01,-2.083238889356545109e-01,-3.776728161420744856e-01,1.139029009165333783e-01
8.810000000000000053e-01,-4.762296705941355124e-01,-2.763111149335500949e-01,-9.430621853035907332e-02
8.820000000000000062e-01,-3.818855359863311816e-01,-3.792912520067690668e-02,-2.449368245272016686e-01
8.830000000000000071e-01,-1.067033167669831917e-01,2.733475732173055728e-01,-2.557495560613586849e-01
8.840000000000000080e-01,2.940483869936021399e-01,4.065883054008485042e-01,-9.147554501831077489e-02
8.850000000000000089e-01,4.281034596005816040e-01,2.716277174961300722e-01,5.028974488553278333e-02
8.860000000000000098e-01,3.900871251416109797e-01,-3.873646122904808413e-03,2.727100139118686095e-01
8.870000000000000107e-01,8.433655993381705684e-02,-3.018423783951970640e-01,2.664730613556304806e-01
8.880000000000000115e-01,-2.677437881043580603e-01,-3.799328933644975370e-01,6.949167894327856754e-02
8.890000000000000124e-01,-4.487665103893291318e-01,-2.113194203441992880e-01,-1.367951649998696562e-01
8.900000000000000133e-01,-3.404992305872924785e-01,-6.211092347615975590e-03,-2.761656960613316780e-01
8.910000000000000142e-01,-4.774521242694024226e-02,3.171861504666658171e-01,-2.484938918760894178e-01
8.920000000000000151e-01,3.309978318514538720e-01,3.601007995209643542e-01,-7.098813684300717131e-02
8.930000000000000160e-01,4.846893133848305113e-01,1.847138402724062822e-01,1.350356438786459445e-01
8.940000000000000169e-01,3.590564002685476819e-01,-6.950802973788013095e-02,2.800157104544542808e-01
8.950000000000000178e-01,5.418860287313900272e-03,-3.532041840468472804e-01,2.091156812837259293e-01
8.960000000000000187e-01,-3.310134893601461847e-01,-3.617765726926485126e-01,7.360528142207126145e-02
8.970000000000000195e-01,-4.647785115533053513e-01,-1.694202011141643371e-01,-1.594115997246626226e-01
8.980000000000000204e-01,-3.349053405699964348e-01,1.260185453405965328e-01,-2.952881686688338947e-01
8.990000000000000213e-01,7.525410077391405522e-03,3.577440281188800641e-01,-2.623844012734946052e-01
9.000000000000000222e-01,3.866904342536397476e-01,3.228859454633746240e-01,-9.160951749226718677e-02
9.010000000000000231e-01,4.965363703761127012e-01,1.486711282835171122e-01,1.528018222565173112e-01
9.020000000000000240e-01,3.062604797988068839e-01,-1.290980150486938927e-01,2.909874819042321814e-01
9.030000000000000249e-01,-5.484881661123837404e-02,-3.862800966114919299e-01,2.512226924575288733e-01
9.040000000000000258e-01,-3.701939256082714125e-01,-3.953306606172665716e-01,3.878254284058853252e-02
9.050000000000000266e-01,-4.698446427456268726e-01,-1.223307491643980949e-01,-1.580802918581474814e-01
9.060000000000000275e-01,-3.028036204681797128e-01,1.873489208035038489e-01,-2.951299976233262568e-01
9.070000000000000284e-01,5.887252921575136799e-02,3.723315179842861533e-01,-2.446967104300475371e-01
9.080000000000000293e-01,4.112100631815491236e-01,3.421469519339745413e-01,-4.168118646711704844e-02
9.090000000000000302e-01,4.900325068931505879e-01,7.532783468233159030e-02,1.454131094921778666e-01
9.100000000000000311e-01,2.346517132612246370e-01,-2.403880661532069862e-01,3.179171353309032666e-01
9.110000000000000320e-01,-8.649233787150149844e-02,-3.458836392511288604e-01,2.289708571359964362e-01
9.120000000000000329e-01,-4.216343270267588483e-01,-3.015140247883837388e-01,4.396890364694442527e-02
9.130000000000000338e-01,-4.409630788236824639e-01,-3.076307050866893683e-02,-1.528232788994924873e-01
9.140000000000000346e-01,-2.113193910376522100e-01,2.257001555878903609e-01,-2.806214652041152946e-01
9.150000000000000355e-01,1.696656705005664678e-01,4.073525751990353938e-01,-2.361572201908124224e-01
9.160000000000000364e-01,4.188757369742990289e-01,3.302556479497493758e-01,-2.237104792213740270e-02
9.170000000000000373e-01,4.780410628048950561e-01,4.333124177206084705e-03,1.333172130708156489e-01
9.180000000000000382e-01,2.059904870377580466e-01,-2.756452788687462352e-01,2.933692354220373555e-01
9.190000000000000391e-01,-1.894879190274959269e-01,-3.805862717123057459e-01,2.171848582614141487e-01
9.200000000000000400e-01,-4.290458278516012802e-01,-2.235140548440696651e-01,6.017747709670236145e-02
9.210000000000000409e-01,-4.440677379050625984e-01,4.071933972384869649e-02,-1.658475206046604589e-01
9.220000000000000417e-01,-1.763621758190377364e-01,3.045950043939434915e-01,-2.725423211085482578e-01
9.230000000000000426e-01,2.424018911056364800e-01,3.497302851674320423e-01,-2.243786976304283087e-01
9.240000000000000435e-01,4.419343485080928224e-01,1.963678177255072377e-01,-2.338304913809127056e-02
9.250000000000000444e-01,4.474906319858361070e-01,-5.443702147682995957e-02,2.018434642241884180e-01
9.260000000000000453e-01,1.352040672314146208e-01,-3.293162544989965967e-01,2.948535232213934654e-01
9.270000000000000462e-01,-2.408391188728055687e-01,-4.065755950532909946e-01,1.876394913459410729e-01
9.280000000000000471e-01,-4.611264213239683052e-01,-1.842190490966785499e-01,-1.572418385834377721e-02
9.290000000000000480e-01,-3.864900177462446407e-01,1.044737777246717986e-01,-1.789552402083911253e-01
9.300000000000000488e-01,-8.384289165672559330e-02,2.991607596393953128e-01,-2.746256799611185295e-01
9.310000000000000497e-01,2.827816677451253646e-01,3.469517561353548940e-01,-1.843234140376008579e-01
9.320000000000000506e-01,4.765617659861379751e-01,1.490099706217564435e-01,-3.693087319065616742e-02
9.330000000000000515e-01,3.750522226252460678e-01,-1.328327181650831301e-01,1.837258820449271246e-01
9.340000000000000524e-01,7.842204071692129852e-02,-3.579161873232211133e-01,2.770846248309775106e-01
9.350000000000000533e-01,-3.015662701077560515e-01,-3.363790090143636280e-01,1.665261019880590609e-01
9.360000000000000542e-01,-4.436298020465435643e-01,-1.123680361354716939e-01,-2.922504809809199633e-02
9.370000000000000551e-01,-3.981550065141000738e-01,1.905402206443850832e-01,-2.159642738418100782e-01
9.379999999999999449e-01,-5.081731352030879195e-02,3.874699524285610819e-01,-2.680724598178990115e-01
9.389999999999999458e-01,2.928529069034036536e-01,3.105072381012937144e-01,-1.634668392357946920e-01
9.399999999999999467e-01,5.054911966843671500e-01,9.408466587062580544e-02,3.817786649013590189e-02
9.409999999999999476e-01,3.599427825795752378e-01,-2.089697026902160026e-01,2.099366622412264793e-01
9.419999999999999485e-01,-2.065877069731701567e-03,-3.639619643655723769e-01,3.180538589005970085e-01
9.429999999999999494e-01,-3.393744681959341980e-01,-3.287439464099415343e-01,1.951162111563681800e-01
9.439999999999999503e-01,-4.925324320279005907e-01,-6.379348867681590429e-02,-3.395427927601991219e-02
9.449999999999999512e-01,-3.153513886874932948e-01,2.515781901178124058e-01,-2.345760726176920608e-01
9.459999999999999520e-01,3.089653622024194496e-02,3.788355070079865161e-01,-3.060562149389339237e-01
9.469999999999999529e-01,3.611563836885001710e-01,2.905677118935544589e-01,-1.689190002806280899e-01
9.479999999999999538e-01,4.800203636590469336e-01,1.626466683683560829e-02,4.449437052652761848e-02
9.489999999999999547e-01,2.943663689414739437e-01,-2.986960584120768036e-01,2.340204184076085658e-01
9.499999999999999556e-01,3.503440413697168074e-05,-4.136516040209374800e-01,3.009244679077545670e-01
9.509999999999999565e-01,-3.712482864507559155e-01,-2.427174603965327748e-01,1.625989630156434163e-01
9.519999999999999574e-01,-4.850462719443280890e-01,4.291137261983776763e-02,-3.809824158040412551e-02
9.529999999999999583e-01,-2.569711317436505493e-01,3.345660323745038300e-01,-2.428690046220126075e-01
9.539999999999999591e-01,5.805054511446196275e-02,3.750035328716486704e-01,-2.567282909021945669e-01
9.549999999999999600e-01,4.175530041145119053e-01,2.384365709551888035e-01,-1.618510600164385360e-01
9.559999999999999609e-01,4.660888594284491315e-01,-1.058678063958374410e-01,6.350302540818587860e-02
9.569999999999999618e-01,2.754591101574837553e-01,-3.083080464977587809e-01,2.274771542852787043e-01
9.579999999999999627e-01,-1.138123425179235759e-01,-3.979316005144798996e-01,2.550117777600552360e-01
9.589999999999999636e-01,-3.779878870842178773e-01,-1.858625838937685848e-01,1.093865941706532730e-01
9.599999999999999645e-01,-4.806525609010934841e-01,1.001165735516593019e-01,-7.787670612334222919e-02
9.609999999999999654e-01,-2.391166242809535103e-01,3.423283822140890664e-01,-2.580514025835829450e-01
9.619999999999999662e-01,1.717638069797448319e-01,3.412217469183208562e-01,-2.428517399118499676e-01
9.629999999999999671e-01,4.129935748657398431e-01,1.851605990791419520e-01,-1.375884479828252682e-01
9.639999999999999680e-01,4.507514520506547551e-01,-1.371441947848383303e-01,5.658967751686255765e-02
9.649999999999999689e-01,1.695894684417052212e-01,-3.584277098332591671e-01,2.673320295620504328e-01
9.659999999999999698e-01,-1.710782467441098187e-01,-3.386670733118448129e-01,2.424765655754753668e-01
9.669999999999999707e-01,-4.569386125079610839e-01,-1.587833440200447366e-01,1.185598399389778956e-01
9.679999999999999716e-01,-4.384375489845511176e-01,1.886701875598554845e-01,-8.352276891645527002e-02
9.689999999999999725e-01,-1.463783309422249657e-01,3.575248358253454439e-01,-2.266683685355976863e-01
9.699999999999999734e-01,2.068727364717356521e-01,3.143160526012738210e-01,-2.416333330845527871e-01
9.709999999999999742e-01,4.646190331907942284e-01,9.504608884429578686e-02,-9.431576478855535628e-02
9.719999999999999751e-01,4.292886261227832345e-01,-1.989662433269905328e-01,5.947866945037964814e-02
9.729999999999999760e-01,1.540376035233734509e-01,-3.901172198473030206e-01,2.453835339229461232e-01
9.739999999999999769e-01,-2.165815539762334374e-01,-2.934028763344642132e-01,2.485610318043177946e-01
9.749999999999999778e-01,-4.741741677092650153e-01,-4.503746212331912607e-02,1.034734233637736173e-01
9.759999999999999787e-01,-3.985983113102994913e-01,2.147854953234652198e-01,-1.224241735070724230e-01
9.769999999999999796e-01,-1.143393061157017276e-01,4.000545344034436845e-01,-2.589734032185675439e-01
9.779999999999999805e-01,2.783964089446023804e-01,2.972239453885346383e-01,-2.729315851577416852e-01
9.789999999999999813e-01,4.938968534086057294e-01,1.010326946093904020e-02,-1.236734577884601172e-01
9.799999999999999822e-01,3.936848786893728525e-01,-2.520662152324157912e-01,1.406304513587678384e-01
9.809999999999999831e-01,5.619765266807911358e-02,-3.592473057554600446e-01,2.504171390314609558e-01
9.819999999999999840e-01,-3.120093832899137887e-01,-2.608400715562191330e-01,2.874221978213739037e-01
9.829999999999999849e-01,-4.878376544662744174e-01,-1.776993070189430632e-02,1.012277433536371146e-01
9.839999999999999858e-01,-3.802118173700453907e-01,2.892874273536744645e-01,-1.086952427562106055e-01
9.849999999999999867e-01,-5.222186427653112417e-02,3.767368071951314734e-01,-2.603859156781624384e-01
9.859999999999999876e-01,3.038850757829451021e-01,2.513284307001059092e-01,-2.697639591695848993e-01
9.869999999999999885e-01,4.511696790502416898e-01,-2.496338026175158945e-02,-1.025857987651055125e-01
9.879999999999999893e-01,3.272982429544044614e-01,-3.066728182829639437e-01,1.303551763879720049e-01
9.889999999999999902e-01,-9.311196352576638774e-03,-3.915625249736956470e-01,2.811969900218491691e-01
9.899999999999999911e-01,-3.049026005080410218e-01,-1.763560559301611264e-01,2.357979082439226604e-01
9.909999999999999920e-01,-4.779056041850571757e-01,6.552616790734862307e-02,7.242876162632617965e-02
9.919999999999999929e-01,-3.547060987964446022e-01,3.314652711465321810e-01,-1.583964906296249364e-01
9.929999999999999938e-01,1.780754502415807933e-02,4.128883876976331413e-01,-2.797751904424613523e-01
9.939999999999999947e-01,3.307620050567370296e-01,1.848090960022773233e-01,-2.598254919489089709e-01
9.949999999999999956e-01,5.054910626123517714e-01,-1.136262727891999141e-01,-7.890774080712653626e-02
9.959999999999999964e-01,3.444586347531843340e-01,-3.516156660380699295e-01,1.669885416413181001e-01
9.969999999999999973e-01,-3.867628942748906062e-02,-3.583764991310106618e-01,2.415563386789057465e-01
9.979999999999999982e-01,-3.429147648367763535e-01,-1.395869886069532884e-01,2.707213902229769209e-01
9.989999999999999991e-01,-4.676860301479490167e-01,1.925123058529217279e-01,7.425174860842678748e-02
1.000000000000000000e+00,-2.829288894024125645e-01,3.939390816942924811e-01,-1.396268135951932998e-01
1.000999999999999890e+00,5.466648341935174960e-02,3.573636354780302948e-01,-2.788096586308288494e-01
1.002000000000000002e+00,3.874979334501365558e-01,1.351352866525177554e-01,-2.162527661919345923e-01
1.002999999999999892e+00,4.879626846800843021e-01,-2.357176780434886154e-01,-5.114117040816397453e-02
1.004000000000000004e+00,2.564081759351141687e-01,-3.617795278278231885e-01,1.641566559976925799e-01
1.004999999999999893e+00,-1.300742052633082069e-01,-3.425810064947500400e-01,3.057166689484540067e-01
1.006000000000000005e+00,-4.221520902270891606e-01,-6.549216314707849429e-02,2.375069863404816739e-01
1.006999999999999895e+00,-4.653095123474378370e-01,2.136606652515984917e-01,1.157404218330861101e-02
1.008000000000000007e+00,-2.256501923012134980e-01,3.951656176983336932e-01,-2.013291483698569362e-01
1.008999999999999897e+00,1.322272498635937432e-01,2.986869037194445076e-01,-3.165349222504841298e-01
1.010000000000000009e+00,3.951523028446364827e-01,2.215521321094845661e-02,-2.084601165343307194e-01
1.010999999999999899e+00,4.322823988818472185e-01,-2.521449434288804414e-01,-3.321674349924757380e-02
1.012000000000000011e+00,2.090966106439957894e-01,-3.815349938990504897e-01,1.808080087699868443e-01
1.012999999999999901e+00,-1.791381437065338034e-01,-2.554255152874357893e-01,2.867821065795580493e-01
1.014000000000000012e+00,-4.194647445613979841e-01,-7.281262056851857574e-03,2.094601088254622046e-01
1.014999999999999902e+00,-4.114663912537862012e-01,2.901214631966378965e-01,2.125017939409693316e-02
1.016000000000000014e+00,-1.599553365846340391e-01,3.844091121845037984e-01,-1.702017469920780457e-01
1.016999999999999904e+00,2.046286327312225317e-01,2.096405765176156122e-01,-2.767646044937931427e-01
1.018000000000000016e+00,4.285507385192045549e-01,-4.200175539565772359e-02,-2.190380794551625709e-01
1.018999999999999906e+00,4.319607010138894476e-01,-2.611287232647738765e-01,-1.354178577038861291e-02
1.020000000000000018e+00,1.458364793277295846e-01,-3.673380837625862538e-01,1.602111805274705758e-01
1.020999999999999908e+00,-2.398138722171239690e-01,-2.406970497845856150e-01,2.788161502854907825e-01
1.022000000000000020e+00,-4.725029053694161929e-01,4.897340316493418999e-02,1.816989159619164240e-01
1.022999999999999909e+00,-3.782329630103146156e-01,3.217312108616787181e-01,2.319722090742801571e-02
1.024000000000000021e+00,-8.861872977614100588e-02,3.432471484013519536e-01,-2.011274198512421341e-01
1.024999999999999911e+00,2.833606986728718913e-01,1.918562935106579992e-01,-2.764823422927512597e-01
1.026000000000000023e+00,4.411609789105957469e-01,-1.456982079607081759e-01,-1.710812453225191154e-01
1.026999999999999913e+00,3.823448607079368289e-01,-3.698616784694965798e-01,3.168925316492614969e-02
1.028000000000000025e+00,8.844549773851781427e-02,-3.479856638841516414e-01,1.754349835884637387e-01
1.028999999999999915e+00,-2.522238717088565729e-01,-1.372181289578241481e-01,3.119778386064257503e-01
1.030000000000000027e+00,-4.925605003957005401e-01,1.464363870652166943e-01,1.774174172401823679e-01
1.030999999999999917e+00,-3.870960536445341993e-01,3.896696323277243912e-01,-3.529030949355415475e-02
1.032000000000000028e+00,-6.115281573813476090e-02,3.489754838883034060e-01,-2.410626029168766726e-01
1.032999999999999918e+00,2.920865656660733833e-01,1.266882721568620418e-01,-2.649086956092032152e-01
1.034000000000000030e+00,4.663829571408111829e-01,-1.755715677330481062e-01,-1.696181457054461716e-01
1.034999999999999920e+00,3.600708782733628710e-01,-3.342056276150616179e-01,4.235447054209924567e-03
1.036000000000000032e+00,3.625914257957523444e-03,-2.966132768163451949e-01,2.487615830547751095e-01
1.036999999999999922e+00,-3.346824213445646623e-01,-8.770840634059749730e-02,2.644435866193022289e-01
1.038000000000000034e+00,-4.989476173724750052e-01,2.470123135394944880e-01,2.234072631404049880e-01
1.038999999999999924e+00,-3.387304153667332618e-01,3.861258233810622165e-01,-4.243757294160670213e-02
1.040000000000000036e+00,-5.012345189438678801e-03,2.774653288139979357e-01,-2.399137435028671494e-01
1.040999999999999925e+00,3.407313029448826303e-01,3.807295022814013302e-02,-2.623803228151826428e-01
1.042000000000000037e+00,4.797789227191972539e-01,-2.254106318168050405e-01,-1.857699405810726845e-01
1.042999999999999927e+00,3.502543440029771138e-01,-3.701215271148409203e-01,7.278611461242161240e-02
1.044000000000000039e+00,-7.652612086343650588e-02,-2.707286385592893585e-01,2.802110205005585719e-01
1.044999999999999929e+00,-3.675759404343955095e-01,-1.767037889614581428e-02,3.056768555967587231e-01
1.046000000000000041e+00,-5.085138149255314932e-01,2.685555607061656525e-01,1.526663378756055733e-01
1.046999999999999931e+00,-2.702928856623351694e-01,3.762298221187871938e-01,-6.957270707338597537e-02
1.048000000000000043e+00,7.121066777896879751e-02,2.286743790682958799e-01,-2.636812857566074308e-01
1.048999999999999932e+00,3.800792321168365295e-01,-1.277148873167638712e-02,-2.744106360880433360e-01
1.050000000000000044e+00,4.521316970685315684e-01,-2.727210686183108024e-01,-1.525528645629160851e-01
1.050999999999999934e+00,2.490111622087463061e-01,-3.904621533255033250e-01,5.915043604076919426e-02
1.052000000000000046e+00,-1.272469589808432333e-01,-2.409584773122072920e-01,2.440677672299680911e-01
1.052999999999999936e+00,-4.102748547448395455e-01,8.493981634618684440e-02,2.857573253147376313e-01
1.054000000000000048e+00,-4.903215835999159000e-01,3.279217136960775880e-01,1.264398213750629330e-01
1.054999999999999938e+00,-2.486502316574574489e-01,3.526539883801628195e-01,-1.141063894152213876e-01
1.056000000000000050e+00,1.432278076046979709e-01,1.777495675609402914e-01,-2.407338767305624572e-01
1.056999999999999940e+00,4.316644961887575738e-01,-8.253675299893240003e-02,-2.913294025374174590e-01
1.058000000000000052e+00,4.448035862108410954e-01,-3.803484879470616087e-01,-1.191416884302449186e-01
1.058999999999999941e+00,1.937291551611896312e-01,-3.816204124373626105e-01,6.850467392865784710e-02
1.060000000000000053e+00,-1.927909432468812856e-01,-1.875260895427150465e-01,2.529317785862748025e-01
1.060999999999999943e+00,-4.173175049999710562e-01,1.755239851316774125e-01,2.967666179414021332e-01
1.062000000000000055e+00,-4.450268780193479823e-01,3.649122914882312885e-01,9.363438883689496894e-02
1.062999999999999945e+00,-1.607220360933987457e-01,3.584393483557963278e-01,-9.769026890258149243e-02
1.064000000000000057e+00,1.941941377685175718e-01,1.339572410557720028e-01,-2.439404473569701248e-01
1.064999999999999947e+00,4.807348553465766727e-01,-1.797482737812398368e-01,-2.448738645129218405e-01
1.066000000000000059e+00,4.372873606149841330e-01,-3.576893595116439339e-01,-1.211885153545293609e-01
1.066999999999999948e+00,1.659489341493177172e-01,-3.341672453376192120e-01,9.755322946888668467e-02
1.068000000000000060e+00,-2.463542293912018566e-01,-9.859798203922494342e-02,2.516938456396922708e-01
1.068999999999999950e+00,-4.534609419268249564e-01,2.242926713264924710e-01,2.782329489895299934e-01
1.070000000000000062e+00,-4.304508015608681792e-01,3.816838386877240974e-01,9.791309808191636654e-02
1.070999999999999952e+00,-1.632129425517376831e-01,2.935830736335985347e-01,-1.002162953237357296e-01
1.072000000000000064e+00,2.376459375105497984e-01,5.159149016239957669e-02,-3.099564641373926954e-01
1.072999999999999954e+00,4.789257407544022516e-01,-2.556904685289616008e-01,-2.366976924759336409e-01
1.074000000000000066e+00,4.036893066174006561e-01,-3.694276834096644202e-01,-1.046695436290276948e-01
1.074999999999999956e+00,1.203264201929761662e-01,-2.706395992302930154e-01,1.325211940197979499e-01
1.076000000000000068e+00,-2.925947190036925494e-01,-2.379100304112750919e-04,2.638255646414297551e-01
1.076999999999999957e+00,-5.116874257080866739e-01,2.786471299824701542e-01,2.464909137931489691e-01
1.078000000000000069e+00,-4.178827639698525220e-01,3.603767906605433446e-01,1.053417428346040824e-01
1.078999999999999959e+00,-8.156240231790272410e-02,2.751553719452443092e-01,-1.391497546581890732e-01
1.080000000000000071e+00,3.031844509663785270e-01,-4.361944364176990885e-02,-2.251851646515029559e-01
1.080999999999999961e+00,4.809121744236705687e-01,-3.141337538966491594e-01,-2.435553819615181581e-01
1.082000000000000073e+00,3.750206438238871121e-01,-3.876433482178907042e-01,-7.689586724440827803e-02
1.082999999999999963e+00,5.493579312996185737e-02,-1.852633055757977876e-01,1.513262499874383771e-01
1.084000000000000075e+00,-3.164369708229534672e-01,8.591682703886047157e-02,2.351376278294051436e-01
1.084999999999999964e+00,-4.696334432839253670e-01,3.629422408978264514e-01,2.350991717312157780e-01
1.086000000000000076e+00,-3.761881250018483391e-01,3.875827484800382638e-01,7.359633121011814605e-02
1.086999999999999966e+00,-7.349109795667859227e-03,1.914132189248820559e-01,-1.648974846578873110e-01
1.088000000000000078e+00,3.495247078746672176e-01,-8.008792893088592657e-02,-3.063245985370274815e-01
1.088999999999999968e+00,4.622615628217729422e-01,-3.295473949893807375e-01,-2.322253752278439221e-01
1.090000000000000080e+00,3.015217336780581792e-01,-4.011671909322684915e-01,-7.598797107284709085e-02
1.090999999999999970e+00,-2.061936159147103806e-03,-1.741659144266744508e-01,1.434604831071877029e-01
1.092000000000000082e+00,-3.885119866126784949e-01,1.408954982164180858e-01,2.591552699064791909e-01
1.092999999999999972e+00,-4.837275737284771893e-01,3.803173896100598417e-01,2.084748784005937550e-01
1.094000000000000083e+00,-3.118316693722531507e-01,3.524574527831665360e-01,4.992760269834107395e-02
1.094999999999999973e+00,1.113056933263262827e-01,1.427808551365984113e-01,-1.954956451788965877e-01
1.096000000000000085e+00,3.607701779948344623e-01,-1.993893090279631186e-01,-2.700270447812074259e-01
1.096999999999999975e+00,4.689769518661732750e-01,-3.775759147830034523e-01,-2.289728041144249993e-01
1.098000000000000087e+00,2.745621382706787683e-01,-3.096822885051087049e-01,-4.906107558186011824e-02
1.098999999999999977e+00,-8.555421945523761229e-02,-8.569697433334177994e-02,1.722172961004528047e-01
1.100000000000000089e+00,-3.941233744098652236e-01,2.177538939573011312e-01,3.020494697572473908e-01
1.100999999999999979e+00,-4.723452189341282303e-01,3.699446737148018860e-01,1.961184926121196381e-01
1.102000000000000091e+00,-2.649203791424879495e-01,2.863005251003530316e-01,-5.731269624325393240e-03
1.102999999999999980e+00,1.303285912030567595e-01,3.449873584521694764e-02,-1.779087527158015603e-01
1.104000000000000092e+00,4.138098165437020803e-01,-2.618578864149833652e-01,-2.903950830271270767e-01
1.104999999999999982e+00,4.676918311213406065e-01,-3.461312292806746349e-01,-2.124148971323327750e-01
1.106000000000000094e+00,2.205242606336368094e-01,-3.311728477994094200e-01,-4.447540069408859736e-02
1.106999999999999984e+00,-1.410867372575412004e-01,1.590124630211597889e-02,1.993650918639501834e-01
1.108000000000000096e+00,-4.226947094014116280e-01,2.503379146165101710e-01,2.840464081270847041e-01
1.108999999999999986e+00,-4.336977242961794765e-01,3.906173179930947370e-01,1.901607804645893407e-01
1.110000000000000098e+00,-1.632885410770405221e-01,2.701934749418747894e-01,-3.465149554946782371e-03
1.110999999999999988e+00,1.690915047385647685e-01,-2.854603631723768090e-02,-1.913587503058153116e-01
1.112000000000000099e+00,4.305293489672262774e-01,-3.125438543985707973e-01,-2.925766079586612500e-01
1.112999999999999989e+00,4.458001375559790813e-01,-4.172027815499720349e-01,-2.024821850916407040e-01
1.114000000000000101e+00,1.698334840830243719e-01,-2.336713098155028534e-01,-1.800122329388075329e-02
1.114999999999999991e+00,-1.907255771298457248e-01,5.676647166464435929e-02,1.756013002569162818e-01
1.116000000000000103e+00,-4.691136058538083464e-01,3.098278642647150916e-01,3.199632801942003946e-01
1.116999999999999993e+00,-3.706927002196482301e-01,3.920977932893654483e-01,2.056633594482526750e-01
1.118000000000000105e+00,-1.439505499425619284e-01,2.112262297924878685e-01,-1.319264978960431279e-03
1.118999999999999995e+00,2.045879223942066449e-01,-5.106471534437931337e-02,-2.711991819505138457e-01
1.120000000000000107e+00,4.490044846838893156e-01,-3.311414860433295471e-01,-2.997632940106511046e-01
1.120999999999999996e+00,3.916695655984406832e-01,-3.532754921612898391e-01,-2.137523667174313358e-01
1.122000000000000108e+00,5.932133479006265753e-02,-1.677325435308032742e-01,1.245259735643520138e-03
1.122999999999999998e+00,-3.152238084742483015e-01,1.303798509217130863e-01,2.082073356137109088e-01
1.124000000000000110e+00,-4.699232561511742512e-01,3.666303938589513534e-01,2.759960340332055506e-01
1.125000000000000000e+00,-3.723937929586103035e-01,3.390643016575209390e-01,2.024068491908646017e-01
1.125999999999999890e+00,-5.137497611635105654e-02,1.676326553731733449e-01,-3.952193195020669431e-02
1.127000000000000002e+00,2.961423828809509606e-01,-1.880752491796798265e-01,-1.900290832928131501e-01
1.127999999999999892e+00,4.711549337760987388e-01,-3.342631346668410997e-01,-2.787357319321474569e-01
1.129000000000000004e+00,3.592545993241603175e-01,-2.784083634447273581e-01,-1.644649679515070573e-01
1.129999999999999893e+00,2.187454265731542460e-02,-1.064926416682904775e-01,7.013811469662695197e-02
1.131000000000000005e+00,-3.232569397153094437e-01,1.877826423757097407e-01,2.337008949513130207e-01
1.131999999999999895e+00,-4.803619334857957557e-01,3.756461467047097491e-01,3.103784131256920320e-01
1.133000000000000007e+00,-3.329773370188401360e-01,2.860883032414577309e-01,2.051928458046132220e-01
1.133999999999999897e+00,-1.136273082049904168e-02,5.409439795108451909e-02,-3.873640602162112256e-02
1.135000000000000009e+00,3.720593351161416984e-01,-2.462694210360248381e-01,-2.471106194836778513e-01
1.135999999999999899e+00,4.612625140795635903e-01,-3.754634465150979428e-01,-2.924306982851287429e-01
1.137000000000000011e+00,2.676250233204360840e-01,-3.026205273465724654e-01,-1.585307150625135386e-01
1.137999999999999901e+00,-3.147262384334160307e-02,-1.293953788889122547e-02,5.757383808496036731e-02
1.139000000000000012e+00,-3.525498377362418778e-01,2.529467530433050504e-01,2.522326339576986820e-01
1.139999999999999902e+00,-4.704686555097344347e-01,3.798706801969142788e-01,2.855461492586171546e-01
1.141000000000000014e+00,-2.766328257388958600e-01,2.997337869130368149e-01,1.173772063007110372e-01
1.141999999999999904e+00,4.060983459835984521e-02,1.171782759991573915e-03,-5.801081886863289350e-02
1.143000000000000016e+00,4.214683331111303555e-01,-2.789389091257346576e-01,-2.457439988266499897e-01
1.143999999999999906e+00,5.119309672005935008e-01,-3.741745789104412023e-01,-2.932886663658060833e-01
1.145000000000000018e+00,2.811229521699658007e-01,-2.319170705752846839e-01,-1.273846766258721619e-01
1.145999999999999908e+00,-1.059398875740147627e-01,2.109176611518558120e-02,6.716217165559003333e-02
1.147000000000000020e+00,-4.219213974070892270e-01,3.319488648801682262e-01,2.671707113931753308e-01
1.147999999999999909e+00,-4.945123402574755356e-01,4.037160747926703541e-01,2.569375393061132939e-01
1.149000000000000021e+00,-2.305217543212650377e-01,2.195958111016334813e-01,1.261935296956215868e-01
1.149999999999999911e+00,1.043024682378898838e-01,-6.298358763339297062e-02,-6.243114963358551567e-02
1.151000000000000023e+00,4.060990332534042957e-01,-3.434465113154670513e-01,-2.729731745984707580e-01
1.151999999999999913e+00,4.542873432018429969e-01,-3.861015739302481320e-01,-2.719026744539284612e-01
1.153000000000000025e+00,2.421955533443444775e-01,-1.996289249944807054e-01,-1.498793879101163184e-01
1.153999999999999915e+00,-1.655220019926664232e-01,1.387793895152521773e-01,9.150015323756020835e-02
1.155000000000000027e+00,-4.117332335529818588e-01,3.489114912964726978e-01,2.294779624288397213e-01
1.155999999999999917e+00,-4.339418209108014124e-01,3.416061823517791973e-01,2.825965640229694542e-01
1.157000000000000028e+00,-2.096792536930019157e-01,1.577215821633743964e-01,9.707507040027811562e-02
1.157999999999999918e+00,1.834770817884241179e-01,-1.722064764189402686e-01,-8.336052895003875918e-02
1.159000000000000030e+00,4.451637716597355854e-01,-3.608113845182964186e-01,-2.668803068195533812e-01
1.159999999999999920e+00,4.537019342669655342e-01,-3.180290629961862736e-01,-2.576963144389451399e-01
1.161000000000000032e+00,1.424000814729352860e-01,-9.060263183294768596e-02,-1.179525107692522279e-01
1.161999999999999922e+00,-2.217908850956427924e-01,2.029276191664880769e-01,1.369551339969879433e-01
1.163000000000000034e+00,-4.361705232292991674e-01,3.886886400281077125e-01,2.668397778718641367e-01
1.163999999999999924e+00,-4.352348069271541053e-01,3.418365307051108859e-01,2.705518400521876310e-01
1.165000000000000036e+00,-1.098217231640927216e-01,8.896677944941802640e-02,9.331841048201858224e-02
1.165999999999999925e+00,2.302452696265741283e-01,-2.463189413194521171e-01,-9.182704180874251554e-02
1.167000000000000037e+00,4.518138938493765910e-01,-3.950780779652449670e-01,-2.886094893943255690e-01
1.167999999999999927e+00,3.841761277308746725e-01,-2.891700764082045239e-01,-2.626773351990435712e-01
1.169000000000000039e+00,7.076361294024648141e-02,-2.273683066956814353e-02,-1.116666386003801331e-01
1.169999999999999929e+00,-2.590028115308252166e-01,2.265091967004647933e-01,1.376868308129981511e-01
1.171000000000000041e+00,-4.656027983048510177e-01,3.707543622119979787e-01,2.738377782515656889e-01
1.171999999999999931e+00,-3.798793971370932332e-01,2.837563218637599305e-01,2.326222704538234987e-01
1.173000000000000043e+00,-3.831890848072198180e-02,5.285519851533484158e-03,6.313393598517631766e-02
1.173999999999999932e+00,2.611867102677285501e-01,-2.808506825767015380e-01,-1.231896305524935453e-01
1.175000000000000044e+00,4.670794302355796290e-01,-3.793907238779913871e-01,-2.656800567799800783e-01
1.175999999999999934e+00,3.368728978371832716e-01,-2.186248796545638973e-01,-2.550373414388288906e-01
1.177000000000000046e+00,5.044530864076508803e-02,4.738985057142169888e-02,-9.303428218340821509e-02
1.177999999999999936e+00,-3.339371326676766616e-01,3.157368003320913386e-01,1.648086666506192732e-01
1.179000000000000048e+00,-4.523999228676006679e-01,3.651502445830644983e-01,2.589600133394668324e-01
1.179999999999999938e+00,-3.407481379107699104e-01,1.941070972363599378e-01,1.998814874490149884e-01
1.181000000000000050e+00,1.110153402881846815e-03,-6.833391348359034445e-02,3.802274234194708002e-02
